success,timeout,failed_images,failed_audio,failed_video,trial_type,trial_index,time_elapsed,internal_node_id,subject_id,rt,stimulus,response,part,slider_start,ID,set_ID,prob,amount,last_location,actual_choice,actual_EV,binary_id,trinary_id,catch,A_key,D_key,choice_prob,choice_amount,potential_prize_prob,potential_prize_amount,won_prize,remaining_budget,total_prize
TRUE,FALSE,[],[],[],preload,0,4,0.0-0.0,e945a69c-3c1d-47e5-8dcc-c414004fbdc8,,,,,,,,,,,,,,,,,,,,,,,,
,,,,,html-keyboard-response,1,8707,0.0-1.0,e945a69c-3c1d-47e5-8dcc-c414004fbdc8,null,"
          <h1>שלום וברוכים הבאים!</h1>
          <p>לפניכם ניסוי בקבלת החלטות עם שני חלקים.
          <br><br>לחצו על העכבר כדי להמשיך.</p>",0,example,,,,,,,,,,,,,,,,,,,,
,,,,,html-keyboard-response,2,19394,0.0-2.0,e945a69c-3c1d-47e5-8dcc-c414004fbdc8,null,"
        <h1>חלק 1</h1>
        <p>בקרוב יוצגו בפניכם הגרלות.
        <br>עליכם לבחור את המחיר המירבי שתהיו מוכנים לשלם כדי להשתתף בהגרלה שתוצג.
        <br>יש לכם תקציב של ₪80 לכל הגרלה. 
        <br>נסו להעריך כל הגרלה בנפרד ולחשוב כמה היא שווה עבורכם, ₪80 זמינים לכל הגרלה בנפרד.
        <br><br>לחצו על העכבר כדי להמשיך.</p>",1,instructions,,,,,,,,,,,,,,,,,,,,
,,,,,html-keyboard-response,3,30786,0.0-3.0,e945a69c-3c1d-47e5-8dcc-c414004fbdc8,null,"
        <p>בסוף הניסוי, המחשב יבחר את אחת ההגרלות ויקבע מחיר לכרטיס עבורה. 
        <br>במידה והמחיר שבחרתם נמוך מהמחיר שנבחר על ידי המחשב, לא תשתתפו בהגרלה ותשארו עם מלוא התקציב.
        <br>במידה והמחיר שבחרתם גבוה מהמחיר שנבחר על ידי המחשב, תשלמו את המחיר שנקבע ותשתתפו בהגרלה.
        <br><br>לחצו על העכבר כדי להמשיך.</p>",1,instructions,,,,,,,,,,,,,,,,,,,,
,,,,,html-slider-response,4,47474,0.0-4.0,e945a69c-3c1d-47e5-8dcc-c414004fbdc8,16578,"
        <p style=""font-size: 42px;"">נתחיל עם דוגמא: 
        <br>ההגרלה מטה מציעה 65% סיכוי לזכות ב-₪40 
        <br>&emsp;&emsp;&emsp;&emsp;&emsp;&emsp;&emsp;&emsp;&ensp;35% סיכוי לזכות ב-₪0.
        <br><br>מה המחיר המירבי שתהיו מוכנים לשלם על כרטיס להגרלה זו בין 0 ל-₪80?
        <br>הזיזו את העכבר על פני המלבן ולחצו כדי לבצע בחירה.</p>
        
        <p style=""text-align: center;"">₪40<br>65%</p>

        <p id=""wtp"" style=""text-align:center; margin-top: 0px; margin-bottom: 0px; font-size: 40px"";>מוכנים לשלם: <span id=""c_p_y""></span></p>",5,example,52,,,,,,,,,,,,,,,,,,,
,,,,,html-keyboard-response,5,61386,0.0-5.0,e945a69c-3c1d-47e5-8dcc-c414004fbdc8,null,"<p>יפה מאוד!
                <br> בחרתם שתהיו מוכנים לשלם ₪5 כדי להשתתף בהגרלה:
                <br><p style=""text-align: center;"">₪40<br>65%</p>
                <p>נשמע נכון?
                <br>נניח שהגרלה זו נבחרה בסוף הניסוי.
                <br>כעת המחשב יקבע מחיר עבורה באקראי.
                <br>לחצו על העכבר להמשך.</p>",1,example,,,,,,,,,,,,,,,,,,,,
,,,,,html-keyboard-response,6,70442,0.0-6.0,e945a69c-3c1d-47e5-8dcc-c414004fbdc8,null,"<p>המחשב קבע מחיר: ₪24
                <br>ואתם בחרתם לשלם לכל היותר: ₪5
                <br><br>מכיוון שהמחיר שבחרתם נמוך מהמחיר שנקבע, לא תתשתתפו בהגרלה.
                <br>במקרה כזה, בסוף הניסוי תקבלו את כל התקציב ההתחלתי של ₪80.
                <br><br>לחצו על העכבר להמשך.</p>",1,example,,,,,,,,,,,,,,,,,,,,
,,,,,html-slider-response,7,82299,0.0-7.0,e945a69c-3c1d-47e5-8dcc-c414004fbdc8,11603,"<p style=""font-size: 42px;"">הנה עוד דוגמא:
                <br>ההגרלה מטה מציעה 35% סיכוי לזכות ב-₪18 
                <br>&emsp;&emsp;&emsp;&emsp;&emsp;&emsp;&emsp;&emsp;&ensp;65% סיכוי לזכות ב-₪0.</p>
        
                <p style=""text-align: center;"">₪18<br>35%</p>
                <p id=""wtp"" style=""text-align:center; margin-top: 0px; margin-bottom: 0px; font-size: 40px"";>מוכנים לשלם: <span id=""c_p_y""></span></p>",2,example,37,,,,,,,,,,,,,,,,,,,
,,,,,html-keyboard-response,8,90147,0.0-8.0,e945a69c-3c1d-47e5-8dcc-c414004fbdc8,null,"<p>הייתם מוכנים לשלם  ₪2 כדי להשתתף בהגרלה:
                <p style=""text-align: center;"">₪18<br>35%</p>
                <p>כעת נניח שהמחשב בחר את ההגרלה הזו בסוף הניסוי, וקבע עבורה מחיר.
                <br><br>לחצו על העכבר כדי להמשיך.</p>",1,instructions,,,,,,,,,,,,,,,,,,,,
,,,,,html-keyboard-response,9,110587,0.0-9.0,e945a69c-3c1d-47e5-8dcc-c414004fbdc8,null,"<p>המחשב קבע מחיר להגרלה: ₪2
                <br>ואתם בחרתם לשלם לכל היותר: ₪2
                <br><br>כעת המחיר שנקבע זהה לזה שבחרתם, אז תשלמו את המחיר שקבע המחשב (₪2) ותשתתפו בהגרלה.
                <br>במקרה כזה, תסיימו את הניסוי עם תקציב של ₪78 ועם סיכוי לזכות ב-₪18 נוספים מההגרלה.
                <br>כלומר, תוכלו לקבל ₪78 אם לא תזכו בהגרלה, או ₪96 אם תזכו בהגרלה.
                <br><br>לחצו על העכבר להמשך.</p>",1,example,,,,,,,,,,,,,,,,,,,,
,,,,,html-keyboard-response,10,119923,0.0-10.0,e945a69c-3c1d-47e5-8dcc-c414004fbdc8,null,"<p>במהלך הניסוי, קודם תראו את ההגרלה ורק לאחר מכן תוכלו לבחור.
                <p>כמו כן, יהיו לכם מספר שניות מוגבל להגיב.
                <p>בואו ננסה זאת עם ההגרלה הקודמת.
                <br>לחצו על העכבר כדי להמשיך.</p>",1,instructions,,,,,,,,,,,,,,,,,,,,
,,,,,html-slider-response,11,121189,0.0-11.0,e945a69c-3c1d-47e5-8dcc-c414004fbdc8,1000,"
                    <p style=""text-align: center;"">₪18<br>35%</p>
                    <p id=""wtp"" style=""text-align:center; margin-top: 0px; margin-bottom: 0px; font-size: 40px"";>&ensp;</p>",53,instructions,0,,,,,,,,,,,,,,,,,,,
,,,,,html-slider-response,12,125455,0.0-12.0,e945a69c-3c1d-47e5-8dcc-c414004fbdc8,null,"
                    <p style=""text-align: center;"">₪18<br>35%</p>
                    <p id=""wtp"" style=""text-align:center; margin-top: 0px; margin-bottom: 0px; font-size: 40px"";>מוכנים לשלם: <span id=""c_p_y""></span></p>",null,instructions,41,,,,,,,,,,,,,,,,,,,
,,,,,html-keyboard-response,13,125723,0.0-13.0,e945a69c-3c1d-47e5-8dcc-c414004fbdc8,null,"<p>לא הגבתם בזמן המוקצב לתגובה. 
                <br>נסו להגיב מהר יותר בפעם הבאה.
                <br><br>לחצו על העכבר כדי להמשיך.</p>",1,instructions,,,,,,,,,,,,,,,,,,,,
,,,,,html-slider-response,14,128323,0.0-14.0-0.0,e945a69c-3c1d-47e5-8dcc-c414004fbdc8,2340,"
                    <p style=""text-align: center;"">₪40<br>65%</p>
                    <p id=""wtp"" style=""text-align:center; margin-top: 0px; margin-bottom: 0px; font-size: 40px"";>מוכנים לשלם: <span id=""c_p_y""></span></p>",3,instructions,72,,,,,,,,,,,,,,,,,,,
,,,,,html-keyboard-response,15,134147,0.0-14.0-1.0,e945a69c-3c1d-47e5-8dcc-c414004fbdc8,null,"<p>יפה. הפעם בחרתם לשלם לכל היותר ₪3.
                <br><br>לחצו על העכבר כדי להמשיך.</p>",1,instructions,,,,,,,,,,,,,,,,,,,,
,,,,,html-keyboard-response,16,146171,0.0-15.0,e945a69c-3c1d-47e5-8dcc-c414004fbdc8,null,"<p>כעת נתחיל את הניסוי.
                <br><br>אתם תראו הגרלות ותתבקשו לבחור כמה תהיו מוכנים לשלם כדי להשתתף בהן.
                <br>יש לכם תקציב של ₪80 עבור כל הגרלה.
                <br>בסוף הניסוי הגרלה אחת תבחר באקראי ותשוחק.
                <br><br>לחצו על העכבר כדי להתחיל את הניסוי.</p>",1,instructions,,,,,,,,,,,,,,,,,,,,
,,,,,html-keyboard-response,17,147438,0.0-16.0,e945a69c-3c1d-47e5-8dcc-c414004fbdc8,null,"<p style=""text-align: center;"">+</p>",null,fixation,,,,,,,,,,,,,,,,,,,,
,,,,,html-slider-response,18,148443,0.0-17.0-0.0,e945a69c-3c1d-47e5-8dcc-c414004fbdc8,1000,"
                  <p style=""text-align: center;"">₪71
                                                <br>55%</p>
                  <p id=""wtp"" style=""text-align:center; margin-top: 0px; margin-bottom: 0px; font-size: 40px"";>&ensp;</p>",-,viewing,0,27,"5B,18A",,,,,,,,,,,,,,,,,
,,,,,html-slider-response,19,150987,0.0-17.0-1.0,e945a69c-3c1d-47e5-8dcc-c414004fbdc8,2542,"
                  <p style=""text-align: center;"">₪71
                                                <br>55%</p>
                  <p id=""wtp"" style=""text-align:center; margin-top: 0px; margin-bottom: 0px; font-size: 40px"";>מוכנים לשלם: <span id=""c_p_y""></span></p>",8,evaluation,2,27,"5B,18A",55,71,9,,,,,,,,,,,,,,
,,,,,html-keyboard-response,20,151801,0.0-17.0-2.0,e945a69c-3c1d-47e5-8dcc-c414004fbdc8,null,"<p style=""text-align: center;"">+</p>",null,fixation,,,,,,,,,,,,,,,,,,,,
,,,,,html-slider-response,21,152819,0.0-17.0-0.1,e945a69c-3c1d-47e5-8dcc-c414004fbdc8,1000,"
                  <p style=""text-align: center;"">₪18
                                                <br>50%</p>
                  <p id=""wtp"" style=""text-align:center; margin-top: 0px; margin-bottom: 0px; font-size: 40px"";>&ensp;</p>",-,viewing,0,10,"2C,16C,22B,28A",,,,,,,,,,,,,,,,,
,,,,,html-slider-response,22,156831,0.0-17.0-1.1,e945a69c-3c1d-47e5-8dcc-c414004fbdc8,null,"
                  <p style=""text-align: center;"">₪18
                                                <br>50%</p>
                  <p id=""wtp"" style=""text-align:center; margin-top: 0px; margin-bottom: 0px; font-size: 40px"";>מוכנים לשלם: <span id=""c_p_y""></span></p>",null,evaluation,74,10,"2C,16C,22B,28A",50,18,3,,,,,,,,,,,,,,
,,,,,html-keyboard-response,23,157942,0.0-17.0-2.1,e945a69c-3c1d-47e5-8dcc-c414004fbdc8,null,"<p style=""text-align: center;"">+</p>",null,fixation,,,,,,,,,,,,,,,,,,,,
,,,,,html-slider-response,24,158948,0.0-17.0-0.2,e945a69c-3c1d-47e5-8dcc-c414004fbdc8,1000,"
                  <p style=""text-align: center;"">₪4
                                                <br>75%</p>
                  <p id=""wtp"" style=""text-align:center; margin-top: 0px; margin-bottom: 0px; font-size: 40px"";>&ensp;</p>",-,viewing,0,3,"12B,20B,23B,27C,29C",,,,,,,,,,,,,,,,,
,,,,,html-slider-response,25,160211,0.0-17.0-1.2,e945a69c-3c1d-47e5-8dcc-c414004fbdc8,1262,"
                  <p style=""text-align: center;"">₪4
                                                <br>75%</p>
                  <p id=""wtp"" style=""text-align:center; margin-top: 0px; margin-bottom: 0px; font-size: 40px"";>מוכנים לשלם: <span id=""c_p_y""></span></p>",0,evaluation,38,3,"12B,20B,23B,27C,29C",75,4,0,,,,,,,,,,,,,,
,,,,,html-keyboard-response,26,160868,0.0-17.0-2.2,e945a69c-3c1d-47e5-8dcc-c414004fbdc8,null,"<p style=""text-align: center;"">+</p>",null,fixation,,,,,,,,,,,,,,,,,,,,
,,,,,html-slider-response,27,161881,0.0-17.0-0.3,e945a69c-3c1d-47e5-8dcc-c414004fbdc8,1000,"
                  <p style=""text-align: center;"">₪16
                                                <br>20%</p>
                  <p id=""wtp"" style=""text-align:center; margin-top: 0px; margin-bottom: 0px; font-size: 40px"";>&ensp;</p>",-,viewing,0,8,"14C,17A,20C,27A",,,,,,,,,,,,,,,,,
,,,,,html-slider-response,28,165894,0.0-17.0-1.3,e945a69c-3c1d-47e5-8dcc-c414004fbdc8,null,"
                  <p style=""text-align: center;"">₪16
                                                <br>20%</p>
                  <p id=""wtp"" style=""text-align:center; margin-top: 0px; margin-bottom: 0px; font-size: 40px"";>מוכנים לשלם: <span id=""c_p_y""></span></p>",null,evaluation,63,8,"14C,17A,20C,27A",20,16,1,,,,,,,,,,,,,,
,,,,,html-keyboard-response,29,167097,0.0-17.0-2.3,e945a69c-3c1d-47e5-8dcc-c414004fbdc8,null,"<p style=""text-align: center;"">+</p>",null,fixation,,,,,,,,,,,,,,,,,,,,
,,,,,html-slider-response,30,168110,0.0-17.0-0.4,e945a69c-3c1d-47e5-8dcc-c414004fbdc8,1000,"
                  <p style=""text-align: center;"">₪58
                                                <br>30%</p>
                  <p id=""wtp"" style=""text-align:center; margin-top: 0px; margin-bottom: 0px; font-size: 40px"";>&ensp;</p>",-,viewing,0,19,"13C,30A",,,,,,,,,,,,,,,,,
,,,,,html-slider-response,31,171307,0.0-17.0-1.4,e945a69c-3c1d-47e5-8dcc-c414004fbdc8,3196,"
                  <p style=""text-align: center;"">₪58
                                                <br>30%</p>
                  <p id=""wtp"" style=""text-align:center; margin-top: 0px; margin-bottom: 0px; font-size: 40px"";>מוכנים לשלם: <span id=""c_p_y""></span></p>",5,evaluation,36,19,"13C,30A",30,58,5,,,,,,,,,,,,,,
,,,,,html-keyboard-response,32,172020,0.0-17.0-2.4,e945a69c-3c1d-47e5-8dcc-c414004fbdc8,null,"<p style=""text-align: center;"">+</p>",null,fixation,,,,,,,,,,,,,,,,,,,,
,,,,,html-slider-response,33,173036,0.0-17.0-0.5,e945a69c-3c1d-47e5-8dcc-c414004fbdc8,1000,"
                  <p style=""text-align: center;"">₪71
                                                <br>45%</p>
                  <p id=""wtp"" style=""text-align:center; margin-top: 0px; margin-bottom: 0px; font-size: 40px"";>&ensp;</p>",-,viewing,0,26,"2B,16A",,,,,,,,,,,,,,,,,
,,,,,html-slider-response,34,175947,0.0-17.0-1.5,e945a69c-3c1d-47e5-8dcc-c414004fbdc8,2909,"
                  <p style=""text-align: center;"">₪71
                                                <br>45%</p>
                  <p id=""wtp"" style=""text-align:center; margin-top: 0px; margin-bottom: 0px; font-size: 40px"";>מוכנים לשלם: <span id=""c_p_y""></span></p>",5,evaluation,44,26,"2B,16A",45,71,6,,,,,,,,,,,,,,
,,,,,html-keyboard-response,35,176954,0.0-17.0-2.5,e945a69c-3c1d-47e5-8dcc-c414004fbdc8,null,"<p style=""text-align: center;"">+</p>",null,fixation,,,,,,,,,,,,,,,,,,,,
,,,,,html-slider-response,36,177967,0.0-17.0-0.6,e945a69c-3c1d-47e5-8dcc-c414004fbdc8,1000,"
                  <p style=""text-align: center;"">₪43
                                                <br>60%</p>
                  <p id=""wtp"" style=""text-align:center; margin-top: 0px; margin-bottom: 0px; font-size: 40px"";>&ensp;</p>",-,viewing,0,17,"2A,7A,9A,15B",,,,,,,,,,,,,,,,,
,,,,,html-slider-response,37,180627,0.0-17.0-1.6,e945a69c-3c1d-47e5-8dcc-c414004fbdc8,2659,"
                  <p style=""text-align: center;"">₪43
                                                <br>60%</p>
                  <p id=""wtp"" style=""text-align:center; margin-top: 0px; margin-bottom: 0px; font-size: 40px"";>מוכנים לשלם: <span id=""c_p_y""></span></p>",3,evaluation,56,17,"2A,7A,9A,15B",60,43,4,,,,,,,,,,,,,,
,,,,,html-keyboard-response,38,181980,0.0-17.0-2.6,e945a69c-3c1d-47e5-8dcc-c414004fbdc8,null,"<p style=""text-align: center;"">+</p>",null,fixation,,,,,,,,,,,,,,,,,,,,
,,,,,html-slider-response,39,182993,0.0-17.0-0.7,e945a69c-3c1d-47e5-8dcc-c414004fbdc8,1000,"
                  <p style=""text-align: center;"">₪58
                                                <br>45%</p>
                  <p id=""wtp"" style=""text-align:center; margin-top: 0px; margin-bottom: 0px; font-size: 40px"";>&ensp;</p>",-,viewing,0,21,"11C,18C,25A",,,,,,,,,,,,,,,,,
,,,,,html-slider-response,40,186211,0.0-17.0-1.7,e945a69c-3c1d-47e5-8dcc-c414004fbdc8,3216,"
                  <p style=""text-align: center;"">₪58
                                                <br>45%</p>
                  <p id=""wtp"" style=""text-align:center; margin-top: 0px; margin-bottom: 0px; font-size: 40px"";>מוכנים לשלם: <span id=""c_p_y""></span></p>",2,evaluation,5,21,"11C,18C,25A",45,58,3,,,,,,,,,,,,,,
,,,,,html-keyboard-response,41,186759,0.0-17.0-2.7,e945a69c-3c1d-47e5-8dcc-c414004fbdc8,null,"<p style=""text-align: center;"">+</p>",null,fixation,,,,,,,,,,,,,,,,,,,,
,,,,,html-slider-response,42,187766,0.0-17.0-0.8,e945a69c-3c1d-47e5-8dcc-c414004fbdc8,1000,"
                  <p style=""text-align: center;"">₪64
                                                <br>25%</p>
                  <p id=""wtp"" style=""text-align:center; margin-top: 0px; margin-bottom: 0px; font-size: 40px"";>&ensp;</p>",-,viewing,0,24,"6A,21A",,,,,,,,,,,,,,,,,
,,,,,html-slider-response,43,191243,0.0-17.0-1.8,e945a69c-3c1d-47e5-8dcc-c414004fbdc8,3476,"
                  <p style=""text-align: center;"">₪64
                                                <br>25%</p>
                  <p id=""wtp"" style=""text-align:center; margin-top: 0px; margin-bottom: 0px; font-size: 40px"";>מוכנים לשלם: <span id=""c_p_y""></span></p>",2,evaluation,47,24,"6A,21A",25,64,3,,,,,,,,,,,,,,
,,,,,html-keyboard-response,44,192356,0.0-17.0-2.8,e945a69c-3c1d-47e5-8dcc-c414004fbdc8,null,"<p style=""text-align: center;"">+</p>",null,fixation,,,,,,,,,,,,,,,,,,,,
,,,,,html-slider-response,45,193368,0.0-17.0-0.9,e945a69c-3c1d-47e5-8dcc-c414004fbdc8,1000,"
                  <p style=""text-align: center;"">₪64
                                                <br>50%</p>
                  <p id=""wtp"" style=""text-align:center; margin-top: 0px; margin-bottom: 0px; font-size: 40px"";>&ensp;</p>",-,viewing,0,25,"1B,3B,4A",,,,,,,,,,,,,,,,,
,,,,,html-slider-response,46,197375,0.0-17.0-1.9,e945a69c-3c1d-47e5-8dcc-c414004fbdc8,null,"
                  <p style=""text-align: center;"">₪64
                                                <br>50%</p>
                  <p id=""wtp"" style=""text-align:center; margin-top: 0px; margin-bottom: 0px; font-size: 40px"";>מוכנים לשלם: <span id=""c_p_y""></span></p>",null,evaluation,20,25,"1B,3B,4A",50,64,7,,,,,,,,,,,,,,
,,,,,html-keyboard-response,47,197922,0.0-17.0-2.9,e945a69c-3c1d-47e5-8dcc-c414004fbdc8,null,"<p style=""text-align: center;"">+</p>",null,fixation,,,,,,,,,,,,,,,,,,,,
,,,,,html-slider-response,48,198937,0.0-17.0-0.10,e945a69c-3c1d-47e5-8dcc-c414004fbdc8,1000,"
                  <p style=""text-align: center;"">₪61
                                                <br>55%</p>
                  <p id=""wtp"" style=""text-align:center; margin-top: 0px; margin-bottom: 0px; font-size: 40px"";>&ensp;</p>",-,viewing,0,23,"7B,26B",,,,,,,,,,,,,,,,,
,,,,,html-slider-response,49,201803,0.0-17.0-1.10,e945a69c-3c1d-47e5-8dcc-c414004fbdc8,2864,"
                  <p style=""text-align: center;"">₪61
                                                <br>55%</p>
                  <p id=""wtp"" style=""text-align:center; margin-top: 0px; margin-bottom: 0px; font-size: 40px"";>מוכנים לשלם: <span id=""c_p_y""></span></p>",6,evaluation,67,23,"7B,26B",55,61,7,,,,,,,,,,,,,,
,,,,,html-keyboard-response,50,202430,0.0-17.0-2.10,e945a69c-3c1d-47e5-8dcc-c414004fbdc8,null,"<p style=""text-align: center;"">+</p>",null,fixation,,,,,,,,,,,,,,,,,,,,
,,,,,html-slider-response,51,203440,0.0-17.0-0.11,e945a69c-3c1d-47e5-8dcc-c414004fbdc8,1000,"
                  <p style=""text-align: center;"">₪39
                                                <br>65%</p>
                  <p id=""wtp"" style=""text-align:center; margin-top: 0px; margin-bottom: 0px; font-size: 40px"";>&ensp;</p>",-,viewing,0,16,"1A,15A,26C",,,,,,,,,,,,,,,,,
,,,,,html-slider-response,52,206139,0.0-17.0-1.11,e945a69c-3c1d-47e5-8dcc-c414004fbdc8,2697,"
                  <p style=""text-align: center;"">₪39
                                                <br>65%</p>
                  <p id=""wtp"" style=""text-align:center; margin-top: 0px; margin-bottom: 0px; font-size: 40px"";>מוכנים לשלם: <span id=""c_p_y""></span></p>",6,evaluation,75,16,"1A,15A,26C",65,39,7,,,,,,,,,,,,,,
,,,,,html-keyboard-response,53,206682,0.0-17.0-2.11,e945a69c-3c1d-47e5-8dcc-c414004fbdc8,null,"<p style=""text-align: center;"">+</p>",null,fixation,,,,,,,,,,,,,,,,,,,,
,,,,,html-slider-response,54,207686,0.0-17.0-0.12,e945a69c-3c1d-47e5-8dcc-c414004fbdc8,1000,"
                  <p style=""text-align: center;"">₪58
                                                <br>40%</p>
                  <p id=""wtp"" style=""text-align:center; margin-top: 0px; margin-bottom: 0px; font-size: 40px"";>&ensp;</p>",-,viewing,0,20,"10C,13A,19C,21B",,,,,,,,,,,,,,,,,
,,,,,html-slider-response,55,211003,0.0-17.0-1.12,e945a69c-3c1d-47e5-8dcc-c414004fbdc8,3316,"
                  <p style=""text-align: center;"">₪58
                                                <br>40%</p>
                  <p id=""wtp"" style=""text-align:center; margin-top: 0px; margin-bottom: 0px; font-size: 40px"";>מוכנים לשלם: <span id=""c_p_y""></span></p>",4,evaluation,18,20,"10C,13A,19C,21B",40,58,5,,,,,,,,,,,,,,
,,,,,html-keyboard-response,56,211778,0.0-17.0-2.12,e945a69c-3c1d-47e5-8dcc-c414004fbdc8,null,"<p style=""text-align: center;"">+</p>",null,fixation,,,,,,,,,,,,,,,,,,,,
,,,,,html-slider-response,57,212790,0.0-17.0-0.13,e945a69c-3c1d-47e5-8dcc-c414004fbdc8,1000,"
                  <p style=""text-align: center;"">₪71
                                                <br>75%</p>
                  <p id=""wtp"" style=""text-align:center; margin-top: 0px; margin-bottom: 0px; font-size: 40px"";>&ensp;</p>",-,viewing,0,28,8B,,,,,,,,,,,,,,,,,
,,,,,html-slider-response,58,215995,0.0-17.0-1.13,e945a69c-3c1d-47e5-8dcc-c414004fbdc8,3203,"
                  <p style=""text-align: center;"">₪71
                                                <br>75%</p>
                  <p id=""wtp"" style=""text-align:center; margin-top: 0px; margin-bottom: 0px; font-size: 40px"";>מוכנים לשלם: <span id=""c_p_y""></span></p>",7,evaluation,38,28,8B,75,71,7,,,,,,,,,,,,,,
,,,,,html-keyboard-response,59,216975,0.0-17.0-2.13,e945a69c-3c1d-47e5-8dcc-c414004fbdc8,null,"<p style=""text-align: center;"">+</p>",null,fixation,,,,,,,,,,,,,,,,,,,,
,,,,,html-slider-response,60,217990,0.0-17.0-0.14,e945a69c-3c1d-47e5-8dcc-c414004fbdc8,1000,"
                  <p style=""text-align: center;"">₪79
                                                <br>40%</p>
                  <p id=""wtp"" style=""text-align:center; margin-top: 0px; margin-bottom: 0px; font-size: 40px"";>&ensp;</p>",-,viewing,0,30,9B,,,,,,,,,,,,,,,,,
,,,,,html-slider-response,61,220899,0.0-17.0-1.14,e945a69c-3c1d-47e5-8dcc-c414004fbdc8,2907,"
                  <p style=""text-align: center;"">₪79
                                                <br>40%</p>
                  <p id=""wtp"" style=""text-align:center; margin-top: 0px; margin-bottom: 0px; font-size: 40px"";>מוכנים לשלם: <span id=""c_p_y""></span></p>",3,evaluation,3,30,9B,40,79,4,,,,,,,,,,,,,,
,,,,,html-keyboard-response,62,221534,0.0-17.0-2.14,e945a69c-3c1d-47e5-8dcc-c414004fbdc8,null,"<p style=""text-align: center;"">+</p>",null,fixation,,,,,,,,,,,,,,,,,,,,
,,,,,html-slider-response,63,222552,0.0-17.0-0.15,e945a69c-3c1d-47e5-8dcc-c414004fbdc8,1000,"
                  <p style=""text-align: center;"">₪39
                                                <br>60%</p>
                  <p id=""wtp"" style=""text-align:center; margin-top: 0px; margin-bottom: 0px; font-size: 40px"";>&ensp;</p>",-,viewing,0,15,"9C,25B",,,,,,,,,,,,,,,,,
,,,,,html-slider-response,64,225427,0.0-17.0-1.15,e945a69c-3c1d-47e5-8dcc-c414004fbdc8,2874,"
                  <p style=""text-align: center;"">₪39
                                                <br>60%</p>
                  <p id=""wtp"" style=""text-align:center; margin-top: 0px; margin-bottom: 0px; font-size: 40px"";>מוכנים לשלם: <span id=""c_p_y""></span></p>",4,evaluation,13,15,"9C,25B",60,39,5,,,,,,,,,,,,,,
,,,,,html-keyboard-response,65,226445,0.0-17.0-2.15,e945a69c-3c1d-47e5-8dcc-c414004fbdc8,null,"<p style=""text-align: center;"">+</p>",null,fixation,,,,,,,,,,,,,,,,,,,,
,,,,,html-slider-response,66,227461,0.0-17.0-0.16,e945a69c-3c1d-47e5-8dcc-c414004fbdc8,1000,"
                  <p style=""text-align: center;"">₪36
                                                <br>30%</p>
                  <p id=""wtp"" style=""text-align:center; margin-top: 0px; margin-bottom: 0px; font-size: 40px"";>&ensp;</p>",-,viewing,0,11,"3C,20A,22A",,,,,,,,,,,,,,,,,
,,,,,html-slider-response,67,231211,0.0-17.0-1.16,e945a69c-3c1d-47e5-8dcc-c414004fbdc8,3749,"
                  <p style=""text-align: center;"">₪36
                                                <br>30%</p>
                  <p id=""wtp"" style=""text-align:center; margin-top: 0px; margin-bottom: 0px; font-size: 40px"";>מוכנים לשלם: <span id=""c_p_y""></span></p>",4,evaluation,33,11,"3C,20A,22A",30,36,5,,,,,,,,,,,,,,
,,,,,html-keyboard-response,68,232319,0.0-17.0-2.16,e945a69c-3c1d-47e5-8dcc-c414004fbdc8,null,"<p style=""text-align: center;"">+</p>",null,fixation,,,,,,,,,,,,,,,,,,,,
,,,,,html-slider-response,69,233334,0.0-17.0-0.17,e945a69c-3c1d-47e5-8dcc-c414004fbdc8,1000,"
                  <p style=""text-align: center;"">₪61
                                                <br>45%</p>
                  <p id=""wtp"" style=""text-align:center; margin-top: 0px; margin-bottom: 0px; font-size: 40px"";>&ensp;</p>",-,viewing,0,22,"10A,11A",,,,,,,,,,,,,,,,,
,,,,,html-slider-response,70,236699,0.0-17.0-1.17,e945a69c-3c1d-47e5-8dcc-c414004fbdc8,3363,"
                  <p style=""text-align: center;"">₪61
                                                <br>45%</p>
                  <p id=""wtp"" style=""text-align:center; margin-top: 0px; margin-bottom: 0px; font-size: 40px"";>מוכנים לשלם: <span id=""c_p_y""></span></p>",4,evaluation,29,22,"10A,11A",45,61,4,,,,,,,,,,,,,,
,,,,,html-keyboard-response,71,237707,0.0-17.0-2.17,e945a69c-3c1d-47e5-8dcc-c414004fbdc8,null,"<p style=""text-align: center;"">+</p>",null,fixation,,,,,,,,,,,,,,,,,,,,
,,,,,html-slider-response,72,238721,0.0-17.0-0.18,e945a69c-3c1d-47e5-8dcc-c414004fbdc8,1000,"
                  <p style=""text-align: center;"">₪11
                                                <br>75%</p>
                  <p id=""wtp"" style=""text-align:center; margin-top: 0px; margin-bottom: 0px; font-size: 40px"";>&ensp;</p>",-,viewing,0,7,"6B,18B,22C,24C,29A",,,,,,,,,,,,,,,,,
,,,,,html-slider-response,73,240939,0.0-17.0-1.18,e945a69c-3c1d-47e5-8dcc-c414004fbdc8,2217,"
                  <p style=""text-align: center;"">₪11
                                                <br>75%</p>
                  <p id=""wtp"" style=""text-align:center; margin-top: 0px; margin-bottom: 0px; font-size: 40px"";>מוכנים לשלם: <span id=""c_p_y""></span></p>",3,evaluation,29,7,"6B,18B,22C,24C,29A",75,11,3,,,,,,,,,,,,,,
,,,,,html-keyboard-response,74,242405,0.0-17.0-2.18,e945a69c-3c1d-47e5-8dcc-c414004fbdc8,null,"<p style=""text-align: center;"">+</p>",null,fixation,,,,,,,,,,,,,,,,,,,,
,,,,,html-slider-response,75,243419,0.0-17.0-0.19,e945a69c-3c1d-47e5-8dcc-c414004fbdc8,1000,"
                  <p style=""text-align: center;"">₪79
                                                <br>65%</p>
                  <p id=""wtp"" style=""text-align:center; margin-top: 0px; margin-bottom: 0px; font-size: 40px"";>&ensp;</p>",-,viewing,0,31,8A,,,,,,,,,,,,,,,,,
,,,,,html-slider-response,76,247430,0.0-17.0-1.19,e945a69c-3c1d-47e5-8dcc-c414004fbdc8,null,"
                  <p style=""text-align: center;"">₪79
                                                <br>65%</p>
                  <p id=""wtp"" style=""text-align:center; margin-top: 0px; margin-bottom: 0px; font-size: 40px"";>מוכנים לשלם: <span id=""c_p_y""></span></p>",null,evaluation,28,31,8A,65,79,7,,,,,,,,,,,,,,
,,,,,html-keyboard-response,77,248669,0.0-17.0-2.19,e945a69c-3c1d-47e5-8dcc-c414004fbdc8,null,"<p style=""text-align: center;"">+</p>",null,fixation,,,,,,,,,,,,,,,,,,,,
,,,,,html-slider-response,78,249672,0.0-17.0-0.20,e945a69c-3c1d-47e5-8dcc-c414004fbdc8,1000,"
                  <p style=""text-align: center;"">₪4
                                                <br>50%</p>
                  <p id=""wtp"" style=""text-align:center; margin-top: 0px; margin-bottom: 0px; font-size: 40px"";>&ensp;</p>",-,viewing,0,2,"4C,17B",,,,,,,,,,,,,,,,,
,,,,,html-slider-response,79,251843,0.0-17.0-1.20,e945a69c-3c1d-47e5-8dcc-c414004fbdc8,2170,"
                  <p style=""text-align: center;"">₪4
                                                <br>50%</p>
                  <p id=""wtp"" style=""text-align:center; margin-top: 0px; margin-bottom: 0px; font-size: 40px"";>מוכנים לשלם: <span id=""c_p_y""></span></p>",2,evaluation,71,2,"4C,17B",50,4,3,,,,,,,,,,,,,,
,,,,,html-keyboard-response,80,252971,0.0-17.0-2.20,e945a69c-3c1d-47e5-8dcc-c414004fbdc8,null,"<p style=""text-align: center;"">+</p>",null,fixation,,,,,,,,,,,,,,,,,,,,
,,,,,html-slider-response,81,253984,0.0-17.0-0.21,e945a69c-3c1d-47e5-8dcc-c414004fbdc8,1000,"
                  <p style=""text-align: center;"">₪11
                                                <br>20%</p>
                  <p id=""wtp"" style=""text-align:center; margin-top: 0px; margin-bottom: 0px; font-size: 40px"";>&ensp;</p>",-,viewing,0,4,"12C,17C,23C,28C",,,,,,,,,,,,,,,,,
,,,,,html-slider-response,82,256667,0.0-17.0-1.21,e945a69c-3c1d-47e5-8dcc-c414004fbdc8,2683,"
                  <p style=""text-align: center;"">₪11
                                                <br>20%</p>
                  <p id=""wtp"" style=""text-align:center; margin-top: 0px; margin-bottom: 0px; font-size: 40px"";>מוכנים לשלם: <span id=""c_p_y""></span></p>",1,evaluation,80,4,"12C,17C,23C,28C",20,11,2,,,,,,,,,,,,,,
,,,,,html-keyboard-response,83,257768,0.0-17.0-2.21,e945a69c-3c1d-47e5-8dcc-c414004fbdc8,null,"<p style=""text-align: center;"">+</p>",null,fixation,,,,,,,,,,,,,,,,,,,,
,,,,,html-slider-response,84,258781,0.0-17.0-0.22,e945a69c-3c1d-47e5-8dcc-c414004fbdc8,1000,"
                  <p style=""text-align: center;"">₪36
                                                <br>75%</p>
                  <p id=""wtp"" style=""text-align:center; margin-top: 0px; margin-bottom: 0px; font-size: 40px"";>&ensp;</p>",-,viewing,0,14,"4B,5A,13B,16B",,,,,,,,,,,,,,,,,
,,,,,html-slider-response,85,261595,0.0-17.0-1.22,e945a69c-3c1d-47e5-8dcc-c414004fbdc8,2813,"
                  <p style=""text-align: center;"">₪36
                                                <br>75%</p>
                  <p id=""wtp"" style=""text-align:center; margin-top: 0px; margin-bottom: 0px; font-size: 40px"";>מוכנים לשלם: <span id=""c_p_y""></span></p>",8,evaluation,56,14,"4B,5A,13B,16B",75,36,9,,,,,,,,,,,,,,
,,,,,html-keyboard-response,86,262589,0.0-17.0-2.22,e945a69c-3c1d-47e5-8dcc-c414004fbdc8,null,"<p style=""text-align: center;"">+</p>",null,fixation,,,,,,,,,,,,,,,,,,,,
,,,,,html-slider-response,87,263595,0.0-17.0-0.23,e945a69c-3c1d-47e5-8dcc-c414004fbdc8,1000,"
                  <p style=""text-align: center;"">₪11
                                                <br>45%</p>
                  <p id=""wtp"" style=""text-align:center; margin-top: 0px; margin-bottom: 0px; font-size: 40px"";>&ensp;</p>",-,viewing,0,6,"14B,21C,25C",,,,,,,,,,,,,,,,,
,,,,,html-slider-response,88,266475,0.0-17.0-1.23,e945a69c-3c1d-47e5-8dcc-c414004fbdc8,2879,"
                  <p style=""text-align: center;"">₪11
                                                <br>45%</p>
                  <p id=""wtp"" style=""text-align:center; margin-top: 0px; margin-bottom: 0px; font-size: 40px"";>מוכנים לשלם: <span id=""c_p_y""></span></p>",3,evaluation,11,6,"14B,21C,25C",45,11,4,,,,,,,,,,,,,,
,,,,,html-keyboard-response,89,267698,0.0-17.0-2.23,e945a69c-3c1d-47e5-8dcc-c414004fbdc8,null,"<p style=""text-align: center;"">+</p>",null,fixation,,,,,,,,,,,,,,,,,,,,
,,,,,html-slider-response,90,268712,0.0-17.0-0.24,e945a69c-3c1d-47e5-8dcc-c414004fbdc8,1000,"
                  <p style=""text-align: center;"">₪11
                                                <br>25%</p>
                  <p id=""wtp"" style=""text-align:center; margin-top: 0px; margin-bottom: 0px; font-size: 40px"";>&ensp;</p>",-,viewing,0,5,"12A,27B,28B,30B",,,,,,,,,,,,,,,,,
,,,,,html-slider-response,91,270939,0.0-17.0-1.24,e945a69c-3c1d-47e5-8dcc-c414004fbdc8,2226,"
                  <p style=""text-align: center;"">₪11
                                                <br>25%</p>
                  <p id=""wtp"" style=""text-align:center; margin-top: 0px; margin-bottom: 0px; font-size: 40px"";>מוכנים לשלם: <span id=""c_p_y""></span></p>",1,evaluation,39,5,"12A,27B,28B,30B",25,11,1,,,,,,,,,,,,,,
,,,,,html-keyboard-response,92,271589,0.0-17.0-2.24,e945a69c-3c1d-47e5-8dcc-c414004fbdc8,null,"<p style=""text-align: center;"">+</p>",null,fixation,,,,,,,,,,,,,,,,,,,,
,,,,,html-slider-response,93,272596,0.0-17.0-0.25,e945a69c-3c1d-47e5-8dcc-c414004fbdc8,1000,"
                  <p style=""text-align: center;"">₪43
                                                <br>75%</p>
                  <p id=""wtp"" style=""text-align:center; margin-top: 0px; margin-bottom: 0px; font-size: 40px"";>&ensp;</p>",-,viewing,0,18,"11B,19B,24A,26A",,,,,,,,,,,,,,,,,
,,,,,html-slider-response,94,276283,0.0-17.0-1.25,e945a69c-3c1d-47e5-8dcc-c414004fbdc8,3686,"
                  <p style=""text-align: center;"">₪43
                                                <br>75%</p>
                  <p id=""wtp"" style=""text-align:center; margin-top: 0px; margin-bottom: 0px; font-size: 40px"";>מוכנים לשלם: <span id=""c_p_y""></span></p>",5,evaluation,23,18,"11B,19B,24A,26A",75,43,6,,,,,,,,,,,,,,
,,,,,html-keyboard-response,95,277110,0.0-17.0-2.25,e945a69c-3c1d-47e5-8dcc-c414004fbdc8,null,"<p style=""text-align: center;"">+</p>",null,fixation,,,,,,,,,,,,,,,,,,,,
,,,,,html-slider-response,96,278120,0.0-17.0-0.26,e945a69c-3c1d-47e5-8dcc-c414004fbdc8,1000,"
                  <p style=""text-align: center;"">₪4
                                                <br>25%</p>
                  <p id=""wtp"" style=""text-align:center; margin-top: 0px; margin-bottom: 0px; font-size: 40px"";>&ensp;</p>",-,viewing,0,1,"6C,29B,30C",,,,,,,,,,,,,,,,,
,,,,,html-slider-response,97,280907,0.0-17.0-1.26,e945a69c-3c1d-47e5-8dcc-c414004fbdc8,2786,"
                  <p style=""text-align: center;"">₪4
                                                <br>25%</p>
                  <p id=""wtp"" style=""text-align:center; margin-top: 0px; margin-bottom: 0px; font-size: 40px"";>מוכנים לשלם: <span id=""c_p_y""></span></p>",1,evaluation,78,1,"6C,29B,30C",25,4,2,,,,,,,,,,,,,,
,,,,,html-keyboard-response,98,281777,0.0-17.0-2.26,e945a69c-3c1d-47e5-8dcc-c414004fbdc8,null,"<p style=""text-align: center;"">+</p>",null,fixation,,,,,,,,,,,,,,,,,,,,
,,,,,html-slider-response,99,282782,0.0-17.0-0.27,e945a69c-3c1d-47e5-8dcc-c414004fbdc8,1000,"
                  <p style=""text-align: center;"">₪36
                                                <br>70%</p>
                  <p id=""wtp"" style=""text-align:center; margin-top: 0px; margin-bottom: 0px; font-size: 40px"";>&ensp;</p>",-,viewing,0,13,"3A,5C,10B",,,,,,,,,,,,,,,,,
,,,,,html-slider-response,100,286667,0.0-17.0-1.27,e945a69c-3c1d-47e5-8dcc-c414004fbdc8,3883,"
                  <p style=""text-align: center;"">₪36
                                                <br>70%</p>
                  <p id=""wtp"" style=""text-align:center; margin-top: 0px; margin-bottom: 0px; font-size: 40px"";>מוכנים לשלם: <span id=""c_p_y""></span></p>",9,evaluation,62,13,"3A,5C,10B",70,36,10,,,,,,,,,,,,,,
,,,,,html-keyboard-response,101,288159,0.0-17.0-2.27,e945a69c-3c1d-47e5-8dcc-c414004fbdc8,null,"<p style=""text-align: center;"">+</p>",null,fixation,,,,,,,,,,,,,,,,,,,,
,,,,,html-slider-response,102,289162,0.0-17.0-0.28,e945a69c-3c1d-47e5-8dcc-c414004fbdc8,1000,"
                  <p style=""text-align: center;"">₪18
                                                <br>25%</p>
                  <p id=""wtp"" style=""text-align:center; margin-top: 0px; margin-bottom: 0px; font-size: 40px"";>&ensp;</p>",-,viewing,0,9,"14A,23A",,,,,,,,,,,,,,,,,
,,,,,html-slider-response,103,293171,0.0-17.0-1.28,e945a69c-3c1d-47e5-8dcc-c414004fbdc8,null,"
                  <p style=""text-align: center;"">₪18
                                                <br>25%</p>
                  <p id=""wtp"" style=""text-align:center; margin-top: 0px; margin-bottom: 0px; font-size: 40px"";>מוכנים לשלם: <span id=""c_p_y""></span></p>",null,evaluation,14,9,"14A,23A",25,18,1,,,,,,,,,,,,,,
,,,,,html-keyboard-response,104,293906,0.0-17.0-2.28,e945a69c-3c1d-47e5-8dcc-c414004fbdc8,null,"<p style=""text-align: center;"">+</p>",null,fixation,,,,,,,,,,,,,,,,,,,,
,,,,,html-slider-response,105,294917,0.0-17.0-0.29,e945a69c-3c1d-47e5-8dcc-c414004fbdc8,1000,"
                  <p style=""text-align: center;"">₪76
                                                <br>65%</p>
                  <p id=""wtp"" style=""text-align:center; margin-top: 0px; margin-bottom: 0px; font-size: 40px"";>&ensp;</p>",-,viewing,0,29,"8C,19A,24B",,,,,,,,,,,,,,,,,
,,,,,html-slider-response,106,297555,0.0-17.0-1.29,e945a69c-3c1d-47e5-8dcc-c414004fbdc8,2636,"
                  <p style=""text-align: center;"">₪76
                                                <br>65%</p>
                  <p id=""wtp"" style=""text-align:center; margin-top: 0px; margin-bottom: 0px; font-size: 40px"";>מוכנים לשלם: <span id=""c_p_y""></span></p>",10,evaluation,66,29,"8C,19A,24B",65,76,10,,,,,,,,,,,,,,
,,,,,html-keyboard-response,107,298463,0.0-17.0-2.29,e945a69c-3c1d-47e5-8dcc-c414004fbdc8,null,"<p style=""text-align: center;"">+</p>",null,fixation,,,,,,,,,,,,,,,,,,,,
,,,,,html-slider-response,108,299471,0.0-17.0-0.30,e945a69c-3c1d-47e5-8dcc-c414004fbdc8,1000,"
                  <p style=""text-align: center;"">₪36
                                                <br>60%</p>
                  <p id=""wtp"" style=""text-align:center; margin-top: 0px; margin-bottom: 0px; font-size: 40px"";>&ensp;</p>",-,viewing,0,12,"1C,7C,15C",,,,,,,,,,,,,,,,,
,,,,,html-slider-response,109,302603,0.0-17.0-1.30,e945a69c-3c1d-47e5-8dcc-c414004fbdc8,3131,"
                  <p style=""text-align: center;"">₪36
                                                <br>60%</p>
                  <p id=""wtp"" style=""text-align:center; margin-top: 0px; margin-bottom: 0px; font-size: 40px"";>מוכנים לשלם: <span id=""c_p_y""></span></p>",6,evaluation,40,12,"1C,7C,15C",60,36,6,,,,,,,,,,,,,,
,,,,,html-keyboard-response,110,303314,0.0-17.0-2.30,e945a69c-3c1d-47e5-8dcc-c414004fbdc8,null,"<p style=""text-align: center;"">+</p>",null,fixation,,,,,,,,,,,,,,,,,,,,
,,,,,html-keyboard-response,111,304329,0.0-18.0,e945a69c-3c1d-47e5-8dcc-c414004fbdc8,null,"<p style=""text-align: center;"">+</p>",null,fixation,,,,,,,,,,,,,,,,,,,,
,,,,,html-keyboard-response,112,317691,0.0-19.0,e945a69c-3c1d-47e5-8dcc-c414004fbdc8,null,"<p>הפסקה.
          <br>לחצו כדי להמשיך.</p>",1,scan_wait,,,,,,,,,,,,,,,,,,,,
,,,,,html-keyboard-response,113,318702,0.0-20.0,e945a69c-3c1d-47e5-8dcc-c414004fbdc8,null,"<p style=""text-align: center;"">+</p>",null,fixation,,,,,,,,,,,,,,,,,,,,
,,,,,html-slider-response,114,319712,0.0-21.0-0.0,e945a69c-3c1d-47e5-8dcc-c414004fbdc8,1000,"
                  <p style=""text-align: center;"">₪71
                                                <br>75%</p>
                  <p id=""wtp"" style=""text-align:center; margin-top: 0px; margin-bottom: 0px; font-size: 40px"";>&ensp;</p>",-,viewing,0,28,8B,,,,,,,,,,,,,,,,,
,,,,,html-slider-response,115,322035,0.0-21.0-1.0,e945a69c-3c1d-47e5-8dcc-c414004fbdc8,2321,"
                  <p style=""text-align: center;"">₪71
                                                <br>75%</p>
                  <p id=""wtp"" style=""text-align:center; margin-top: 0px; margin-bottom: 0px; font-size: 40px"";>מוכנים לשלם: <span id=""c_p_y""></span></p>",9,evaluation,50,28,8B,75,71,10,,,,,,,,,,,,,,
,,,,,html-keyboard-response,116,322829,0.0-21.0-2.0,e945a69c-3c1d-47e5-8dcc-c414004fbdc8,null,"<p style=""text-align: center;"">+</p>",null,fixation,,,,,,,,,,,,,,,,,,,,
,,,,,html-slider-response,117,323835,0.0-21.0-0.1,e945a69c-3c1d-47e5-8dcc-c414004fbdc8,1000,"
                  <p style=""text-align: center;"">₪58
                                                <br>30%</p>
                  <p id=""wtp"" style=""text-align:center; margin-top: 0px; margin-bottom: 0px; font-size: 40px"";>&ensp;</p>",-,viewing,0,19,"13C,30A",,,,,,,,,,,,,,,,,
,,,,,html-slider-response,118,327347,0.0-21.0-1.1,e945a69c-3c1d-47e5-8dcc-c414004fbdc8,3510,"
                  <p style=""text-align: center;"">₪58
                                                <br>30%</p>
                  <p id=""wtp"" style=""text-align:center; margin-top: 0px; margin-bottom: 0px; font-size: 40px"";>מוכנים לשלם: <span id=""c_p_y""></span></p>",3,evaluation,19,19,"13C,30A",30,58,4,,,,,,,,,,,,,,
,,,,,html-keyboard-response,119,328446,0.0-21.0-2.1,e945a69c-3c1d-47e5-8dcc-c414004fbdc8,null,"<p style=""text-align: center;"">+</p>",null,fixation,,,,,,,,,,,,,,,,,,,,
,,,,,html-slider-response,120,329452,0.0-21.0-0.2,e945a69c-3c1d-47e5-8dcc-c414004fbdc8,1000,"
                  <p style=""text-align: center;"">₪18
                                                <br>25%</p>
                  <p id=""wtp"" style=""text-align:center; margin-top: 0px; margin-bottom: 0px; font-size: 40px"";>&ensp;</p>",-,viewing,0,9,"14A,23A",,,,,,,,,,,,,,,,,
,,,,,html-slider-response,121,331715,0.0-21.0-1.2,e945a69c-3c1d-47e5-8dcc-c414004fbdc8,2261,"
                  <p style=""text-align: center;"">₪18
                                                <br>25%</p>
                  <p id=""wtp"" style=""text-align:center; margin-top: 0px; margin-bottom: 0px; font-size: 40px"";>מוכנים לשלם: <span id=""c_p_y""></span></p>",1,evaluation,11,9,"14A,23A",25,18,2,,,,,,,,,,,,,,
,,,,,html-keyboard-response,122,332594,0.0-21.0-2.2,e945a69c-3c1d-47e5-8dcc-c414004fbdc8,null,"<p style=""text-align: center;"">+</p>",null,fixation,,,,,,,,,,,,,,,,,,,,
,,,,,html-slider-response,123,333601,0.0-21.0-0.3,e945a69c-3c1d-47e5-8dcc-c414004fbdc8,1000,"
                  <p style=""text-align: center;"">₪36
                                                <br>75%</p>
                  <p id=""wtp"" style=""text-align:center; margin-top: 0px; margin-bottom: 0px; font-size: 40px"";>&ensp;</p>",-,viewing,0,14,"4B,5A,13B,16B",,,,,,,,,,,,,,,,,
,,,,,html-slider-response,124,336955,0.0-21.0-1.3,e945a69c-3c1d-47e5-8dcc-c414004fbdc8,3352,"
                  <p style=""text-align: center;"">₪36
                                                <br>75%</p>
                  <p id=""wtp"" style=""text-align:center; margin-top: 0px; margin-bottom: 0px; font-size: 40px"";>מוכנים לשלם: <span id=""c_p_y""></span></p>",9,evaluation,4,14,"4B,5A,13B,16B",75,36,9,,,,,,,,,,,,,,
,,,,,html-keyboard-response,125,338179,0.0-21.0-2.3,e945a69c-3c1d-47e5-8dcc-c414004fbdc8,null,"<p style=""text-align: center;"">+</p>",null,fixation,,,,,,,,,,,,,,,,,,,,
,,,,,html-slider-response,126,339192,0.0-21.0-0.4,e945a69c-3c1d-47e5-8dcc-c414004fbdc8,1000,"
                  <p style=""text-align: center;"">₪61
                                                <br>55%</p>
                  <p id=""wtp"" style=""text-align:center; margin-top: 0px; margin-bottom: 0px; font-size: 40px"";>&ensp;</p>",-,viewing,0,23,"7B,26B",,,,,,,,,,,,,,,,,
,,,,,html-slider-response,127,342899,0.0-21.0-1.4,e945a69c-3c1d-47e5-8dcc-c414004fbdc8,3705,"
                  <p style=""text-align: center;"">₪61
                                                <br>55%</p>
                  <p id=""wtp"" style=""text-align:center; margin-top: 0px; margin-bottom: 0px; font-size: 40px"";>מוכנים לשלם: <span id=""c_p_y""></span></p>",7,evaluation,66,23,"7B,26B",55,61,8,,,,,,,,,,,,,,
,,,,,html-keyboard-response,128,344026,0.0-21.0-2.4,e945a69c-3c1d-47e5-8dcc-c414004fbdc8,null,"<p style=""text-align: center;"">+</p>",null,fixation,,,,,,,,,,,,,,,,,,,,
,,,,,html-slider-response,129,345032,0.0-21.0-0.5,e945a69c-3c1d-47e5-8dcc-c414004fbdc8,1000,"
                  <p style=""text-align: center;"">₪4
                                                <br>75%</p>
                  <p id=""wtp"" style=""text-align:center; margin-top: 0px; margin-bottom: 0px; font-size: 40px"";>&ensp;</p>",-,viewing,0,3,"12B,20B,23B,27C,29C",,,,,,,,,,,,,,,,,
,,,,,html-slider-response,130,347683,0.0-21.0-1.5,e945a69c-3c1d-47e5-8dcc-c414004fbdc8,2650,"
                  <p style=""text-align: center;"">₪4
                                                <br>75%</p>
                  <p id=""wtp"" style=""text-align:center; margin-top: 0px; margin-bottom: 0px; font-size: 40px"";>מוכנים לשלם: <span id=""c_p_y""></span></p>",0,evaluation,79,3,"12B,20B,23B,27C,29C",75,4,0,,,,,,,,,,,,,,
,,,,,html-keyboard-response,131,348937,0.0-21.0-2.5,e945a69c-3c1d-47e5-8dcc-c414004fbdc8,null,"<p style=""text-align: center;"">+</p>",null,fixation,,,,,,,,,,,,,,,,,,,,
,,,,,html-slider-response,132,349948,0.0-21.0-0.6,e945a69c-3c1d-47e5-8dcc-c414004fbdc8,1000,"
                  <p style=""text-align: center;"">₪18
                                                <br>50%</p>
                  <p id=""wtp"" style=""text-align:center; margin-top: 0px; margin-bottom: 0px; font-size: 40px"";>&ensp;</p>",-,viewing,0,10,"2C,16C,22B,28A",,,,,,,,,,,,,,,,,
,,,,,html-slider-response,133,353147,0.0-21.0-1.6,e945a69c-3c1d-47e5-8dcc-c414004fbdc8,3197,"
                  <p style=""text-align: center;"">₪18
                                                <br>50%</p>
                  <p id=""wtp"" style=""text-align:center; margin-top: 0px; margin-bottom: 0px; font-size: 40px"";>מוכנים לשלם: <span id=""c_p_y""></span></p>",1,evaluation,16,10,"2C,16C,22B,28A",50,18,2,,,,,,,,,,,,,,
,,,,,html-keyboard-response,134,354140,0.0-21.0-2.6,e945a69c-3c1d-47e5-8dcc-c414004fbdc8,null,"<p style=""text-align: center;"">+</p>",null,fixation,,,,,,,,,,,,,,,,,,,,
,,,,,html-slider-response,135,355151,0.0-21.0-0.7,e945a69c-3c1d-47e5-8dcc-c414004fbdc8,1000,"
                  <p style=""text-align: center;"">₪36
                                                <br>70%</p>
                  <p id=""wtp"" style=""text-align:center; margin-top: 0px; margin-bottom: 0px; font-size: 40px"";>&ensp;</p>",-,viewing,0,13,"3A,5C,10B",,,,,,,,,,,,,,,,,
,,,,,html-slider-response,136,358355,0.0-21.0-1.7,e945a69c-3c1d-47e5-8dcc-c414004fbdc8,3203,"
                  <p style=""text-align: center;"">₪36
                                                <br>70%</p>
                  <p id=""wtp"" style=""text-align:center; margin-top: 0px; margin-bottom: 0px; font-size: 40px"";>מוכנים לשלם: <span id=""c_p_y""></span></p>",7,evaluation,26,13,"3A,5C,10B",70,36,7,,,,,,,,,,,,,,
,,,,,html-keyboard-response,137,359476,0.0-21.0-2.7,e945a69c-3c1d-47e5-8dcc-c414004fbdc8,null,"<p style=""text-align: center;"">+</p>",null,fixation,,,,,,,,,,,,,,,,,,,,
,,,,,html-slider-response,138,360492,0.0-21.0-0.8,e945a69c-3c1d-47e5-8dcc-c414004fbdc8,1000,"
                  <p style=""text-align: center;"">₪61
                                                <br>45%</p>
                  <p id=""wtp"" style=""text-align:center; margin-top: 0px; margin-bottom: 0px; font-size: 40px"";>&ensp;</p>",-,viewing,0,22,"10A,11A",,,,,,,,,,,,,,,,,
,,,,,html-slider-response,139,364497,0.0-21.0-1.8,e945a69c-3c1d-47e5-8dcc-c414004fbdc8,null,"
                  <p style=""text-align: center;"">₪61
                                                <br>45%</p>
                  <p id=""wtp"" style=""text-align:center; margin-top: 0px; margin-bottom: 0px; font-size: 40px"";>מוכנים לשלם: <span id=""c_p_y""></span></p>",null,evaluation,56,22,"10A,11A",45,61,9,,,,,,,,,,,,,,
,,,,,html-keyboard-response,140,365582,0.0-21.0-2.8,e945a69c-3c1d-47e5-8dcc-c414004fbdc8,null,"<p style=""text-align: center;"">+</p>",null,fixation,,,,,,,,,,,,,,,,,,,,
,,,,,html-slider-response,141,366586,0.0-21.0-0.9,e945a69c-3c1d-47e5-8dcc-c414004fbdc8,1000,"
                  <p style=""text-align: center;"">₪79
                                                <br>40%</p>
                  <p id=""wtp"" style=""text-align:center; margin-top: 0px; margin-bottom: 0px; font-size: 40px"";>&ensp;</p>",-,viewing,0,30,9B,,,,,,,,,,,,,,,,,
,,,,,html-slider-response,142,370283,0.0-21.0-1.9,e945a69c-3c1d-47e5-8dcc-c414004fbdc8,3697,"
                  <p style=""text-align: center;"">₪79
                                                <br>40%</p>
                  <p id=""wtp"" style=""text-align:center; margin-top: 0px; margin-bottom: 0px; font-size: 40px"";>מוכנים לשלם: <span id=""c_p_y""></span></p>",9,evaluation,4,30,9B,40,79,10,,,,,,,,,,,,,,
,,,,,html-keyboard-response,143,371231,0.0-21.0-2.9,e945a69c-3c1d-47e5-8dcc-c414004fbdc8,null,"<p style=""text-align: center;"">+</p>",null,fixation,,,,,,,,,,,,,,,,,,,,
,,,,,html-slider-response,144,372232,0.0-21.0-0.10,e945a69c-3c1d-47e5-8dcc-c414004fbdc8,1000,"
                  <p style=""text-align: center;"">₪39
                                                <br>65%</p>
                  <p id=""wtp"" style=""text-align:center; margin-top: 0px; margin-bottom: 0px; font-size: 40px"";>&ensp;</p>",-,viewing,0,16,"1A,15A,26C",,,,,,,,,,,,,,,,,
,,,,,html-slider-response,145,375251,0.0-21.0-1.10,e945a69c-3c1d-47e5-8dcc-c414004fbdc8,3017,"
                  <p style=""text-align: center;"">₪39
                                                <br>65%</p>
                  <p id=""wtp"" style=""text-align:center; margin-top: 0px; margin-bottom: 0px; font-size: 40px"";>מוכנים לשלם: <span id=""c_p_y""></span></p>",4,evaluation,38,16,"1A,15A,26C",65,39,4,,,,,,,,,,,,,,
,,,,,html-keyboard-response,146,376470,0.0-21.0-2.10,e945a69c-3c1d-47e5-8dcc-c414004fbdc8,null,"<p style=""text-align: center;"">+</p>",null,fixation,,,,,,,,,,,,,,,,,,,,
,,,,,html-slider-response,147,377485,0.0-21.0-0.11,e945a69c-3c1d-47e5-8dcc-c414004fbdc8,1000,"
                  <p style=""text-align: center;"">₪58
                                                <br>40%</p>
                  <p id=""wtp"" style=""text-align:center; margin-top: 0px; margin-bottom: 0px; font-size: 40px"";>&ensp;</p>",-,viewing,0,20,"10C,13A,19C,21B",,,,,,,,,,,,,,,,,
,,,,,html-slider-response,148,381487,0.0-21.0-1.11,e945a69c-3c1d-47e5-8dcc-c414004fbdc8,null,"
                  <p style=""text-align: center;"">₪58
                                                <br>40%</p>
                  <p id=""wtp"" style=""text-align:center; margin-top: 0px; margin-bottom: 0px; font-size: 40px"";>מוכנים לשלם: <span id=""c_p_y""></span></p>",null,evaluation,48,20,"10C,13A,19C,21B",40,58,6,,,,,,,,,,,,,,
,,,,,html-keyboard-response,149,382033,0.0-21.0-2.11,e945a69c-3c1d-47e5-8dcc-c414004fbdc8,null,"<p style=""text-align: center;"">+</p>",null,fixation,,,,,,,,,,,,,,,,,,,,
,,,,,html-slider-response,150,383043,0.0-21.0-0.12,e945a69c-3c1d-47e5-8dcc-c414004fbdc8,1000,"
                  <p style=""text-align: center;"">₪16
                                                <br>20%</p>
                  <p id=""wtp"" style=""text-align:center; margin-top: 0px; margin-bottom: 0px; font-size: 40px"";>&ensp;</p>",-,viewing,0,8,"14C,17A,20C,27A",,,,,,,,,,,,,,,,,
,,,,,html-slider-response,151,385515,0.0-21.0-1.12,e945a69c-3c1d-47e5-8dcc-c414004fbdc8,2471,"
                  <p style=""text-align: center;"">₪16
                                                <br>20%</p>
                  <p id=""wtp"" style=""text-align:center; margin-top: 0px; margin-bottom: 0px; font-size: 40px"";>מוכנים לשלם: <span id=""c_p_y""></span></p>",1,evaluation,57,8,"14C,17A,20C,27A",20,16,2,,,,,,,,,,,,,,
,,,,,html-keyboard-response,152,386063,0.0-21.0-2.12,e945a69c-3c1d-47e5-8dcc-c414004fbdc8,null,"<p style=""text-align: center;"">+</p>",null,fixation,,,,,,,,,,,,,,,,,,,,
,,,,,html-slider-response,153,387079,0.0-21.0-0.13,e945a69c-3c1d-47e5-8dcc-c414004fbdc8,1000,"
                  <p style=""text-align: center;"">₪64
                                                <br>50%</p>
                  <p id=""wtp"" style=""text-align:center; margin-top: 0px; margin-bottom: 0px; font-size: 40px"";>&ensp;</p>",-,viewing,0,25,"1B,3B,4A",,,,,,,,,,,,,,,,,
,,,,,html-slider-response,154,391088,0.0-21.0-1.13,e945a69c-3c1d-47e5-8dcc-c414004fbdc8,null,"
                  <p style=""text-align: center;"">₪64
                                                <br>50%</p>
                  <p id=""wtp"" style=""text-align:center; margin-top: 0px; margin-bottom: 0px; font-size: 40px"";>מוכנים לשלם: <span id=""c_p_y""></span></p>",null,evaluation,45,25,"1B,3B,4A",50,64,9,,,,,,,,,,,,,,
,,,,,html-keyboard-response,155,392551,0.0-21.0-2.13,e945a69c-3c1d-47e5-8dcc-c414004fbdc8,null,"<p style=""text-align: center;"">+</p>",null,fixation,,,,,,,,,,,,,,,,,,,,
,,,,,html-slider-response,156,393562,0.0-21.0-0.14,e945a69c-3c1d-47e5-8dcc-c414004fbdc8,1000,"
                  <p style=""text-align: center;"">₪4
                                                <br>25%</p>
                  <p id=""wtp"" style=""text-align:center; margin-top: 0px; margin-bottom: 0px; font-size: 40px"";>&ensp;</p>",-,viewing,0,1,"6C,29B,30C",,,,,,,,,,,,,,,,,
,,,,,html-slider-response,157,395107,0.0-21.0-1.14,e945a69c-3c1d-47e5-8dcc-c414004fbdc8,1544,"
                  <p style=""text-align: center;"">₪4
                                                <br>25%</p>
                  <p id=""wtp"" style=""text-align:center; margin-top: 0px; margin-bottom: 0px; font-size: 40px"";>מוכנים לשלם: <span id=""c_p_y""></span></p>",0,evaluation,25,1,"6C,29B,30C",25,4,0,,,,,,,,,,,,,,
,,,,,html-keyboard-response,158,395678,0.0-21.0-2.14,e945a69c-3c1d-47e5-8dcc-c414004fbdc8,null,"<p style=""text-align: center;"">+</p>",null,fixation,,,,,,,,,,,,,,,,,,,,
,,,,,html-slider-response,159,396691,0.0-21.0-0.15,e945a69c-3c1d-47e5-8dcc-c414004fbdc8,1000,"
                  <p style=""text-align: center;"">₪11
                                                <br>75%</p>
                  <p id=""wtp"" style=""text-align:center; margin-top: 0px; margin-bottom: 0px; font-size: 40px"";>&ensp;</p>",-,viewing,0,7,"6B,18B,22C,24C,29A",,,,,,,,,,,,,,,,,
,,,,,html-slider-response,160,399075,0.0-21.0-1.15,e945a69c-3c1d-47e5-8dcc-c414004fbdc8,2383,"
                  <p style=""text-align: center;"">₪11
                                                <br>75%</p>
                  <p id=""wtp"" style=""text-align:center; margin-top: 0px; margin-bottom: 0px; font-size: 40px"";>מוכנים לשלם: <span id=""c_p_y""></span></p>",0,evaluation,60,7,"6B,18B,22C,24C,29A",75,11,1,,,,,,,,,,,,,,
,,,,,html-keyboard-response,161,399754,0.0-21.0-2.15,e945a69c-3c1d-47e5-8dcc-c414004fbdc8,null,"<p style=""text-align: center;"">+</p>",null,fixation,,,,,,,,,,,,,,,,,,,,
,,,,,html-slider-response,162,400767,0.0-21.0-0.16,e945a69c-3c1d-47e5-8dcc-c414004fbdc8,1000,"
                  <p style=""text-align: center;"">₪79
                                                <br>65%</p>
                  <p id=""wtp"" style=""text-align:center; margin-top: 0px; margin-bottom: 0px; font-size: 40px"";>&ensp;</p>",-,viewing,0,31,8A,,,,,,,,,,,,,,,,,
,,,,,html-slider-response,163,404355,0.0-21.0-1.16,e945a69c-3c1d-47e5-8dcc-c414004fbdc8,3587,"
                  <p style=""text-align: center;"">₪79
                                                <br>65%</p>
                  <p id=""wtp"" style=""text-align:center; margin-top: 0px; margin-bottom: 0px; font-size: 40px"";>מוכנים לשלם: <span id=""c_p_y""></span></p>",3,evaluation,39,31,8A,65,79,4,,,,,,,,,,,,,,
,,,,,html-keyboard-response,164,405253,0.0-21.0-2.16,e945a69c-3c1d-47e5-8dcc-c414004fbdc8,null,"<p style=""text-align: center;"">+</p>",null,fixation,,,,,,,,,,,,,,,,,,,,
,,,,,html-slider-response,165,406267,0.0-21.0-0.17,e945a69c-3c1d-47e5-8dcc-c414004fbdc8,1000,"
                  <p style=""text-align: center;"">₪4
                                                <br>50%</p>
                  <p id=""wtp"" style=""text-align:center; margin-top: 0px; margin-bottom: 0px; font-size: 40px"";>&ensp;</p>",-,viewing,0,2,"4C,17B",,,,,,,,,,,,,,,,,
,,,,,html-slider-response,166,407243,0.0-21.0-1.17,e945a69c-3c1d-47e5-8dcc-c414004fbdc8,975,"
                  <p style=""text-align: center;"">₪4
                                                <br>50%</p>
                  <p id=""wtp"" style=""text-align:center; margin-top: 0px; margin-bottom: 0px; font-size: 40px"";>מוכנים לשלם: <span id=""c_p_y""></span></p>",0,evaluation,9,2,"4C,17B",50,4,0,,,,,,,,,,,,,,
,,,,,html-keyboard-response,167,408006,0.0-21.0-2.17,e945a69c-3c1d-47e5-8dcc-c414004fbdc8,null,"<p style=""text-align: center;"">+</p>",null,fixation,,,,,,,,,,,,,,,,,,,,
,,,,,html-slider-response,168,409009,0.0-21.0-0.18,e945a69c-3c1d-47e5-8dcc-c414004fbdc8,1000,"
                  <p style=""text-align: center;"">₪11
                                                <br>20%</p>
                  <p id=""wtp"" style=""text-align:center; margin-top: 0px; margin-bottom: 0px; font-size: 40px"";>&ensp;</p>",-,viewing,0,4,"12C,17C,23C,28C",,,,,,,,,,,,,,,,,
,,,,,html-slider-response,169,412947,0.0-21.0-1.18,e945a69c-3c1d-47e5-8dcc-c414004fbdc8,3937,"
                  <p style=""text-align: center;"">₪11
                                                <br>20%</p>
                  <p id=""wtp"" style=""text-align:center; margin-top: 0px; margin-bottom: 0px; font-size: 40px"";>מוכנים לשלם: <span id=""c_p_y""></span></p>",2,evaluation,60,4,"12C,17C,23C,28C",20,11,3,,,,,,,,,,,,,,
,,,,,html-keyboard-response,170,413702,0.0-21.0-2.18,e945a69c-3c1d-47e5-8dcc-c414004fbdc8,null,"<p style=""text-align: center;"">+</p>",null,fixation,,,,,,,,,,,,,,,,,,,,
,,,,,html-slider-response,171,414710,0.0-21.0-0.19,e945a69c-3c1d-47e5-8dcc-c414004fbdc8,1000,"
                  <p style=""text-align: center;"">₪39
                                                <br>60%</p>
                  <p id=""wtp"" style=""text-align:center; margin-top: 0px; margin-bottom: 0px; font-size: 40px"";>&ensp;</p>",-,viewing,0,15,"9C,25B",,,,,,,,,,,,,,,,,
,,,,,html-slider-response,172,418339,0.0-21.0-1.19,e945a69c-3c1d-47e5-8dcc-c414004fbdc8,3627,"
                  <p style=""text-align: center;"">₪39
                                                <br>60%</p>
                  <p id=""wtp"" style=""text-align:center; margin-top: 0px; margin-bottom: 0px; font-size: 40px"";>מוכנים לשלם: <span id=""c_p_y""></span></p>",5,evaluation,25,15,"9C,25B",60,39,6,,,,,,,,,,,,,,
,,,,,html-keyboard-response,173,418983,0.0-21.0-2.19,e945a69c-3c1d-47e5-8dcc-c414004fbdc8,null,"<p style=""text-align: center;"">+</p>",null,fixation,,,,,,,,,,,,,,,,,,,,
,,,,,html-slider-response,174,419999,0.0-21.0-0.20,e945a69c-3c1d-47e5-8dcc-c414004fbdc8,1000,"
                  <p style=""text-align: center;"">₪64
                                                <br>25%</p>
                  <p id=""wtp"" style=""text-align:center; margin-top: 0px; margin-bottom: 0px; font-size: 40px"";>&ensp;</p>",-,viewing,0,24,"6A,21A",,,,,,,,,,,,,,,,,
,,,,,html-slider-response,175,423771,0.0-21.0-1.20,e945a69c-3c1d-47e5-8dcc-c414004fbdc8,3771,"
                  <p style=""text-align: center;"">₪64
                                                <br>25%</p>
                  <p id=""wtp"" style=""text-align:center; margin-top: 0px; margin-bottom: 0px; font-size: 40px"";>מוכנים לשלם: <span id=""c_p_y""></span></p>",2,evaluation,13,24,"6A,21A",25,64,3,,,,,,,,,,,,,,
,,,,,html-keyboard-response,176,424736,0.0-21.0-2.20,e945a69c-3c1d-47e5-8dcc-c414004fbdc8,null,"<p style=""text-align: center;"">+</p>",null,fixation,,,,,,,,,,,,,,,,,,,,
,,,,,html-slider-response,177,425747,0.0-21.0-0.21,e945a69c-3c1d-47e5-8dcc-c414004fbdc8,1000,"
                  <p style=""text-align: center;"">₪58
                                                <br>45%</p>
                  <p id=""wtp"" style=""text-align:center; margin-top: 0px; margin-bottom: 0px; font-size: 40px"";>&ensp;</p>",-,viewing,0,21,"11C,18C,25A",,,,,,,,,,,,,,,,,
,,,,,html-slider-response,178,429339,0.0-21.0-1.21,e945a69c-3c1d-47e5-8dcc-c414004fbdc8,3590,"
                  <p style=""text-align: center;"">₪58
                                                <br>45%</p>
                  <p id=""wtp"" style=""text-align:center; margin-top: 0px; margin-bottom: 0px; font-size: 40px"";>מוכנים לשלם: <span id=""c_p_y""></span></p>",3,evaluation,37,21,"11C,18C,25A",45,58,4,,,,,,,,,,,,,,
,,,,,html-keyboard-response,179,430072,0.0-21.0-2.21,e945a69c-3c1d-47e5-8dcc-c414004fbdc8,null,"<p style=""text-align: center;"">+</p>",null,fixation,,,,,,,,,,,,,,,,,,,,
,,,,,html-slider-response,180,431088,0.0-21.0-0.22,e945a69c-3c1d-47e5-8dcc-c414004fbdc8,1000,"
                  <p style=""text-align: center;"">₪11
                                                <br>25%</p>
                  <p id=""wtp"" style=""text-align:center; margin-top: 0px; margin-bottom: 0px; font-size: 40px"";>&ensp;</p>",-,viewing,0,5,"12A,27B,28B,30B",,,,,,,,,,,,,,,,,
,,,,,html-slider-response,181,433851,0.0-21.0-1.22,e945a69c-3c1d-47e5-8dcc-c414004fbdc8,2762,"
                  <p style=""text-align: center;"">₪11
                                                <br>25%</p>
                  <p id=""wtp"" style=""text-align:center; margin-top: 0px; margin-bottom: 0px; font-size: 40px"";>מוכנים לשלם: <span id=""c_p_y""></span></p>",2,evaluation,57,5,"12A,27B,28B,30B",25,11,3,,,,,,,,,,,,,,
,,,,,html-keyboard-response,182,435052,0.0-21.0-2.22,e945a69c-3c1d-47e5-8dcc-c414004fbdc8,null,"<p style=""text-align: center;"">+</p>",null,fixation,,,,,,,,,,,,,,,,,,,,
,,,,,html-slider-response,183,436058,0.0-21.0-0.23,e945a69c-3c1d-47e5-8dcc-c414004fbdc8,1000,"
                  <p style=""text-align: center;"">₪11
                                                <br>45%</p>
                  <p id=""wtp"" style=""text-align:center; margin-top: 0px; margin-bottom: 0px; font-size: 40px"";>&ensp;</p>",-,viewing,0,6,"14B,21C,25C",,,,,,,,,,,,,,,,,
,,,,,html-slider-response,184,439979,0.0-21.0-1.23,e945a69c-3c1d-47e5-8dcc-c414004fbdc8,3919,"
                  <p style=""text-align: center;"">₪11
                                                <br>45%</p>
                  <p id=""wtp"" style=""text-align:center; margin-top: 0px; margin-bottom: 0px; font-size: 40px"";>מוכנים לשלם: <span id=""c_p_y""></span></p>",4,evaluation,78,6,"14B,21C,25C",45,11,5,,,,,,,,,,,,,,
,,,,,html-keyboard-response,185,440577,0.0-21.0-2.23,e945a69c-3c1d-47e5-8dcc-c414004fbdc8,null,"<p style=""text-align: center;"">+</p>",null,fixation,,,,,,,,,,,,,,,,,,,,
,,,,,html-slider-response,186,441579,0.0-21.0-0.24,e945a69c-3c1d-47e5-8dcc-c414004fbdc8,1000,"
                  <p style=""text-align: center;"">₪76
                                                <br>65%</p>
                  <p id=""wtp"" style=""text-align:center; margin-top: 0px; margin-bottom: 0px; font-size: 40px"";>&ensp;</p>",-,viewing,0,29,"8C,19A,24B",,,,,,,,,,,,,,,,,
,,,,,html-slider-response,187,445035,0.0-21.0-1.24,e945a69c-3c1d-47e5-8dcc-c414004fbdc8,3454,"
                  <p style=""text-align: center;"">₪76
                                                <br>65%</p>
                  <p id=""wtp"" style=""text-align:center; margin-top: 0px; margin-bottom: 0px; font-size: 40px"";>מוכנים לשלם: <span id=""c_p_y""></span></p>",12,evaluation,68,29,"8C,19A,24B",65,76,13,,,,,,,,,,,,,,
,,,,,html-keyboard-response,188,446122,0.0-21.0-2.24,e945a69c-3c1d-47e5-8dcc-c414004fbdc8,null,"<p style=""text-align: center;"">+</p>",null,fixation,,,,,,,,,,,,,,,,,,,,
,,,,,html-slider-response,189,447126,0.0-21.0-0.25,e945a69c-3c1d-47e5-8dcc-c414004fbdc8,1000,"
                  <p style=""text-align: center;"">₪43
                                                <br>75%</p>
                  <p id=""wtp"" style=""text-align:center; margin-top: 0px; margin-bottom: 0px; font-size: 40px"";>&ensp;</p>",-,viewing,0,18,"11B,19B,24A,26A",,,,,,,,,,,,,,,,,
,,,,,html-slider-response,190,451129,0.0-21.0-1.25,e945a69c-3c1d-47e5-8dcc-c414004fbdc8,null,"
                  <p style=""text-align: center;"">₪43
                                                <br>75%</p>
                  <p id=""wtp"" style=""text-align:center; margin-top: 0px; margin-bottom: 0px; font-size: 40px"";>מוכנים לשלם: <span id=""c_p_y""></span></p>",null,evaluation,67,18,"11B,19B,24A,26A",75,43,13,,,,,,,,,,,,,,
,,,,,html-keyboard-response,191,451860,0.0-21.0-2.25,e945a69c-3c1d-47e5-8dcc-c414004fbdc8,null,"<p style=""text-align: center;"">+</p>",null,fixation,,,,,,,,,,,,,,,,,,,,
,,,,,html-slider-response,192,452863,0.0-21.0-0.26,e945a69c-3c1d-47e5-8dcc-c414004fbdc8,1000,"
                  <p style=""text-align: center;"">₪36
                                                <br>30%</p>
                  <p id=""wtp"" style=""text-align:center; margin-top: 0px; margin-bottom: 0px; font-size: 40px"";>&ensp;</p>",-,viewing,0,11,"3C,20A,22A",,,,,,,,,,,,,,,,,
,,,,,html-slider-response,193,456339,0.0-21.0-1.26,e945a69c-3c1d-47e5-8dcc-c414004fbdc8,3475,"
                  <p style=""text-align: center;"">₪36
                                                <br>30%</p>
                  <p id=""wtp"" style=""text-align:center; margin-top: 0px; margin-bottom: 0px; font-size: 40px"";>מוכנים לשלם: <span id=""c_p_y""></span></p>",5,evaluation,61,11,"3C,20A,22A",30,36,5,,,,,,,,,,,,,,
,,,,,html-keyboard-response,194,457285,0.0-21.0-2.26,e945a69c-3c1d-47e5-8dcc-c414004fbdc8,null,"<p style=""text-align: center;"">+</p>",null,fixation,,,,,,,,,,,,,,,,,,,,
,,,,,html-slider-response,195,458286,0.0-21.0-0.27,e945a69c-3c1d-47e5-8dcc-c414004fbdc8,1000,"
                  <p style=""text-align: center;"">₪43
                                                <br>60%</p>
                  <p id=""wtp"" style=""text-align:center; margin-top: 0px; margin-bottom: 0px; font-size: 40px"";>&ensp;</p>",-,viewing,0,17,"2A,7A,9A,15B",,,,,,,,,,,,,,,,,
,,,,,html-slider-response,196,462299,0.0-21.0-1.27,e945a69c-3c1d-47e5-8dcc-c414004fbdc8,null,"
                  <p style=""text-align: center;"">₪43
                                                <br>60%</p>
                  <p id=""wtp"" style=""text-align:center; margin-top: 0px; margin-bottom: 0px; font-size: 40px"";>מוכנים לשלם: <span id=""c_p_y""></span></p>",null,evaluation,26,17,"2A,7A,9A,15B",60,43,10,,,,,,,,,,,,,,
,,,,,html-keyboard-response,197,463629,0.0-21.0-2.27,e945a69c-3c1d-47e5-8dcc-c414004fbdc8,null,"<p style=""text-align: center;"">+</p>",null,fixation,,,,,,,,,,,,,,,,,,,,
,,,,,html-slider-response,198,464645,0.0-21.0-0.28,e945a69c-3c1d-47e5-8dcc-c414004fbdc8,1000,"
                  <p style=""text-align: center;"">₪71
                                                <br>45%</p>
                  <p id=""wtp"" style=""text-align:center; margin-top: 0px; margin-bottom: 0px; font-size: 40px"";>&ensp;</p>",-,viewing,0,26,"2B,16A",,,,,,,,,,,,,,,,,
,,,,,html-slider-response,199,468516,0.0-21.0-1.28,e945a69c-3c1d-47e5-8dcc-c414004fbdc8,3869,"
                  <p style=""text-align: center;"">₪71
                                                <br>45%</p>
                  <p id=""wtp"" style=""text-align:center; margin-top: 0px; margin-bottom: 0px; font-size: 40px"";>מוכנים לשלם: <span id=""c_p_y""></span></p>",4,evaluation,40,26,"2B,16A",45,71,5,,,,,,,,,,,,,,
,,,,,html-keyboard-response,200,469332,0.0-21.0-2.28,e945a69c-3c1d-47e5-8dcc-c414004fbdc8,null,"<p style=""text-align: center;"">+</p>",null,fixation,,,,,,,,,,,,,,,,,,,,
,,,,,html-slider-response,201,470336,0.0-21.0-0.29,e945a69c-3c1d-47e5-8dcc-c414004fbdc8,1000,"
                  <p style=""text-align: center;"">₪71
                                                <br>55%</p>
                  <p id=""wtp"" style=""text-align:center; margin-top: 0px; margin-bottom: 0px; font-size: 40px"";>&ensp;</p>",-,viewing,0,27,"5B,18A",,,,,,,,,,,,,,,,,
,,,,,html-slider-response,202,474341,0.0-21.0-1.29,e945a69c-3c1d-47e5-8dcc-c414004fbdc8,null,"
                  <p style=""text-align: center;"">₪71
                                                <br>55%</p>
                  <p id=""wtp"" style=""text-align:center; margin-top: 0px; margin-bottom: 0px; font-size: 40px"";>מוכנים לשלם: <span id=""c_p_y""></span></p>",null,evaluation,58,27,"5B,18A",55,71,9,,,,,,,,,,,,,,
,,,,,html-keyboard-response,203,475625,0.0-21.0-2.29,e945a69c-3c1d-47e5-8dcc-c414004fbdc8,null,"<p style=""text-align: center;"">+</p>",null,fixation,,,,,,,,,,,,,,,,,,,,
,,,,,html-slider-response,204,476640,0.0-21.0-0.30,e945a69c-3c1d-47e5-8dcc-c414004fbdc8,1000,"
                  <p style=""text-align: center;"">₪36
                                                <br>60%</p>
                  <p id=""wtp"" style=""text-align:center; margin-top: 0px; margin-bottom: 0px; font-size: 40px"";>&ensp;</p>",-,viewing,0,12,"1C,7C,15C",,,,,,,,,,,,,,,,,
,,,,,html-slider-response,205,480644,0.0-21.0-1.30,e945a69c-3c1d-47e5-8dcc-c414004fbdc8,null,"
                  <p style=""text-align: center;"">₪36
                                                <br>60%</p>
                  <p id=""wtp"" style=""text-align:center; margin-top: 0px; margin-bottom: 0px; font-size: 40px"";>מוכנים לשלם: <span id=""c_p_y""></span></p>",null,evaluation,8,12,"1C,7C,15C",60,36,9,,,,,,,,,,,,,,
,,,,,html-keyboard-response,206,481893,0.0-21.0-2.30,e945a69c-3c1d-47e5-8dcc-c414004fbdc8,null,"<p style=""text-align: center;"">+</p>",null,fixation,,,,,,,,,,,,,,,,,,,,
,,,,,html-keyboard-response,207,482905,0.0-22.0,e945a69c-3c1d-47e5-8dcc-c414004fbdc8,null,"<p style=""text-align: center;"">+</p>",null,fixation,,,,,,,,,,,,,,,,,,,,
,,,,,html-keyboard-response,208,490507,0.0-23.0,e945a69c-3c1d-47e5-8dcc-c414004fbdc8,null,"<p>הפסקה.
          <br>לחצו כדי להמשיך.</p>",1,scan_wait,,,,,,,,,,,,,,,,,,,,
,,,,,html-keyboard-response,209,491518,0.0-24.0,e945a69c-3c1d-47e5-8dcc-c414004fbdc8,null,"<p style=""text-align: center;"">+</p>",null,fixation,,,,,,,,,,,,,,,,,,,,
,,,,,html-slider-response,210,492535,0.0-25.0-0.0,e945a69c-3c1d-47e5-8dcc-c414004fbdc8,1000,"
                  <p style=""text-align: center;"">₪11
                                                <br>20%</p>
                  <p id=""wtp"" style=""text-align:center; margin-top: 0px; margin-bottom: 0px; font-size: 40px"";>&ensp;</p>",-,viewing,0,4,"12C,17C,23C,28C",,,,,,,,,,,,,,,,,
,,,,,html-slider-response,211,495612,0.0-25.0-1.0,e945a69c-3c1d-47e5-8dcc-c414004fbdc8,3075,"
                  <p style=""text-align: center;"">₪11
                                                <br>20%</p>
                  <p id=""wtp"" style=""text-align:center; margin-top: 0px; margin-bottom: 0px; font-size: 40px"";>מוכנים לשלם: <span id=""c_p_y""></span></p>",1,evaluation,18,4,"12C,17C,23C,28C",20,11,2,,,,,,,,,,,,,,
,,,,,html-keyboard-response,212,496766,0.0-25.0-2.0,e945a69c-3c1d-47e5-8dcc-c414004fbdc8,null,"<p style=""text-align: center;"">+</p>",null,fixation,,,,,,,,,,,,,,,,,,,,
,,,,,html-slider-response,213,497768,0.0-25.0-0.1,e945a69c-3c1d-47e5-8dcc-c414004fbdc8,1000,"
                  <p style=""text-align: center;"">₪36
                                                <br>60%</p>
                  <p id=""wtp"" style=""text-align:center; margin-top: 0px; margin-bottom: 0px; font-size: 40px"";>&ensp;</p>",-,viewing,0,12,"1C,7C,15C",,,,,,,,,,,,,,,,,
,,,,,html-slider-response,214,501770,0.0-25.0-1.1,e945a69c-3c1d-47e5-8dcc-c414004fbdc8,null,"
                  <p style=""text-align: center;"">₪36
                                                <br>60%</p>
                  <p id=""wtp"" style=""text-align:center; margin-top: 0px; margin-bottom: 0px; font-size: 40px"";>מוכנים לשלם: <span id=""c_p_y""></span></p>",null,evaluation,15,12,"1C,7C,15C",60,36,9,,,,,,,,,,,,,,
,,,,,html-keyboard-response,215,502379,0.0-25.0-2.1,e945a69c-3c1d-47e5-8dcc-c414004fbdc8,null,"<p style=""text-align: center;"">+</p>",null,fixation,,,,,,,,,,,,,,,,,,,,
,,,,,html-slider-response,216,503384,0.0-25.0-0.2,e945a69c-3c1d-47e5-8dcc-c414004fbdc8,1000,"
                  <p style=""text-align: center;"">₪11
                                                <br>75%</p>
                  <p id=""wtp"" style=""text-align:center; margin-top: 0px; margin-bottom: 0px; font-size: 40px"";>&ensp;</p>",-,viewing,0,7,"6B,18B,22C,24C,29A",,,,,,,,,,,,,,,,,
,,,,,html-slider-response,217,506924,0.0-25.0-1.2,e945a69c-3c1d-47e5-8dcc-c414004fbdc8,3538,"
                  <p style=""text-align: center;"">₪11
                                                <br>75%</p>
                  <p id=""wtp"" style=""text-align:center; margin-top: 0px; margin-bottom: 0px; font-size: 40px"";>מוכנים לשלם: <span id=""c_p_y""></span></p>",2,evaluation,35,7,"6B,18B,22C,24C,29A",75,11,3,,,,,,,,,,,,,,
,,,,,html-keyboard-response,218,508120,0.0-25.0-2.2,e945a69c-3c1d-47e5-8dcc-c414004fbdc8,null,"<p style=""text-align: center;"">+</p>",null,fixation,,,,,,,,,,,,,,,,,,,,
,,,,,html-slider-response,219,509128,0.0-25.0-0.3,e945a69c-3c1d-47e5-8dcc-c414004fbdc8,1000,"
                  <p style=""text-align: center;"">₪71
                                                <br>45%</p>
                  <p id=""wtp"" style=""text-align:center; margin-top: 0px; margin-bottom: 0px; font-size: 40px"";>&ensp;</p>",-,viewing,0,26,"2B,16A",,,,,,,,,,,,,,,,,
,,,,,html-slider-response,220,513130,0.0-25.0-1.3,e945a69c-3c1d-47e5-8dcc-c414004fbdc8,null,"
                  <p style=""text-align: center;"">₪71
                                                <br>45%</p>
                  <p id=""wtp"" style=""text-align:center; margin-top: 0px; margin-bottom: 0px; font-size: 40px"";>מוכנים לשלם: <span id=""c_p_y""></span></p>",null,evaluation,72,26,"2B,16A",45,71,7,,,,,,,,,,,,,,
,,,,,html-keyboard-response,221,514537,0.0-25.0-2.3,e945a69c-3c1d-47e5-8dcc-c414004fbdc8,null,"<p style=""text-align: center;"">+</p>",null,fixation,,,,,,,,,,,,,,,,,,,,
,,,,,html-slider-response,222,515539,0.0-25.0-0.4,e945a69c-3c1d-47e5-8dcc-c414004fbdc8,1000,"
                  <p style=""text-align: center;"">₪58
                                                <br>40%</p>
                  <p id=""wtp"" style=""text-align:center; margin-top: 0px; margin-bottom: 0px; font-size: 40px"";>&ensp;</p>",-,viewing,0,20,"10C,13A,19C,21B",,,,,,,,,,,,,,,,,
,,,,,html-slider-response,223,519156,0.0-25.0-1.4,e945a69c-3c1d-47e5-8dcc-c414004fbdc8,3615,"
                  <p style=""text-align: center;"">₪58
                                                <br>40%</p>
                  <p id=""wtp"" style=""text-align:center; margin-top: 0px; margin-bottom: 0px; font-size: 40px"";>מוכנים לשלם: <span id=""c_p_y""></span></p>",7,evaluation,33,20,"10C,13A,19C,21B",40,58,8,,,,,,,,,,,,,,
,,,,,html-keyboard-response,224,519845,0.0-25.0-2.4,e945a69c-3c1d-47e5-8dcc-c414004fbdc8,null,"<p style=""text-align: center;"">+</p>",null,fixation,,,,,,,,,,,,,,,,,,,,
,,,,,html-slider-response,225,520861,0.0-25.0-0.5,e945a69c-3c1d-47e5-8dcc-c414004fbdc8,1000,"
                  <p style=""text-align: center;"">₪43
                                                <br>75%</p>
                  <p id=""wtp"" style=""text-align:center; margin-top: 0px; margin-bottom: 0px; font-size: 40px"";>&ensp;</p>",-,viewing,0,18,"11B,19B,24A,26A",,,,,,,,,,,,,,,,,
,,,,,html-slider-response,226,523899,0.0-25.0-1.5,e945a69c-3c1d-47e5-8dcc-c414004fbdc8,3038,"
                  <p style=""text-align: center;"">₪43
                                                <br>75%</p>
                  <p id=""wtp"" style=""text-align:center; margin-top: 0px; margin-bottom: 0px; font-size: 40px"";>מוכנים לשלם: <span id=""c_p_y""></span></p>",12,evaluation,13,18,"11B,19B,24A,26A",75,43,13,,,,,,,,,,,,,,
,,,,,html-keyboard-response,227,525254,0.0-25.0-2.5,e945a69c-3c1d-47e5-8dcc-c414004fbdc8,null,"<p style=""text-align: center;"">+</p>",null,fixation,,,,,,,,,,,,,,,,,,,,
,,,,,html-slider-response,228,526264,0.0-25.0-0.6,e945a69c-3c1d-47e5-8dcc-c414004fbdc8,1000,"
                  <p style=""text-align: center;"">₪64
                                                <br>50%</p>
                  <p id=""wtp"" style=""text-align:center; margin-top: 0px; margin-bottom: 0px; font-size: 40px"";>&ensp;</p>",-,viewing,0,25,"1B,3B,4A",,,,,,,,,,,,,,,,,
,,,,,html-slider-response,229,530270,0.0-25.0-1.6,e945a69c-3c1d-47e5-8dcc-c414004fbdc8,null,"
                  <p style=""text-align: center;"">₪64
                                                <br>50%</p>
                  <p id=""wtp"" style=""text-align:center; margin-top: 0px; margin-bottom: 0px; font-size: 40px"";>מוכנים לשלם: <span id=""c_p_y""></span></p>",null,evaluation,53,25,"1B,3B,4A",50,64,16,,,,,,,,,,,,,,
,,,,,html-keyboard-response,230,531047,0.0-25.0-2.6,e945a69c-3c1d-47e5-8dcc-c414004fbdc8,null,"<p style=""text-align: center;"">+</p>",null,fixation,,,,,,,,,,,,,,,,,,,,
,,,,,html-slider-response,231,532049,0.0-25.0-0.7,e945a69c-3c1d-47e5-8dcc-c414004fbdc8,1000,"
                  <p style=""text-align: center;"">₪4
                                                <br>25%</p>
                  <p id=""wtp"" style=""text-align:center; margin-top: 0px; margin-bottom: 0px; font-size: 40px"";>&ensp;</p>",-,viewing,0,1,"6C,29B,30C",,,,,,,,,,,,,,,,,
,,,,,html-slider-response,232,535468,0.0-25.0-1.7,e945a69c-3c1d-47e5-8dcc-c414004fbdc8,3417,"
                  <p style=""text-align: center;"">₪4
                                                <br>25%</p>
                  <p id=""wtp"" style=""text-align:center; margin-top: 0px; margin-bottom: 0px; font-size: 40px"";>מוכנים לשלם: <span id=""c_p_y""></span></p>",0,evaluation,45,1,"6C,29B,30C",25,4,1,,,,,,,,,,,,,,
,,,,,html-keyboard-response,233,536836,0.0-25.0-2.7,e945a69c-3c1d-47e5-8dcc-c414004fbdc8,null,"<p style=""text-align: center;"">+</p>",null,fixation,,,,,,,,,,,,,,,,,,,,
,,,,,html-slider-response,234,537852,0.0-25.0-0.8,e945a69c-3c1d-47e5-8dcc-c414004fbdc8,1000,"
                  <p style=""text-align: center;"">₪76
                                                <br>65%</p>
                  <p id=""wtp"" style=""text-align:center; margin-top: 0px; margin-bottom: 0px; font-size: 40px"";>&ensp;</p>",-,viewing,0,29,"8C,19A,24B",,,,,,,,,,,,,,,,,
,,,,,html-slider-response,235,541140,0.0-25.0-1.8,e945a69c-3c1d-47e5-8dcc-c414004fbdc8,3286,"
                  <p style=""text-align: center;"">₪76
                                                <br>65%</p>
                  <p id=""wtp"" style=""text-align:center; margin-top: 0px; margin-bottom: 0px; font-size: 40px"";>מוכנים לשלם: <span id=""c_p_y""></span></p>",10,evaluation,70,29,"8C,19A,24B",65,76,11,,,,,,,,,,,,,,
,,,,,html-keyboard-response,236,542218,0.0-25.0-2.8,e945a69c-3c1d-47e5-8dcc-c414004fbdc8,null,"<p style=""text-align: center;"">+</p>",null,fixation,,,,,,,,,,,,,,,,,,,,
,,,,,html-slider-response,237,543227,0.0-25.0-0.9,e945a69c-3c1d-47e5-8dcc-c414004fbdc8,1000,"
                  <p style=""text-align: center;"">₪16
                                                <br>20%</p>
                  <p id=""wtp"" style=""text-align:center; margin-top: 0px; margin-bottom: 0px; font-size: 40px"";>&ensp;</p>",-,viewing,0,8,"14C,17A,20C,27A",,,,,,,,,,,,,,,,,
,,,,,html-slider-response,238,547124,0.0-25.0-1.9,e945a69c-3c1d-47e5-8dcc-c414004fbdc8,3895,"
                  <p style=""text-align: center;"">₪16
                                                <br>20%</p>
                  <p id=""wtp"" style=""text-align:center; margin-top: 0px; margin-bottom: 0px; font-size: 40px"";>מוכנים לשלם: <span id=""c_p_y""></span></p>",0,evaluation,54,8,"14C,17A,20C,27A",20,16,1,,,,,,,,,,,,,,
,,,,,html-keyboard-response,239,548568,0.0-25.0-2.9,e945a69c-3c1d-47e5-8dcc-c414004fbdc8,null,"<p style=""text-align: center;"">+</p>",null,fixation,,,,,,,,,,,,,,,,,,,,
,,,,,html-slider-response,240,549573,0.0-25.0-0.10,e945a69c-3c1d-47e5-8dcc-c414004fbdc8,1000,"
                  <p style=""text-align: center;"">₪11
                                                <br>45%</p>
                  <p id=""wtp"" style=""text-align:center; margin-top: 0px; margin-bottom: 0px; font-size: 40px"";>&ensp;</p>",-,viewing,0,6,"14B,21C,25C",,,,,,,,,,,,,,,,,
,,,,,html-slider-response,241,553575,0.0-25.0-1.10,e945a69c-3c1d-47e5-8dcc-c414004fbdc8,null,"
                  <p style=""text-align: center;"">₪11
                                                <br>45%</p>
                  <p id=""wtp"" style=""text-align:center; margin-top: 0px; margin-bottom: 0px; font-size: 40px"";>מוכנים לשלם: <span id=""c_p_y""></span></p>",null,evaluation,17,6,"14B,21C,25C",45,11,3,,,,,,,,,,,,,,
,,,,,html-keyboard-response,242,554740,0.0-25.0-2.10,e945a69c-3c1d-47e5-8dcc-c414004fbdc8,null,"<p style=""text-align: center;"">+</p>",null,fixation,,,,,,,,,,,,,,,,,,,,
,,,,,html-slider-response,243,555749,0.0-25.0-0.11,e945a69c-3c1d-47e5-8dcc-c414004fbdc8,1000,"
                  <p style=""text-align: center;"">₪79
                                                <br>40%</p>
                  <p id=""wtp"" style=""text-align:center; margin-top: 0px; margin-bottom: 0px; font-size: 40px"";>&ensp;</p>",-,viewing,0,30,9B,,,,,,,,,,,,,,,,,
,,,,,html-slider-response,244,559760,0.0-25.0-1.11,e945a69c-3c1d-47e5-8dcc-c414004fbdc8,null,"
                  <p style=""text-align: center;"">₪79
                                                <br>40%</p>
                  <p id=""wtp"" style=""text-align:center; margin-top: 0px; margin-bottom: 0px; font-size: 40px"";>מוכנים לשלם: <span id=""c_p_y""></span></p>",null,evaluation,65,30,9B,40,79,8,,,,,,,,,,,,,,
,,,,,html-keyboard-response,245,560277,0.0-25.0-2.11,e945a69c-3c1d-47e5-8dcc-c414004fbdc8,null,"<p style=""text-align: center;"">+</p>",null,fixation,,,,,,,,,,,,,,,,,,,,
,,,,,html-slider-response,246,561279,0.0-25.0-0.12,e945a69c-3c1d-47e5-8dcc-c414004fbdc8,1000,"
                  <p style=""text-align: center;"">₪18
                                                <br>25%</p>
                  <p id=""wtp"" style=""text-align:center; margin-top: 0px; margin-bottom: 0px; font-size: 40px"";>&ensp;</p>",-,viewing,0,9,"14A,23A",,,,,,,,,,,,,,,,,
,,,,,html-slider-response,247,565294,0.0-25.0-1.12,e945a69c-3c1d-47e5-8dcc-c414004fbdc8,null,"
                  <p style=""text-align: center;"">₪18
                                                <br>25%</p>
                  <p id=""wtp"" style=""text-align:center; margin-top: 0px; margin-bottom: 0px; font-size: 40px"";>מוכנים לשלם: <span id=""c_p_y""></span></p>",null,evaluation,27,9,"14A,23A",25,18,3,,,,,,,,,,,,,,
,,,,,html-keyboard-response,248,566314,0.0-25.0-2.12,e945a69c-3c1d-47e5-8dcc-c414004fbdc8,null,"<p style=""text-align: center;"">+</p>",null,fixation,,,,,,,,,,,,,,,,,,,,
,,,,,html-slider-response,249,567325,0.0-25.0-0.13,e945a69c-3c1d-47e5-8dcc-c414004fbdc8,1000,"
                  <p style=""text-align: center;"">₪36
                                                <br>30%</p>
                  <p id=""wtp"" style=""text-align:center; margin-top: 0px; margin-bottom: 0px; font-size: 40px"";>&ensp;</p>",-,viewing,0,11,"3C,20A,22A",,,,,,,,,,,,,,,,,
,,,,,html-slider-response,250,570243,0.0-25.0-1.13,e945a69c-3c1d-47e5-8dcc-c414004fbdc8,2918,"
                  <p style=""text-align: center;"">₪36
                                                <br>30%</p>
                  <p id=""wtp"" style=""text-align:center; margin-top: 0px; margin-bottom: 0px; font-size: 40px"";>מוכנים לשלם: <span id=""c_p_y""></span></p>",4,evaluation,28,11,"3C,20A,22A",30,36,5,,,,,,,,,,,,,,
,,,,,html-keyboard-response,251,571095,0.0-25.0-2.13,e945a69c-3c1d-47e5-8dcc-c414004fbdc8,null,"<p style=""text-align: center;"">+</p>",null,fixation,,,,,,,,,,,,,,,,,,,,
,,,,,html-slider-response,252,572098,0.0-25.0-0.14,e945a69c-3c1d-47e5-8dcc-c414004fbdc8,1000,"
                  <p style=""text-align: center;"">₪18
                                                <br>50%</p>
                  <p id=""wtp"" style=""text-align:center; margin-top: 0px; margin-bottom: 0px; font-size: 40px"";>&ensp;</p>",-,viewing,0,10,"2C,16C,22B,28A",,,,,,,,,,,,,,,,,
,,,,,html-slider-response,253,575475,0.0-25.0-1.14,e945a69c-3c1d-47e5-8dcc-c414004fbdc8,3376,"
                  <p style=""text-align: center;"">₪18
                                                <br>50%</p>
                  <p id=""wtp"" style=""text-align:center; margin-top: 0px; margin-bottom: 0px; font-size: 40px"";>מוכנים לשלם: <span id=""c_p_y""></span></p>",4,evaluation,3,10,"2C,16C,22B,28A",50,18,5,,,,,,,,,,,,,,
,,,,,html-keyboard-response,254,576642,0.0-25.0-2.14,e945a69c-3c1d-47e5-8dcc-c414004fbdc8,null,"<p style=""text-align: center;"">+</p>",null,fixation,,,,,,,,,,,,,,,,,,,,
,,,,,html-slider-response,255,577645,0.0-25.0-0.15,e945a69c-3c1d-47e5-8dcc-c414004fbdc8,1000,"
                  <p style=""text-align: center;"">₪4
                                                <br>50%</p>
                  <p id=""wtp"" style=""text-align:center; margin-top: 0px; margin-bottom: 0px; font-size: 40px"";>&ensp;</p>",-,viewing,0,2,"4C,17B",,,,,,,,,,,,,,,,,
,,,,,html-slider-response,256,580027,0.0-25.0-1.15,e945a69c-3c1d-47e5-8dcc-c414004fbdc8,2381,"
                  <p style=""text-align: center;"">₪4
                                                <br>50%</p>
                  <p id=""wtp"" style=""text-align:center; margin-top: 0px; margin-bottom: 0px; font-size: 40px"";>מוכנים לשלם: <span id=""c_p_y""></span></p>",0,evaluation,56,2,"4C,17B",50,4,1,,,,,,,,,,,,,,
,,,,,html-keyboard-response,257,581428,0.0-25.0-2.15,e945a69c-3c1d-47e5-8dcc-c414004fbdc8,null,"<p style=""text-align: center;"">+</p>",null,fixation,,,,,,,,,,,,,,,,,,,,
,,,,,html-slider-response,258,582436,0.0-25.0-0.16,e945a69c-3c1d-47e5-8dcc-c414004fbdc8,1000,"
                  <p style=""text-align: center;"">₪11
                                                <br>25%</p>
                  <p id=""wtp"" style=""text-align:center; margin-top: 0px; margin-bottom: 0px; font-size: 40px"";>&ensp;</p>",-,viewing,0,5,"12A,27B,28B,30B",,,,,,,,,,,,,,,,,
,,,,,html-slider-response,259,586448,0.0-25.0-1.16,e945a69c-3c1d-47e5-8dcc-c414004fbdc8,null,"
                  <p style=""text-align: center;"">₪11
                                                <br>25%</p>
                  <p id=""wtp"" style=""text-align:center; margin-top: 0px; margin-bottom: 0px; font-size: 40px"";>מוכנים לשלם: <span id=""c_p_y""></span></p>",null,evaluation,51,5,"12A,27B,28B,30B",25,11,2,,,,,,,,,,,,,,
,,,,,html-keyboard-response,260,587926,0.0-25.0-2.16,e945a69c-3c1d-47e5-8dcc-c414004fbdc8,null,"<p style=""text-align: center;"">+</p>",null,fixation,,,,,,,,,,,,,,,,,,,,
,,,,,html-slider-response,261,588934,0.0-25.0-0.17,e945a69c-3c1d-47e5-8dcc-c414004fbdc8,1000,"
                  <p style=""text-align: center;"">₪64
                                                <br>25%</p>
                  <p id=""wtp"" style=""text-align:center; margin-top: 0px; margin-bottom: 0px; font-size: 40px"";>&ensp;</p>",-,viewing,0,24,"6A,21A",,,,,,,,,,,,,,,,,
,,,,,html-slider-response,262,592943,0.0-25.0-1.17,e945a69c-3c1d-47e5-8dcc-c414004fbdc8,null,"
                  <p style=""text-align: center;"">₪64
                                                <br>25%</p>
                  <p id=""wtp"" style=""text-align:center; margin-top: 0px; margin-bottom: 0px; font-size: 40px"";>מוכנים לשלם: <span id=""c_p_y""></span></p>",null,evaluation,17,24,"6A,21A",25,64,5,,,,,,,,,,,,,,
,,,,,html-keyboard-response,263,593793,0.0-25.0-2.17,e945a69c-3c1d-47e5-8dcc-c414004fbdc8,null,"<p style=""text-align: center;"">+</p>",null,fixation,,,,,,,,,,,,,,,,,,,,
,,,,,html-slider-response,264,594803,0.0-25.0-0.18,e945a69c-3c1d-47e5-8dcc-c414004fbdc8,1000,"
                  <p style=""text-align: center;"">₪71
                                                <br>75%</p>
                  <p id=""wtp"" style=""text-align:center; margin-top: 0px; margin-bottom: 0px; font-size: 40px"";>&ensp;</p>",-,viewing,0,28,8B,,,,,,,,,,,,,,,,,
,,,,,html-slider-response,265,598814,0.0-25.0-1.18,e945a69c-3c1d-47e5-8dcc-c414004fbdc8,null,"
                  <p style=""text-align: center;"">₪71
                                                <br>75%</p>
                  <p id=""wtp"" style=""text-align:center; margin-top: 0px; margin-bottom: 0px; font-size: 40px"";>מוכנים לשלם: <span id=""c_p_y""></span></p>",null,evaluation,42,28,8B,75,71,19,,,,,,,,,,,,,,
,,,,,html-keyboard-response,266,599472,0.0-25.0-2.18,e945a69c-3c1d-47e5-8dcc-c414004fbdc8,null,"<p style=""text-align: center;"">+</p>",null,fixation,,,,,,,,,,,,,,,,,,,,
,,,,,html-slider-response,267,600475,0.0-25.0-0.19,e945a69c-3c1d-47e5-8dcc-c414004fbdc8,1000,"
                  <p style=""text-align: center;"">₪39
                                                <br>65%</p>
                  <p id=""wtp"" style=""text-align:center; margin-top: 0px; margin-bottom: 0px; font-size: 40px"";>&ensp;</p>",-,viewing,0,16,"1A,15A,26C",,,,,,,,,,,,,,,,,
,,,,,html-slider-response,268,604482,0.0-25.0-1.19,e945a69c-3c1d-47e5-8dcc-c414004fbdc8,null,"
                  <p style=""text-align: center;"">₪39
                                                <br>65%</p>
                  <p id=""wtp"" style=""text-align:center; margin-top: 0px; margin-bottom: 0px; font-size: 40px"";>מוכנים לשלם: <span id=""c_p_y""></span></p>",null,evaluation,29,16,"1A,15A,26C",65,39,8,,,,,,,,,,,,,,
,,,,,html-keyboard-response,269,605110,0.0-25.0-2.19,e945a69c-3c1d-47e5-8dcc-c414004fbdc8,null,"<p style=""text-align: center;"">+</p>",null,fixation,,,,,,,,,,,,,,,,,,,,
,,,,,html-slider-response,270,606122,0.0-25.0-0.20,e945a69c-3c1d-47e5-8dcc-c414004fbdc8,1000,"
                  <p style=""text-align: center;"">₪61
                                                <br>55%</p>
                  <p id=""wtp"" style=""text-align:center; margin-top: 0px; margin-bottom: 0px; font-size: 40px"";>&ensp;</p>",-,viewing,0,23,"7B,26B",,,,,,,,,,,,,,,,,
,,,,,html-slider-response,271,609907,0.0-25.0-1.20,e945a69c-3c1d-47e5-8dcc-c414004fbdc8,3784,"
                  <p style=""text-align: center;"">₪61
                                                <br>55%</p>
                  <p id=""wtp"" style=""text-align:center; margin-top: 0px; margin-bottom: 0px; font-size: 40px"";>מוכנים לשלם: <span id=""c_p_y""></span></p>",10,evaluation,67,23,"7B,26B",55,61,10,,,,,,,,,,,,,,
,,,,,html-keyboard-response,272,610467,0.0-25.0-2.20,e945a69c-3c1d-47e5-8dcc-c414004fbdc8,null,"<p style=""text-align: center;"">+</p>",null,fixation,,,,,,,,,,,,,,,,,,,,
,,,,,html-slider-response,273,611475,0.0-25.0-0.21,e945a69c-3c1d-47e5-8dcc-c414004fbdc8,1000,"
                  <p style=""text-align: center;"">₪71
                                                <br>55%</p>
                  <p id=""wtp"" style=""text-align:center; margin-top: 0px; margin-bottom: 0px; font-size: 40px"";>&ensp;</p>",-,viewing,0,27,"5B,18A",,,,,,,,,,,,,,,,,
,,,,,html-slider-response,274,615435,0.0-25.0-1.21,e945a69c-3c1d-47e5-8dcc-c414004fbdc8,3959,"
                  <p style=""text-align: center;"">₪71
                                                <br>55%</p>
                  <p id=""wtp"" style=""text-align:center; margin-top: 0px; margin-bottom: 0px; font-size: 40px"";>מוכנים לשלם: <span id=""c_p_y""></span></p>",17,evaluation,40,27,"5B,18A",55,71,17,,,,,,,,,,,,,,
,,,,,html-keyboard-response,275,616195,0.0-25.0-2.21,e945a69c-3c1d-47e5-8dcc-c414004fbdc8,null,"<p style=""text-align: center;"">+</p>",null,fixation,,,,,,,,,,,,,,,,,,,,
,,,,,html-slider-response,276,617198,0.0-25.0-0.22,e945a69c-3c1d-47e5-8dcc-c414004fbdc8,1000,"
                  <p style=""text-align: center;"">₪61
                                                <br>45%</p>
                  <p id=""wtp"" style=""text-align:center; margin-top: 0px; margin-bottom: 0px; font-size: 40px"";>&ensp;</p>",-,viewing,0,22,"10A,11A",,,,,,,,,,,,,,,,,
,,,,,html-slider-response,277,620947,0.0-25.0-1.22,e945a69c-3c1d-47e5-8dcc-c414004fbdc8,3747,"
                  <p style=""text-align: center;"">₪61
                                                <br>45%</p>
                  <p id=""wtp"" style=""text-align:center; margin-top: 0px; margin-bottom: 0px; font-size: 40px"";>מוכנים לשלם: <span id=""c_p_y""></span></p>",10,evaluation,65,22,"10A,11A",45,61,10,,,,,,,,,,,,,,
,,,,,html-keyboard-response,278,622219,0.0-25.0-2.22,e945a69c-3c1d-47e5-8dcc-c414004fbdc8,null,"<p style=""text-align: center;"">+</p>",null,fixation,,,,,,,,,,,,,,,,,,,,
,,,,,html-slider-response,279,623232,0.0-25.0-0.23,e945a69c-3c1d-47e5-8dcc-c414004fbdc8,1000,"
                  <p style=""text-align: center;"">₪36
                                                <br>70%</p>
                  <p id=""wtp"" style=""text-align:center; margin-top: 0px; margin-bottom: 0px; font-size: 40px"";>&ensp;</p>",-,viewing,0,13,"3A,5C,10B",,,,,,,,,,,,,,,,,
,,,,,html-slider-response,280,627227,0.0-25.0-1.23,e945a69c-3c1d-47e5-8dcc-c414004fbdc8,3994,"
                  <p style=""text-align: center;"">₪36
                                                <br>70%</p>
                  <p id=""wtp"" style=""text-align:center; margin-top: 0px; margin-bottom: 0px; font-size: 40px"";>מוכנים לשלם: <span id=""c_p_y""></span></p>",13,evaluation,31,13,"3A,5C,10B",70,36,13,,,,,,,,,,,,,,
,,,,,html-keyboard-response,281,627860,0.0-25.0-2.23,e945a69c-3c1d-47e5-8dcc-c414004fbdc8,null,"<p style=""text-align: center;"">+</p>",null,fixation,,,,,,,,,,,,,,,,,,,,
,,,,,html-slider-response,282,628873,0.0-25.0-0.24,e945a69c-3c1d-47e5-8dcc-c414004fbdc8,1000,"
                  <p style=""text-align: center;"">₪58
                                                <br>45%</p>
                  <p id=""wtp"" style=""text-align:center; margin-top: 0px; margin-bottom: 0px; font-size: 40px"";>&ensp;</p>",-,viewing,0,21,"11C,18C,25A",,,,,,,,,,,,,,,,,
,,,,,html-slider-response,283,632877,0.0-25.0-1.24,e945a69c-3c1d-47e5-8dcc-c414004fbdc8,null,"
                  <p style=""text-align: center;"">₪58
                                                <br>45%</p>
                  <p id=""wtp"" style=""text-align:center; margin-top: 0px; margin-bottom: 0px; font-size: 40px"";>מוכנים לשלם: <span id=""c_p_y""></span></p>",null,evaluation,65,21,"11C,18C,25A",45,58,9,,,,,,,,,,,,,,
,,,,,html-keyboard-response,284,634094,0.0-25.0-2.24,e945a69c-3c1d-47e5-8dcc-c414004fbdc8,null,"<p style=""text-align: center;"">+</p>",null,fixation,,,,,,,,,,,,,,,,,,,,
,,,,,html-slider-response,285,635095,0.0-25.0-0.25,e945a69c-3c1d-47e5-8dcc-c414004fbdc8,1000,"
                  <p style=""text-align: center;"">₪4
                                                <br>75%</p>
                  <p id=""wtp"" style=""text-align:center; margin-top: 0px; margin-bottom: 0px; font-size: 40px"";>&ensp;</p>",-,viewing,0,3,"12B,20B,23B,27C,29C",,,,,,,,,,,,,,,,,
,,,,,html-slider-response,286,639098,0.0-25.0-1.25,e945a69c-3c1d-47e5-8dcc-c414004fbdc8,null,"
                  <p style=""text-align: center;"">₪4
                                                <br>75%</p>
                  <p id=""wtp"" style=""text-align:center; margin-top: 0px; margin-bottom: 0px; font-size: 40px"";>מוכנים לשלם: <span id=""c_p_y""></span></p>",null,evaluation,20,3,"12B,20B,23B,27C,29C",75,4,0,,,,,,,,,,,,,,
,,,,,html-keyboard-response,287,639737,0.0-25.0-2.25,e945a69c-3c1d-47e5-8dcc-c414004fbdc8,null,"<p style=""text-align: center;"">+</p>",null,fixation,,,,,,,,,,,,,,,,,,,,
,,,,,html-slider-response,288,640739,0.0-25.0-0.26,e945a69c-3c1d-47e5-8dcc-c414004fbdc8,1000,"
                  <p style=""text-align: center;"">₪79
                                                <br>65%</p>
                  <p id=""wtp"" style=""text-align:center; margin-top: 0px; margin-bottom: 0px; font-size: 40px"";>&ensp;</p>",-,viewing,0,31,8A,,,,,,,,,,,,,,,,,
,,,,,html-slider-response,289,644754,0.0-25.0-1.26,e945a69c-3c1d-47e5-8dcc-c414004fbdc8,null,"
                  <p style=""text-align: center;"">₪79
                                                <br>65%</p>
                  <p id=""wtp"" style=""text-align:center; margin-top: 0px; margin-bottom: 0px; font-size: 40px"";>מוכנים לשלם: <span id=""c_p_y""></span></p>",null,evaluation,70,31,8A,65,79,14,,,,,,,,,,,,,,
,,,,,html-keyboard-response,290,646033,0.0-25.0-2.26,e945a69c-3c1d-47e5-8dcc-c414004fbdc8,null,"<p style=""text-align: center;"">+</p>",null,fixation,,,,,,,,,,,,,,,,,,,,
,,,,,html-slider-response,291,647045,0.0-25.0-0.27,e945a69c-3c1d-47e5-8dcc-c414004fbdc8,1000,"
                  <p style=""text-align: center;"">₪39
                                                <br>60%</p>
                  <p id=""wtp"" style=""text-align:center; margin-top: 0px; margin-bottom: 0px; font-size: 40px"";>&ensp;</p>",-,viewing,0,15,"9C,25B",,,,,,,,,,,,,,,,,
,,,,,html-slider-response,292,649732,0.0-25.0-1.27,e945a69c-3c1d-47e5-8dcc-c414004fbdc8,2687,"
                  <p style=""text-align: center;"">₪39
                                                <br>60%</p>
                  <p id=""wtp"" style=""text-align:center; margin-top: 0px; margin-bottom: 0px; font-size: 40px"";>מוכנים לשלם: <span id=""c_p_y""></span></p>",10,evaluation,66,15,"9C,25B",60,39,10,,,,,,,,,,,,,,
,,,,,html-keyboard-response,293,651064,0.0-25.0-2.27,e945a69c-3c1d-47e5-8dcc-c414004fbdc8,null,"<p style=""text-align: center;"">+</p>",null,fixation,,,,,,,,,,,,,,,,,,,,
,,,,,html-slider-response,294,652074,0.0-25.0-0.28,e945a69c-3c1d-47e5-8dcc-c414004fbdc8,1000,"
                  <p style=""text-align: center;"">₪43
                                                <br>60%</p>
                  <p id=""wtp"" style=""text-align:center; margin-top: 0px; margin-bottom: 0px; font-size: 40px"";>&ensp;</p>",-,viewing,0,17,"2A,7A,9A,15B",,,,,,,,,,,,,,,,,
,,,,,html-slider-response,295,656076,0.0-25.0-1.28,e945a69c-3c1d-47e5-8dcc-c414004fbdc8,null,"
                  <p style=""text-align: center;"">₪43
                                                <br>60%</p>
                  <p id=""wtp"" style=""text-align:center; margin-top: 0px; margin-bottom: 0px; font-size: 40px"";>מוכנים לשלם: <span id=""c_p_y""></span></p>",null,evaluation,79,17,"2A,7A,9A,15B",60,43,4,,,,,,,,,,,,,,
,,,,,html-keyboard-response,296,656623,0.0-25.0-2.28,e945a69c-3c1d-47e5-8dcc-c414004fbdc8,null,"<p style=""text-align: center;"">+</p>",null,fixation,,,,,,,,,,,,,,,,,,,,
,,,,,html-slider-response,297,657639,0.0-25.0-0.29,e945a69c-3c1d-47e5-8dcc-c414004fbdc8,1000,"
                  <p style=""text-align: center;"">₪58
                                                <br>30%</p>
                  <p id=""wtp"" style=""text-align:center; margin-top: 0px; margin-bottom: 0px; font-size: 40px"";>&ensp;</p>",-,viewing,0,19,"13C,30A",,,,,,,,,,,,,,,,,
,,,,,html-slider-response,298,661641,0.0-25.0-1.29,e945a69c-3c1d-47e5-8dcc-c414004fbdc8,null,"
                  <p style=""text-align: center;"">₪58
                                                <br>30%</p>
                  <p id=""wtp"" style=""text-align:center; margin-top: 0px; margin-bottom: 0px; font-size: 40px"";>מוכנים לשלם: <span id=""c_p_y""></span></p>",null,evaluation,38,19,"13C,30A",30,58,15,,,,,,,,,,,,,,
,,,,,html-keyboard-response,299,662860,0.0-25.0-2.29,e945a69c-3c1d-47e5-8dcc-c414004fbdc8,null,"<p style=""text-align: center;"">+</p>",null,fixation,,,,,,,,,,,,,,,,,,,,
,,,,,html-slider-response,300,663876,0.0-25.0-0.30,e945a69c-3c1d-47e5-8dcc-c414004fbdc8,1000,"
                  <p style=""text-align: center;"">₪36
                                                <br>75%</p>
                  <p id=""wtp"" style=""text-align:center; margin-top: 0px; margin-bottom: 0px; font-size: 40px"";>&ensp;</p>",-,viewing,0,14,"4B,5A,13B,16B",,,,,,,,,,,,,,,,,
,,,,,html-slider-response,301,666900,0.0-25.0-1.30,e945a69c-3c1d-47e5-8dcc-c414004fbdc8,3023,"
                  <p style=""text-align: center;"">₪36
                                                <br>75%</p>
                  <p id=""wtp"" style=""text-align:center; margin-top: 0px; margin-bottom: 0px; font-size: 40px"";>מוכנים לשלם: <span id=""c_p_y""></span></p>",15,evaluation,34,14,"4B,5A,13B,16B",75,36,15,,,,,,,,,,,,,,
,,,,,html-keyboard-response,302,668341,0.0-25.0-2.30,e945a69c-3c1d-47e5-8dcc-c414004fbdc8,null,"<p style=""text-align: center;"">+</p>",null,fixation,,,,,,,,,,,,,,,,,,,,
,,,,,html-keyboard-response,303,669345,0.0-26.0,e945a69c-3c1d-47e5-8dcc-c414004fbdc8,null,"<p style=""text-align: center;"">+</p>",null,fixation,,,,,,,,,,,,,,,,,,,,
,,,,,html-keyboard-response,304,670046,0.0-27.0,e945a69c-3c1d-47e5-8dcc-c414004fbdc8,null,,null,delay,,,,,,,,,,,,,,,,,,,,
,,,,,html-keyboard-response,305,680807,0.0-28.0,e945a69c-3c1d-47e5-8dcc-c414004fbdc8,10759,"
        <h1>יפה מאוד! סיימתם את חלק 1!</h1>
        <p>מיד נעבור לחלק 2.</p>
        <p>לחצו רווח במקלדת כדי להמשיך.</p>", ,instructions,,,,,,,,,,,,,,,,,,,,
,,,,,html-keyboard-response,306,694595,0.0-29.0,e945a69c-3c1d-47e5-8dcc-c414004fbdc8,13731,"
          <h1>חלק 2</h1>
          <p>בחלק זה יוצגו בפניכם שתי הגרלות.
          <br>אתם מתבקשים לבחור את ההגרלה שתרצו להשתתף בה.
          <br>שימו לב! בסוף הניסוי נבחר שלב אחד באקראי ונממש את ההגרלה שבחרתם. כלומר, הבחירה שלכם יכולה להפוך לכסף אמיתי.
          <br><br>לחצו רווח כדי להמשיך.</p>", ,instructions,,,,,,,,,,,,,,,,,,,,
,,,,,html-keyboard-response,307,704962,0.0-30.0,e945a69c-3c1d-47e5-8dcc-c414004fbdc8,9666,"
