"success","timeout","failed_images","failed_audio","failed_video","trial_type","trial_index","time_elapsed","internal_node_id","subject_id","rt","stimulus","response","part","slider_start","ID","set_ID","prob","amount","last_location","actual_choice","actual_EV","binary_id","trinary_id","catch","A_key","D_key","choice_prob","choice_amount","chosen_part","potential_prize_prob","potential_prize_amount","won_prize","total_prize","prize_cost","accuracy"
"true","false","[]","[]","[]","preload","0","58","0.0-0.0","9eae6b8f-2579-4b67-bd55-3ddef3c1e4fd","","","","","","","","","","","","","","","","","","","","","","","","","",""
"","","","","","html-keyboard-response","1","1217223","0.0-1.0","9eae6b8f-2579-4b67-bd55-3ddef3c1e4fd","null","
          <h1>שלום וברוכים הבאים!</h1>
          <p>לפניכם ניסוי בקבלת החלטות עם שני חלקים.
          <br><br>לחצו על העכבר כדי להמשיך.</p>","0","example","","","","","","","","","","","","","","","","","","","","","",""
"","","","","","html-keyboard-response","2","1229366","0.0-2.0","9eae6b8f-2579-4b67-bd55-3ddef3c1e4fd","null","
        <h1>חלק 1</h1>
        <p>בקרוב יוצגו בפניכם הגרלות.
        <br>עליכם לבחור את המחיר המירבי שתהיו מוכנים לשלם כדי להשתתף בהגרלה שתוצג.
        <br>יש לכם תקציב של ₪80 לכל הגרלה. 
        <br>נסו להעריך כל הגרלה בנפרד ולחשוב כמה היא שווה עבורכם, ₪80 זמינים לכל הגרלה בנפרד.
        <br><br>לחצו על העכבר כדי להמשיך.</p>","1","instructions","","","","","","","","","","","","","","","","","","","","","",""
"","","","","","html-keyboard-response","3","1246158","0.0-3.0","9eae6b8f-2579-4b67-bd55-3ddef3c1e4fd","null","
        <p>בסוף הניסוי, המחשב יבחר את אחת ההגרלות ויקבע מחיר לכרטיס עבורה. 
        <br>במידה והמחיר שבחרתם נמוך מהמחיר שנבחר על ידי המחשב, לא תשתתפו בהגרלה ותשארו עם מלוא התקציב.
        <br>במידה והמחיר שבחרתם גבוה מהמחיר שנבחר על ידי המחשב, תשלמו את המחיר שנקבע ותשתתפו בהגרלה.
        <br><br>לחצו על העכבר כדי להמשיך.</p>","1","instructions","","","","","","","","","","","","","","","","","","","","","",""
"","","","","","html-slider-response","4","1271934","0.0-4.0","9eae6b8f-2579-4b67-bd55-3ddef3c1e4fd","25669","
        <p style=""font-size: 42px;"">נתחיל עם דוגמא: 
        <br>ההגרלה מטה מציעה 65% סיכוי לזכות ב-₪40 
        <br>&emsp;&emsp;&emsp;&emsp;&emsp;&emsp;&emsp;&emsp;&ensp;35% סיכוי לזכות ב-₪0.
        <br><br>מה המחיר המירבי שתהיו מוכנים לשלם על כרטיס להגרלה זו בין 0 ל-₪80?
        <br>הזיזו את העכבר על פני המלבן ולחצו כדי לבצע בחירה.</p>
        
        <p style=""text-align: center;"">₪40<br>65%</p>

        <p id=""wtp"" style=""text-align:center; margin-top: 0px; margin-bottom: 0px; font-size: 40px"";>מוכנים לשלם: <span id=""c_p_y""></span></p>","20","example","41","","","","","","","","","","","","","","","","","","","","",""
"","","","","","html-keyboard-response","5","1281806","0.0-5.0","9eae6b8f-2579-4b67-bd55-3ddef3c1e4fd","null","<p>יפה מאוד!
                <br> בחרתם שתהיו מוכנים לשלם ₪20 כדי להשתתף בהגרלה:
                <br><p style=""text-align: center;"">₪40<br>65%</p>
                <p>נשמע נכון?
                <br>נניח שהגרלה זו נבחרה בסוף הניסוי.
                <br>כעת המחשב יקבע מחיר עבורה באקראי.
                <br>לחצו על העכבר להמשך.</p>","1","example","","","","","","","","","","","","","","","","","","","","","",""
"","","","","","html-keyboard-response","6","1294142","0.0-6.0","9eae6b8f-2579-4b67-bd55-3ddef3c1e4fd","null","<p>המחשב קבע מחיר: ₪45
                <br>ואתם בחרתם לשלם לכל היותר: ₪20
                <br><br>מכיוון שהמחיר שבחרתם נמוך מהמחיר שנקבע, לא תתשתתפו בהגרלה.
                <br>במקרה כזה, בסוף הניסוי תקבלו את כל התקציב ההתחלתי של ₪80.
                <br><br>לחצו על העכבר להמשך.</p>","1","example","","","","","","","","","","","","","","","","","","","","","",""
"","","","","","html-slider-response","7","1305398","0.0-7.0","9eae6b8f-2579-4b67-bd55-3ddef3c1e4fd","11003","<p style=""font-size: 42px;"">הנה עוד דוגמא:
                <br>ההגרלה מטה מציעה 35% סיכוי לזכות ב-₪18 
                <br>&emsp;&emsp;&emsp;&emsp;&emsp;&emsp;&emsp;&emsp;&ensp;65% סיכוי לזכות ב-₪0.</p>
        
                <p style=""text-align: center;"">₪18<br>35%</p>
                <p id=""wtp"" style=""text-align:center; margin-top: 0px; margin-bottom: 0px; font-size: 40px"";>מוכנים לשלם: <span id=""c_p_y""></span></p>","5","example","75","","","","","","","","","","","","","","","","","","","","",""
"","","","","","html-keyboard-response","8","1310838","0.0-8.0","9eae6b8f-2579-4b67-bd55-3ddef3c1e4fd","null","<p>הייתם מוכנים לשלם  ₪5 כדי להשתתף בהגרלה:
                <p style=""text-align: center;"">₪18<br>35%</p>
                <p>כעת נניח שהמחשב בחר את ההגרלה הזו בסוף הניסוי, וקבע עבורה מחיר.
                <br><br>לחצו על העכבר כדי להמשיך.</p>","1","instructions","","","","","","","","","","","","","","","","","","","","","",""
"","","","","","html-keyboard-response","9","1326326","0.0-9.0","9eae6b8f-2579-4b67-bd55-3ddef3c1e4fd","null","<p>המחשב קבע מחיר להגרלה: ₪0<br>ואתם בחרתם לשלם לכל היותר: ₪5
                <br><br>כעת המחיר שנקבע נמוך מזה שבחרתם, אז תשלמו את המחיר שקבע המחשב (₪0) ותשתתפו בהגרלה.
                <br>במקרה כזה, תסיימו את הניסוי עם תקציב של ₪80 ועם סיכוי לזכות ב-₪18 נוספים מההגרלה.
                <br>כלומר, תוכלו לקבל ₪80 אם לא תזכו בהגרלה, או ₪98 אם תזכו בהגרלה.
                <br><br>לחצו על העכבר להמשך.</p>","1","example","","","","","","","","","","","","","","","","","","","","","",""
"","","","","","html-keyboard-response","10","1335854","0.0-10.0","9eae6b8f-2579-4b67-bd55-3ddef3c1e4fd","null","<p>במהלך הניסוי, קודם תראו את ההגרלה ורק לאחר מכן תוכלו לבחור.
                <p>כמו כן, יהיו לכם מספר שניות מוגבל להגיב.
                <p>בואו ננסה זאת עם ההגרלה הקודמת.
                <br>לחצו על העכבר כדי להמשיך.</p>","1","instructions","","","","","","","","","","","","","","","","","","","","","",""
"","","","","","html-slider-response","11","1337109","0.0-11.0","9eae6b8f-2579-4b67-bd55-3ddef3c1e4fd","1000","
                    <p style=""text-align: center;"">₪18<br>35%</p>
                    <p id=""wtp"" style=""text-align:center; margin-top: 0px; margin-bottom: 0px; font-size: 40px"";>&ensp;</p>","47","instructions","0","","","","","","","","","","","","","","","","","","","","",""
"","","","","","html-slider-response","12","1337550","0.0-12.0","9eae6b8f-2579-4b67-bd55-3ddef3c1e4fd","188","
                    <p style=""text-align: center;"">₪18<br>35%</p>
                    <p id=""wtp"" style=""text-align:center; margin-top: 0px; margin-bottom: 0px; font-size: 40px"";>מוכנים לשלם: <span id=""c_p_y""></span></p>","60","instructions","60","","","","","","","","","","","","","","","","","","","","",""
"","","","","","html-keyboard-response","13","1341678","0.0-13.0","9eae6b8f-2579-4b67-bd55-3ddef3c1e4fd","null","<p>יפה. הפעם בחרתם לשלם לכל היותר ₪60.
                <br><br>לחצו על העכבר כדי להמשיך.</p>","1","instructions","","","","","","","","","","","","","","","","","","","","","",""
"","","","","","html-keyboard-response","14","1352191","0.0-15.0","9eae6b8f-2579-4b67-bd55-3ddef3c1e4fd","null","<p>כעת נתחיל את הניסוי.
                <br><br>אתם תראו הגרלות ותתבקשו לבחור כמה תהיו מוכנים לשלם כדי להשתתף בהן.
                <br>יש לכם תקציב של ₪80 עבור כל הגרלה.
                <br>בסוף הניסוי הגרלה אחת תבחר באקראי ותשוחק.
                <br><br>לחצו על העכבר כדי להתחיל את הניסוי.</p>","1","instructions","","","","","","","","","","","","","","","","","","","","","",""
"","","","","","html-keyboard-response","15","1353441","0.0-16.0","9eae6b8f-2579-4b67-bd55-3ddef3c1e4fd","null","<p style=""text-align: center;"">+</p>","null","fixation","","","","","","","","","","","","","","","","","","","","","",""
"","","","","","html-slider-response","16","1354446","0.0-17.0-0.0","9eae6b8f-2579-4b67-bd55-3ddef3c1e4fd","1000","
                  <p style=""text-align: center;"">₪58
                                                <br>40%</p>
                  <p id=""wtp"" style=""text-align:center; margin-top: 0px; margin-bottom: 0px; font-size: 40px"";>&ensp;</p>","-","viewing","0","20","10C,13A,19C,21B","","","","","","","","","","","","","","","","","","",""
"","","","","","html-slider-response","17","1358449","0.0-17.0-1.0","9eae6b8f-2579-4b67-bd55-3ddef3c1e4fd","null","
                  <p style=""text-align: center;"">₪58
                                                <br>40%</p>
                  <p id=""wtp"" style=""text-align:center; margin-top: 0px; margin-bottom: 0px; font-size: 40px"";>מוכנים לשלם: <span id=""c_p_y""></span></p>","null","evaluation","66","20","10C,13A,19C,21B","40","58","46","","","","","","","","","","","","","","","",""
"","","","","","html-keyboard-response","18","1359740","0.0-17.0-2.0","9eae6b8f-2579-4b67-bd55-3ddef3c1e4fd","null","<p style=""text-align: center;"">+</p>","null","fixation","","","","","","","","","","","","","","","","","","","","","",""
"","","","","","html-slider-response","19","1360743","0.0-17.0-0.1","9eae6b8f-2579-4b67-bd55-3ddef3c1e4fd","1000","
                  <p style=""text-align: center;"">₪76
                                                <br>65%</p>
                  <p id=""wtp"" style=""text-align:center; margin-top: 0px; margin-bottom: 0px; font-size: 40px"";>&ensp;</p>","-","viewing","0","29","8C,19A,24B","","","","","","","","","","","","","","","","","","",""
"","","","","","html-slider-response","20","1363471","0.0-17.0-1.1","9eae6b8f-2579-4b67-bd55-3ddef3c1e4fd","2726","
                  <p style=""text-align: center;"">₪76
                                                <br>65%</p>
                  <p id=""wtp"" style=""text-align:center; margin-top: 0px; margin-bottom: 0px; font-size: 40px"";>מוכנים לשלם: <span id=""c_p_y""></span></p>","62","evaluation","52","29","8C,19A,24B","65","76","62","","","","","","","","","","","","","","","",""
"","","","","","html-keyboard-response","21","1364012","0.0-17.0-2.1","9eae6b8f-2579-4b67-bd55-3ddef3c1e4fd","null","<p style=""text-align: center;"">+</p>","null","fixation","","","","","","","","","","","","","","","","","","","","","",""
"","","","","","html-slider-response","22","1365014","0.0-17.0-0.2","9eae6b8f-2579-4b67-bd55-3ddef3c1e4fd","1000","
                  <p style=""text-align: center;"">₪61
                                                <br>55%</p>
                  <p id=""wtp"" style=""text-align:center; margin-top: 0px; margin-bottom: 0px; font-size: 40px"";>&ensp;</p>","-","viewing","0","23","7B,26B","","","","","","","","","","","","","","","","","","",""
"","","","","","html-slider-response","23","1368535","0.0-17.0-1.2","9eae6b8f-2579-4b67-bd55-3ddef3c1e4fd","3519","
                  <p style=""text-align: center;"">₪61
                                                <br>55%</p>
                  <p id=""wtp"" style=""text-align:center; margin-top: 0px; margin-bottom: 0px; font-size: 40px"";>מוכנים לשלם: <span id=""c_p_y""></span></p>","66","evaluation","18","23","7B,26B","55","61","65","","","","","","","","","","","","","","","",""
"","","","","","html-keyboard-response","24","1369868","0.0-17.0-2.2","9eae6b8f-2579-4b67-bd55-3ddef3c1e4fd","null","<p style=""text-align: center;"">+</p>","null","fixation","","","","","","","","","","","","","","","","","","","","","",""
"","","","","","html-slider-response","25","1370871","0.0-17.0-0.3","9eae6b8f-2579-4b67-bd55-3ddef3c1e4fd","1000","
                  <p style=""text-align: center;"">₪4
                                                <br>25%</p>
                  <p id=""wtp"" style=""text-align:center; margin-top: 0px; margin-bottom: 0px; font-size: 40px"";>&ensp;</p>","-","viewing","0","1","6C,29B,30C","","","","","","","","","","","","","","","","","","",""
"","","","","","html-slider-response","26","1372687","0.0-17.0-1.3","9eae6b8f-2579-4b67-bd55-3ddef3c1e4fd","1814","
                  <p style=""text-align: center;"">₪4
                                                <br>25%</p>
                  <p id=""wtp"" style=""text-align:center; margin-top: 0px; margin-bottom: 0px; font-size: 40px"";>מוכנים לשלם: <span id=""c_p_y""></span></p>","4","evaluation","9","1","6C,29B,30C","25","4","5","","","","","","","","","","","","","","","",""
"","","","","","html-keyboard-response","27","1373989","0.0-17.0-2.3","9eae6b8f-2579-4b67-bd55-3ddef3c1e4fd","null","<p style=""text-align: center;"">+</p>","null","fixation","","","","","","","","","","","","","","","","","","","","","",""
"","","","","","html-slider-response","28","1374992","0.0-17.0-0.4","9eae6b8f-2579-4b67-bd55-3ddef3c1e4fd","1000","
                  <p style=""text-align: center;"">₪18
                                                <br>25%</p>
                  <p id=""wtp"" style=""text-align:center; margin-top: 0px; margin-bottom: 0px; font-size: 40px"";>&ensp;</p>","-","viewing","0","9","14A,23A","","","","","","","","","","","","","","","","","","",""
"","","","","","html-slider-response","29","1377630","0.0-17.0-1.4","9eae6b8f-2579-4b67-bd55-3ddef3c1e4fd","2637","
                  <p style=""text-align: center;"">₪18
                                                <br>25%</p>
                  <p id=""wtp"" style=""text-align:center; margin-top: 0px; margin-bottom: 0px; font-size: 40px"";>מוכנים לשלם: <span id=""c_p_y""></span></p>","6","evaluation","44","9","14A,23A","25","18","6","","","","","","","","","","","","","","","",""
"","","","","","html-keyboard-response","30","1378698","0.0-17.0-2.4","9eae6b8f-2579-4b67-bd55-3ddef3c1e4fd","null","<p style=""text-align: center;"">+</p>","null","fixation","","","","","","","","","","","","","","","","","","","","","",""
"","","","","","html-slider-response","31","1379701","0.0-17.0-0.5","9eae6b8f-2579-4b67-bd55-3ddef3c1e4fd","1000","
                  <p style=""text-align: center;"">₪79
                                                <br>40%</p>
                  <p id=""wtp"" style=""text-align:center; margin-top: 0px; margin-bottom: 0px; font-size: 40px"";>&ensp;</p>","-","viewing","0","30","9B","","","","","","","","","","","","","","","","","","",""
"","","","","","html-slider-response","32","1383713","0.0-17.0-1.5","9eae6b8f-2579-4b67-bd55-3ddef3c1e4fd","null","
                  <p style=""text-align: center;"">₪79
                                                <br>40%</p>
                  <p id=""wtp"" style=""text-align:center; margin-top: 0px; margin-bottom: 0px; font-size: 40px"";>מוכנים לשלם: <span id=""c_p_y""></span></p>","null","evaluation","16","30","9B","40","79","76","","","","","","","","","","","","","","","",""
"","","","","","html-keyboard-response","33","1384275","0.0-17.0-2.5","9eae6b8f-2579-4b67-bd55-3ddef3c1e4fd","null","<p style=""text-align: center;"">+</p>","null","fixation","","","","","","","","","","","","","","","","","","","","","",""
"","","","","","html-slider-response","34","1385278","0.0-17.0-0.6","9eae6b8f-2579-4b67-bd55-3ddef3c1e4fd","1000","
                  <p style=""text-align: center;"">₪11
                                                <br>75%</p>
                  <p id=""wtp"" style=""text-align:center; margin-top: 0px; margin-bottom: 0px; font-size: 40px"";>&ensp;</p>","-","viewing","0","7","6B,18B,22C,24C,29A","","","","","","","","","","","","","","","","","","",""
"","","","","","html-slider-response","35","1389278","0.0-17.0-1.6","9eae6b8f-2579-4b67-bd55-3ddef3c1e4fd","null","
                  <p style=""text-align: center;"">₪11
                                                <br>75%</p>
                  <p id=""wtp"" style=""text-align:center; margin-top: 0px; margin-bottom: 0px; font-size: 40px"";>מוכנים לשלם: <span id=""c_p_y""></span></p>","null","evaluation","0","7","6B,18B,22C,24C,29A","75","11","33","","","","","","","","","","","","","","","",""
"","","","","","html-keyboard-response","36","1389949","0.0-17.0-2.6","9eae6b8f-2579-4b67-bd55-3ddef3c1e4fd","null","<p style=""text-align: center;"">+</p>","null","fixation","","","","","","","","","","","","","","","","","","","","","",""
"","","","","","html-slider-response","37","1390951","0.0-17.0-0.7","9eae6b8f-2579-4b67-bd55-3ddef3c1e4fd","1000","
                  <p style=""text-align: center;"">₪71
                                                <br>75%</p>
                  <p id=""wtp"" style=""text-align:center; margin-top: 0px; margin-bottom: 0px; font-size: 40px"";>&ensp;</p>","-","viewing","0","28","8B","","","","","","","","","","","","","","","","","","",""
"","","","","","html-slider-response","38","1393343","0.0-17.0-1.7","9eae6b8f-2579-4b67-bd55-3ddef3c1e4fd","2391","
                  <p style=""text-align: center;"">₪71
                                                <br>75%</p>
                  <p id=""wtp"" style=""text-align:center; margin-top: 0px; margin-bottom: 0px; font-size: 40px"";>מוכנים לשלם: <span id=""c_p_y""></span></p>","58","evaluation","75","28","8B","75","71","58","","","","","","","","","","","","","","","",""
"","","","","","html-keyboard-response","39","1394421","0.0-17.0-2.7","9eae6b8f-2579-4b67-bd55-3ddef3c1e4fd","null","<p style=""text-align: center;"">+</p>","null","fixation","","","","","","","","","","","","","","","","","","","","","",""
"","","","","","html-slider-response","40","1395423","0.0-17.0-0.8","9eae6b8f-2579-4b67-bd55-3ddef3c1e4fd","1000","
                  <p style=""text-align: center;"">₪4
                                                <br>75%</p>
                  <p id=""wtp"" style=""text-align:center; margin-top: 0px; margin-bottom: 0px; font-size: 40px"";>&ensp;</p>","-","viewing","0","3","12B,20B,23B,27C,29C","","","","","","","","","","","","","","","","","","",""
"","","","","","html-slider-response","41","1398654","0.0-17.0-1.8","9eae6b8f-2579-4b67-bd55-3ddef3c1e4fd","3231","
                  <p style=""text-align: center;"">₪4
                                                <br>75%</p>
                  <p id=""wtp"" style=""text-align:center; margin-top: 0px; margin-bottom: 0px; font-size: 40px"";>מוכנים לשלם: <span id=""c_p_y""></span></p>","46","evaluation","38","3","12B,20B,23B,27C,29C","75","4","46","","","","","","","","","","","","","","","",""
"","","","","","html-keyboard-response","42","1400084","0.0-17.0-2.8","9eae6b8f-2579-4b67-bd55-3ddef3c1e4fd","null","<p style=""text-align: center;"">+</p>","null","fixation","","","","","","","","","","","","","","","","","","","","","",""
"","","","","","html-slider-response","43","1401086","0.0-17.0-0.9","9eae6b8f-2579-4b67-bd55-3ddef3c1e4fd","1000","
                  <p style=""text-align: center;"">₪79
                                                <br>65%</p>
                  <p id=""wtp"" style=""text-align:center; margin-top: 0px; margin-bottom: 0px; font-size: 40px"";>&ensp;</p>","-","viewing","0","31","8A","","","","","","","","","","","","","","","","","","",""
"","","","","","html-slider-response","44","1402486","0.0-17.0-1.9","9eae6b8f-2579-4b67-bd55-3ddef3c1e4fd","1399","
                  <p style=""text-align: center;"">₪79
                                                <br>65%</p>
                  <p id=""wtp"" style=""text-align:center; margin-top: 0px; margin-bottom: 0px; font-size: 40px"";>מוכנים לשלם: <span id=""c_p_y""></span></p>","74","evaluation","15","31","8A","65","79","74","","","","","","","","","","","","","","","",""
"","","","","","html-keyboard-response","45","1403716","0.0-17.0-2.9","9eae6b8f-2579-4b67-bd55-3ddef3c1e4fd","null","<p style=""text-align: center;"">+</p>","null","fixation","","","","","","","","","","","","","","","","","","","","","",""
"","","","","","html-slider-response","46","1404718","0.0-17.0-0.10","9eae6b8f-2579-4b67-bd55-3ddef3c1e4fd","1000","
                  <p style=""text-align: center;"">₪36
                                                <br>60%</p>
                  <p id=""wtp"" style=""text-align:center; margin-top: 0px; margin-bottom: 0px; font-size: 40px"";>&ensp;</p>","-","viewing","0","12","1C,7C,15C","","","","","","","","","","","","","","","","","","",""
"","","","","","html-slider-response","47","1406830","0.0-17.0-1.10","9eae6b8f-2579-4b67-bd55-3ddef3c1e4fd","2111","
                  <p style=""text-align: center;"">₪36
                                                <br>60%</p>
                  <p id=""wtp"" style=""text-align:center; margin-top: 0px; margin-bottom: 0px; font-size: 40px"";>מוכנים לשלם: <span id=""c_p_y""></span></p>","30","evaluation","31","12","1C,7C,15C","60","36","30","","","","","","","","","","","","","","","",""
"","","","","","html-keyboard-response","48","1407883","0.0-17.0-2.10","9eae6b8f-2579-4b67-bd55-3ddef3c1e4fd","null","<p style=""text-align: center;"">+</p>","null","fixation","","","","","","","","","","","","","","","","","","","","","",""
"","","","","","html-slider-response","49","1408885","0.0-17.0-0.11","9eae6b8f-2579-4b67-bd55-3ddef3c1e4fd","1000","
                  <p style=""text-align: center;"">₪58
                                                <br>30%</p>
                  <p id=""wtp"" style=""text-align:center; margin-top: 0px; margin-bottom: 0px; font-size: 40px"";>&ensp;</p>","-","viewing","0","19","13C,30A","","","","","","","","","","","","","","","","","","",""
"","","","","","html-slider-response","50","1410646","0.0-17.0-1.11","9eae6b8f-2579-4b67-bd55-3ddef3c1e4fd","1760","
                  <p style=""text-align: center;"">₪58
                                                <br>30%</p>
                  <p id=""wtp"" style=""text-align:center; margin-top: 0px; margin-bottom: 0px; font-size: 40px"";>מוכנים לשלם: <span id=""c_p_y""></span></p>","21","evaluation","72","19","13C,30A","30","58","21","","","","","","","","","","","","","","","",""
"","","","","","html-keyboard-response","51","1411258","0.0-17.0-2.11","9eae6b8f-2579-4b67-bd55-3ddef3c1e4fd","null","<p style=""text-align: center;"">+</p>","null","fixation","","","","","","","","","","","","","","","","","","","","","",""
"","","","","","html-slider-response","52","1412261","0.0-17.0-0.12","9eae6b8f-2579-4b67-bd55-3ddef3c1e4fd","1000","
                  <p style=""text-align: center;"">₪18
                                                <br>50%</p>
                  <p id=""wtp"" style=""text-align:center; margin-top: 0px; margin-bottom: 0px; font-size: 40px"";>&ensp;</p>","-","viewing","0","10","2C,16C,22B,28A","","","","","","","","","","","","","","","","","","",""
"","","","","","html-slider-response","53","1416230","0.0-17.0-1.12","9eae6b8f-2579-4b67-bd55-3ddef3c1e4fd","3968","
                  <p style=""text-align: center;"">₪18
                                                <br>50%</p>
                  <p id=""wtp"" style=""text-align:center; margin-top: 0px; margin-bottom: 0px; font-size: 40px"";>מוכנים לשלם: <span id=""c_p_y""></span></p>","15","evaluation","47","10","2C,16C,22B,28A","50","18","15","","","","","","","","","","","","","","","",""
"","","","","","html-keyboard-response","54","1417703","0.0-17.0-2.12","9eae6b8f-2579-4b67-bd55-3ddef3c1e4fd","null","<p style=""text-align: center;"">+</p>","null","fixation","","","","","","","","","","","","","","","","","","","","","",""
"","","","","","html-slider-response","55","1418705","0.0-17.0-0.13","9eae6b8f-2579-4b67-bd55-3ddef3c1e4fd","1000","
                  <p style=""text-align: center;"">₪58
                                                <br>45%</p>
                  <p id=""wtp"" style=""text-align:center; margin-top: 0px; margin-bottom: 0px; font-size: 40px"";>&ensp;</p>","-","viewing","0","21","11C,18C,25A","","","","","","","","","","","","","","","","","","",""
"","","","","","html-slider-response","56","1422678","0.0-17.0-1.13","9eae6b8f-2579-4b67-bd55-3ddef3c1e4fd","3972","
                  <p style=""text-align: center;"">₪58
                                                <br>45%</p>
                  <p id=""wtp"" style=""text-align:center; margin-top: 0px; margin-bottom: 0px; font-size: 40px"";>מוכנים לשלם: <span id=""c_p_y""></span></p>","53","evaluation","44","21","11C,18C,25A","45","58","53","","","","","","","","","","","","","","","",""
"","","","","","html-keyboard-response","57","1423711","0.0-17.0-2.13","9eae6b8f-2579-4b67-bd55-3ddef3c1e4fd","null","<p style=""text-align: center;"">+</p>","null","fixation","","","","","","","","","","","","","","","","","","","","","",""
"","","","","","html-slider-response","58","1424714","0.0-17.0-0.14","9eae6b8f-2579-4b67-bd55-3ddef3c1e4fd","1000","
                  <p style=""text-align: center;"">₪39
                                                <br>60%</p>
                  <p id=""wtp"" style=""text-align:center; margin-top: 0px; margin-bottom: 0px; font-size: 40px"";>&ensp;</p>","-","viewing","0","15","9C,25B","","","","","","","","","","","","","","","","","","",""
"","","","","","html-slider-response","59","1428654","0.0-17.0-1.14","9eae6b8f-2579-4b67-bd55-3ddef3c1e4fd","3939","
                  <p style=""text-align: center;"">₪39
                                                <br>60%</p>
                  <p id=""wtp"" style=""text-align:center; margin-top: 0px; margin-bottom: 0px; font-size: 40px"";>מוכנים לשלם: <span id=""c_p_y""></span></p>","16","evaluation","9","15","9C,25B","60","39","16","","","","","","","","","","","","","","","",""
"","","","","","html-keyboard-response","60","1429259","0.0-17.0-2.14","9eae6b8f-2579-4b67-bd55-3ddef3c1e4fd","null","<p style=""text-align: center;"">+</p>","null","fixation","","","","","","","","","","","","","","","","","","","","","",""
"","","","","","html-slider-response","61","1430261","0.0-17.0-0.15","9eae6b8f-2579-4b67-bd55-3ddef3c1e4fd","1000","
                  <p style=""text-align: center;"">₪11
                                                <br>20%</p>
                  <p id=""wtp"" style=""text-align:center; margin-top: 0px; margin-bottom: 0px; font-size: 40px"";>&ensp;</p>","-","viewing","0","4","12C,17C,23C,28C","","","","","","","","","","","","","","","","","","",""
"","","","","","html-slider-response","62","1433134","0.0-17.0-1.15","9eae6b8f-2579-4b67-bd55-3ddef3c1e4fd","2872","
                  <p style=""text-align: center;"">₪11
                                                <br>20%</p>
                  <p id=""wtp"" style=""text-align:center; margin-top: 0px; margin-bottom: 0px; font-size: 40px"";>מוכנים לשלם: <span id=""c_p_y""></span></p>","5","evaluation","25","4","12C,17C,23C,28C","20","11","5","","","","","","","","","","","","","","","",""
"","","","","","html-keyboard-response","63","1433690","0.0-17.0-2.15","9eae6b8f-2579-4b67-bd55-3ddef3c1e4fd","null","<p style=""text-align: center;"">+</p>","null","fixation","","","","","","","","","","","","","","","","","","","","","",""
"","","","","","html-slider-response","64","1434693","0.0-17.0-0.16","9eae6b8f-2579-4b67-bd55-3ddef3c1e4fd","1000","
                  <p style=""text-align: center;"">₪64
                                                <br>25%</p>
                  <p id=""wtp"" style=""text-align:center; margin-top: 0px; margin-bottom: 0px; font-size: 40px"";>&ensp;</p>","-","viewing","0","24","6A,21A","","","","","","","","","","","","","","","","","","",""
"","","","","","html-slider-response","65","1438319","0.0-17.0-1.16","9eae6b8f-2579-4b67-bd55-3ddef3c1e4fd","3624","
                  <p style=""text-align: center;"">₪64
                                                <br>25%</p>
                  <p id=""wtp"" style=""text-align:center; margin-top: 0px; margin-bottom: 0px; font-size: 40px"";>מוכנים לשלם: <span id=""c_p_y""></span></p>","30","evaluation","0","24","6A,21A","25","64","30","","","","","","","","","","","","","","","",""
"","","","","","html-keyboard-response","66","1439663","0.0-17.0-2.16","9eae6b8f-2579-4b67-bd55-3ddef3c1e4fd","null","<p style=""text-align: center;"">+</p>","null","fixation","","","","","","","","","","","","","","","","","","","","","",""
"","","","","","html-slider-response","67","1440665","0.0-17.0-0.17","9eae6b8f-2579-4b67-bd55-3ddef3c1e4fd","1000","
                  <p style=""text-align: center;"">₪11
                                                <br>25%</p>
                  <p id=""wtp"" style=""text-align:center; margin-top: 0px; margin-bottom: 0px; font-size: 40px"";>&ensp;</p>","-","viewing","0","5","12A,27B,28B,30B","","","","","","","","","","","","","","","","","","",""
"","","","","","html-slider-response","68","1443678","0.0-17.0-1.17","9eae6b8f-2579-4b67-bd55-3ddef3c1e4fd","3012","
                  <p style=""text-align: center;"">₪11
                                                <br>25%</p>
                  <p id=""wtp"" style=""text-align:center; margin-top: 0px; margin-bottom: 0px; font-size: 40px"";>מוכנים לשלם: <span id=""c_p_y""></span></p>","3","evaluation","8","5","12A,27B,28B,30B","25","11","3","","","","","","","","","","","","","","","",""
"","","","","","html-keyboard-response","69","1444996","0.0-17.0-2.17","9eae6b8f-2579-4b67-bd55-3ddef3c1e4fd","null","<p style=""text-align: center;"">+</p>","null","fixation","","","","","","","","","","","","","","","","","","","","","",""
"","","","","","html-slider-response","70","1445998","0.0-17.0-0.18","9eae6b8f-2579-4b67-bd55-3ddef3c1e4fd","1000","
                  <p style=""text-align: center;"">₪43
                                                <br>60%</p>
                  <p id=""wtp"" style=""text-align:center; margin-top: 0px; margin-bottom: 0px; font-size: 40px"";>&ensp;</p>","-","viewing","0","17","2A,7A,9A,15B","","","","","","","","","","","","","","","","","","",""
"","","","","","html-slider-response","71","1449999","0.0-17.0-1.18","9eae6b8f-2579-4b67-bd55-3ddef3c1e4fd","null","
                  <p style=""text-align: center;"">₪43
                                                <br>60%</p>
                  <p id=""wtp"" style=""text-align:center; margin-top: 0px; margin-bottom: 0px; font-size: 40px"";>מוכנים לשלם: <span id=""c_p_y""></span></p>","null","evaluation","63","17","2A,7A,9A,15B","60","43","32","","","","","","","","","","","","","","","",""
"","","","","","html-keyboard-response","72","1450734","0.0-17.0-2.18","9eae6b8f-2579-4b67-bd55-3ddef3c1e4fd","null","<p style=""text-align: center;"">+</p>","null","fixation","","","","","","","","","","","","","","","","","","","","","",""
"","","","","","html-slider-response","73","1451736","0.0-17.0-0.19","9eae6b8f-2579-4b67-bd55-3ddef3c1e4fd","1000","
                  <p style=""text-align: center;"">₪36
                                                <br>70%</p>
                  <p id=""wtp"" style=""text-align:center; margin-top: 0px; margin-bottom: 0px; font-size: 40px"";>&ensp;</p>","-","viewing","0","13","3A,5C,10B","","","","","","","","","","","","","","","","","","",""
"","","","","","html-slider-response","74","1454094","0.0-17.0-1.19","9eae6b8f-2579-4b67-bd55-3ddef3c1e4fd","2357","
                  <p style=""text-align: center;"">₪36
                                                <br>70%</p>
                  <p id=""wtp"" style=""text-align:center; margin-top: 0px; margin-bottom: 0px; font-size: 40px"";>מוכנים לשלם: <span id=""c_p_y""></span></p>","15","evaluation","53","13","3A,5C,10B","70","36","15","","","","","","","","","","","","","","","",""
"","","","","","html-keyboard-response","75","1454654","0.0-17.0-2.19","9eae6b8f-2579-4b67-bd55-3ddef3c1e4fd","null","<p style=""text-align: center;"">+</p>","null","fixation","","","","","","","","","","","","","","","","","","","","","",""
"","","","","","html-slider-response","76","1455655","0.0-17.0-0.20","9eae6b8f-2579-4b67-bd55-3ddef3c1e4fd","1000","
                  <p style=""text-align: center;"">₪43
                                                <br>75%</p>
                  <p id=""wtp"" style=""text-align:center; margin-top: 0px; margin-bottom: 0px; font-size: 40px"";>&ensp;</p>","-","viewing","0","18","11B,19B,24A,26A","","","","","","","","","","","","","","","","","","",""
"","","","","","html-slider-response","77","1457782","0.0-17.0-1.20","9eae6b8f-2579-4b67-bd55-3ddef3c1e4fd","2126","
                  <p style=""text-align: center;"">₪43
                                                <br>75%</p>
                  <p id=""wtp"" style=""text-align:center; margin-top: 0px; margin-bottom: 0px; font-size: 40px"";>מוכנים לשלם: <span id=""c_p_y""></span></p>","26","evaluation","50","18","11B,19B,24A,26A","75","43","26","","","","","","","","","","","","","","","",""
"","","","","","html-keyboard-response","78","1458577","0.0-17.0-2.20","9eae6b8f-2579-4b67-bd55-3ddef3c1e4fd","null","<p style=""text-align: center;"">+</p>","null","fixation","","","","","","","","","","","","","","","","","","","","","",""
"","","","","","html-slider-response","79","1459587","0.0-17.0-0.21","9eae6b8f-2579-4b67-bd55-3ddef3c1e4fd","1000","
                  <p style=""text-align: center;"">₪64
                                                <br>50%</p>
                  <p id=""wtp"" style=""text-align:center; margin-top: 0px; margin-bottom: 0px; font-size: 40px"";>&ensp;</p>","-","viewing","0","25","1B,3B,4A","","","","","","","","","","","","","","","","","","",""
"","","","","","html-slider-response","80","1460870","0.0-17.0-1.21","9eae6b8f-2579-4b67-bd55-3ddef3c1e4fd","1282","
                  <p style=""text-align: center;"">₪64
                                                <br>50%</p>
                  <p id=""wtp"" style=""text-align:center; margin-top: 0px; margin-bottom: 0px; font-size: 40px"";>מוכנים לשלם: <span id=""c_p_y""></span></p>","21","evaluation","32","25","1B,3B,4A","50","64","21","","","","","","","","","","","","","","","",""
"","","","","","html-keyboard-response","81","1461602","0.0-17.0-2.21","9eae6b8f-2579-4b67-bd55-3ddef3c1e4fd","null","<p style=""text-align: center;"">+</p>","null","fixation","","","","","","","","","","","","","","","","","","","","","",""
"","","","","","html-slider-response","82","1462603","0.0-17.0-0.22","9eae6b8f-2579-4b67-bd55-3ddef3c1e4fd","1000","
                  <p style=""text-align: center;"">₪39
                                                <br>65%</p>
                  <p id=""wtp"" style=""text-align:center; margin-top: 0px; margin-bottom: 0px; font-size: 40px"";>&ensp;</p>","-","viewing","0","16","1A,15A,26C","","","","","","","","","","","","","","","","","","",""
"","","","","","html-slider-response","83","1465086","0.0-17.0-1.22","9eae6b8f-2579-4b67-bd55-3ddef3c1e4fd","2482","
                  <p style=""text-align: center;"">₪39
                                                <br>65%</p>
                  <p id=""wtp"" style=""text-align:center; margin-top: 0px; margin-bottom: 0px; font-size: 40px"";>מוכנים לשלם: <span id=""c_p_y""></span></p>","18","evaluation","0","16","1A,15A,26C","65","39","18","","","","","","","","","","","","","","","",""
"","","","","","html-keyboard-response","84","1466197","0.0-17.0-2.22","9eae6b8f-2579-4b67-bd55-3ddef3c1e4fd","null","<p style=""text-align: center;"">+</p>","null","fixation","","","","","","","","","","","","","","","","","","","","","",""
"","","","","","html-slider-response","85","1467199","0.0-17.0-0.23","9eae6b8f-2579-4b67-bd55-3ddef3c1e4fd","1000","
                  <p style=""text-align: center;"">₪36
                                                <br>75%</p>
                  <p id=""wtp"" style=""text-align:center; margin-top: 0px; margin-bottom: 0px; font-size: 40px"";>&ensp;</p>","-","viewing","0","14","4B,5A,13B,16B","","","","","","","","","","","","","","","","","","",""
"","","","","","html-slider-response","86","1468630","0.0-17.0-1.23","9eae6b8f-2579-4b67-bd55-3ddef3c1e4fd","1430","
                  <p style=""text-align: center;"">₪36
                                                <br>75%</p>
                  <p id=""wtp"" style=""text-align:center; margin-top: 0px; margin-bottom: 0px; font-size: 40px"";>מוכנים לשלם: <span id=""c_p_y""></span></p>","20","evaluation","42","14","4B,5A,13B,16B","75","36","20","","","","","","","","","","","","","","","",""
"","","","","","html-keyboard-response","87","1470001","0.0-17.0-2.23","9eae6b8f-2579-4b67-bd55-3ddef3c1e4fd","null","<p style=""text-align: center;"">+</p>","null","fixation","","","","","","","","","","","","","","","","","","","","","",""
"","","","","","html-slider-response","88","1471003","0.0-17.0-0.24","9eae6b8f-2579-4b67-bd55-3ddef3c1e4fd","1000","
                  <p style=""text-align: center;"">₪11
                                                <br>45%</p>
                  <p id=""wtp"" style=""text-align:center; margin-top: 0px; margin-bottom: 0px; font-size: 40px"";>&ensp;</p>","-","viewing","0","6","14B,21C,25C","","","","","","","","","","","","","","","","","","",""
"","","","","","html-slider-response","89","1473638","0.0-17.0-1.24","9eae6b8f-2579-4b67-bd55-3ddef3c1e4fd","2634","
                  <p style=""text-align: center;"">₪11
                                                <br>45%</p>
                  <p id=""wtp"" style=""text-align:center; margin-top: 0px; margin-bottom: 0px; font-size: 40px"";>מוכנים לשלם: <span id=""c_p_y""></span></p>","3","evaluation","40","6","14B,21C,25C","45","11","3","","","","","","","","","","","","","","","",""
"","","","","","html-keyboard-response","90","1474196","0.0-17.0-2.24","9eae6b8f-2579-4b67-bd55-3ddef3c1e4fd","null","<p style=""text-align: center;"">+</p>","null","fixation","","","","","","","","","","","","","","","","","","","","","",""
"","","","","","html-slider-response","91","1475199","0.0-17.0-0.25","9eae6b8f-2579-4b67-bd55-3ddef3c1e4fd","1000","
                  <p style=""text-align: center;"">₪71
                                                <br>55%</p>
                  <p id=""wtp"" style=""text-align:center; margin-top: 0px; margin-bottom: 0px; font-size: 40px"";>&ensp;</p>","-","viewing","0","27","5B,18A","","","","","","","","","","","","","","","","","","",""
"","","","","","html-slider-response","92","1479201","0.0-17.0-1.25","9eae6b8f-2579-4b67-bd55-3ddef3c1e4fd","null","
                  <p style=""text-align: center;"">₪71
                                                <br>55%</p>
                  <p id=""wtp"" style=""text-align:center; margin-top: 0px; margin-bottom: 0px; font-size: 40px"";>מוכנים לשלם: <span id=""c_p_y""></span></p>","null","evaluation","50","27","5B,18A","55","71","40","","","","","","","","","","","","","","","",""
"","","","","","html-keyboard-response","93","1480057","0.0-17.0-2.25","9eae6b8f-2579-4b67-bd55-3ddef3c1e4fd","null","<p style=""text-align: center;"">+</p>","null","fixation","","","","","","","","","","","","","","","","","","","","","",""
"","","","","","html-slider-response","94","1481068","0.0-17.0-0.26","9eae6b8f-2579-4b67-bd55-3ddef3c1e4fd","1000","
                  <p style=""text-align: center;"">₪36
                                                <br>30%</p>
                  <p id=""wtp"" style=""text-align:center; margin-top: 0px; margin-bottom: 0px; font-size: 40px"";>&ensp;</p>","-","viewing","0","11","3C,20A,22A","","","","","","","","","","","","","","","","","","",""
"","","","","","html-slider-response","95","1482926","0.0-17.0-1.26","9eae6b8f-2579-4b67-bd55-3ddef3c1e4fd","1857","
                  <p style=""text-align: center;"">₪36
                                                <br>30%</p>
                  <p id=""wtp"" style=""text-align:center; margin-top: 0px; margin-bottom: 0px; font-size: 40px"";>מוכנים לשלם: <span id=""c_p_y""></span></p>","13","evaluation","64","11","3C,20A,22A","30","36","13","","","","","","","","","","","","","","","",""
"","","","","","html-keyboard-response","96","1484293","0.0-17.0-2.26","9eae6b8f-2579-4b67-bd55-3ddef3c1e4fd","null","<p style=""text-align: center;"">+</p>","null","fixation","","","","","","","","","","","","","","","","","","","","","",""
"","","","","","html-slider-response","97","1485295","0.0-17.0-0.27","9eae6b8f-2579-4b67-bd55-3ddef3c1e4fd","1000","
                  <p style=""text-align: center;"">₪61
                                                <br>45%</p>
                  <p id=""wtp"" style=""text-align:center; margin-top: 0px; margin-bottom: 0px; font-size: 40px"";>&ensp;</p>","-","viewing","0","22","10A,11A","","","","","","","","","","","","","","","","","","",""
"","","","","","html-slider-response","98","1489297","0.0-17.0-1.27","9eae6b8f-2579-4b67-bd55-3ddef3c1e4fd","null","
                  <p style=""text-align: center;"">₪61
                                                <br>45%</p>
                  <p id=""wtp"" style=""text-align:center; margin-top: 0px; margin-bottom: 0px; font-size: 40px"";>מוכנים לשלם: <span id=""c_p_y""></span></p>","null","evaluation","72","22","10A,11A","45","61","23","","","","","","","","","","","","","","","",""
"","","","","","html-keyboard-response","99","1490307","0.0-17.0-2.27","9eae6b8f-2579-4b67-bd55-3ddef3c1e4fd","null","<p style=""text-align: center;"">+</p>","null","fixation","","","","","","","","","","","","","","","","","","","","","",""
"","","","","","html-slider-response","100","1491309","0.0-17.0-0.28","9eae6b8f-2579-4b67-bd55-3ddef3c1e4fd","1000","
                  <p style=""text-align: center;"">₪16
                                                <br>20%</p>
                  <p id=""wtp"" style=""text-align:center; margin-top: 0px; margin-bottom: 0px; font-size: 40px"";>&ensp;</p>","-","viewing","0","8","14C,17A,20C,27A","","","","","","","","","","","","","","","","","","",""
"","","","","","html-slider-response","101","1494174","0.0-17.0-1.28","9eae6b8f-2579-4b67-bd55-3ddef3c1e4fd","2864","
                  <p style=""text-align: center;"">₪16
                                                <br>20%</p>
                  <p id=""wtp"" style=""text-align:center; margin-top: 0px; margin-bottom: 0px; font-size: 40px"";>מוכנים לשלם: <span id=""c_p_y""></span></p>","8","evaluation","68","8","14C,17A,20C,27A","20","16","8","","","","","","","","","","","","","","","",""
"","","","","","html-keyboard-response","102","1495064","0.0-17.0-2.28","9eae6b8f-2579-4b67-bd55-3ddef3c1e4fd","null","<p style=""text-align: center;"">+</p>","null","fixation","","","","","","","","","","","","","","","","","","","","","",""
"","","","","","html-slider-response","103","1496066","0.0-17.0-0.29","9eae6b8f-2579-4b67-bd55-3ddef3c1e4fd","1000","
                  <p style=""text-align: center;"">₪71
                                                <br>45%</p>
                  <p id=""wtp"" style=""text-align:center; margin-top: 0px; margin-bottom: 0px; font-size: 40px"";>&ensp;</p>","-","viewing","0","26","2B,16A","","","","","","","","","","","","","","","","","","",""
"","","","","","html-slider-response","104","1498606","0.0-17.0-1.29","9eae6b8f-2579-4b67-bd55-3ddef3c1e4fd","2539","
                  <p style=""text-align: center;"">₪71
                                                <br>45%</p>
                  <p id=""wtp"" style=""text-align:center; margin-top: 0px; margin-bottom: 0px; font-size: 40px"";>מוכנים לשלם: <span id=""c_p_y""></span></p>","37","evaluation","58","26","2B,16A","45","71","37","","","","","","","","","","","","","","","",""
"","","","","","html-keyboard-response","105","1499378","0.0-17.0-2.29","9eae6b8f-2579-4b67-bd55-3ddef3c1e4fd","null","<p style=""text-align: center;"">+</p>","null","fixation","","","","","","","","","","","","","","","","","","","","","",""
"","","","","","html-slider-response","106","1500396","0.0-17.0-0.30","9eae6b8f-2579-4b67-bd55-3ddef3c1e4fd","1000","
                  <p style=""text-align: center;"">₪4
                                                <br>50%</p>
                  <p id=""wtp"" style=""text-align:center; margin-top: 0px; margin-bottom: 0px; font-size: 40px"";>&ensp;</p>","-","viewing","0","2","4C,17B","","","","","","","","","","","","","","","","","","",""
"","","","","","html-slider-response","107","1503158","0.0-17.0-1.30","9eae6b8f-2579-4b67-bd55-3ddef3c1e4fd","2761","
                  <p style=""text-align: center;"">₪4
                                                <br>50%</p>
                  <p id=""wtp"" style=""text-align:center; margin-top: 0px; margin-bottom: 0px; font-size: 40px"";>מוכנים לשלם: <span id=""c_p_y""></span></p>","0","evaluation","28","2","4C,17B","50","4","0","","","","","","","","","","","","","","","",""
"","","","","","html-keyboard-response","108","1504053","0.0-17.0-2.30","9eae6b8f-2579-4b67-bd55-3ddef3c1e4fd","null","<p style=""text-align: center;"">+</p>","null","fixation","","","","","","","","","","","","","","","","","","","","","",""
"","","","","","html-keyboard-response","109","1505054","0.0-18.0","9eae6b8f-2579-4b67-bd55-3ddef3c1e4fd","null","<p style=""text-align: center;"">+</p>","null","fixation","","","","","","","","","","","","","","","","","","","","","",""
"","","","","","html-keyboard-response","110","1508430","0.0-19.0","9eae6b8f-2579-4b67-bd55-3ddef3c1e4fd","null","<p>הפסקה.
          <br>לחצו כדי להמשיך.</p>","1","scan_wait","","","","","","","","","","","","","","","","","","","","","",""
"","","","","","html-keyboard-response","111","1509431","0.0-20.0","9eae6b8f-2579-4b67-bd55-3ddef3c1e4fd","null","<p style=""text-align: center;"">+</p>","null","fixation","","","","","","","","","","","","","","","","","","","","","",""
"","","","","","html-slider-response","112","1510432","0.0-21.0-0.0","9eae6b8f-2579-4b67-bd55-3ddef3c1e4fd","1000","
                  <p style=""text-align: center;"">₪11
                                                <br>75%</p>
                  <p id=""wtp"" style=""text-align:center; margin-top: 0px; margin-bottom: 0px; font-size: 40px"";>&ensp;</p>","-","viewing","0","7","6B,18B,22C,24C,29A","","","","","","","","","","","","","","","","","","",""
"","","","","","html-slider-response","113","1513958","0.0-21.0-1.0","9eae6b8f-2579-4b67-bd55-3ddef3c1e4fd","3524","
                  <p style=""text-align: center;"">₪11
                                                <br>75%</p>
                  <p id=""wtp"" style=""text-align:center; margin-top: 0px; margin-bottom: 0px; font-size: 40px"";>מוכנים לשלם: <span id=""c_p_y""></span></p>","3","evaluation","37","7","6B,18B,22C,24C,29A","75","11","3","","","","","","","","","","","","","","","",""
"","","","","","html-keyboard-response","114","1514775","0.0-21.0-2.0","9eae6b8f-2579-4b67-bd55-3ddef3c1e4fd","null","<p style=""text-align: center;"">+</p>","null","fixation","","","","","","","","","","","","","","","","","","","","","",""
"","","","","","html-slider-response","115","1515776","0.0-21.0-0.1","9eae6b8f-2579-4b67-bd55-3ddef3c1e4fd","1000","
                  <p style=""text-align: center;"">₪79
                                                <br>65%</p>
                  <p id=""wtp"" style=""text-align:center; margin-top: 0px; margin-bottom: 0px; font-size: 40px"";>&ensp;</p>","-","viewing","0","31","8A","","","","","","","","","","","","","","","","","","",""
"","","","","","html-slider-response","116","1519779","0.0-21.0-1.1","9eae6b8f-2579-4b67-bd55-3ddef3c1e4fd","null","
                  <p style=""text-align: center;"">₪79
                                                <br>65%</p>
                  <p id=""wtp"" style=""text-align:center; margin-top: 0px; margin-bottom: 0px; font-size: 40px"";>מוכנים לשלם: <span id=""c_p_y""></span></p>","null","evaluation","19","31","8A","65","79","40","","","","","","","","","","","","","","","",""
"","","","","","html-keyboard-response","117","1520520","0.0-21.0-2.1","9eae6b8f-2579-4b67-bd55-3ddef3c1e4fd","null","<p style=""text-align: center;"">+</p>","null","fixation","","","","","","","","","","","","","","","","","","","","","",""
"","","","","","html-slider-response","118","1521522","0.0-21.0-0.2","9eae6b8f-2579-4b67-bd55-3ddef3c1e4fd","1000","
                  <p style=""text-align: center;"">₪71
                                                <br>75%</p>
                  <p id=""wtp"" style=""text-align:center; margin-top: 0px; margin-bottom: 0px; font-size: 40px"";>&ensp;</p>","-","viewing","0","28","8B","","","","","","","","","","","","","","","","","","",""
"","","","","","html-slider-response","119","1522910","0.0-21.0-1.2","9eae6b8f-2579-4b67-bd55-3ddef3c1e4fd","1387","
                  <p style=""text-align: center;"">₪71
                                                <br>75%</p>
                  <p id=""wtp"" style=""text-align:center; margin-top: 0px; margin-bottom: 0px; font-size: 40px"";>מוכנים לשלם: <span id=""c_p_y""></span></p>","36","evaluation","43","28","8B","75","71","36","","","","","","","","","","","","","","","",""
"","","","","","html-keyboard-response","120","1524094","0.0-21.0-2.2","9eae6b8f-2579-4b67-bd55-3ddef3c1e4fd","null","<p style=""text-align: center;"">+</p>","null","fixation","","","","","","","","","","","","","","","","","","","","","",""
"","","","","","html-slider-response","121","1525097","0.0-21.0-0.3","9eae6b8f-2579-4b67-bd55-3ddef3c1e4fd","1000","
                  <p style=""text-align: center;"">₪36
                                                <br>70%</p>
                  <p id=""wtp"" style=""text-align:center; margin-top: 0px; margin-bottom: 0px; font-size: 40px"";>&ensp;</p>","-","viewing","0","13","3A,5C,10B","","","","","","","","","","","","","","","","","","",""
"","","","","","html-slider-response","122","1527950","0.0-21.0-1.3","9eae6b8f-2579-4b67-bd55-3ddef3c1e4fd","2852","
                  <p style=""text-align: center;"">₪36
                                                <br>70%</p>
                  <p id=""wtp"" style=""text-align:center; margin-top: 0px; margin-bottom: 0px; font-size: 40px"";>מוכנים לשלם: <span id=""c_p_y""></span></p>","17","evaluation","55","13","3A,5C,10B","70","36","17","","","","","","","","","","","","","","","",""
"","","","","","html-keyboard-response","123","1529199","0.0-21.0-2.3","9eae6b8f-2579-4b67-bd55-3ddef3c1e4fd","null","<p style=""text-align: center;"">+</p>","null","fixation","","","","","","","","","","","","","","","","","","","","","",""
"","","","","","html-slider-response","124","1530201","0.0-21.0-0.4","9eae6b8f-2579-4b67-bd55-3ddef3c1e4fd","1000","
                  <p style=""text-align: center;"">₪4
                                                <br>50%</p>
                  <p id=""wtp"" style=""text-align:center; margin-top: 0px; margin-bottom: 0px; font-size: 40px"";>&ensp;</p>","-","viewing","0","2","4C,17B","","","","","","","","","","","","","","","","","","",""
"","","","","","html-slider-response","125","1533109","0.0-21.0-1.4","9eae6b8f-2579-4b67-bd55-3ddef3c1e4fd","2907","
                  <p style=""text-align: center;"">₪4
                                                <br>50%</p>
                  <p id=""wtp"" style=""text-align:center; margin-top: 0px; margin-bottom: 0px; font-size: 40px"";>מוכנים לשלם: <span id=""c_p_y""></span></p>","0","evaluation","29","2","4C,17B","50","4","0","","","","","","","","","","","","","","","",""
"","","","","","html-keyboard-response","126","1534547","0.0-21.0-2.4","9eae6b8f-2579-4b67-bd55-3ddef3c1e4fd","null","<p style=""text-align: center;"">+</p>","null","fixation","","","","","","","","","","","","","","","","","","","","","",""
"","","","","","html-slider-response","127","1535550","0.0-21.0-0.5","9eae6b8f-2579-4b67-bd55-3ddef3c1e4fd","1000","
                  <p style=""text-align: center;"">₪71
                                                <br>45%</p>
                  <p id=""wtp"" style=""text-align:center; margin-top: 0px; margin-bottom: 0px; font-size: 40px"";>&ensp;</p>","-","viewing","0","26","2B,16A","","","","","","","","","","","","","","","","","","",""
"","","","","","html-slider-response","128","1538478","0.0-21.0-1.5","9eae6b8f-2579-4b67-bd55-3ddef3c1e4fd","2926","
                  <p style=""text-align: center;"">₪71
                                                <br>45%</p>
                  <p id=""wtp"" style=""text-align:center; margin-top: 0px; margin-bottom: 0px; font-size: 40px"";>מוכנים לשלם: <span id=""c_p_y""></span></p>","19","evaluation","64","26","2B,16A","45","71","19","","","","","","","","","","","","","","","",""
"","","","","","html-keyboard-response","129","1539178","0.0-21.0-2.5","9eae6b8f-2579-4b67-bd55-3ddef3c1e4fd","null","<p style=""text-align: center;"">+</p>","null","fixation","","","","","","","","","","","","","","","","","","","","","",""
"","","","","","html-slider-response","130","1540181","0.0-21.0-0.6","9eae6b8f-2579-4b67-bd55-3ddef3c1e4fd","1000","
                  <p style=""text-align: center;"">₪71
                                                <br>55%</p>
                  <p id=""wtp"" style=""text-align:center; margin-top: 0px; margin-bottom: 0px; font-size: 40px"";>&ensp;</p>","-","viewing","0","27","5B,18A","","","","","","","","","","","","","","","","","","",""
"","","","","","html-slider-response","131","1542286","0.0-21.0-1.6","9eae6b8f-2579-4b67-bd55-3ddef3c1e4fd","2104","
                  <p style=""text-align: center;"">₪71
                                                <br>55%</p>
                  <p id=""wtp"" style=""text-align:center; margin-top: 0px; margin-bottom: 0px; font-size: 40px"";>מוכנים לשלם: <span id=""c_p_y""></span></p>","26","evaluation","72","27","5B,18A","55","71","26","","","","","","","","","","","","","","","",""
"","","","","","html-keyboard-response","132","1542904","0.0-21.0-2.6","9eae6b8f-2579-4b67-bd55-3ddef3c1e4fd","null","<p style=""text-align: center;"">+</p>","null","fixation","","","","","","","","","","","","","","","","","","","","","",""
"","","","","","html-slider-response","133","1543906","0.0-21.0-0.7","9eae6b8f-2579-4b67-bd55-3ddef3c1e4fd","1000","
                  <p style=""text-align: center;"">₪11
                                                <br>20%</p>
                  <p id=""wtp"" style=""text-align:center; margin-top: 0px; margin-bottom: 0px; font-size: 40px"";>&ensp;</p>","-","viewing","0","4","12C,17C,23C,28C","","","","","","","","","","","","","","","","","","",""
"","","","","","html-slider-response","134","1547909","0.0-21.0-1.7","9eae6b8f-2579-4b67-bd55-3ddef3c1e4fd","null","
                  <p style=""text-align: center;"">₪11
                                                <br>20%</p>
                  <p id=""wtp"" style=""text-align:center; margin-top: 0px; margin-bottom: 0px; font-size: 40px"";>מוכנים לשלם: <span id=""c_p_y""></span></p>","null","evaluation","28","4","12C,17C,23C,28C","20","11","0","","","","","","","","","","","","","","","",""
"","","","","","html-keyboard-response","135","1548801","0.0-21.0-2.7","9eae6b8f-2579-4b67-bd55-3ddef3c1e4fd","null","<p style=""text-align: center;"">+</p>","null","fixation","","","","","","","","","","","","","","","","","","","","","",""
"","","","","","html-slider-response","136","1549803","0.0-21.0-0.8","9eae6b8f-2579-4b67-bd55-3ddef3c1e4fd","1000","
                  <p style=""text-align: center;"">₪4
                                                <br>75%</p>
                  <p id=""wtp"" style=""text-align:center; margin-top: 0px; margin-bottom: 0px; font-size: 40px"";>&ensp;</p>","-","viewing","0","3","12B,20B,23B,27C,29C","","","","","","","","","","","","","","","","","","",""
"","","","","","html-slider-response","137","1551678","0.0-21.0-1.8","9eae6b8f-2579-4b67-bd55-3ddef3c1e4fd","1874","
                  <p style=""text-align: center;"">₪4
                                                <br>75%</p>
                  <p id=""wtp"" style=""text-align:center; margin-top: 0px; margin-bottom: 0px; font-size: 40px"";>מוכנים לשלם: <span id=""c_p_y""></span></p>","1","evaluation","80","3","12B,20B,23B,27C,29C","75","4","1","","","","","","","","","","","","","","","",""
"","","","","","html-keyboard-response","138","1552197","0.0-21.0-2.8","9eae6b8f-2579-4b67-bd55-3ddef3c1e4fd","null","<p style=""text-align: center;"">+</p>","null","fixation","","","","","","","","","","","","","","","","","","","","","",""
"","","","","","html-slider-response","139","1553200","0.0-21.0-0.9","9eae6b8f-2579-4b67-bd55-3ddef3c1e4fd","1000","
                  <p style=""text-align: center;"">₪58
                                                <br>40%</p>
                  <p id=""wtp"" style=""text-align:center; margin-top: 0px; margin-bottom: 0px; font-size: 40px"";>&ensp;</p>","-","viewing","0","20","10C,13A,19C,21B","","","","","","","","","","","","","","","","","","",""
"","","","","","html-slider-response","140","1556574","0.0-21.0-1.9","9eae6b8f-2579-4b67-bd55-3ddef3c1e4fd","3373","
                  <p style=""text-align: center;"">₪58
                                                <br>40%</p>
                  <p id=""wtp"" style=""text-align:center; margin-top: 0px; margin-bottom: 0px; font-size: 40px"";>מוכנים לשלם: <span id=""c_p_y""></span></p>","19","evaluation","25","20","10C,13A,19C,21B","40","58","19","","","","","","","","","","","","","","","",""
"","","","","","html-keyboard-response","141","1557121","0.0-21.0-2.9","9eae6b8f-2579-4b67-bd55-3ddef3c1e4fd","null","<p style=""text-align: center;"">+</p>","null","fixation","","","","","","","","","","","","","","","","","","","","","",""
"","","","","","html-slider-response","142","1558122","0.0-21.0-0.10","9eae6b8f-2579-4b67-bd55-3ddef3c1e4fd","1000","
                  <p style=""text-align: center;"">₪43
                                                <br>60%</p>
                  <p id=""wtp"" style=""text-align:center; margin-top: 0px; margin-bottom: 0px; font-size: 40px"";>&ensp;</p>","-","viewing","0","17","2A,7A,9A,15B","","","","","","","","","","","","","","","","","","",""
"","","","","","html-slider-response","143","1559886","0.0-21.0-1.10","9eae6b8f-2579-4b67-bd55-3ddef3c1e4fd","1763","
                  <p style=""text-align: center;"">₪43
                                                <br>60%</p>
                  <p id=""wtp"" style=""text-align:center; margin-top: 0px; margin-bottom: 0px; font-size: 40px"";>מוכנים לשלם: <span id=""c_p_y""></span></p>","20","evaluation","80","17","2A,7A,9A,15B","60","43","20","","","","","","","","","","","","","","","",""
"","","","","","html-keyboard-response","144","1560681","0.0-21.0-2.10","9eae6b8f-2579-4b67-bd55-3ddef3c1e4fd","null","<p style=""text-align: center;"">+</p>","null","fixation","","","","","","","","","","","","","","","","","","","","","",""
"","","","","","html-slider-response","145","1561684","0.0-21.0-0.11","9eae6b8f-2579-4b67-bd55-3ddef3c1e4fd","1000","
                  <p style=""text-align: center;"">₪36
                                                <br>30%</p>
                  <p id=""wtp"" style=""text-align:center; margin-top: 0px; margin-bottom: 0px; font-size: 40px"";>&ensp;</p>","-","viewing","0","11","3C,20A,22A","","","","","","","","","","","","","","","","","","",""
"","","","","","html-slider-response","146","1563846","0.0-21.0-1.11","9eae6b8f-2579-4b67-bd55-3ddef3c1e4fd","2161","
                  <p style=""text-align: center;"">₪36
                                                <br>30%</p>
                  <p id=""wtp"" style=""text-align:center; margin-top: 0px; margin-bottom: 0px; font-size: 40px"";>מוכנים לשלם: <span id=""c_p_y""></span></p>","20","evaluation","56","11","3C,20A,22A","30","36","20","","","","","","","","","","","","","","","",""
"","","","","","html-keyboard-response","147","1564833","0.0-21.0-2.11","9eae6b8f-2579-4b67-bd55-3ddef3c1e4fd","null","<p style=""text-align: center;"">+</p>","null","fixation","","","","","","","","","","","","","","","","","","","","","",""
"","","","","","html-slider-response","148","1565835","0.0-21.0-0.12","9eae6b8f-2579-4b67-bd55-3ddef3c1e4fd","1000","
                  <p style=""text-align: center;"">₪58
                                                <br>30%</p>
                  <p id=""wtp"" style=""text-align:center; margin-top: 0px; margin-bottom: 0px; font-size: 40px"";>&ensp;</p>","-","viewing","0","19","13C,30A","","","","","","","","","","","","","","","","","","",""
"","","","","","html-slider-response","149","1569836","0.0-21.0-1.12","9eae6b8f-2579-4b67-bd55-3ddef3c1e4fd","null","
                  <p style=""text-align: center;"">₪58
                                                <br>30%</p>
                  <p id=""wtp"" style=""text-align:center; margin-top: 0px; margin-bottom: 0px; font-size: 40px"";>מוכנים לשלם: <span id=""c_p_y""></span></p>","null","evaluation","62","19","13C,30A","30","58","36","","","","","","","","","","","","","","","",""
"","","","","","html-keyboard-response","150","1571234","0.0-21.0-2.12","9eae6b8f-2579-4b67-bd55-3ddef3c1e4fd","null","<p style=""text-align: center;"">+</p>","null","fixation","","","","","","","","","","","","","","","","","","","","","",""
"","","","","","html-slider-response","151","1572236","0.0-21.0-0.13","9eae6b8f-2579-4b67-bd55-3ddef3c1e4fd","1000","
                  <p style=""text-align: center;"">₪16
                                                <br>20%</p>
                  <p id=""wtp"" style=""text-align:center; margin-top: 0px; margin-bottom: 0px; font-size: 40px"";>&ensp;</p>","-","viewing","0","8","14C,17A,20C,27A","","","","","","","","","","","","","","","","","","",""
"","","","","","html-slider-response","152","1574078","0.0-21.0-1.13","9eae6b8f-2579-4b67-bd55-3ddef3c1e4fd","1840","
                  <p style=""text-align: center;"">₪16
                                                <br>20%</p>
                  <p id=""wtp"" style=""text-align:center; margin-top: 0px; margin-bottom: 0px; font-size: 40px"";>מוכנים לשלם: <span id=""c_p_y""></span></p>","3","evaluation","51","8","14C,17A,20C,27A","20","16","3","","","","","","","","","","","","","","","",""
"","","","","","html-keyboard-response","153","1575356","0.0-21.0-2.13","9eae6b8f-2579-4b67-bd55-3ddef3c1e4fd","null","<p style=""text-align: center;"">+</p>","null","fixation","","","","","","","","","","","","","","","","","","","","","",""
"","","","","","html-slider-response","154","1576359","0.0-21.0-0.14","9eae6b8f-2579-4b67-bd55-3ddef3c1e4fd","1000","
                  <p style=""text-align: center;"">₪18
                                                <br>25%</p>
                  <p id=""wtp"" style=""text-align:center; margin-top: 0px; margin-bottom: 0px; font-size: 40px"";>&ensp;</p>","-","viewing","0","9","14A,23A","","","","","","","","","","","","","","","","","","",""
"","","","","","html-slider-response","155","1580361","0.0-21.0-1.14","9eae6b8f-2579-4b67-bd55-3ddef3c1e4fd","null","
                  <p style=""text-align: center;"">₪18
                                                <br>25%</p>
                  <p id=""wtp"" style=""text-align:center; margin-top: 0px; margin-bottom: 0px; font-size: 40px"";>מוכנים לשלם: <span id=""c_p_y""></span></p>","null","evaluation","35","9","14A,23A","25","18","11","","","","","","","","","","","","","","","",""
"","","","","","html-keyboard-response","156","1581100","0.0-21.0-2.14","9eae6b8f-2579-4b67-bd55-3ddef3c1e4fd","null","<p style=""text-align: center;"">+</p>","null","fixation","","","","","","","","","","","","","","","","","","","","","",""
"","","","","","html-slider-response","157","1582103","0.0-21.0-0.15","9eae6b8f-2579-4b67-bd55-3ddef3c1e4fd","1000","
                  <p style=""text-align: center;"">₪61
                                                <br>55%</p>
                  <p id=""wtp"" style=""text-align:center; margin-top: 0px; margin-bottom: 0px; font-size: 40px"";>&ensp;</p>","-","viewing","0","23","7B,26B","","","","","","","","","","","","","","","","","","",""
"","","","","","html-slider-response","158","1584638","0.0-21.0-1.15","9eae6b8f-2579-4b67-bd55-3ddef3c1e4fd","2534","
                  <p style=""text-align: center;"">₪61
                                                <br>55%</p>
                  <p id=""wtp"" style=""text-align:center; margin-top: 0px; margin-bottom: 0px; font-size: 40px"";>מוכנים לשלם: <span id=""c_p_y""></span></p>","33","evaluation","26","23","7B,26B","55","61","33","","","","","","","","","","","","","","","",""
"","","","","","html-keyboard-response","159","1585924","0.0-21.0-2.15","9eae6b8f-2579-4b67-bd55-3ddef3c1e4fd","null","<p style=""text-align: center;"">+</p>","null","fixation","","","","","","","","","","","","","","","","","","","","","",""
"","","","","","html-slider-response","160","1586926","0.0-21.0-0.16","9eae6b8f-2579-4b67-bd55-3ddef3c1e4fd","1000","
                  <p style=""text-align: center;"">₪39
                                                <br>60%</p>
                  <p id=""wtp"" style=""text-align:center; margin-top: 0px; margin-bottom: 0px; font-size: 40px"";>&ensp;</p>","-","viewing","0","15","9C,25B","","","","","","","","","","","","","","","","","","",""
"","","","","","html-slider-response","161","1588990","0.0-21.0-1.16","9eae6b8f-2579-4b67-bd55-3ddef3c1e4fd","2063","
                  <p style=""text-align: center;"">₪39
                                                <br>60%</p>
                  <p id=""wtp"" style=""text-align:center; margin-top: 0px; margin-bottom: 0px; font-size: 40px"";>מוכנים לשלם: <span id=""c_p_y""></span></p>","13","evaluation","3","15","9C,25B","60","39","13","","","","","","","","","","","","","","","",""
"","","","","","html-keyboard-response","162","1589762","0.0-21.0-2.16","9eae6b8f-2579-4b67-bd55-3ddef3c1e4fd","null","<p style=""text-align: center;"">+</p>","null","fixation","","","","","","","","","","","","","","","","","","","","","",""
"","","","","","html-slider-response","163","1590764","0.0-21.0-0.17","9eae6b8f-2579-4b67-bd55-3ddef3c1e4fd","1000","
                  <p style=""text-align: center;"">₪39
                                                <br>65%</p>
                  <p id=""wtp"" style=""text-align:center; margin-top: 0px; margin-bottom: 0px; font-size: 40px"";>&ensp;</p>","-","viewing","0","16","1A,15A,26C","","","","","","","","","","","","","","","","","","",""
"","","","","","html-slider-response","164","1592814","0.0-21.0-1.17","9eae6b8f-2579-4b67-bd55-3ddef3c1e4fd","2050","
                  <p style=""text-align: center;"">₪39
                                                <br>65%</p>
                  <p id=""wtp"" style=""text-align:center; margin-top: 0px; margin-bottom: 0px; font-size: 40px"";>מוכנים לשלם: <span id=""c_p_y""></span></p>","18","evaluation","63","16","1A,15A,26C","65","39","18","","","","","","","","","","","","","","","",""
"","","","","","html-keyboard-response","165","1593808","0.0-21.0-2.17","9eae6b8f-2579-4b67-bd55-3ddef3c1e4fd","null","<p style=""text-align: center;"">+</p>","null","fixation","","","","","","","","","","","","","","","","","","","","","",""
"","","","","","html-slider-response","166","1594811","0.0-21.0-0.18","9eae6b8f-2579-4b67-bd55-3ddef3c1e4fd","1000","
                  <p style=""text-align: center;"">₪79
                                                <br>40%</p>
                  <p id=""wtp"" style=""text-align:center; margin-top: 0px; margin-bottom: 0px; font-size: 40px"";>&ensp;</p>","-","viewing","0","30","9B","","","","","","","","","","","","","","","","","","",""
"","","","","","html-slider-response","167","1597030","0.0-21.0-1.18","9eae6b8f-2579-4b67-bd55-3ddef3c1e4fd","2218","
                  <p style=""text-align: center;"">₪79
                                                <br>40%</p>
                  <p id=""wtp"" style=""text-align:center; margin-top: 0px; margin-bottom: 0px; font-size: 40px"";>מוכנים לשלם: <span id=""c_p_y""></span></p>","38","evaluation","79","30","9B","40","79","38","","","","","","","","","","","","","","","",""
"","","","","","html-keyboard-response","168","1597962","0.0-21.0-2.18","9eae6b8f-2579-4b67-bd55-3ddef3c1e4fd","null","<p style=""text-align: center;"">+</p>","null","fixation","","","","","","","","","","","","","","","","","","","","","",""
"","","","","","html-slider-response","169","1598964","0.0-21.0-0.19","9eae6b8f-2579-4b67-bd55-3ddef3c1e4fd","1000","
                  <p style=""text-align: center;"">₪18
                                                <br>50%</p>
                  <p id=""wtp"" style=""text-align:center; margin-top: 0px; margin-bottom: 0px; font-size: 40px"";>&ensp;</p>","-","viewing","0","10","2C,16C,22B,28A","","","","","","","","","","","","","","","","","","",""
"","","","","","html-slider-response","170","1600606","0.0-21.0-1.19","9eae6b8f-2579-4b67-bd55-3ddef3c1e4fd","1641","
                  <p style=""text-align: center;"">₪18
                                                <br>50%</p>
                  <p id=""wtp"" style=""text-align:center; margin-top: 0px; margin-bottom: 0px; font-size: 40px"";>מוכנים לשלם: <span id=""c_p_y""></span></p>","6","evaluation","38","10","2C,16C,22B,28A","50","18","6","","","","","","","","","","","","","","","",""
"","","","","","html-keyboard-response","171","1601217","0.0-21.0-2.19","9eae6b8f-2579-4b67-bd55-3ddef3c1e4fd","null","<p style=""text-align: center;"">+</p>","null","fixation","","","","","","","","","","","","","","","","","","","","","",""
"","","","","","html-slider-response","172","1602219","0.0-21.0-0.20","9eae6b8f-2579-4b67-bd55-3ddef3c1e4fd","1000","
                  <p style=""text-align: center;"">₪36
                                                <br>60%</p>
                  <p id=""wtp"" style=""text-align:center; margin-top: 0px; margin-bottom: 0px; font-size: 40px"";>&ensp;</p>","-","viewing","0","12","1C,7C,15C","","","","","","","","","","","","","","","","","","",""
"","","","","","html-slider-response","173","1604614","0.0-21.0-1.20","9eae6b8f-2579-4b67-bd55-3ddef3c1e4fd","2394","
                  <p style=""text-align: center;"">₪36
                                                <br>60%</p>
                  <p id=""wtp"" style=""text-align:center; margin-top: 0px; margin-bottom: 0px; font-size: 40px"";>מוכנים לשלם: <span id=""c_p_y""></span></p>","11","evaluation","25","12","1C,7C,15C","60","36","11","","","","","","","","","","","","","","","",""
"","","","","","html-keyboard-response","174","1605992","0.0-21.0-2.20","9eae6b8f-2579-4b67-bd55-3ddef3c1e4fd","null","<p style=""text-align: center;"">+</p>","null","fixation","","","","","","","","","","","","","","","","","","","","","",""
"","","","","","html-slider-response","175","1606994","0.0-21.0-0.21","9eae6b8f-2579-4b67-bd55-3ddef3c1e4fd","1000","
                  <p style=""text-align: center;"">₪11
                                                <br>45%</p>
                  <p id=""wtp"" style=""text-align:center; margin-top: 0px; margin-bottom: 0px; font-size: 40px"";>&ensp;</p>","-","viewing","0","6","14B,21C,25C","","","","","","","","","","","","","","","","","","",""
"","","","","","html-slider-response","176","1609230","0.0-21.0-1.21","9eae6b8f-2579-4b67-bd55-3ddef3c1e4fd","2235","
                  <p style=""text-align: center;"">₪11
                                                <br>45%</p>
                  <p id=""wtp"" style=""text-align:center; margin-top: 0px; margin-bottom: 0px; font-size: 40px"";>מוכנים לשלם: <span id=""c_p_y""></span></p>","4","evaluation","55","6","14B,21C,25C","45","11","4","","","","","","","","","","","","","","","",""
"","","","","","html-keyboard-response","177","1610462","0.0-21.0-2.21","9eae6b8f-2579-4b67-bd55-3ddef3c1e4fd","null","<p style=""text-align: center;"">+</p>","null","fixation","","","","","","","","","","","","","","","","","","","","","",""
"","","","","","html-slider-response","178","1611464","0.0-21.0-0.22","9eae6b8f-2579-4b67-bd55-3ddef3c1e4fd","1000","
                  <p style=""text-align: center;"">₪11
                                                <br>25%</p>
                  <p id=""wtp"" style=""text-align:center; margin-top: 0px; margin-bottom: 0px; font-size: 40px"";>&ensp;</p>","-","viewing","0","5","12A,27B,28B,30B","","","","","","","","","","","","","","","","","","",""
"","","","","","html-slider-response","179","1613710","0.0-21.0-1.22","9eae6b8f-2579-4b67-bd55-3ddef3c1e4fd","2245","
                  <p style=""text-align: center;"">₪11
                                                <br>25%</p>
                  <p id=""wtp"" style=""text-align:center; margin-top: 0px; margin-bottom: 0px; font-size: 40px"";>מוכנים לשלם: <span id=""c_p_y""></span></p>","5","evaluation","59","5","12A,27B,28B,30B","25","11","5","","","","","","","","","","","","","","","",""
"","","","","","html-keyboard-response","180","1615085","0.0-21.0-2.22","9eae6b8f-2579-4b67-bd55-3ddef3c1e4fd","null","<p style=""text-align: center;"">+</p>","null","fixation","","","","","","","","","","","","","","","","","","","","","",""
"","","","","","html-slider-response","181","1616087","0.0-21.0-0.23","9eae6b8f-2579-4b67-bd55-3ddef3c1e4fd","1000","
                  <p style=""text-align: center;"">₪64
                                                <br>25%</p>
                  <p id=""wtp"" style=""text-align:center; margin-top: 0px; margin-bottom: 0px; font-size: 40px"";>&ensp;</p>","-","viewing","0","24","6A,21A","","","","","","","","","","","","","","","","","","",""
"","","","","","html-slider-response","182","1617606","0.0-21.0-1.23","9eae6b8f-2579-4b67-bd55-3ddef3c1e4fd","1519","
                  <p style=""text-align: center;"">₪64
                                                <br>25%</p>
                  <p id=""wtp"" style=""text-align:center; margin-top: 0px; margin-bottom: 0px; font-size: 40px"";>מוכנים לשלם: <span id=""c_p_y""></span></p>","31","evaluation","72","24","6A,21A","25","64","31","","","","","","","","","","","","","","","",""
"","","","","","html-keyboard-response","183","1618305","0.0-21.0-2.23","9eae6b8f-2579-4b67-bd55-3ddef3c1e4fd","null","<p style=""text-align: center;"">+</p>","null","fixation","","","","","","","","","","","","","","","","","","","","","",""
"","","","","","html-slider-response","184","1619307","0.0-21.0-0.24","9eae6b8f-2579-4b67-bd55-3ddef3c1e4fd","1000","
                  <p style=""text-align: center;"">₪61
                                                <br>45%</p>
                  <p id=""wtp"" style=""text-align:center; margin-top: 0px; margin-bottom: 0px; font-size: 40px"";>&ensp;</p>","-","viewing","0","22","10A,11A","","","","","","","","","","","","","","","","","","",""
"","","","","","html-slider-response","185","1621590","0.0-21.0-1.24","9eae6b8f-2579-4b67-bd55-3ddef3c1e4fd","2282","
                  <p style=""text-align: center;"">₪61
                                                <br>45%</p>
                  <p id=""wtp"" style=""text-align:center; margin-top: 0px; margin-bottom: 0px; font-size: 40px"";>מוכנים לשלם: <span id=""c_p_y""></span></p>","30","evaluation","42","22","10A,11A","45","61","30","","","","","","","","","","","","","","","",""
"","","","","","html-keyboard-response","186","1623055","0.0-21.0-2.24","9eae6b8f-2579-4b67-bd55-3ddef3c1e4fd","null","<p style=""text-align: center;"">+</p>","null","fixation","","","","","","","","","","","","","","","","","","","","","",""
"","","","","","html-slider-response","187","1624056","0.0-21.0-0.25","9eae6b8f-2579-4b67-bd55-3ddef3c1e4fd","1000","
                  <p style=""text-align: center;"">₪64
                                                <br>50%</p>
                  <p id=""wtp"" style=""text-align:center; margin-top: 0px; margin-bottom: 0px; font-size: 40px"";>&ensp;</p>","-","viewing","0","25","1B,3B,4A","","","","","","","","","","","","","","","","","","",""
"","","","","","html-slider-response","188","1627782","0.0-21.0-1.25","9eae6b8f-2579-4b67-bd55-3ddef3c1e4fd","3726","
                  <p style=""text-align: center;"">₪64
                                                <br>50%</p>
                  <p id=""wtp"" style=""text-align:center; margin-top: 0px; margin-bottom: 0px; font-size: 40px"";>מוכנים לשלם: <span id=""c_p_y""></span></p>","32","evaluation","44","25","1B,3B,4A","50","64","32","","","","","","","","","","","","","","","",""
"","","","","","html-keyboard-response","189","1628739","0.0-21.0-2.25","9eae6b8f-2579-4b67-bd55-3ddef3c1e4fd","null","<p style=""text-align: center;"">+</p>","null","fixation","","","","","","","","","","","","","","","","","","","","","",""
"","","","","","html-slider-response","190","1629741","0.0-21.0-0.26","9eae6b8f-2579-4b67-bd55-3ddef3c1e4fd","1000","
                  <p style=""text-align: center;"">₪43
                                                <br>75%</p>
                  <p id=""wtp"" style=""text-align:center; margin-top: 0px; margin-bottom: 0px; font-size: 40px"";>&ensp;</p>","-","viewing","0","18","11B,19B,24A,26A","","","","","","","","","","","","","","","","","","",""
"","","","","","html-slider-response","191","1632502","0.0-21.0-1.26","9eae6b8f-2579-4b67-bd55-3ddef3c1e4fd","2760","
                  <p style=""text-align: center;"">₪43
                                                <br>75%</p>
                  <p id=""wtp"" style=""text-align:center; margin-top: 0px; margin-bottom: 0px; font-size: 40px"";>מוכנים לשלם: <span id=""c_p_y""></span></p>","20","evaluation","59","18","11B,19B,24A,26A","75","43","20","","","","","","","","","","","","","","","",""
"","","","","","html-keyboard-response","192","1633136","0.0-21.0-2.26","9eae6b8f-2579-4b67-bd55-3ddef3c1e4fd","null","<p style=""text-align: center;"">+</p>","null","fixation","","","","","","","","","","","","","","","","","","","","","",""
"","","","","","html-slider-response","193","1634138","0.0-21.0-0.27","9eae6b8f-2579-4b67-bd55-3ddef3c1e4fd","1000","
                  <p style=""text-align: center;"">₪58
                                                <br>45%</p>
                  <p id=""wtp"" style=""text-align:center; margin-top: 0px; margin-bottom: 0px; font-size: 40px"";>&ensp;</p>","-","viewing","0","21","11C,18C,25A","","","","","","","","","","","","","","","","","","",""
"","","","","","html-slider-response","194","1637390","0.0-21.0-1.27","9eae6b8f-2579-4b67-bd55-3ddef3c1e4fd","3251","
                  <p style=""text-align: center;"">₪58
                                                <br>45%</p>
                  <p id=""wtp"" style=""text-align:center; margin-top: 0px; margin-bottom: 0px; font-size: 40px"";>מוכנים לשלם: <span id=""c_p_y""></span></p>","29","evaluation","47","21","11C,18C,25A","45","58","29","","","","","","","","","","","","","","","",""
"","","","","","html-keyboard-response","195","1638732","0.0-21.0-2.27","9eae6b8f-2579-4b67-bd55-3ddef3c1e4fd","null","<p style=""text-align: center;"">+</p>","null","fixation","","","","","","","","","","","","","","","","","","","","","",""
"","","","","","html-slider-response","196","1639735","0.0-21.0-0.28","9eae6b8f-2579-4b67-bd55-3ddef3c1e4fd","1000","
                  <p style=""text-align: center;"">₪36
                                                <br>75%</p>
                  <p id=""wtp"" style=""text-align:center; margin-top: 0px; margin-bottom: 0px; font-size: 40px"";>&ensp;</p>","-","viewing","0","14","4B,5A,13B,16B","","","","","","","","","","","","","","","","","","",""
"","","","","","html-slider-response","197","1642550","0.0-21.0-1.28","9eae6b8f-2579-4b67-bd55-3ddef3c1e4fd","2814","
                  <p style=""text-align: center;"">₪36
                                                <br>75%</p>
                  <p id=""wtp"" style=""text-align:center; margin-top: 0px; margin-bottom: 0px; font-size: 40px"";>מוכנים לשלם: <span id=""c_p_y""></span></p>","17","evaluation","59","14","4B,5A,13B,16B","75","36","17","","","","","","","","","","","","","","","",""
"","","","","","html-keyboard-response","198","1643853","0.0-21.0-2.28","9eae6b8f-2579-4b67-bd55-3ddef3c1e4fd","null","<p style=""text-align: center;"">+</p>","null","fixation","","","","","","","","","","","","","","","","","","","","","",""
"","","","","","html-slider-response","199","1644856","0.0-21.0-0.29","9eae6b8f-2579-4b67-bd55-3ddef3c1e4fd","1000","
                  <p style=""text-align: center;"">₪76
                                                <br>65%</p>
                  <p id=""wtp"" style=""text-align:center; margin-top: 0px; margin-bottom: 0px; font-size: 40px"";>&ensp;</p>","-","viewing","0","29","8C,19A,24B","","","","","","","","","","","","","","","","","","",""
"","","","","","html-slider-response","200","1647246","0.0-21.0-1.29","9eae6b8f-2579-4b67-bd55-3ddef3c1e4fd","2389","
                  <p style=""text-align: center;"">₪76
                                                <br>65%</p>
                  <p id=""wtp"" style=""text-align:center; margin-top: 0px; margin-bottom: 0px; font-size: 40px"";>מוכנים לשלם: <span id=""c_p_y""></span></p>","30","evaluation","31","29","8C,19A,24B","65","76","30","","","","","","","","","","","","","","","",""
"","","","","","html-keyboard-response","201","1647973","0.0-21.0-2.29","9eae6b8f-2579-4b67-bd55-3ddef3c1e4fd","null","<p style=""text-align: center;"">+</p>","null","fixation","","","","","","","","","","","","","","","","","","","","","",""
"","","","","","html-slider-response","202","1648976","0.0-21.0-0.30","9eae6b8f-2579-4b67-bd55-3ddef3c1e4fd","1000","
                  <p style=""text-align: center;"">₪4
                                                <br>25%</p>
                  <p id=""wtp"" style=""text-align:center; margin-top: 0px; margin-bottom: 0px; font-size: 40px"";>&ensp;</p>","-","viewing","0","1","6C,29B,30C","","","","","","","","","","","","","","","","","","",""
"","","","","","html-slider-response","203","1650702","0.0-21.0-1.30","9eae6b8f-2579-4b67-bd55-3ddef3c1e4fd","1726","
                  <p style=""text-align: center;"">₪4
                                                <br>25%</p>
                  <p id=""wtp"" style=""text-align:center; margin-top: 0px; margin-bottom: 0px; font-size: 40px"";>מוכנים לשלם: <span id=""c_p_y""></span></p>","0","evaluation","6","1","6C,29B,30C","25","4","0","","","","","","","","","","","","","","","",""
"","","","","","html-keyboard-response","204","1651917","0.0-21.0-2.30","9eae6b8f-2579-4b67-bd55-3ddef3c1e4fd","null","<p style=""text-align: center;"">+</p>","null","fixation","","","","","","","","","","","","","","","","","","","","","",""
"","","","","","html-keyboard-response","205","1652918","0.0-22.0","9eae6b8f-2579-4b67-bd55-3ddef3c1e4fd","null","<p style=""text-align: center;"">+</p>","null","fixation","","","","","","","","","","","","","","","","","","","","","",""
"","","","","","html-keyboard-response","206","1654078","0.0-23.0","9eae6b8f-2579-4b67-bd55-3ddef3c1e4fd","null","<p>הפסקה.
          <br>לחצו כדי להמשיך.</p>","1","scan_wait","","","","","","","","","","","","","","","","","","","","","",""
"","","","","","html-keyboard-response","207","1655079","0.0-24.0","9eae6b8f-2579-4b67-bd55-3ddef3c1e4fd","null","<p style=""text-align: center;"">+</p>","null","fixation","","","","","","","","","","","","","","","","","","","","","",""
"","","","","","html-slider-response","208","1656081","0.0-25.0-0.0","9eae6b8f-2579-4b67-bd55-3ddef3c1e4fd","1000","
                  <p style=""text-align: center;"">₪61
                                                <br>55%</p>
                  <p id=""wtp"" style=""text-align:center; margin-top: 0px; margin-bottom: 0px; font-size: 40px"";>&ensp;</p>","-","viewing","0","23","7B,26B","","","","","","","","","","","","","","","","","","",""
"","","","","","html-slider-response","209","1657758","0.0-25.0-1.0","9eae6b8f-2579-4b67-bd55-3ddef3c1e4fd","1677","
                  <p style=""text-align: center;"">₪61
                                                <br>55%</p>
                  <p id=""wtp"" style=""text-align:center; margin-top: 0px; margin-bottom: 0px; font-size: 40px"";>מוכנים לשלם: <span id=""c_p_y""></span></p>","29","evaluation","39","23","7B,26B","55","61","29","","","","","","","","","","","","","","","",""
"","","","","","html-keyboard-response","210","1659134","0.0-25.0-2.0","9eae6b8f-2579-4b67-bd55-3ddef3c1e4fd","null","<p style=""text-align: center;"">+</p>","null","fixation","","","","","","","","","","","","","","","","","","","","","",""
"","","","","","html-slider-response","211","1660136","0.0-25.0-0.1","9eae6b8f-2579-4b67-bd55-3ddef3c1e4fd","1000","
                  <p style=""text-align: center;"">₪36
                                                <br>30%</p>
                  <p id=""wtp"" style=""text-align:center; margin-top: 0px; margin-bottom: 0px; font-size: 40px"";>&ensp;</p>","-","viewing","0","11","3C,20A,22A","","","","","","","","","","","","","","","","","","",""
"","","","","","html-slider-response","212","1663142","0.0-25.0-1.1","9eae6b8f-2579-4b67-bd55-3ddef3c1e4fd","3006","
                  <p style=""text-align: center;"">₪36
                                                <br>30%</p>
                  <p id=""wtp"" style=""text-align:center; margin-top: 0px; margin-bottom: 0px; font-size: 40px"";>מוכנים לשלם: <span id=""c_p_y""></span></p>","12","evaluation","63","11","3C,20A,22A","30","36","12","","","","","","","","","","","","","","","",""
"","","","","","html-keyboard-response","213","1664565","0.0-25.0-2.1","9eae6b8f-2579-4b67-bd55-3ddef3c1e4fd","null","<p style=""text-align: center;"">+</p>","null","fixation","","","","","","","","","","","","","","","","","","","","","",""
"","","","","","html-slider-response","214","1665568","0.0-25.0-0.2","9eae6b8f-2579-4b67-bd55-3ddef3c1e4fd","1000","
                  <p style=""text-align: center;"">₪11
                                                <br>20%</p>
                  <p id=""wtp"" style=""text-align:center; margin-top: 0px; margin-bottom: 0px; font-size: 40px"";>&ensp;</p>","-","viewing","0","4","12C,17C,23C,28C","","","","","","","","","","","","","","","","","","",""
"","","","","","html-slider-response","215","1667606","0.0-25.0-1.2","9eae6b8f-2579-4b67-bd55-3ddef3c1e4fd","2037","
                  <p style=""text-align: center;"">₪11
                                                <br>20%</p>
                  <p id=""wtp"" style=""text-align:center; margin-top: 0px; margin-bottom: 0px; font-size: 40px"";>מוכנים לשלם: <span id=""c_p_y""></span></p>","4","evaluation","67","4","12C,17C,23C,28C","20","11","4","","","","","","","","","","","","","","","",""
"","","","","","html-keyboard-response","216","1668535","0.0-25.0-2.2","9eae6b8f-2579-4b67-bd55-3ddef3c1e4fd","null","<p style=""text-align: center;"">+</p>","null","fixation","","","","","","","","","","","","","","","","","","","","","",""
"","","","","","html-slider-response","217","1669537","0.0-25.0-0.3","9eae6b8f-2579-4b67-bd55-3ddef3c1e4fd","1000","
                  <p style=""text-align: center;"">₪71
                                                <br>75%</p>
                  <p id=""wtp"" style=""text-align:center; margin-top: 0px; margin-bottom: 0px; font-size: 40px"";>&ensp;</p>","-","viewing","0","28","8B","","","","","","","","","","","","","","","","","","",""
"","","","","","html-slider-response","218","1671686","0.0-25.0-1.3","9eae6b8f-2579-4b67-bd55-3ddef3c1e4fd","2148","
                  <p style=""text-align: center;"">₪71
                                                <br>75%</p>
                  <p id=""wtp"" style=""text-align:center; margin-top: 0px; margin-bottom: 0px; font-size: 40px"";>מוכנים לשלם: <span id=""c_p_y""></span></p>","37","evaluation","69","28","8B","75","71","37","","","","","","","","","","","","","","","",""
"","","","","","html-keyboard-response","219","1672417","0.0-25.0-2.3","9eae6b8f-2579-4b67-bd55-3ddef3c1e4fd","null","<p style=""text-align: center;"">+</p>","null","fixation","","","","","","","","","","","","","","","","","","","","","",""
"","","","","","html-slider-response","220","1673418","0.0-25.0-0.4","9eae6b8f-2579-4b67-bd55-3ddef3c1e4fd","1000","
                  <p style=""text-align: center;"">₪58
                                                <br>40%</p>
                  <p id=""wtp"" style=""text-align:center; margin-top: 0px; margin-bottom: 0px; font-size: 40px"";>&ensp;</p>","-","viewing","0","20","10C,13A,19C,21B","","","","","","","","","","","","","","","","","","",""
"","","","","","html-slider-response","221","1677421","0.0-25.0-1.4","9eae6b8f-2579-4b67-bd55-3ddef3c1e4fd","null","
                  <p style=""text-align: center;"">₪58
                                                <br>40%</p>
                  <p id=""wtp"" style=""text-align:center; margin-top: 0px; margin-bottom: 0px; font-size: 40px"";>מוכנים לשלם: <span id=""c_p_y""></span></p>","null","evaluation","11","20","10C,13A,19C,21B","40","58","10","","","","","","","","","","","","","","","",""
"","","","","","html-keyboard-response","222","1678052","0.0-25.0-2.4","9eae6b8f-2579-4b67-bd55-3ddef3c1e4fd","null","<p style=""text-align: center;"">+</p>","null","fixation","","","","","","","","","","","","","","","","","","","","","",""
"","","","","","html-slider-response","223","1679054","0.0-25.0-0.5","9eae6b8f-2579-4b67-bd55-3ddef3c1e4fd","1000","
                  <p style=""text-align: center;"">₪4
                                                <br>75%</p>
                  <p id=""wtp"" style=""text-align:center; margin-top: 0px; margin-bottom: 0px; font-size: 40px"";>&ensp;</p>","-","viewing","0","3","12B,20B,23B,27C,29C","","","","","","","","","","","","","","","","","","",""
"","","","","","html-slider-response","224","1680358","0.0-25.0-1.5","9eae6b8f-2579-4b67-bd55-3ddef3c1e4fd","1304","
                  <p style=""text-align: center;"">₪4
                                                <br>75%</p>
                  <p id=""wtp"" style=""text-align:center; margin-top: 0px; margin-bottom: 0px; font-size: 40px"";>מוכנים לשלם: <span id=""c_p_y""></span></p>","0","evaluation","12","3","12B,20B,23B,27C,29C","75","4","0","","","","","","","","","","","","","","","",""
"","","","","","html-keyboard-response","225","1681391","0.0-25.0-2.5","9eae6b8f-2579-4b67-bd55-3ddef3c1e4fd","null","<p style=""text-align: center;"">+</p>","null","fixation","","","","","","","","","","","","","","","","","","","","","",""
"","","","","","html-slider-response","226","1682392","0.0-25.0-0.6","9eae6b8f-2579-4b67-bd55-3ddef3c1e4fd","1000","
                  <p style=""text-align: center;"">₪39
                                                <br>65%</p>
                  <p id=""wtp"" style=""text-align:center; margin-top: 0px; margin-bottom: 0px; font-size: 40px"";>&ensp;</p>","-","viewing","0","16","1A,15A,26C","","","","","","","","","","","","","","","","","","",""
"","","","","","html-slider-response","227","1686395","0.0-25.0-1.6","9eae6b8f-2579-4b67-bd55-3ddef3c1e4fd","null","
                  <p style=""text-align: center;"">₪39
                                                <br>65%</p>
                  <p id=""wtp"" style=""text-align:center; margin-top: 0px; margin-bottom: 0px; font-size: 40px"";>מוכנים לשלם: <span id=""c_p_y""></span></p>","null","evaluation","19","16","1A,15A,26C","65","39","16","","","","","","","","","","","","","","","",""
"","","","","","html-keyboard-response","228","1687867","0.0-25.0-2.6","9eae6b8f-2579-4b67-bd55-3ddef3c1e4fd","null","<p style=""text-align: center;"">+</p>","null","fixation","","","","","","","","","","","","","","","","","","","","","",""
"","","","","","html-slider-response","229","1688869","0.0-25.0-0.7","9eae6b8f-2579-4b67-bd55-3ddef3c1e4fd","1000","
                  <p style=""text-align: center;"">₪4
                                                <br>50%</p>
                  <p id=""wtp"" style=""text-align:center; margin-top: 0px; margin-bottom: 0px; font-size: 40px"";>&ensp;</p>","-","viewing","0","2","4C,17B","","","","","","","","","","","","","","","","","","",""
"","","","","","html-slider-response","230","1690782","0.0-25.0-1.7","9eae6b8f-2579-4b67-bd55-3ddef3c1e4fd","1912","
                  <p style=""text-align: center;"">₪4
                                                <br>50%</p>
                  <p id=""wtp"" style=""text-align:center; margin-top: 0px; margin-bottom: 0px; font-size: 40px"";>מוכנים לשלם: <span id=""c_p_y""></span></p>","1","evaluation","35","2","4C,17B","50","4","1","","","","","","","","","","","","","","","",""
"","","","","","html-keyboard-response","231","1691477","0.0-25.0-2.7","9eae6b8f-2579-4b67-bd55-3ddef3c1e4fd","null","<p style=""text-align: center;"">+</p>","null","fixation","","","","","","","","","","","","","","","","","","","","","",""
"","","","","","html-slider-response","232","1692479","0.0-25.0-0.8","9eae6b8f-2579-4b67-bd55-3ddef3c1e4fd","1000","
                  <p style=""text-align: center;"">₪71
                                                <br>55%</p>
                  <p id=""wtp"" style=""text-align:center; margin-top: 0px; margin-bottom: 0px; font-size: 40px"";>&ensp;</p>","-","viewing","0","27","5B,18A","","","","","","","","","","","","","","","","","","",""
"","","","","","html-slider-response","233","1695302","0.0-25.0-1.8","9eae6b8f-2579-4b67-bd55-3ddef3c1e4fd","2822","
                  <p style=""text-align: center;"">₪71
                                                <br>55%</p>
                  <p id=""wtp"" style=""text-align:center; margin-top: 0px; margin-bottom: 0px; font-size: 40px"";>מוכנים לשלם: <span id=""c_p_y""></span></p>","38","evaluation","10","27","5B,18A","55","71","38","","","","","","","","","","","","","","","",""
"","","","","","html-keyboard-response","234","1695856","0.0-25.0-2.8","9eae6b8f-2579-4b67-bd55-3ddef3c1e4fd","null","<p style=""text-align: center;"">+</p>","null","fixation","","","","","","","","","","","","","","","","","","","","","",""
"","","","","","html-slider-response","235","1696869","0.0-25.0-0.9","9eae6b8f-2579-4b67-bd55-3ddef3c1e4fd","1000","
                  <p style=""text-align: center;"">₪11
                                                <br>75%</p>
                  <p id=""wtp"" style=""text-align:center; margin-top: 0px; margin-bottom: 0px; font-size: 40px"";>&ensp;</p>","-","viewing","0","7","6B,18B,22C,24C,29A","","","","","","","","","","","","","","","","","","",""
"","","","","","html-slider-response","236","1698598","0.0-25.0-1.9","9eae6b8f-2579-4b67-bd55-3ddef3c1e4fd","1729","
                  <p style=""text-align: center;"">₪11
                                                <br>75%</p>
                  <p id=""wtp"" style=""text-align:center; margin-top: 0px; margin-bottom: 0px; font-size: 40px"";>מוכנים לשלם: <span id=""c_p_y""></span></p>","4","evaluation","10","7","6B,18B,22C,24C,29A","75","11","4","","","","","","","","","","","","","","","",""
"","","","","","html-keyboard-response","237","1699922","0.0-25.0-2.9","9eae6b8f-2579-4b67-bd55-3ddef3c1e4fd","null","<p style=""text-align: center;"">+</p>","null","fixation","","","","","","","","","","","","","","","","","","","","","",""
"","","","","","html-slider-response","238","1700924","0.0-25.0-0.10","9eae6b8f-2579-4b67-bd55-3ddef3c1e4fd","1000","
                  <p style=""text-align: center;"">₪39
                                                <br>60%</p>
                  <p id=""wtp"" style=""text-align:center; margin-top: 0px; margin-bottom: 0px; font-size: 40px"";>&ensp;</p>","-","viewing","0","15","9C,25B","","","","","","","","","","","","","","","","","","",""
"","","","","","html-slider-response","239","1704262","0.0-25.0-1.10","9eae6b8f-2579-4b67-bd55-3ddef3c1e4fd","3337","
                  <p style=""text-align: center;"">₪39
                                                <br>60%</p>
                  <p id=""wtp"" style=""text-align:center; margin-top: 0px; margin-bottom: 0px; font-size: 40px"";>מוכנים לשלם: <span id=""c_p_y""></span></p>","16","evaluation","1","15","9C,25B","60","39","16","","","","","","","","","","","","","","","",""
"","","","","","html-keyboard-response","240","1705717","0.0-25.0-2.10","9eae6b8f-2579-4b67-bd55-3ddef3c1e4fd","null","<p style=""text-align: center;"">+</p>","null","fixation","","","","","","","","","","","","","","","","","","","","","",""
"","","","","","html-slider-response","241","1706718","0.0-25.0-0.11","9eae6b8f-2579-4b67-bd55-3ddef3c1e4fd","1000","
                  <p style=""text-align: center;"">₪16
                                                <br>20%</p>
                  <p id=""wtp"" style=""text-align:center; margin-top: 0px; margin-bottom: 0px; font-size: 40px"";>&ensp;</p>","-","viewing","0","8","14C,17A,20C,27A","","","","","","","","","","","","","","","","","","",""
"","","","","","html-slider-response","242","1708830","0.0-25.0-1.11","9eae6b8f-2579-4b67-bd55-3ddef3c1e4fd","2111","
                  <p style=""text-align: center;"">₪16
                                                <br>20%</p>
                  <p id=""wtp"" style=""text-align:center; margin-top: 0px; margin-bottom: 0px; font-size: 40px"";>מוכנים לשלם: <span id=""c_p_y""></span></p>","2","evaluation","74","8","14C,17A,20C,27A","20","16","2","","","","","","","","","","","","","","","",""
"","","","","","html-keyboard-response","243","1709883","0.0-25.0-2.11","9eae6b8f-2579-4b67-bd55-3ddef3c1e4fd","null","<p style=""text-align: center;"">+</p>","null","fixation","","","","","","","","","","","","","","","","","","","","","",""
"","","","","","html-slider-response","244","1710885","0.0-25.0-0.12","9eae6b8f-2579-4b67-bd55-3ddef3c1e4fd","1000","
                  <p style=""text-align: center;"">₪18
                                                <br>50%</p>
                  <p id=""wtp"" style=""text-align:center; margin-top: 0px; margin-bottom: 0px; font-size: 40px"";>&ensp;</p>","-","viewing","0","10","2C,16C,22B,28A","","","","","","","","","","","","","","","","","","",""
"","","","","","html-slider-response","245","1714302","0.0-25.0-1.12","9eae6b8f-2579-4b67-bd55-3ddef3c1e4fd","3416","
                  <p style=""text-align: center;"">₪18
                                                <br>50%</p>
                  <p id=""wtp"" style=""text-align:center; margin-top: 0px; margin-bottom: 0px; font-size: 40px"";>מוכנים לשלם: <span id=""c_p_y""></span></p>","6","evaluation","42","10","2C,16C,22B,28A","50","18","6","","","","","","","","","","","","","","","",""
"","","","","","html-keyboard-response","246","1715794","0.0-25.0-2.12","9eae6b8f-2579-4b67-bd55-3ddef3c1e4fd","null","<p style=""text-align: center;"">+</p>","null","fixation","","","","","","","","","","","","","","","","","","","","","",""
"","","","","","html-slider-response","247","1716796","0.0-25.0-0.13","9eae6b8f-2579-4b67-bd55-3ddef3c1e4fd","1000","
                  <p style=""text-align: center;"">₪11
                                                <br>25%</p>
                  <p id=""wtp"" style=""text-align:center; margin-top: 0px; margin-bottom: 0px; font-size: 40px"";>&ensp;</p>","-","viewing","0","5","12A,27B,28B,30B","","","","","","","","","","","","","","","","","","",""
"","","","","","html-slider-response","248","1719886","0.0-25.0-1.13","9eae6b8f-2579-4b67-bd55-3ddef3c1e4fd","3089","
                  <p style=""text-align: center;"">₪11
                                                <br>25%</p>
                  <p id=""wtp"" style=""text-align:center; margin-top: 0px; margin-bottom: 0px; font-size: 40px"";>מוכנים לשלם: <span id=""c_p_y""></span></p>","2","evaluation","60","5","12A,27B,28B,30B","25","11","2","","","","","","","","","","","","","","","",""
"","","","","","html-keyboard-response","249","1720424","0.0-25.0-2.13","9eae6b8f-2579-4b67-bd55-3ddef3c1e4fd","null","<p style=""text-align: center;"">+</p>","null","fixation","","","","","","","","","","","","","","","","","","","","","",""
"","","","","","html-slider-response","250","1721425","0.0-25.0-0.14","9eae6b8f-2579-4b67-bd55-3ddef3c1e4fd","1000","
                  <p style=""text-align: center;"">₪76
                                                <br>65%</p>
                  <p id=""wtp"" style=""text-align:center; margin-top: 0px; margin-bottom: 0px; font-size: 40px"";>&ensp;</p>","-","viewing","0","29","8C,19A,24B","","","","","","","","","","","","","","","","","","",""
