"success","timeout","failed_images","failed_audio","failed_video","trial_type","trial_index","time_elapsed","internal_node_id","subject_id","rt","stimulus","response","part","slider_start","ID","set_ID","prob","amount","last_location","actual_choice","actual_EV","binary_id","trinary_id","catch","A_key","D_key","choice_prob","choice_amount","won_prize","potential_prize_amount","potential_prize_prob","total_prize","accuracy"
"true","false","[]","[]","[]","preload","0","11","0.0-0.0","d331077c-1fef-4125-8c76-713d77d3c50e","","","","","","","","","","","","","","","","","","","","","","","",""
"","","","","","html-keyboard-response","1","12247","0.0-1.0","d331077c-1fef-4125-8c76-713d77d3c50e","null","
          <h1>שלום וברוכים הבאים!</h1>
          <p>לפניכם ניסוי בקבלת החלטות עם שני חלקים.
          <br><br>לחצו על העכבר כדי להמשיך.</p>","0","example","","","","","","","","","","","","","","","","","","","",""
"","","","","","html-keyboard-response","2","19622","0.0-2.0","d331077c-1fef-4125-8c76-713d77d3c50e","null","
        <h1>חלק 1</h1>
        <p>בקרוב יוצגו בפניכם הגרלות.
        <br>עליכם לבחור את המחיר המירבי שתהיו מוכנים לשלם כדי להשתתף בהגרלה שתוצג.
        <br>יש לכם תקציב של ₪80 לכל הגרלה. 
        <br>נסו להעריך כל הגרלה בנפרד ולחשוב כמה היא שווה עבורכם, ₪80 זמינים לכל הגרלה בנפרד.
        <br><br>לחצו על העכבר כדי להמשיך.</p>","1","instructions","","","","","","","","","","","","","","","","","","","",""
"","","","","","html-keyboard-response","3","36390","0.0-3.0","d331077c-1fef-4125-8c76-713d77d3c50e","null","
        <p>בסוף הניסוי, המחשב יבחר את אחת ההגרלות ויקבע מחיר לכרטיס עבורה. 
        <br>במידה והמחיר שבחרתם נמוך מהמחיר שנבחר על ידי המחשב, לא תשתתפו בהגרלה ותשארו עם מלוא התקציב.
        <br>במידה והמחיר שבחרתם גבוה מהמחיר שנבחר על ידי המחשב, תשלמו את המחיר שנקבע ותשתתפו בהגרלה.
        <br><br>לחצו על העכבר כדי להמשיך.</p>","1","instructions","","","","","","","","","","","","","","","","","","","",""
"","","","","","html-slider-response","4","49623","0.0-4.0","d331077c-1fef-4125-8c76-713d77d3c50e","13128","
        <p style=""font-size: 42px;"">נתחיל עם דוגמא: 
        <br>ההגרלה מטה מציעה 65% סיכוי לזכות ב-₪40 
        <br>&emsp;&emsp;&emsp;&emsp;&emsp;&emsp;&emsp;&emsp;&ensp;35% סיכוי לזכות ב-₪0.
        <br><br>מה המחיר המירבי שתהיו מוכנים לשלם על כרטיס להגרלה זו בין 0 ל-₪80?
        <br>הזיזו את העכבר על פני המלבן ולחצו כדי לבצע בחירה.</p>
        
        <p style=""text-align: center;"">₪40<br>65%</p>

        <p id=""wtp"" style=""text-align:center; margin-top: 0px; margin-bottom: 0px; font-size: 40px"";>מוכנים לשלם: <span id=""c_p_y""></span></p>","13","example","46","","","","","","","","","","","","","","","","","","",""
"","","","","","html-keyboard-response","5","59414","0.0-5.0","d331077c-1fef-4125-8c76-713d77d3c50e","null","<p>יפה מאוד!
                <br> בחרתם שתהיו מוכנים לשלם ₪13 כדי להשתתף בהגרלה:
                <br><p style=""text-align: center;"">₪40<br>65%</p>
                <p>נשמע נכון?
                <br>נניח שהגרלה זו נבחרה בסוף הניסוי.
                <br>כעת המחשב יקבע מחיר עבורה באקראי.
                <br>לחצו על העכבר להמשך.</p>","1","example","","","","","","","","","","","","","","","","","","","",""
"","","","","","html-keyboard-response","6","65935","0.0-6.0","d331077c-1fef-4125-8c76-713d77d3c50e","null","<p>המחשב קבע מחיר: ₪21
                <br>ואתם בחרתם לשלם לכל היותר: ₪13
                <br><br>מכיוון שהמחיר שבחרתם נמוך מהמחיר שנקבע, לא תתשתתפו בהגרלה.
                <br>במקרה כזה, בסוף הניסוי תקבלו את כל התקציב ההתחלתי של ₪80.
                <br><br>לחצו על העכבר להמשך.</p>","1","example","","","","","","","","","","","","","","","","","","","",""
"","","","","","html-slider-response","7","73127","0.0-7.0","d331077c-1fef-4125-8c76-713d77d3c50e","6931","<p style=""font-size: 42px;"">הנה עוד דוגמא:
                <br>ההגרלה מטה מציעה 35% סיכוי לזכות ב-₪18 
                <br>&emsp;&emsp;&emsp;&emsp;&emsp;&emsp;&emsp;&emsp;&ensp;65% סיכוי לזכות ב-₪0.</p>
        
                <p style=""text-align: center;"">₪18<br>35%</p>
                <p id=""wtp"" style=""text-align:center; margin-top: 0px; margin-bottom: 0px; font-size: 40px"";>מוכנים לשלם: <span id=""c_p_y""></span></p>","3","example","45","","","","","","","","","","","","","","","","","","",""
"","","","","","html-keyboard-response","8","77607","0.0-8.0","d331077c-1fef-4125-8c76-713d77d3c50e","null","<p>הייתם מוכנים לשלם  ₪3 כדי להשתתף בהגרלה:
                <p style=""text-align: center;"">₪18<br>35%</p>
                <p>כעת נניח שהמחשב בחר את ההגרלה הזו בסוף הניסוי, וקבע עבורה מחיר.
                <br><br>לחצו על העכבר כדי להמשיך.</p>","1","instructions","","","","","","","","","","","","","","","","","","","",""
"","","","","","html-keyboard-response","9","102055","0.0-9.0","d331077c-1fef-4125-8c76-713d77d3c50e","null","<p>המחשב קבע מחיר להגרלה: ₪3
                <br>ואתם בחרתם לשלם לכל היותר: ₪3
                <br><br>כעת המחיר שנקבע זהה לזה שבחרתם, אז תשלמו את המחיר שקבע המחשב (₪3) ותשתתפו בהגרלה.
                <br>במקרה כזה, תסיימו את הניסוי עם תקציב של ₪77 ועם סיכוי לזכות ב-₪18 נוספים מההגרלה.
                <br>כלומר, תוכלו לקבל ₪77 אם לא תזכו בהגרלה, או ₪95 אם תזכו בהגרלה.
                <br><br>לחצו על העכבר להמשך.</p>","1","example","","","","","","","","","","","","","","","","","","","",""
"","","","","","html-keyboard-response","10","117679","0.0-10.0","d331077c-1fef-4125-8c76-713d77d3c50e","null","<p>במהלך הניסוי, קודם תראו את ההגרלה ורק לאחר מכן תוכלו לבחור.
                <p>כמו כן, יהיו לכם מספר שניות מוגבל להגיב.
                <p>בואו ננסה זאת עם ההגרלה הקודמת.
                <br>לחצו על העכבר כדי להמשיך.</p>","1","instructions","","","","","","","","","","","","","","","","","","","",""
"","","","","","html-slider-response","11","118939","0.0-11.0","d331077c-1fef-4125-8c76-713d77d3c50e","1000","
                    <p style=""text-align: center;"">₪18<br>35%</p>
                    <p id=""wtp"" style=""text-align:center; margin-top: 0px; margin-bottom: 0px; font-size: 40px"";>&ensp;</p>","36","instructions","0","","","","","","","","","","","","","","","","","","",""
"","","","","","html-slider-response","12","121855","0.0-12.0","d331077c-1fef-4125-8c76-713d77d3c50e","2664","
                    <p style=""text-align: center;"">₪18<br>35%</p>
                    <p id=""wtp"" style=""text-align:center; margin-top: 0px; margin-bottom: 0px; font-size: 40px"";>מוכנים לשלם: <span id=""c_p_y""></span></p>","2","instructions","40","","","","","","","","","","","","","","","","","","",""
"","","","","","html-keyboard-response","13","125799","0.0-13.0","d331077c-1fef-4125-8c76-713d77d3c50e","null","<p>יפה. הפעם בחרתם לשלם לכל היותר ₪2.
                <br><br>לחצו על העכבר כדי להמשיך.</p>","1","instructions","","","","","","","","","","","","","","","","","","","",""
"","","","","","html-keyboard-response","14","132095","0.0-15.0","d331077c-1fef-4125-8c76-713d77d3c50e","null","<p>כעת נתחיל את הניסוי.
                <br><br>אתם תראו הגרלות ותתבקשו לבחור כמה תהיו מוכנים לשלם כדי להשתתף בהן.
                <br>יש לכם תקציב של ₪80 עבור כל הגרלה.
                <br>בסוף הניסוי הגרלה אחת תבחר באקראי ותשוחק.
                <br><br>לחצו על העכבר כדי להתחיל את הניסוי.</p>","1","instructions","","","","","","","","","","","","","","","","","","","",""
"","","","","","html-keyboard-response","15","133353","0.0-16.0","d331077c-1fef-4125-8c76-713d77d3c50e","null","<p style=""text-align: center;"">+</p>","null","fixation","","","","","","","","","","","","","","","","","","","",""
"","","","","","html-slider-response","16","134357","0.0-17.0-0.0","d331077c-1fef-4125-8c76-713d77d3c50e","1000","
                  <p style=""text-align: center;"">₪4
                                                <br>50%</p>
                  <p id=""wtp"" style=""text-align:center; margin-top: 0px; margin-bottom: 0px; font-size: 40px"";>&ensp;</p>","-","viewing","0","2","4C,17B","","","","","","","","","","","","","","","","",""
"","","","","","html-slider-response","17","137023","0.0-17.0-1.0","d331077c-1fef-4125-8c76-713d77d3c50e","2665","
                  <p style=""text-align: center;"">₪4
                                                <br>50%</p>
                  <p id=""wtp"" style=""text-align:center; margin-top: 0px; margin-bottom: 0px; font-size: 40px"";>מוכנים לשלם: <span id=""c_p_y""></span></p>","0","evaluation","6","2","4C,17B","50","4","1","","","","","","","","","","","","","",""
"","","","","","html-keyboard-response","18","137964","0.0-17.0-2.0","d331077c-1fef-4125-8c76-713d77d3c50e","null","<p style=""text-align: center;"">+</p>","null","fixation","","","","","","","","","","","","","","","","","","","",""
"","","","","","html-slider-response","19","138967","0.0-17.0-0.1","d331077c-1fef-4125-8c76-713d77d3c50e","1000","
                  <p style=""text-align: center;"">₪58
                                                <br>30%</p>
                  <p id=""wtp"" style=""text-align:center; margin-top: 0px; margin-bottom: 0px; font-size: 40px"";>&ensp;</p>","-","viewing","0","19","13C,30A","","","","","","","","","","","","","","","","",""
"","","","","","html-slider-response","20","142979","0.0-17.0-1.1","d331077c-1fef-4125-8c76-713d77d3c50e","null","
                  <p style=""text-align: center;"">₪58
                                                <br>30%</p>
                  <p id=""wtp"" style=""text-align:center; margin-top: 0px; margin-bottom: 0px; font-size: 40px"";>מוכנים לשלם: <span id=""c_p_y""></span></p>","null","evaluation","44","19","13C,30A","30","58","5","","","","","","","","","","","","","",""
"","","","","","html-keyboard-response","21","144441","0.0-17.0-2.1","d331077c-1fef-4125-8c76-713d77d3c50e","null","<p style=""text-align: center;"">+</p>","null","fixation","","","","","","","","","","","","","","","","","","","",""
"","","","","","html-slider-response","22","145445","0.0-17.0-0.2","d331077c-1fef-4125-8c76-713d77d3c50e","1000","
                  <p style=""text-align: center;"">₪61
                                                <br>45%</p>
                  <p id=""wtp"" style=""text-align:center; margin-top: 0px; margin-bottom: 0px; font-size: 40px"";>&ensp;</p>","-","viewing","0","22","10A,11A","","","","","","","","","","","","","","","","",""
"","","","","","html-slider-response","23","149463","0.0-17.0-1.2","d331077c-1fef-4125-8c76-713d77d3c50e","null","
                  <p style=""text-align: center;"">₪61
                                                <br>45%</p>
                  <p id=""wtp"" style=""text-align:center; margin-top: 0px; margin-bottom: 0px; font-size: 40px"";>מוכנים לשלם: <span id=""c_p_y""></span></p>","null","evaluation","46","22","10A,11A","45","61","7","","","","","","","","","","","","","",""
"","","","","","html-keyboard-response","24","150225","0.0-17.0-2.2","d331077c-1fef-4125-8c76-713d77d3c50e","null","<p style=""text-align: center;"">+</p>","null","fixation","","","","","","","","","","","","","","","","","","","",""
"","","","","","html-slider-response","25","151229","0.0-17.0-0.3","d331077c-1fef-4125-8c76-713d77d3c50e","1000","
                  <p style=""text-align: center;"">₪36
                                                <br>30%</p>
                  <p id=""wtp"" style=""text-align:center; margin-top: 0px; margin-bottom: 0px; font-size: 40px"";>&ensp;</p>","-","viewing","0","11","3C,20A,22A","","","","","","","","","","","","","","","","",""
"","","","","","html-slider-response","26","153104","0.0-17.0-1.3","d331077c-1fef-4125-8c76-713d77d3c50e","1873","
                  <p style=""text-align: center;"">₪36
                                                <br>30%</p>
                  <p id=""wtp"" style=""text-align:center; margin-top: 0px; margin-bottom: 0px; font-size: 40px"";>מוכנים לשלם: <span id=""c_p_y""></span></p>","2","evaluation","27","11","3C,20A,22A","30","36","3","","","","","","","","","","","","","",""
"","","","","","html-keyboard-response","27","154099","0.0-17.0-2.3","d331077c-1fef-4125-8c76-713d77d3c50e","null","<p style=""text-align: center;"">+</p>","null","fixation","","","","","","","","","","","","","","","","","","","",""
"","","","","","html-slider-response","28","155107","0.0-17.0-0.4","d331077c-1fef-4125-8c76-713d77d3c50e","1000","
                  <p style=""text-align: center;"">₪64
                                                <br>25%</p>
                  <p id=""wtp"" style=""text-align:center; margin-top: 0px; margin-bottom: 0px; font-size: 40px"";>&ensp;</p>","-","viewing","0","24","6A,21A","","","","","","","","","","","","","","","","",""
"","","","","","html-slider-response","29","157752","0.0-17.0-1.4","d331077c-1fef-4125-8c76-713d77d3c50e","2643","
                  <p style=""text-align: center;"">₪64
                                                <br>25%</p>
                  <p id=""wtp"" style=""text-align:center; margin-top: 0px; margin-bottom: 0px; font-size: 40px"";>מוכנים לשלם: <span id=""c_p_y""></span></p>","4","evaluation","55","24","6A,21A","25","64","4","","","","","","","","","","","","","",""
"","","","","","html-keyboard-response","30","158921","0.0-17.0-2.4","d331077c-1fef-4125-8c76-713d77d3c50e","null","<p style=""text-align: center;"">+</p>","null","fixation","","","","","","","","","","","","","","","","","","","",""
"","","","","","html-slider-response","31","159925","0.0-17.0-0.5","d331077c-1fef-4125-8c76-713d77d3c50e","1000","
                  <p style=""text-align: center;"">₪4
                                                <br>25%</p>
                  <p id=""wtp"" style=""text-align:center; margin-top: 0px; margin-bottom: 0px; font-size: 40px"";>&ensp;</p>","-","viewing","0","1","6C,29B,30C","","","","","","","","","","","","","","","","",""
"","","","","","html-slider-response","32","161960","0.0-17.0-1.5","d331077c-1fef-4125-8c76-713d77d3c50e","2034","
                  <p style=""text-align: center;"">₪4
                                                <br>25%</p>
                  <p id=""wtp"" style=""text-align:center; margin-top: 0px; margin-bottom: 0px; font-size: 40px"";>מוכנים לשלם: <span id=""c_p_y""></span></p>","0","evaluation","67","1","6C,29B,30C","25","4","0","","","","","","","","","","","","","",""
"","","","","","html-keyboard-response","33","163295","0.0-17.0-2.5","d331077c-1fef-4125-8c76-713d77d3c50e","null","<p style=""text-align: center;"">+</p>","null","fixation","","","","","","","","","","","","","","","","","","","",""
"","","","","","html-slider-response","34","164298","0.0-17.0-0.6","d331077c-1fef-4125-8c76-713d77d3c50e","1000","
                  <p style=""text-align: center;"">₪39
                                                <br>65%</p>
                  <p id=""wtp"" style=""text-align:center; margin-top: 0px; margin-bottom: 0px; font-size: 40px"";>&ensp;</p>","-","viewing","0","16","1A,15A,26C","","","","","","","","","","","","","","","","",""
"","","","","","html-slider-response","35","168303","0.0-17.0-1.6","d331077c-1fef-4125-8c76-713d77d3c50e","null","
                  <p style=""text-align: center;"">₪39
                                                <br>65%</p>
                  <p id=""wtp"" style=""text-align:center; margin-top: 0px; margin-bottom: 0px; font-size: 40px"";>מוכנים לשלם: <span id=""c_p_y""></span></p>","null","evaluation","20","16","1A,15A,26C","65","39","10","","","","","","","","","","","","","",""
"","","","","","html-keyboard-response","36","169065","0.0-17.0-2.6","d331077c-1fef-4125-8c76-713d77d3c50e","null","<p style=""text-align: center;"">+</p>","null","fixation","","","","","","","","","","","","","","","","","","","",""
"","","","","","html-slider-response","37","170081","0.0-17.0-0.7","d331077c-1fef-4125-8c76-713d77d3c50e","1000","
                  <p style=""text-align: center;"">₪4
                                                <br>75%</p>
                  <p id=""wtp"" style=""text-align:center; margin-top: 0px; margin-bottom: 0px; font-size: 40px"";>&ensp;</p>","-","viewing","0","3","12B,20B,23B,27C,29C","","","","","","","","","","","","","","","","",""
"","","","","","html-slider-response","38","172344","0.0-17.0-1.7","d331077c-1fef-4125-8c76-713d77d3c50e","2262","
                  <p style=""text-align: center;"">₪4
                                                <br>75%</p>
                  <p id=""wtp"" style=""text-align:center; margin-top: 0px; margin-bottom: 0px; font-size: 40px"";>מוכנים לשלם: <span id=""c_p_y""></span></p>","0","evaluation","72","3","12B,20B,23B,27C,29C","75","4","1","","","","","","","","","","","","","",""
"","","","","","html-keyboard-response","39","173272","0.0-17.0-2.7","d331077c-1fef-4125-8c76-713d77d3c50e","null","<p style=""text-align: center;"">+</p>","null","fixation","","","","","","","","","","","","","","","","","","","",""
"","","","","","html-slider-response","40","174275","0.0-17.0-0.8","d331077c-1fef-4125-8c76-713d77d3c50e","1000","
                  <p style=""text-align: center;"">₪16
                                                <br>20%</p>
                  <p id=""wtp"" style=""text-align:center; margin-top: 0px; margin-bottom: 0px; font-size: 40px"";>&ensp;</p>","-","viewing","0","8","14C,17A,20C,27A","","","","","","","","","","","","","","","","",""
"","","","","","html-slider-response","41","176632","0.0-17.0-1.8","d331077c-1fef-4125-8c76-713d77d3c50e","2355","
                  <p style=""text-align: center;"">₪16
                                                <br>20%</p>
                  <p id=""wtp"" style=""text-align:center; margin-top: 0px; margin-bottom: 0px; font-size: 40px"";>מוכנים לשלם: <span id=""c_p_y""></span></p>","2","evaluation","0","8","14C,17A,20C,27A","20","16","3","","","","","","","","","","","","","",""
"","","","","","html-keyboard-response","42","178120","0.0-17.0-2.8","d331077c-1fef-4125-8c76-713d77d3c50e","null","<p style=""text-align: center;"">+</p>","null","fixation","","","","","","","","","","","","","","","","","","","",""
"","","","","","html-slider-response","43","179122","0.0-17.0-0.9","d331077c-1fef-4125-8c76-713d77d3c50e","1000","
                  <p style=""text-align: center;"">₪71
                                                <br>75%</p>
                  <p id=""wtp"" style=""text-align:center; margin-top: 0px; margin-bottom: 0px; font-size: 40px"";>&ensp;</p>","-","viewing","0","28","8B","","","","","","","","","","","","","","","","",""
"","","","","","html-slider-response","44","183124","0.0-17.0-1.9","d331077c-1fef-4125-8c76-713d77d3c50e","null","
                  <p style=""text-align: center;"">₪71
                                                <br>75%</p>
                  <p id=""wtp"" style=""text-align:center; margin-top: 0px; margin-bottom: 0px; font-size: 40px"";>מוכנים לשלם: <span id=""c_p_y""></span></p>","null","evaluation","54","28","8B","75","71","30","","","","","","","","","","","","","",""
"","","","","","html-keyboard-response","45","183949","0.0-17.0-2.9","d331077c-1fef-4125-8c76-713d77d3c50e","null","<p style=""text-align: center;"">+</p>","null","fixation","","","","","","","","","","","","","","","","","","","",""
"","","","","","html-slider-response","46","184960","0.0-17.0-0.10","d331077c-1fef-4125-8c76-713d77d3c50e","1000","
                  <p style=""text-align: center;"">₪11
                                                <br>20%</p>
                  <p id=""wtp"" style=""text-align:center; margin-top: 0px; margin-bottom: 0px; font-size: 40px"";>&ensp;</p>","-","viewing","0","4","12C,17C,23C,28C","","","","","","","","","","","","","","","","",""
"","","","","","html-slider-response","47","187016","0.0-17.0-1.10","d331077c-1fef-4125-8c76-713d77d3c50e","2054","
                  <p style=""text-align: center;"">₪11
                                                <br>20%</p>
                  <p id=""wtp"" style=""text-align:center; margin-top: 0px; margin-bottom: 0px; font-size: 40px"";>מוכנים לשלם: <span id=""c_p_y""></span></p>","1","evaluation","24","4","12C,17C,23C,28C","20","11","2","","","","","","","","","","","","","",""
"","","","","","html-keyboard-response","48","188163","0.0-17.0-2.10","d331077c-1fef-4125-8c76-713d77d3c50e","null","<p style=""text-align: center;"">+</p>","null","fixation","","","","","","","","","","","","","","","","","","","",""
"","","","","","html-slider-response","49","189169","0.0-17.0-0.11","d331077c-1fef-4125-8c76-713d77d3c50e","1000","
                  <p style=""text-align: center;"">₪36
                                                <br>75%</p>
                  <p id=""wtp"" style=""text-align:center; margin-top: 0px; margin-bottom: 0px; font-size: 40px"";>&ensp;</p>","-","viewing","0","14","4B,5A,13B,16B","","","","","","","","","","","","","","","","",""
"","","","","","html-slider-response","50","192447","0.0-17.0-1.11","d331077c-1fef-4125-8c76-713d77d3c50e","3277","
                  <p style=""text-align: center;"">₪36
                                                <br>75%</p>
                  <p id=""wtp"" style=""text-align:center; margin-top: 0px; margin-bottom: 0px; font-size: 40px"";>מוכנים לשלם: <span id=""c_p_y""></span></p>","18","evaluation","36","14","4B,5A,13B,16B","75","36","18","","","","","","","","","","","","","",""
"","","","","","html-keyboard-response","51","193477","0.0-17.0-2.11","d331077c-1fef-4125-8c76-713d77d3c50e","null","<p style=""text-align: center;"">+</p>","null","fixation","","","","","","","","","","","","","","","","","","","",""
"","","","","","html-slider-response","52","194484","0.0-17.0-0.12","d331077c-1fef-4125-8c76-713d77d3c50e","1000","
                  <p style=""text-align: center;"">₪43
                                                <br>60%</p>
                  <p id=""wtp"" style=""text-align:center; margin-top: 0px; margin-bottom: 0px; font-size: 40px"";>&ensp;</p>","-","viewing","0","17","2A,7A,9A,15B","","","","","","","","","","","","","","","","",""
"","","","","","html-slider-response","53","198493","0.0-17.0-1.12","d331077c-1fef-4125-8c76-713d77d3c50e","null","
                  <p style=""text-align: center;"">₪43
                                                <br>60%</p>
                  <p id=""wtp"" style=""text-align:center; margin-top: 0px; margin-bottom: 0px; font-size: 40px"";>מוכנים לשלם: <span id=""c_p_y""></span></p>","null","evaluation","11","17","2A,7A,9A,15B","60","43","25","","","","","","","","","","","","","",""
"","","","","","html-keyboard-response","54","199023","0.0-17.0-2.12","d331077c-1fef-4125-8c76-713d77d3c50e","null","<p style=""text-align: center;"">+</p>","null","fixation","","","","","","","","","","","","","","","","","","","",""
"","","","","","html-slider-response","55","200040","0.0-17.0-0.13","d331077c-1fef-4125-8c76-713d77d3c50e","1000","
                  <p style=""text-align: center;"">₪76
                                                <br>65%</p>
                  <p id=""wtp"" style=""text-align:center; margin-top: 0px; margin-bottom: 0px; font-size: 40px"";>&ensp;</p>","-","viewing","0","29","8C,19A,24B","","","","","","","","","","","","","","","","",""
"","","","","","html-slider-response","56","203399","0.0-17.0-1.13","d331077c-1fef-4125-8c76-713d77d3c50e","3358","
                  <p style=""text-align: center;"">₪76
                                                <br>65%</p>
                  <p id=""wtp"" style=""text-align:center; margin-top: 0px; margin-bottom: 0px; font-size: 40px"";>מוכנים לשלם: <span id=""c_p_y""></span></p>","33","evaluation","15","29","8C,19A,24B","65","76","33","","","","","","","","","","","","","",""
"","","","","","html-keyboard-response","57","204253","0.0-17.0-2.13","d331077c-1fef-4125-8c76-713d77d3c50e","null","<p style=""text-align: center;"">+</p>","null","fixation","","","","","","","","","","","","","","","","","","","",""
"","","","","","html-slider-response","58","205256","0.0-17.0-0.14","d331077c-1fef-4125-8c76-713d77d3c50e","1000","
                  <p style=""text-align: center;"">₪71
                                                <br>45%</p>
                  <p id=""wtp"" style=""text-align:center; margin-top: 0px; margin-bottom: 0px; font-size: 40px"";>&ensp;</p>","-","viewing","0","26","2B,16A","","","","","","","","","","","","","","","","",""
"","","","","","html-slider-response","59","207008","0.0-17.0-1.14","d331077c-1fef-4125-8c76-713d77d3c50e","1750","
                  <p style=""text-align: center;"">₪71
                                                <br>45%</p>
                  <p id=""wtp"" style=""text-align:center; margin-top: 0px; margin-bottom: 0px; font-size: 40px"";>מוכנים לשלם: <span id=""c_p_y""></span></p>","12","evaluation","56","26","2B,16A","45","71","13","","","","","","","","","","","","","",""
"","","","","","html-keyboard-response","60","208092","0.0-17.0-2.14","d331077c-1fef-4125-8c76-713d77d3c50e","null","<p style=""text-align: center;"">+</p>","null","fixation","","","","","","","","","","","","","","","","","","","",""
"","","","","","html-slider-response","61","209095","0.0-17.0-0.15","d331077c-1fef-4125-8c76-713d77d3c50e","1000","
                  <p style=""text-align: center;"">₪39
                                                <br>60%</p>
                  <p id=""wtp"" style=""text-align:center; margin-top: 0px; margin-bottom: 0px; font-size: 40px"";>&ensp;</p>","-","viewing","0","15","9C,25B","","","","","","","","","","","","","","","","",""
"","","","","","html-slider-response","62","211392","0.0-17.0-1.15","d331077c-1fef-4125-8c76-713d77d3c50e","2296","
                  <p style=""text-align: center;"">₪39
                                                <br>60%</p>
                  <p id=""wtp"" style=""text-align:center; margin-top: 0px; margin-bottom: 0px; font-size: 40px"";>מוכנים לשלם: <span id=""c_p_y""></span></p>","14","evaluation","17","15","9C,25B","60","39","15","","","","","","","","","","","","","",""
"","","","","","html-keyboard-response","63","212154","0.0-17.0-2.15","d331077c-1fef-4125-8c76-713d77d3c50e","null","<p style=""text-align: center;"">+</p>","null","fixation","","","","","","","","","","","","","","","","","","","",""
"","","","","","html-slider-response","64","213163","0.0-17.0-0.16","d331077c-1fef-4125-8c76-713d77d3c50e","1000","
                  <p style=""text-align: center;"">₪36
                                                <br>70%</p>
                  <p id=""wtp"" style=""text-align:center; margin-top: 0px; margin-bottom: 0px; font-size: 40px"";>&ensp;</p>","-","viewing","0","13","3A,5C,10B","","","","","","","","","","","","","","","","",""
"","","","","","html-slider-response","65","216079","0.0-17.0-1.16","d331077c-1fef-4125-8c76-713d77d3c50e","2915","
                  <p style=""text-align: center;"">₪36
                                                <br>70%</p>
                  <p id=""wtp"" style=""text-align:center; margin-top: 0px; margin-bottom: 0px; font-size: 40px"";>מוכנים לשלם: <span id=""c_p_y""></span></p>","20","evaluation","10","13","3A,5C,10B","70","36","20","","","","","","","","","","","","","",""
"","","","","","html-keyboard-response","66","216808","0.0-17.0-2.16","d331077c-1fef-4125-8c76-713d77d3c50e","null","<p style=""text-align: center;"">+</p>","null","fixation","","","","","","","","","","","","","","","","","","","",""
"","","","","","html-slider-response","67","217809","0.0-17.0-0.17","d331077c-1fef-4125-8c76-713d77d3c50e","1000","
                  <p style=""text-align: center;"">₪11
                                                <br>25%</p>
                  <p id=""wtp"" style=""text-align:center; margin-top: 0px; margin-bottom: 0px; font-size: 40px"";>&ensp;</p>","-","viewing","0","5","12A,27B,28B,30B","","","","","","","","","","","","","","","","",""
"","","","","","html-slider-response","68","221567","0.0-17.0-1.17","d331077c-1fef-4125-8c76-713d77d3c50e","3756","
                  <p style=""text-align: center;"">₪11
                                                <br>25%</p>
                  <p id=""wtp"" style=""text-align:center; margin-top: 0px; margin-bottom: 0px; font-size: 40px"";>מוכנים לשלם: <span id=""c_p_y""></span></p>","1","evaluation","49","5","12A,27B,28B,30B","25","11","2","","","","","","","","","","","","","",""
"","","","","","html-keyboard-response","69","222726","0.0-17.0-2.17","d331077c-1fef-4125-8c76-713d77d3c50e","null","<p style=""text-align: center;"">+</p>","null","fixation","","","","","","","","","","","","","","","","","","","",""
"","","","","","html-slider-response","70","223733","0.0-17.0-0.18","d331077c-1fef-4125-8c76-713d77d3c50e","1000","
                  <p style=""text-align: center;"">₪71
                                                <br>55%</p>
                  <p id=""wtp"" style=""text-align:center; margin-top: 0px; margin-bottom: 0px; font-size: 40px"";>&ensp;</p>","-","viewing","0","27","5B,18A","","","","","","","","","","","","","","","","",""
"","","","","","html-slider-response","71","225535","0.0-17.0-1.18","d331077c-1fef-4125-8c76-713d77d3c50e","1802","
                  <p style=""text-align: center;"">₪71
                                                <br>55%</p>
                  <p id=""wtp"" style=""text-align:center; margin-top: 0px; margin-bottom: 0px; font-size: 40px"";>מוכנים לשלם: <span id=""c_p_y""></span></p>","10","evaluation","36","27","5B,18A","55","71","11","","","","","","","","","","","","","",""
"","","","","","html-keyboard-response","72","226207","0.0-17.0-2.18","d331077c-1fef-4125-8c76-713d77d3c50e","null","<p style=""text-align: center;"">+</p>","null","fixation","","","","","","","","","","","","","","","","","","","",""
"","","","","","html-slider-response","73","227209","0.0-17.0-0.19","d331077c-1fef-4125-8c76-713d77d3c50e","1000","
                  <p style=""text-align: center;"">₪43
                                                <br>75%</p>
                  <p id=""wtp"" style=""text-align:center; margin-top: 0px; margin-bottom: 0px; font-size: 40px"";>&ensp;</p>","-","viewing","0","18","11B,19B,24A,26A","","","","","","","","","","","","","","","","",""
"","","","","","html-slider-response","74","230096","0.0-17.0-1.19","d331077c-1fef-4125-8c76-713d77d3c50e","2885","
                  <p style=""text-align: center;"">₪43
                                                <br>75%</p>
                  <p id=""wtp"" style=""text-align:center; margin-top: 0px; margin-bottom: 0px; font-size: 40px"";>מוכנים לשלם: <span id=""c_p_y""></span></p>","15","evaluation","72","18","11B,19B,24A,26A","75","43","16","","","","","","","","","","","","","",""
"","","","","","html-keyboard-response","75","231372","0.0-17.0-2.19","d331077c-1fef-4125-8c76-713d77d3c50e","null","<p style=""text-align: center;"">+</p>","null","fixation","","","","","","","","","","","","","","","","","","","",""
"","","","","","html-slider-response","76","232381","0.0-17.0-0.20","d331077c-1fef-4125-8c76-713d77d3c50e","1000","
                  <p style=""text-align: center;"">₪58
                                                <br>45%</p>
                  <p id=""wtp"" style=""text-align:center; margin-top: 0px; margin-bottom: 0px; font-size: 40px"";>&ensp;</p>","-","viewing","0","21","11C,18C,25A","","","","","","","","","","","","","","","","",""
"","","","","","html-slider-response","77","235735","0.0-17.0-1.20","d331077c-1fef-4125-8c76-713d77d3c50e","3353","
                  <p style=""text-align: center;"">₪58
                                                <br>45%</p>
                  <p id=""wtp"" style=""text-align:center; margin-top: 0px; margin-bottom: 0px; font-size: 40px"";>מוכנים לשלם: <span id=""c_p_y""></span></p>","4","evaluation","3","21","11C,18C,25A","45","58","5","","","","","","","","","","","","","",""
"","","","","","html-keyboard-response","78","236997","0.0-17.0-2.20","d331077c-1fef-4125-8c76-713d77d3c50e","null","<p style=""text-align: center;"">+</p>","null","fixation","","","","","","","","","","","","","","","","","","","",""
"","","","","","html-slider-response","79","238010","0.0-17.0-0.21","d331077c-1fef-4125-8c76-713d77d3c50e","1000","
                  <p style=""text-align: center;"">₪11
                                                <br>75%</p>
                  <p id=""wtp"" style=""text-align:center; margin-top: 0px; margin-bottom: 0px; font-size: 40px"";>&ensp;</p>","-","viewing","0","7","6B,18B,22C,24C,29A","","","","","","","","","","","","","","","","",""
"","","","","","html-slider-response","80","240895","0.0-17.0-1.21","d331077c-1fef-4125-8c76-713d77d3c50e","2884","
                  <p style=""text-align: center;"">₪11
                                                <br>75%</p>
                  <p id=""wtp"" style=""text-align:center; margin-top: 0px; margin-bottom: 0px; font-size: 40px"";>מוכנים לשלם: <span id=""c_p_y""></span></p>","1","evaluation","73","7","6B,18B,22C,24C,29A","75","11","1","","","","","","","","","","","","","",""
"","","","","","html-keyboard-response","81","241757","0.0-17.0-2.21","d331077c-1fef-4125-8c76-713d77d3c50e","null","<p style=""text-align: center;"">+</p>","null","fixation","","","","","","","","","","","","","","","","","","","",""
"","","","","","html-slider-response","82","242759","0.0-17.0-0.22","d331077c-1fef-4125-8c76-713d77d3c50e","1000","
                  <p style=""text-align: center;"">₪79
                                                <br>65%</p>
                  <p id=""wtp"" style=""text-align:center; margin-top: 0px; margin-bottom: 0px; font-size: 40px"";>&ensp;</p>","-","viewing","0","31","8A","","","","","","","","","","","","","","","","",""
"","","","","","html-slider-response","83","245367","0.0-17.0-1.22","d331077c-1fef-4125-8c76-713d77d3c50e","2607","
                  <p style=""text-align: center;"">₪79
                                                <br>65%</p>
                  <p id=""wtp"" style=""text-align:center; margin-top: 0px; margin-bottom: 0px; font-size: 40px"";>מוכנים לשלם: <span id=""c_p_y""></span></p>","9","evaluation","48","31","8A","65","79","10","","","","","","","","","","","","","",""
"","","","","","html-keyboard-response","84","246046","0.0-17.0-2.22","d331077c-1fef-4125-8c76-713d77d3c50e","null","<p style=""text-align: center;"">+</p>","null","fixation","","","","","","","","","","","","","","","","","","","",""
"","","","","","html-slider-response","85","247063","0.0-17.0-0.23","d331077c-1fef-4125-8c76-713d77d3c50e","1000","
                  <p style=""text-align: center;"">₪58
                                                <br>40%</p>
                  <p id=""wtp"" style=""text-align:center; margin-top: 0px; margin-bottom: 0px; font-size: 40px"";>&ensp;</p>","-","viewing","0","20","10C,13A,19C,21B","","","","","","","","","","","","","","","","",""
"","","","","","html-slider-response","86","250007","0.0-17.0-1.23","d331077c-1fef-4125-8c76-713d77d3c50e","2944","
                  <p style=""text-align: center;"">₪58
                                                <br>40%</p>
                  <p id=""wtp"" style=""text-align:center; margin-top: 0px; margin-bottom: 0px; font-size: 40px"";>מוכנים לשלם: <span id=""c_p_y""></span></p>","4","evaluation","69","20","10C,13A,19C,21B","40","58","5","","","","","","","","","","","","","",""
"","","","","","html-keyboard-response","87","250602","0.0-17.0-2.23","d331077c-1fef-4125-8c76-713d77d3c50e","null","<p style=""text-align: center;"">+</p>","null","fixation","","","","","","","","","","","","","","","","","","","",""
"","","","","","html-slider-response","88","251617","0.0-17.0-0.24","d331077c-1fef-4125-8c76-713d77d3c50e","1000","
                  <p style=""text-align: center;"">₪18
                                                <br>50%</p>
                  <p id=""wtp"" style=""text-align:center; margin-top: 0px; margin-bottom: 0px; font-size: 40px"";>&ensp;</p>","-","viewing","0","10","2C,16C,22B,28A","","","","","","","","","","","","","","","","",""
"","","","","","html-slider-response","89","253367","0.0-17.0-1.24","d331077c-1fef-4125-8c76-713d77d3c50e","1749","
                  <p style=""text-align: center;"">₪18
                                                <br>50%</p>
                  <p id=""wtp"" style=""text-align:center; margin-top: 0px; margin-bottom: 0px; font-size: 40px"";>מוכנים לשלם: <span id=""c_p_y""></span></p>","0","evaluation","54","10","2C,16C,22B,28A","50","18","1","","","","","","","","","","","","","",""
"","","","","","html-keyboard-response","90","254500","0.0-17.0-2.24","d331077c-1fef-4125-8c76-713d77d3c50e","null","<p style=""text-align: center;"">+</p>","null","fixation","","","","","","","","","","","","","","","","","","","",""
"","","","","","html-slider-response","91","255509","0.0-17.0-0.25","d331077c-1fef-4125-8c76-713d77d3c50e","1000","
                  <p style=""text-align: center;"">₪36
                                                <br>60%</p>
                  <p id=""wtp"" style=""text-align:center; margin-top: 0px; margin-bottom: 0px; font-size: 40px"";>&ensp;</p>","-","viewing","0","12","1C,7C,15C","","","","","","","","","","","","","","","","",""
"","","","","","html-slider-response","92","258391","0.0-17.0-1.25","d331077c-1fef-4125-8c76-713d77d3c50e","2881","
                  <p style=""text-align: center;"">₪36
                                                <br>60%</p>
                  <p id=""wtp"" style=""text-align:center; margin-top: 0px; margin-bottom: 0px; font-size: 40px"";>מוכנים לשלם: <span id=""c_p_y""></span></p>","1","evaluation","67","12","1C,7C,15C","60","36","2","","","","","","","","","","","","","",""
"","","","","","html-keyboard-response","93","259133","0.0-17.0-2.25","d331077c-1fef-4125-8c76-713d77d3c50e","null","<p style=""text-align: center;"">+</p>","null","fixation","","","","","","","","","","","","","","","","","","","",""
"","","","","","html-slider-response","94","260136","0.0-17.0-0.26","d331077c-1fef-4125-8c76-713d77d3c50e","1000","
                  <p style=""text-align: center;"">₪61
                                                <br>55%</p>
                  <p id=""wtp"" style=""text-align:center; margin-top: 0px; margin-bottom: 0px; font-size: 40px"";>&ensp;</p>","-","viewing","0","23","7B,26B","","","","","","","","","","","","","","","","",""
"","","","","","html-slider-response","95","263967","0.0-17.0-1.26","d331077c-1fef-4125-8c76-713d77d3c50e","3830","
                  <p style=""text-align: center;"">₪61
                                                <br>55%</p>
                  <p id=""wtp"" style=""text-align:center; margin-top: 0px; margin-bottom: 0px; font-size: 40px"";>מוכנים לשלם: <span id=""c_p_y""></span></p>","6","evaluation","33","23","7B,26B","55","61","6","","","","","","","","","","","","","",""
"","","","","","html-keyboard-response","96","264553","0.0-17.0-2.26","d331077c-1fef-4125-8c76-713d77d3c50e","null","<p style=""text-align: center;"">+</p>","null","fixation","","","","","","","","","","","","","","","","","","","",""
"","","","","","html-slider-response","97","265557","0.0-17.0-0.27","d331077c-1fef-4125-8c76-713d77d3c50e","1000","
                  <p style=""text-align: center;"">₪18
                                                <br>25%</p>
                  <p id=""wtp"" style=""text-align:center; margin-top: 0px; margin-bottom: 0px; font-size: 40px"";>&ensp;</p>","-","viewing","0","9","14A,23A","","","","","","","","","","","","","","","","",""
"","","","","","html-slider-response","98","267759","0.0-17.0-1.27","d331077c-1fef-4125-8c76-713d77d3c50e","2201","
                  <p style=""text-align: center;"">₪18
                                                <br>25%</p>
                  <p id=""wtp"" style=""text-align:center; margin-top: 0px; margin-bottom: 0px; font-size: 40px"";>מוכנים לשלם: <span id=""c_p_y""></span></p>","0","evaluation","52","9","14A,23A","25","18","1","","","","","","","","","","","","","",""
"","","","","","html-keyboard-response","99","269038","0.0-17.0-2.27","d331077c-1fef-4125-8c76-713d77d3c50e","null","<p style=""text-align: center;"">+</p>","null","fixation","","","","","","","","","","","","","","","","","","","",""
"","","","","","html-slider-response","100","270048","0.0-17.0-0.28","d331077c-1fef-4125-8c76-713d77d3c50e","1000","
                  <p style=""text-align: center;"">₪11
                                                <br>45%</p>
                  <p id=""wtp"" style=""text-align:center; margin-top: 0px; margin-bottom: 0px; font-size: 40px"";>&ensp;</p>","-","viewing","0","6","14B,21C,25C","","","","","","","","","","","","","","","","",""
"","","","","","html-slider-response","101","272967","0.0-17.0-1.28","d331077c-1fef-4125-8c76-713d77d3c50e","2918","
                  <p style=""text-align: center;"">₪11
                                                <br>45%</p>
                  <p id=""wtp"" style=""text-align:center; margin-top: 0px; margin-bottom: 0px; font-size: 40px"";>מוכנים לשלם: <span id=""c_p_y""></span></p>","2","evaluation","55","6","14B,21C,25C","45","11","3","","","","","","","","","","","","","",""
"","","","","","html-keyboard-response","102","274166","0.0-17.0-2.28","d331077c-1fef-4125-8c76-713d77d3c50e","null","<p style=""text-align: center;"">+</p>","null","fixation","","","","","","","","","","","","","","","","","","","",""
"","","","","","html-slider-response","103","275179","0.0-17.0-0.29","d331077c-1fef-4125-8c76-713d77d3c50e","1000","
                  <p style=""text-align: center;"">₪79
                                                <br>40%</p>
                  <p id=""wtp"" style=""text-align:center; margin-top: 0px; margin-bottom: 0px; font-size: 40px"";>&ensp;</p>","-","viewing","0","30","9B","","","","","","","","","","","","","","","","",""
"","","","","","html-slider-response","104","277839","0.0-17.0-1.29","d331077c-1fef-4125-8c76-713d77d3c50e","2659","
                  <p style=""text-align: center;"">₪79
                                                <br>40%</p>
                  <p id=""wtp"" style=""text-align:center; margin-top: 0px; margin-bottom: 0px; font-size: 40px"";>מוכנים לשלם: <span id=""c_p_y""></span></p>","3","evaluation","43","30","9B","40","79","4","","","","","","","","","","","","","",""
"","","","","","html-keyboard-response","105","278896","0.0-17.0-2.29","d331077c-1fef-4125-8c76-713d77d3c50e","null","<p style=""text-align: center;"">+</p>","null","fixation","","","","","","","","","","","","","","","","","","","",""
"","","","","","html-slider-response","106","279899","0.0-17.0-0.30","d331077c-1fef-4125-8c76-713d77d3c50e","1000","
                  <p style=""text-align: center;"">₪64
                                                <br>50%</p>
                  <p id=""wtp"" style=""text-align:center; margin-top: 0px; margin-bottom: 0px; font-size: 40px"";>&ensp;</p>","-","viewing","0","25","1B,3B,4A","","","","","","","","","","","","","","","","",""
"","","","","","html-slider-response","107","282711","0.0-17.0-1.30","d331077c-1fef-4125-8c76-713d77d3c50e","2811","
                  <p style=""text-align: center;"">₪64
                                                <br>50%</p>
                  <p id=""wtp"" style=""text-align:center; margin-top: 0px; margin-bottom: 0px; font-size: 40px"";>מוכנים לשלם: <span id=""c_p_y""></span></p>","19","evaluation","31","25","1B,3B,4A","50","64","20","","","","","","","","","","","","","",""
"","","","","","html-keyboard-response","108","283454","0.0-17.0-2.30","d331077c-1fef-4125-8c76-713d77d3c50e","null","<p style=""text-align: center;"">+</p>","null","fixation","","","","","","","","","","","","","","","","","","","",""
"","","","","","html-keyboard-response","109","284469","0.0-18.0","d331077c-1fef-4125-8c76-713d77d3c50e","null","<p style=""text-align: center;"">+</p>","null","fixation","","","","","","","","","","","","","","","","","","","",""
"","","","","","html-keyboard-response","110","288103","0.0-19.0","d331077c-1fef-4125-8c76-713d77d3c50e","null","<p>הפסקה.
          <br>לחצו כדי להמשיך.</p>","1","scan_wait","","","","","","","","","","","","","","","","","","","",""
"","","","","","html-keyboard-response","111","289109","0.0-20.0","d331077c-1fef-4125-8c76-713d77d3c50e","null","<p style=""text-align: center;"">+</p>","null","fixation","","","","","","","","","","","","","","","","","","","",""
"","","","","","html-slider-response","112","290111","0.0-21.0-0.0","d331077c-1fef-4125-8c76-713d77d3c50e","1000","
                  <p style=""text-align: center;"">₪43
                                                <br>75%</p>
                  <p id=""wtp"" style=""text-align:center; margin-top: 0px; margin-bottom: 0px; font-size: 40px"";>&ensp;</p>","-","viewing","0","18","11B,19B,24A,26A","","","","","","","","","","","","","","","","",""
"","","","","","html-slider-response","113","294112","0.0-21.0-1.0","d331077c-1fef-4125-8c76-713d77d3c50e","null","
                  <p style=""text-align: center;"">₪43
                                                <br>75%</p>
                  <p id=""wtp"" style=""text-align:center; margin-top: 0px; margin-bottom: 0px; font-size: 40px"";>מוכנים לשלם: <span id=""c_p_y""></span></p>","null","evaluation","0","18","11B,19B,24A,26A","75","43","18","","","","","","","","","","","","","",""
"","","","","","html-keyboard-response","114","295270","0.0-21.0-2.0","d331077c-1fef-4125-8c76-713d77d3c50e","null","<p style=""text-align: center;"">+</p>","null","fixation","","","","","","","","","","","","","","","","","","","",""
"","","","","","html-slider-response","115","296272","0.0-21.0-0.1","d331077c-1fef-4125-8c76-713d77d3c50e","1000","
                  <p style=""text-align: center;"">₪58
                                                <br>45%</p>
                  <p id=""wtp"" style=""text-align:center; margin-top: 0px; margin-bottom: 0px; font-size: 40px"";>&ensp;</p>","-","viewing","0","21","11C,18C,25A","","","","","","","","","","","","","","","","",""
"","","","","","html-slider-response","116","298271","0.0-21.0-1.1","d331077c-1fef-4125-8c76-713d77d3c50e","1998","
                  <p style=""text-align: center;"">₪58
                                                <br>45%</p>
                  <p id=""wtp"" style=""text-align:center; margin-top: 0px; margin-bottom: 0px; font-size: 40px"";>מוכנים לשלם: <span id=""c_p_y""></span></p>","9","evaluation","54","21","11C,18C,25A","45","58","10","","","","","","","","","","","","","",""
"","","","","","html-keyboard-response","117","299476","0.0-21.0-2.1","d331077c-1fef-4125-8c76-713d77d3c50e","null","<p style=""text-align: center;"">+</p>","null","fixation","","","","","","","","","","","","","","","","","","","",""
"","","","","","html-slider-response","118","300482","0.0-21.0-0.2","d331077c-1fef-4125-8c76-713d77d3c50e","1000","
                  <p style=""text-align: center;"">₪61
                                                <br>45%</p>
                  <p id=""wtp"" style=""text-align:center; margin-top: 0px; margin-bottom: 0px; font-size: 40px"";>&ensp;</p>","-","viewing","0","22","10A,11A","","","","","","","","","","","","","","","","",""
"","","","","","html-slider-response","119","301767","0.0-21.0-1.2","d331077c-1fef-4125-8c76-713d77d3c50e","1284","
                  <p style=""text-align: center;"">₪61
                                                <br>45%</p>
                  <p id=""wtp"" style=""text-align:center; margin-top: 0px; margin-bottom: 0px; font-size: 40px"";>מוכנים לשלם: <span id=""c_p_y""></span></p>","12","evaluation","34","22","10A,11A","45","61","12","","","","","","","","","","","","","",""
"","","","","","html-keyboard-response","120","302396","0.0-21.0-2.2","d331077c-1fef-4125-8c76-713d77d3c50e","null","<p style=""text-align: center;"">+</p>","null","fixation","","","","","","","","","","","","","","","","","","","",""
"","","","","","html-slider-response","121","303406","0.0-21.0-0.3","d331077c-1fef-4125-8c76-713d77d3c50e","1000","
                  <p style=""text-align: center;"">₪79
                                                <br>65%</p>
                  <p id=""wtp"" style=""text-align:center; margin-top: 0px; margin-bottom: 0px; font-size: 40px"";>&ensp;</p>","-","viewing","0","31","8A","","","","","","","","","","","","","","","","",""
"","","","","","html-slider-response","122","305879","0.0-21.0-1.3","d331077c-1fef-4125-8c76-713d77d3c50e","2472","
                  <p style=""text-align: center;"">₪79
                                                <br>65%</p>
                  <p id=""wtp"" style=""text-align:center; margin-top: 0px; margin-bottom: 0px; font-size: 40px"";>מוכנים לשלם: <span id=""c_p_y""></span></p>","20","evaluation","7","31","8A","65","79","20","","","","","","","","","","","","","",""
"","","","","","html-keyboard-response","123","306666","0.0-21.0-2.3","d331077c-1fef-4125-8c76-713d77d3c50e","null","<p style=""text-align: center;"">+</p>","null","fixation","","","","","","","","","","","","","","","","","","","",""
"","","","","","html-slider-response","124","307671","0.0-21.0-0.4","d331077c-1fef-4125-8c76-713d77d3c50e","1000","
                  <p style=""text-align: center;"">₪36
                                                <br>75%</p>
                  <p id=""wtp"" style=""text-align:center; margin-top: 0px; margin-bottom: 0px; font-size: 40px"";>&ensp;</p>","-","viewing","0","14","4B,5A,13B,16B","","","","","","","","","","","","","","","","",""
"","","","","","html-slider-response","125","310448","0.0-21.0-1.4","d331077c-1fef-4125-8c76-713d77d3c50e","2775","
                  <p style=""text-align: center;"">₪36
                                                <br>75%</p>
                  <p id=""wtp"" style=""text-align:center; margin-top: 0px; margin-bottom: 0px; font-size: 40px"";>מוכנים לשלם: <span id=""c_p_y""></span></p>","10","evaluation","72","14","4B,5A,13B,16B","75","36","10","","","","","","","","","","","","","",""
"","","","","","html-keyboard-response","126","311487","0.0-21.0-2.4","d331077c-1fef-4125-8c76-713d77d3c50e","null","<p style=""text-align: center;"">+</p>","null","fixation","","","","","","","","","","","","","","","","","","","",""
"","","","","","html-slider-response","127","312502","0.0-21.0-0.5","d331077c-1fef-4125-8c76-713d77d3c50e","1000","
                  <p style=""text-align: center;"">₪11
                                                <br>20%</p>
                  <p id=""wtp"" style=""text-align:center; margin-top: 0px; margin-bottom: 0px; font-size: 40px"";>&ensp;</p>","-","viewing","0","4","12C,17C,23C,28C","","","","","","","","","","","","","","","","",""
"","","","","","html-slider-response","128","314976","0.0-21.0-1.5","d331077c-1fef-4125-8c76-713d77d3c50e","2473","
                  <p style=""text-align: center;"">₪11
                                                <br>20%</p>
                  <p id=""wtp"" style=""text-align:center; margin-top: 0px; margin-bottom: 0px; font-size: 40px"";>מוכנים לשלם: <span id=""c_p_y""></span></p>","2","evaluation","74","4","12C,17C,23C,28C","20","11","3","","","","","","","","","","","","","",""
"","","","","","html-keyboard-response","129","316234","0.0-21.0-2.5","d331077c-1fef-4125-8c76-713d77d3c50e","null","<p style=""text-align: center;"">+</p>","null","fixation","","","","","","","","","","","","","","","","","","","",""
"","","","","","html-slider-response","130","317246","0.0-21.0-0.6","d331077c-1fef-4125-8c76-713d77d3c50e","1000","
                  <p style=""text-align: center;"">₪64
                                                <br>50%</p>
                  <p id=""wtp"" style=""text-align:center; margin-top: 0px; margin-bottom: 0px; font-size: 40px"";>&ensp;</p>","-","viewing","0","25","1B,3B,4A","","","","","","","","","","","","","","","","",""
"","","","","","html-slider-response","131","319439","0.0-21.0-1.6","d331077c-1fef-4125-8c76-713d77d3c50e","2192","
                  <p style=""text-align: center;"">₪64
                                                <br>50%</p>
                  <p id=""wtp"" style=""text-align:center; margin-top: 0px; margin-bottom: 0px; font-size: 40px"";>מוכנים לשלם: <span id=""c_p_y""></span></p>","20","evaluation","33","25","1B,3B,4A","50","64","20","","","","","","","","","","","","","",""
"","","","","","html-keyboard-response","132","320580","0.0-21.0-2.6","d331077c-1fef-4125-8c76-713d77d3c50e","null","<p style=""text-align: center;"">+</p>","null","fixation","","","","","","","","","","","","","","","","","","","",""
"","","","","","html-slider-response","133","321589","0.0-21.0-0.7","d331077c-1fef-4125-8c76-713d77d3c50e","1000","
                  <p style=""text-align: center;"">₪4
                                                <br>25%</p>
                  <p id=""wtp"" style=""text-align:center; margin-top: 0px; margin-bottom: 0px; font-size: 40px"";>&ensp;</p>","-","viewing","0","1","6C,29B,30C","","","","","","","","","","","","","","","","",""
"","","","","","html-slider-response","134","324280","0.0-21.0-1.7","d331077c-1fef-4125-8c76-713d77d3c50e","2689","
                  <p style=""text-align: center;"">₪4
                                                <br>25%</p>
                  <p id=""wtp"" style=""text-align:center; margin-top: 0px; margin-bottom: 0px; font-size: 40px"";>מוכנים לשלם: <span id=""c_p_y""></span></p>","0","evaluation","67","1","6C,29B,30C","25","4","0","","","","","","","","","","","","","",""
"","","","","","html-keyboard-response","135","324993","0.0-21.0-2.7","d331077c-1fef-4125-8c76-713d77d3c50e","null","<p style=""text-align: center;"">+</p>","null","fixation","","","","","","","","","","","","","","","","","","","",""
"","","","","","html-slider-response","136","325995","0.0-21.0-0.8","d331077c-1fef-4125-8c76-713d77d3c50e","1000","
                  <p style=""text-align: center;"">₪36
                                                <br>60%</p>
                  <p id=""wtp"" style=""text-align:center; margin-top: 0px; margin-bottom: 0px; font-size: 40px"";>&ensp;</p>","-","viewing","0","12","1C,7C,15C","","","","","","","","","","","","","","","","",""
"","","","","","html-slider-response","137","328759","0.0-21.0-1.8","d331077c-1fef-4125-8c76-713d77d3c50e","2764","
                  <p style=""text-align: center;"">₪36
                                                <br>60%</p>
                  <p id=""wtp"" style=""text-align:center; margin-top: 0px; margin-bottom: 0px; font-size: 40px"";>מוכנים לשלם: <span id=""c_p_y""></span></p>","10","evaluation","68","12","1C,7C,15C","60","36","10","","","","","","","","","","","","","",""
"","","","","","html-keyboard-response","138","329472","0.0-21.0-2.8","d331077c-1fef-4125-8c76-713d77d3c50e","null","<p style=""text-align: center;"">+</p>","null","fixation","","","","","","","","","","","","","","","","","","","",""
"","","","","","html-slider-response","139","330486","0.0-21.0-0.9","d331077c-1fef-4125-8c76-713d77d3c50e","1000","
                  <p style=""text-align: center;"">₪11
                                                <br>45%</p>
                  <p id=""wtp"" style=""text-align:center; margin-top: 0px; margin-bottom: 0px; font-size: 40px"";>&ensp;</p>","-","viewing","0","6","14B,21C,25C","","","","","","","","","","","","","","","","",""
"","","","","","html-slider-response","140","332008","0.0-21.0-1.9","d331077c-1fef-4125-8c76-713d77d3c50e","1520","
                  <p style=""text-align: center;"">₪11
                                                <br>45%</p>
                  <p id=""wtp"" style=""text-align:center; margin-top: 0px; margin-bottom: 0px; font-size: 40px"";>מוכנים לשלם: <span id=""c_p_y""></span></p>","2","evaluation","11","6","14B,21C,25C","45","11","3","","","","","","","","","","","","","",""
"","","","","","html-keyboard-response","141","332594","0.0-21.0-2.9","d331077c-1fef-4125-8c76-713d77d3c50e","null","<p style=""text-align: center;"">+</p>","null","fixation","","","","","","","","","","","","","","","","","","","",""
"","","","","","html-slider-response","142","333600","0.0-21.0-0.10","d331077c-1fef-4125-8c76-713d77d3c50e","1000","
                  <p style=""text-align: center;"">₪4
                                                <br>75%</p>
                  <p id=""wtp"" style=""text-align:center; margin-top: 0px; margin-bottom: 0px; font-size: 40px"";>&ensp;</p>","-","viewing","0","3","12B,20B,23B,27C,29C","","","","","","","","","","","","","","","","",""
"","","","","","html-slider-response","143","335520","0.0-21.0-1.10","d331077c-1fef-4125-8c76-713d77d3c50e","1918","
                  <p style=""text-align: center;"">₪4
                                                <br>75%</p>
                  <p id=""wtp"" style=""text-align:center; margin-top: 0px; margin-bottom: 0px; font-size: 40px"";>מוכנים לשלם: <span id=""c_p_y""></span></p>","0","evaluation","64","3","12B,20B,23B,27C,29C","75","4","1","","","","","","","","","","","","","",""
"","","","","","html-keyboard-response","144","336199","0.0-21.0-2.10","d331077c-1fef-4125-8c76-713d77d3c50e","null","<p style=""text-align: center;"">+</p>","null","fixation","","","","","","","","","","","","","","","","","","","",""
"","","","","","html-slider-response","145","337201","0.0-21.0-0.11","d331077c-1fef-4125-8c76-713d77d3c50e","1000","
                  <p style=""text-align: center;"">₪16
                                                <br>20%</p>
                  <p id=""wtp"" style=""text-align:center; margin-top: 0px; margin-bottom: 0px; font-size: 40px"";>&ensp;</p>","-","viewing","0","8","14C,17A,20C,27A","","","","","","","","","","","","","","","","",""
"","","","","","html-slider-response","146","340696","0.0-21.0-1.11","d331077c-1fef-4125-8c76-713d77d3c50e","3493","
                  <p style=""text-align: center;"">₪16
                                                <br>20%</p>
                  <p id=""wtp"" style=""text-align:center; margin-top: 0px; margin-bottom: 0px; font-size: 40px"";>מוכנים לשלם: <span id=""c_p_y""></span></p>","1","evaluation","70","8","14C,17A,20C,27A","20","16","1","","","","","","","","","","","","","",""
"","","","","","html-keyboard-response","147","341382","0.0-21.0-2.11","d331077c-1fef-4125-8c76-713d77d3c50e","null","<p style=""text-align: center;"">+</p>","null","fixation","","","","","","","","","","","","","","","","","","","",""
"","","","","","html-slider-response","148","342392","0.0-21.0-0.12","d331077c-1fef-4125-8c76-713d77d3c50e","1000","
                  <p style=""text-align: center;"">₪18
                                                <br>25%</p>
                  <p id=""wtp"" style=""text-align:center; margin-top: 0px; margin-bottom: 0px; font-size: 40px"";>&ensp;</p>","-","viewing","0","9","14A,23A","","","","","","","","","","","","","","","","",""
"","","","","","html-slider-response","149","345992","0.0-21.0-1.12","d331077c-1fef-4125-8c76-713d77d3c50e","3599","
                  <p style=""text-align: center;"">₪18
                                                <br>25%</p>
                  <p id=""wtp"" style=""text-align:center; margin-top: 0px; margin-bottom: 0px; font-size: 40px"";>מוכנים לשלם: <span id=""c_p_y""></span></p>","1","evaluation","27","9","14A,23A","25","18","2","","","","","","","","","","","","","",""
"","","","","","html-keyboard-response","150","346713","0.0-21.0-2.12","d331077c-1fef-4125-8c76-713d77d3c50e","null","<p style=""text-align: center;"">+</p>","null","fixation","","","","","","","","","","","","","","","","","","","",""
"","","","","","html-slider-response","151","347715","0.0-21.0-0.13","d331077c-1fef-4125-8c76-713d77d3c50e","1000","
                  <p style=""text-align: center;"">₪64
                                                <br>25%</p>
                  <p id=""wtp"" style=""text-align:center; margin-top: 0px; margin-bottom: 0px; font-size: 40px"";>&ensp;</p>","-","viewing","0","24","6A,21A","","","","","","","","","","","","","","","","",""
"","","","","","html-slider-response","152","349488","0.0-21.0-1.13","d331077c-1fef-4125-8c76-713d77d3c50e","1772","
                  <p style=""text-align: center;"">₪64
                                                <br>25%</p>
                  <p id=""wtp"" style=""text-align:center; margin-top: 0px; margin-bottom: 0px; font-size: 40px"";>מוכנים לשלם: <span id=""c_p_y""></span></p>","1","evaluation","69","24","6A,21A","25","64","2","","","","","","","","","","","","","",""
"","","","","","html-keyboard-response","153","350571","0.0-21.0-2.13","d331077c-1fef-4125-8c76-713d77d3c50e","null","<p style=""text-align: center;"">+</p>","null","fixation","","","","","","","","","","","","","","","","","","","",""
"","","","","","html-slider-response","154","351584","0.0-21.0-0.14","d331077c-1fef-4125-8c76-713d77d3c50e","1000","
                  <p style=""text-align: center;"">₪36
                                                <br>30%</p>
                  <p id=""wtp"" style=""text-align:center; margin-top: 0px; margin-bottom: 0px; font-size: 40px"";>&ensp;</p>","-","viewing","0","11","3C,20A,22A","","","","","","","","","","","","","","","","",""
"","","","","","html-slider-response","155","355296","0.0-21.0-1.14","d331077c-1fef-4125-8c76-713d77d3c50e","3710","
                  <p style=""text-align: center;"">₪36
                                                <br>30%</p>
                  <p id=""wtp"" style=""text-align:center; margin-top: 0px; margin-bottom: 0px; font-size: 40px"";>מוכנים לשלם: <span id=""c_p_y""></span></p>","4","evaluation","28","11","3C,20A,22A","30","36","5","","","","","","","","","","","","","",""
"","","","","","html-keyboard-response","156","356665","0.0-21.0-2.14","d331077c-1fef-4125-8c76-713d77d3c50e","null","<p style=""text-align: center;"">+</p>","null","fixation","","","","","","","","","","","","","","","","","","","",""
"","","","","","html-slider-response","157","357676","0.0-21.0-0.15","d331077c-1fef-4125-8c76-713d77d3c50e","1000","
                  <p style=""text-align: center;"">₪39
                                                <br>65%</p>
                  <p id=""wtp"" style=""text-align:center; margin-top: 0px; margin-bottom: 0px; font-size: 40px"";>&ensp;</p>","-","viewing","0","16","1A,15A,26C","","","","","","","","","","","","","","","","",""
"","","","","","html-slider-response","158","361678","0.0-21.0-1.15","d331077c-1fef-4125-8c76-713d77d3c50e","null","
                  <p style=""text-align: center;"">₪39
                                                <br>65%</p>
                  <p id=""wtp"" style=""text-align:center; margin-top: 0px; margin-bottom: 0px; font-size: 40px"";>מוכנים לשלם: <span id=""c_p_y""></span></p>","null","evaluation","53","16","1A,15A,26C","65","39","14","","","","","","","","","","","","","",""
"","","","","","html-keyboard-response","159","362578","0.0-21.0-2.15","d331077c-1fef-4125-8c76-713d77d3c50e","null","<p style=""text-align: center;"">+</p>","null","fixation","","","","","","","","","","","","","","","","","","","",""
"","","","","","html-slider-response","160","363580","0.0-21.0-0.16","d331077c-1fef-4125-8c76-713d77d3c50e","1000","
                  <p style=""text-align: center;"">₪61
                                                <br>55%</p>
                  <p id=""wtp"" style=""text-align:center; margin-top: 0px; margin-bottom: 0px; font-size: 40px"";>&ensp;</p>","-","viewing","0","23","7B,26B","","","","","","","","","","","","","","","","",""
"","","","","","html-slider-response","161","365471","0.0-21.0-1.16","d331077c-1fef-4125-8c76-713d77d3c50e","1891","
                  <p style=""text-align: center;"">₪61
                                                <br>55%</p>
                  <p id=""wtp"" style=""text-align:center; margin-top: 0px; margin-bottom: 0px; font-size: 40px"";>מוכנים לשלם: <span id=""c_p_y""></span></p>","10","evaluation","43","23","7B,26B","55","61","10","","","","","","","","","","","","","",""
"","","","","","html-keyboard-response","162","366852","0.0-21.0-2.16","d331077c-1fef-4125-8c76-713d77d3c50e","null","<p style=""text-align: center;"">+</p>","null","fixation","","","","","","","","","","","","","","","","","","","",""
"","","","","","html-slider-response","163","367866","0.0-21.0-0.17","d331077c-1fef-4125-8c76-713d77d3c50e","1000","
                  <p style=""text-align: center;"">₪71
                                                <br>55%</p>
                  <p id=""wtp"" style=""text-align:center; margin-top: 0px; margin-bottom: 0px; font-size: 40px"";>&ensp;</p>","-","viewing","0","27","5B,18A","","","","","","","","","","","","","","","","",""
"","","","","","html-slider-response","164","369823","0.0-21.0-1.17","d331077c-1fef-4125-8c76-713d77d3c50e","1956","
                  <p style=""text-align: center;"">₪71
                                                <br>55%</p>
                  <p id=""wtp"" style=""text-align:center; margin-top: 0px; margin-bottom: 0px; font-size: 40px"";>מוכנים לשלם: <span id=""c_p_y""></span></p>","9","evaluation","47","27","5B,18A","55","71","10","","","","","","","","","","","","","",""
"","","","","","html-keyboard-response","165","371292","0.0-21.0-2.17","d331077c-1fef-4125-8c76-713d77d3c50e","null","<p style=""text-align: center;"">+</p>","null","fixation","","","","","","","","","","","","","","","","","","","",""
"","","","","","html-slider-response","166","372306","0.0-21.0-0.18","d331077c-1fef-4125-8c76-713d77d3c50e","1000","
                  <p style=""text-align: center;"">₪76
                                                <br>65%</p>
                  <p id=""wtp"" style=""text-align:center; margin-top: 0px; margin-bottom: 0px; font-size: 40px"";>&ensp;</p>","-","viewing","0","29","8C,19A,24B","","","","","","","","","","","","","","","","",""
"","","","","","html-slider-response","167","374903","0.0-21.0-1.18","d331077c-1fef-4125-8c76-713d77d3c50e","2596","
                  <p style=""text-align: center;"">₪76
                                                <br>65%</p>
                  <p id=""wtp"" style=""text-align:center; margin-top: 0px; margin-bottom: 0px; font-size: 40px"";>מוכנים לשלם: <span id=""c_p_y""></span></p>","11","evaluation","37","29","8C,19A,24B","65","76","12","","","","","","","","","","","","","",""
"","","","","","html-keyboard-response","168","375741","0.0-21.0-2.18","d331077c-1fef-4125-8c76-713d77d3c50e","null","<p style=""text-align: center;"">+</p>","null","fixation","","","","","","","","","","","","","","","","","","","",""
"","","","","","html-slider-response","169","376758","0.0-21.0-0.19","d331077c-1fef-4125-8c76-713d77d3c50e","1000","
                  <p style=""text-align: center;"">₪79
                                                <br>40%</p>
                  <p id=""wtp"" style=""text-align:center; margin-top: 0px; margin-bottom: 0px; font-size: 40px"";>&ensp;</p>","-","viewing","0","30","9B","","","","","","","","","","","","","","","","",""
"","","","","","html-slider-response","170","380760","0.0-21.0-1.19","d331077c-1fef-4125-8c76-713d77d3c50e","null","
                  <p style=""text-align: center;"">₪79
                                                <br>40%</p>
                  <p id=""wtp"" style=""text-align:center; margin-top: 0px; margin-bottom: 0px; font-size: 40px"";>מוכנים לשלם: <span id=""c_p_y""></span></p>","null","evaluation","80","30","9B","40","79","15","","","","","","","","","","","","","",""
"","","","","","html-keyboard-response","171","381665","0.0-21.0-2.19","d331077c-1fef-4125-8c76-713d77d3c50e","null","<p style=""text-align: center;"">+</p>","null","fixation","","","","","","","","","","","","","","","","","","","",""
"","","","","","html-slider-response","172","382672","0.0-21.0-0.20","d331077c-1fef-4125-8c76-713d77d3c50e","1000","
                  <p style=""text-align: center;"">₪71
                                                <br>75%</p>
                  <p id=""wtp"" style=""text-align:center; margin-top: 0px; margin-bottom: 0px; font-size: 40px"";>&ensp;</p>","-","viewing","0","28","8B","","","","","","","","","","","","","","","","",""
"","","","","","html-slider-response","173","384919","0.0-21.0-1.20","d331077c-1fef-4125-8c76-713d77d3c50e","2247","
                  <p style=""text-align: center;"">₪71
                                                <br>75%</p>
                  <p id=""wtp"" style=""text-align:center; margin-top: 0px; margin-bottom: 0px; font-size: 40px"";>מוכנים לשלם: <span id=""c_p_y""></span></p>","30","evaluation","65","28","8B","75","71","30","","","","","","","","","","","","","",""
"","","","","","html-keyboard-response","174","385839","0.0-21.0-2.20","d331077c-1fef-4125-8c76-713d77d3c50e","null","<p style=""text-align: center;"">+</p>","null","fixation","","","","","","","","","","","","","","","","","","","",""
"","","","","","html-slider-response","175","386853","0.0-21.0-0.21","d331077c-1fef-4125-8c76-713d77d3c50e","1000","
                  <p style=""text-align: center;"">₪18
                                                <br>50%</p>
                  <p id=""wtp"" style=""text-align:center; margin-top: 0px; margin-bottom: 0px; font-size: 40px"";>&ensp;</p>","-","viewing","0","10","2C,16C,22B,28A","","","","","","","","","","","","","","","","",""
"","","","","","html-slider-response","176","388663","0.0-21.0-1.21","d331077c-1fef-4125-8c76-713d77d3c50e","1809","
                  <p style=""text-align: center;"">₪18
                                                <br>50%</p>
                  <p id=""wtp"" style=""text-align:center; margin-top: 0px; margin-bottom: 0px; font-size: 40px"";>מוכנים לשלם: <span id=""c_p_y""></span></p>","1","evaluation","30","10","2C,16C,22B,28A","50","18","2","","","","","","","","","","","","","",""
"","","","","","html-keyboard-response","177","389455","0.0-21.0-2.21","d331077c-1fef-4125-8c76-713d77d3c50e","null","<p style=""text-align: center;"">+</p>","null","fixation","","","","","","","","","","","","","","","","","","","",""
"","","","","","html-slider-response","178","390466","0.0-21.0-0.22","d331077c-1fef-4125-8c76-713d77d3c50e","1000","
                  <p style=""text-align: center;"">₪4
                                                <br>50%</p>
                  <p id=""wtp"" style=""text-align:center; margin-top: 0px; margin-bottom: 0px; font-size: 40px"";>&ensp;</p>","-","viewing","0","2","4C,17B","","","","","","","","","","","","","","","","",""
"","","","","","html-slider-response","179","393119","0.0-21.0-1.22","d331077c-1fef-4125-8c76-713d77d3c50e","2652","
                  <p style=""text-align: center;"">₪4
                                                <br>50%</p>
                  <p id=""wtp"" style=""text-align:center; margin-top: 0px; margin-bottom: 0px; font-size: 40px"";>מוכנים לשלם: <span id=""c_p_y""></span></p>","0","evaluation","6","2","4C,17B","50","4","1","","","","","","","","","","","","","",""
"","","","","","html-keyboard-response","180","394060","0.0-21.0-2.22","d331077c-1fef-4125-8c76-713d77d3c50e","null","<p style=""text-align: center;"">+</p>","null","fixation","","","","","","","","","","","","","","","","","","","",""
"","","","","","html-slider-response","181","395062","0.0-21.0-0.23","d331077c-1fef-4125-8c76-713d77d3c50e","1000","
                  <p style=""text-align: center;"">₪36
                                                <br>70%</p>
                  <p id=""wtp"" style=""text-align:center; margin-top: 0px; margin-bottom: 0px; font-size: 40px"";>&ensp;</p>","-","viewing","0","13","3A,5C,10B","","","","","","","","","","","","","","","","",""
"","","","","","html-slider-response","182","398447","0.0-21.0-1.23","d331077c-1fef-4125-8c76-713d77d3c50e","3383","
                  <p style=""text-align: center;"">₪36
                                                <br>70%</p>
                  <p id=""wtp"" style=""text-align:center; margin-top: 0px; margin-bottom: 0px; font-size: 40px"";>מוכנים לשלם: <span id=""c_p_y""></span></p>","10","evaluation","11","13","3A,5C,10B","70","36","10","","","","","","","","","","","","","",""
"","","","","","html-keyboard-response","183","399662","0.0-21.0-2.23","d331077c-1fef-4125-8c76-713d77d3c50e","null","<p style=""text-align: center;"">+</p>","null","fixation","","","","","","","","","","","","","","","","","","","",""
"","","","","","html-slider-response","184","400664","0.0-21.0-0.24","d331077c-1fef-4125-8c76-713d77d3c50e","1000","
                  <p style=""text-align: center;"">₪58
                                                <br>40%</p>
                  <p id=""wtp"" style=""text-align:center; margin-top: 0px; margin-bottom: 0px; font-size: 40px"";>&ensp;</p>","-","viewing","0","20","10C,13A,19C,21B","","","","","","","","","","","","","","","","",""
"","","","","","html-slider-response","185","403007","0.0-21.0-1.24","d331077c-1fef-4125-8c76-713d77d3c50e","2342","
                  <p style=""text-align: center;"">₪58
                                                <br>40%</p>
                  <p id=""wtp"" style=""text-align:center; margin-top: 0px; margin-bottom: 0px; font-size: 40px"";>מוכנים לשלם: <span id=""c_p_y""></span></p>","4","evaluation","79","20","10C,13A,19C,21B","40","58","5","","","","","","","","","","","","","",""
"","","","","","html-keyboard-response","186","404104","0.0-21.0-2.24","d331077c-1fef-4125-8c76-713d77d3c50e","null","<p style=""text-align: center;"">+</p>","null","fixation","","","","","","","","","","","","","","","","","","","",""
"","","","","","html-slider-response","187","405106","0.0-21.0-0.25","d331077c-1fef-4125-8c76-713d77d3c50e","1000","
                  <p style=""text-align: center;"">₪39
                                                <br>60%</p>
                  <p id=""wtp"" style=""text-align:center; margin-top: 0px; margin-bottom: 0px; font-size: 40px"";>&ensp;</p>","-","viewing","0","15","9C,25B","","","","","","","","","","","","","","","","",""
"","","","","","html-slider-response","188","406711","0.0-21.0-1.25","d331077c-1fef-4125-8c76-713d77d3c50e","1604","
                  <p style=""text-align: center;"">₪39
                                                <br>60%</p>
                  <p id=""wtp"" style=""text-align:center; margin-top: 0px; margin-bottom: 0px; font-size: 40px"";>מוכנים לשלם: <span id=""c_p_y""></span></p>","5","evaluation","76","15","9C,25B","60","39","5","","","","","","","","","","","","","",""
"","","","","","html-keyboard-response","189","407573","0.0-21.0-2.25","d331077c-1fef-4125-8c76-713d77d3c50e","null","<p style=""text-align: center;"">+</p>","null","fixation","","","","","","","","","","","","","","","","","","","",""
"","","","","","html-slider-response","190","408584","0.0-21.0-0.26","d331077c-1fef-4125-8c76-713d77d3c50e","1000","
                  <p style=""text-align: center;"">₪58
                                                <br>30%</p>
                  <p id=""wtp"" style=""text-align:center; margin-top: 0px; margin-bottom: 0px; font-size: 40px"";>&ensp;</p>","-","viewing","0","19","13C,30A","","","","","","","","","","","","","","","","",""
"","","","","","html-slider-response","191","410207","0.0-21.0-1.26","d331077c-1fef-4125-8c76-713d77d3c50e","1622","
                  <p style=""text-align: center;"">₪58
                                                <br>30%</p>
                  <p id=""wtp"" style=""text-align:center; margin-top: 0px; margin-bottom: 0px; font-size: 40px"";>מוכנים לשלם: <span id=""c_p_y""></span></p>","2","evaluation","10","19","13C,30A","30","58","3","","","","","","","","","","","","","",""
"","","","","","html-keyboard-response","192","411050","0.0-21.0-2.26","d331077c-1fef-4125-8c76-713d77d3c50e","null","<p style=""text-align: center;"">+</p>","null","fixation","","","","","","","","","","","","","","","","","","","",""
"","","","","","html-slider-response","193","412065","0.0-21.0-0.27","d331077c-1fef-4125-8c76-713d77d3c50e","1000","
                  <p style=""text-align: center;"">₪71
                                                <br>45%</p>
                  <p id=""wtp"" style=""text-align:center; margin-top: 0px; margin-bottom: 0px; font-size: 40px"";>&ensp;</p>","-","viewing","0","26","2B,16A","","","","","","","","","","","","","","","","",""
"","","","","","html-slider-response","194","414479","0.0-21.0-1.27","d331077c-1fef-4125-8c76-713d77d3c50e","2414","
                  <p style=""text-align: center;"">₪71
                                                <br>45%</p>
                  <p id=""wtp"" style=""text-align:center; margin-top: 0px; margin-bottom: 0px; font-size: 40px"";>מוכנים לשלם: <span id=""c_p_y""></span></p>","4","evaluation","10","26","2B,16A","45","71","4","","","","","","","","","","","","","",""
"","","","","","html-keyboard-response","195","415791","0.0-21.0-2.27","d331077c-1fef-4125-8c76-713d77d3c50e","null","<p style=""text-align: center;"">+</p>","null","fixation","","","","","","","","","","","","","","","","","","","",""
"","","","","","html-slider-response","196","416799","0.0-21.0-0.28","d331077c-1fef-4125-8c76-713d77d3c50e","1000","
                  <p style=""text-align: center;"">₪11
                                                <br>75%</p>
                  <p id=""wtp"" style=""text-align:center; margin-top: 0px; margin-bottom: 0px; font-size: 40px"";>&ensp;</p>","-","viewing","0","7","6B,18B,22C,24C,29A","","","","","","","","","","","","","","","","",""
"","","","","","html-slider-response","197","419495","0.0-21.0-1.28","d331077c-1fef-4125-8c76-713d77d3c50e","2695","
                  <p style=""text-align: center;"">₪11
                                                <br>75%</p>
                  <p id=""wtp"" style=""text-align:center; margin-top: 0px; margin-bottom: 0px; font-size: 40px"";>מוכנים לשלם: <span id=""c_p_y""></span></p>","5","evaluation","33","7","6B,18B,22C,24C,29A","75","11","6","","","","","","","","","","","","","",""
"","","","","","html-keyboard-response","198","421001","0.0-21.0-2.28","d331077c-1fef-4125-8c76-713d77d3c50e","null","<p style=""text-align: center;"">+</p>","null","fixation","","","","","","","","","","","","","","","","","","","",""
"","","","","","html-slider-response","199","422013","0.0-21.0-0.29","d331077c-1fef-4125-8c76-713d77d3c50e","1000","
                  <p style=""text-align: center;"">₪43
                                                <br>60%</p>
                  <p id=""wtp"" style=""text-align:center; margin-top: 0px; margin-bottom: 0px; font-size: 40px"";>&ensp;</p>","-","viewing","0","17","2A,7A,9A,15B","","","","","","","","","","","","","","","","",""
"","","","","","html-slider-response","200","424504","0.0-21.0-1.29","d331077c-1fef-4125-8c76-713d77d3c50e","2488","
                  <p style=""text-align: center;"">₪43
                                                <br>60%</p>
                  <p id=""wtp"" style=""text-align:center; margin-top: 0px; margin-bottom: 0px; font-size: 40px"";>מוכנים לשלם: <span id=""c_p_y""></span></p>","3","evaluation","77","17","2A,7A,9A,15B","60","43","4","","","","","","","","","","","","","",""
"","","","","","html-keyboard-response","201","425818","0.0-21.0-2.29","d331077c-1fef-4125-8c76-713d77d3c50e","null","<p style=""text-align: center;"">+</p>","null","fixation","","","","","","","","","","","","","","","","","","","",""
"","","","","","html-slider-response","202","426836","0.0-21.0-0.30","d331077c-1fef-4125-8c76-713d77d3c50e","1000","
                  <p style=""text-align: center;"">₪11
                                                <br>25%</p>
                  <p id=""wtp"" style=""text-align:center; margin-top: 0px; margin-bottom: 0px; font-size: 40px"";>&ensp;</p>","-","viewing","0","5","12A,27B,28B,30B","","","","","","","","","","","","","","","","",""
"","","","","","html-slider-response","203","430304","0.0-21.0-1.30","d331077c-1fef-4125-8c76-713d77d3c50e","3466","
                  <p style=""text-align: center;"">₪11
                                                <br>25%</p>
                  <p id=""wtp"" style=""text-align:center; margin-top: 0px; margin-bottom: 0px; font-size: 40px"";>מוכנים לשלם: <span id=""c_p_y""></span></p>","0","evaluation","79","5","12A,27B,28B,30B","25","11","1","","","","","","","","","","","","","",""
"","","","","","html-keyboard-response","204","431254","0.0-21.0-2.30","d331077c-1fef-4125-8c76-713d77d3c50e","null","<p style=""text-align: center;"">+</p>","null","fixation","","","","","","","","","","","","","","","","","","","",""
"","","","","","html-keyboard-response","205","432257","0.0-22.0","d331077c-1fef-4125-8c76-713d77d3c50e","null","<p style=""text-align: center;"">+</p>","null","fixation","","","","","","","","","","","","","","","","","","","",""
"","","","","","html-keyboard-response","206","434832","0.0-23.0","d331077c-1fef-4125-8c76-713d77d3c50e","null","<p>הפסקה.
          <br>לחצו כדי להמשיך.</p>","1","scan_wait","","","","","","","","","","","","","","","","","","","",""
"","","","","","html-keyboard-response","207","435832","0.0-24.0","d331077c-1fef-4125-8c76-713d77d3c50e","null","<p style=""text-align: center;"">+</p>","null","fixation","","","","","","","","","","","","","","","","","","","",""
"","","","","","html-slider-response","208","436834","0.0-25.0-0.0","d331077c-1fef-4125-8c76-713d77d3c50e","1000","
                  <p style=""text-align: center;"">₪64
                                                <br>25%</p>
                  <p id=""wtp"" style=""text-align:center; margin-top: 0px; margin-bottom: 0px; font-size: 40px"";>&ensp;</p>","-","viewing","0","24","6A,21A","","","","","","","","","","","","","","","","",""
"","","","","","html-slider-response","209","438072","0.0-25.0-1.0","d331077c-1fef-4125-8c76-713d77d3c50e","1237","
                  <p style=""text-align: center;"">₪64
                                                <br>25%</p>
                  <p id=""wtp"" style=""text-align:center; margin-top: 0px; margin-bottom: 0px; font-size: 40px"";>מוכנים לשלם: <span id=""c_p_y""></span></p>","1","evaluation","25","24","6A,21A","25","64","1","","","","","","","","","","","","","",""
"","","","","","html-keyboard-response","210","438991","0.0-25.0-2.0","d331077c-1fef-4125-8c76-713d77d3c50e","null","<p style=""text-align: center;"">+</p>","null","fixation","","","","","","","","","","","","","","","","","","","",""
"","","","","","html-slider-response","211","439998","0.0-25.0-0.1","d331077c-1fef-4125-8c76-713d77d3c50e","1000","
                  <p style=""text-align: center;"">₪61
                                                <br>45%</p>
                  <p id=""wtp"" style=""text-align:center; margin-top: 0px; margin-bottom: 0px; font-size: 40px"";>&ensp;</p>","-","viewing","0","22","10A,11A","","","","","","","","","","","","","","","","",""
"","","","","","html-slider-response","212","442896","0.0-25.0-1.1","d331077c-1fef-4125-8c76-713d77d3c50e","2897","
                  <p style=""text-align: center;"">₪61
                                                <br>45%</p>
                  <p id=""wtp"" style=""text-align:center; margin-top: 0px; margin-bottom: 0px; font-size: 40px"";>מוכנים לשלם: <span id=""c_p_y""></span></p>","3","evaluation","3","22","10A,11A","45","61","3","","","","","","","","","","","","","",""
"","","","","","html-keyboard-response","213","444036","0.0-25.0-2.1","d331077c-1fef-4125-8c76-713d77d3c50e","null","<p style=""text-align: center;"">+</p>","null","fixation","","","","","","","","","","","","","","","","","","","",""
"","","","","","html-slider-response","214","445038","0.0-25.0-0.2","d331077c-1fef-4125-8c76-713d77d3c50e","1000","
                  <p style=""text-align: center;"">₪64
                                                <br>50%</p>
                  <p id=""wtp"" style=""text-align:center; margin-top: 0px; margin-bottom: 0px; font-size: 40px"";>&ensp;</p>","-","viewing","0","25","1B,3B,4A","","","","","","","","","","","","","","","","",""
"","","","","","html-slider-response","215","447416","0.0-25.0-1.2","d331077c-1fef-4125-8c76-713d77d3c50e","2377","
                  <p style=""text-align: center;"">₪64
                                                <br>50%</p>
                  <p id=""wtp"" style=""text-align:center; margin-top: 0px; margin-bottom: 0px; font-size: 40px"";>מוכנים לשלם: <span id=""c_p_y""></span></p>","14","evaluation","39","25","1B,3B,4A","50","64","15","","","","","","","","","","","","","",""
"","","","","","html-keyboard-response","216","448370","0.0-25.0-2.2","d331077c-1fef-4125-8c76-713d77d3c50e","null","<p style=""text-align: center;"">+</p>","null","fixation","","","","","","","","","","","","","","","","","","","",""
"","","","","","html-slider-response","217","449383","0.0-25.0-0.3","d331077c-1fef-4125-8c76-713d77d3c50e","1000","
                  <p style=""text-align: center;"">₪36
                                                <br>60%</p>
                  <p id=""wtp"" style=""text-align:center; margin-top: 0px; margin-bottom: 0px; font-size: 40px"";>&ensp;</p>","-","viewing","0","12","1C,7C,15C","","","","","","","","","","","","","","","","",""
"","","","","","html-slider-response","218","452544","0.0-25.0-1.3","d331077c-1fef-4125-8c76-713d77d3c50e","3160","
                  <p style=""text-align: center;"">₪36
                                                <br>60%</p>
                  <p id=""wtp"" style=""text-align:center; margin-top: 0px; margin-bottom: 0px; font-size: 40px"";>מוכנים לשלם: <span id=""c_p_y""></span></p>","10","evaluation","0","12","1C,7C,15C","60","36","10","","","","","","","","","","","","","",""
"","","","","","html-keyboard-response","219","453913","0.0-25.0-2.3","d331077c-1fef-4125-8c76-713d77d3c50e","null","<p style=""text-align: center;"">+</p>","null","fixation","","","","","","","","","","","","","","","","","","","",""
"","","","","","html-slider-response","220","454917","0.0-25.0-0.4","d331077c-1fef-4125-8c76-713d77d3c50e","1000","
                  <p style=""text-align: center;"">₪36
                                                <br>70%</p>
                  <p id=""wtp"" style=""text-align:center; margin-top: 0px; margin-bottom: 0px; font-size: 40px"";>&ensp;</p>","-","viewing","0","13","3A,5C,10B","","","","","","","","","","","","","","","","",""
"","","","","","html-slider-response","221","457656","0.0-25.0-1.4","d331077c-1fef-4125-8c76-713d77d3c50e","2738","
                  <p style=""text-align: center;"">₪36
                                                <br>70%</p>
                  <p id=""wtp"" style=""text-align:center; margin-top: 0px; margin-bottom: 0px; font-size: 40px"";>מוכנים לשלם: <span id=""c_p_y""></span></p>","16","evaluation","80","13","3A,5C,10B","70","36","16","","","","","","","","","","","","","",""
"","","","","","html-keyboard-response","222","458306","0.0-25.0-2.4","d331077c-1fef-4125-8c76-713d77d3c50e","null","<p style=""text-align: center;"">+</p>","null","fixation","","","","","","","","","","","","","","","","","","","",""
"","","","","","html-slider-response","223","459319","0.0-25.0-0.5","d331077c-1fef-4125-8c76-713d77d3c50e","1000","
                  <p style=""text-align: center;"">₪71
                                                <br>75%</p>
                  <p id=""wtp"" style=""text-align:center; margin-top: 0px; margin-bottom: 0px; font-size: 40px"";>&ensp;</p>","-","viewing","0","28","8B","","","","","","","","","","","","","","","","",""
"","","","","","html-slider-response","224","461759","0.0-25.0-1.5","d331077c-1fef-4125-8c76-713d77d3c50e","2440","
                  <p style=""text-align: center;"">₪71
                                                <br>75%</p>
                  <p id=""wtp"" style=""text-align:center; margin-top: 0px; margin-bottom: 0px; font-size: 40px"";>מוכנים לשלם: <span id=""c_p_y""></span></p>","19","evaluation","53","28","8B","75","71","19","","","","","","","","","","","","","",""
"","","","","","html-keyboard-response","225","462809","0.0-25.0-2.5","d331077c-1fef-4125-8c76-713d77d3c50e","null","<p style=""text-align: center;"">+</p>","null","fixation","","","","","","","","","","","","","","","","","","","",""
"","","","","","html-slider-response","226","463812","0.0-25.0-0.6","d331077c-1fef-4125-8c76-713d77d3c50e","1000","
                  <p style=""text-align: center;"">₪58
                                                <br>40%</p>
                  <p id=""wtp"" style=""text-align:center; margin-top: 0px; margin-bottom: 0px; font-size: 40px"";>&ensp;</p>","-","viewing","0","20","10C,13A,19C,21B","","","","","","","","","","","","","","","","",""
"","","","","","html-slider-response","227","465728","0.0-25.0-1.6","d331077c-1fef-4125-8c76-713d77d3c50e","1915","
                  <p style=""text-align: center;"">₪58
                                                <br>40%</p>
                  <p id=""wtp"" style=""text-align:center; margin-top: 0px; margin-bottom: 0px; font-size: 40px"";>מוכנים לשלם: <span id=""c_p_y""></span></p>","5","evaluation","35","20","10C,13A,19C,21B","40","58","5","","","","","","","","","","","","","",""
"","","","","","html-keyboard-response","228","466982","0.0-25.0-2.6","d331077c-1fef-4125-8c76-713d77d3c50e","null","<p style=""text-align: center;"">+</p>","null","fixation","","","","","","","","","","","","","","","","","","","",""
"","","","","","html-slider-response","229","467991","0.0-25.0-0.7","d331077c-1fef-4125-8c76-713d77d3c50e","1000","
                  <p style=""text-align: center;"">₪11
                                                <br>25%</p>
                  <p id=""wtp"" style=""text-align:center; margin-top: 0px; margin-bottom: 0px; font-size: 40px"";>&ensp;</p>","-","viewing","0","5","12A,27B,28B,30B","","","","","","","","","","","","","","","","",""
"","","","","","html-slider-response","230","470328","0.0-25.0-1.7","d331077c-1fef-4125-8c76-713d77d3c50e","2336","
                  <p style=""text-align: center;"">₪11
                                                <br>25%</p>
                  <p id=""wtp"" style=""text-align:center; margin-top: 0px; margin-bottom: 0px; font-size: 40px"";>מוכנים לשלם: <span id=""c_p_y""></span></p>","0","evaluation","77","5","12A,27B,28B,30B","25","11","1","","","","","","","","","","","","","",""
"","","","","","html-keyboard-response","231","471407","0.0-25.0-2.7","d331077c-1fef-4125-8c76-713d77d3c50e","null","<p style=""text-align: center;"">+</p>","null","fixation","","","","","","","","","","","","","","","","","","","",""
"","","","","","html-slider-response","232","472418","0.0-25.0-0.8","d331077c-1fef-4125-8c76-713d77d3c50e","1000","
                  <p style=""text-align: center;"">₪39
                                                <br>65%</p>
                  <p id=""wtp"" style=""text-align:center; margin-top: 0px; margin-bottom: 0px; font-size: 40px"";>&ensp;</p>","-","viewing","0","16","1A,15A,26C","","","","","","","","","","","","","","","","",""
"","","","","","html-slider-response","233","475744","0.0-25.0-1.8","d331077c-1fef-4125-8c76-713d77d3c50e","3325","
                  <p style=""text-align: center;"">₪39
                                                <br>65%</p>
                  <p id=""wtp"" style=""text-align:center; margin-top: 0px; margin-bottom: 0px; font-size: 40px"";>מוכנים לשלם: <span id=""c_p_y""></span></p>","6","evaluation","58","16","1A,15A,26C","65","39","7","","","","","","","","","","","","","",""
"","","","","","html-keyboard-response","234","477059","0.0-25.0-2.8","d331077c-1fef-4125-8c76-713d77d3c50e","null","<p style=""text-align: center;"">+</p>","null","fixation","","","","","","","","","","","","","","","","","","","",""
"","","","","","html-slider-response","235","478062","0.0-25.0-0.9","d331077c-1fef-4125-8c76-713d77d3c50e","1000","
                  <p style=""text-align: center;"">₪11
                                                <br>20%</p>
                  <p id=""wtp"" style=""text-align:center; margin-top: 0px; margin-bottom: 0px; font-size: 40px"";>&ensp;</p>","-","viewing","0","4","12C,17C,23C,28C","","","","","","","","","","","","","","","","",""
"","","","","","html-slider-response","236","480224","0.0-25.0-1.9","d331077c-1fef-4125-8c76-713d77d3c50e","2161","
                  <p style=""text-align: center;"">₪11
                                                <br>20%</p>
                  <p id=""wtp"" style=""text-align:center; margin-top: 0px; margin-bottom: 0px; font-size: 40px"";>מוכנים לשלם: <span id=""c_p_y""></span></p>","1","evaluation","47","4","12C,17C,23C,28C","20","11","2","","","","","","","","","","","","","",""
"","","","","","html-keyboard-response","237","481202","0.0-25.0-2.9","d331077c-1fef-4125-8c76-713d77d3c50e","null","<p style=""text-align: center;"">+</p>","null","fixation","","","","","","","","","","","","","","","","","","","",""
"","","","","","html-slider-response","238","482216","0.0-25.0-0.10","d331077c-1fef-4125-8c76-713d77d3c50e","1000","
                  <p style=""text-align: center;"">₪79
                                                <br>40%</p>
                  <p id=""wtp"" style=""text-align:center; margin-top: 0px; margin-bottom: 0px; font-size: 40px"";>&ensp;</p>","-","viewing","0","30","9B","","","","","","","","","","","","","","","","",""
"","","","","","html-slider-response","239","484280","0.0-25.0-1.10","d331077c-1fef-4125-8c76-713d77d3c50e","2063","
                  <p style=""text-align: center;"">₪79
                                                <br>40%</p>
                  <p id=""wtp"" style=""text-align:center; margin-top: 0px; margin-bottom: 0px; font-size: 40px"";>מוכנים לשלם: <span id=""c_p_y""></span></p>","3","evaluation","70","30","9B","40","79","4","","","","","","","","","","","","","",""
"","","","","","html-keyboard-response","240","484847","0.0-25.0-2.10","d331077c-1fef-4125-8c76-713d77d3c50e","null","<p style=""text-align: center;"">+</p>","null","fixation","","","","","","","","","","","","","","","","","","","",""
"","","","","","html-slider-response","241","485849","0.0-25.0-0.11","d331077c-1fef-4125-8c76-713d77d3c50e","1000","
                  <p style=""text-align: center;"">₪4
                                                <br>25%</p>
                  <p id=""wtp"" style=""text-align:center; margin-top: 0px; margin-bottom: 0px; font-size: 40px"";>&ensp;</p>","-","viewing","0","1","6C,29B,30C","","","","","","","","","","","","","","","","",""
"","","","","","html-slider-response","242","487624","0.0-25.0-1.11","d331077c-1fef-4125-8c76-713d77d3c50e","1773","
                  <p style=""text-align: center;"">₪4
                                                <br>25%</p>
                  <p id=""wtp"" style=""text-align:center; margin-top: 0px; margin-bottom: 0px; font-size: 40px"";>מוכנים לשלם: <span id=""c_p_y""></span></p>","0","evaluation","11","1","6C,29B,30C","25","4","0","","","","","","","","","","","","","",""
"","","","","","html-keyboard-response","243","488631","0.0-25.0-2.11","d331077c-1fef-4125-8c76-713d77d3c50e","null","<p style=""text-align: center;"">+</p>","null","fixation","","","","","","","","","","","","","","","","","","","",""
"","","","","","html-slider-response","244","489642","0.0-25.0-0.12","d331077c-1fef-4125-8c76-713d77d3c50e","1000","
                  <p style=""text-align: center;"">₪11
                                                <br>75%</p>
                  <p id=""wtp"" style=""text-align:center; margin-top: 0px; margin-bottom: 0px; font-size: 40px"";>&ensp;</p>","-","viewing","0","7","6B,18B,22C,24C,29A","","","","","","","","","","","","","","","","",""
"","","","","","html-slider-response","245","492752","0.0-25.0-1.12","d331077c-1fef-4125-8c76-713d77d3c50e","3109","
                  <p style=""text-align: center;"">₪11
                                                <br>75%</p>
                  <p id=""wtp"" style=""text-align:center; margin-top: 0px; margin-bottom: 0px; font-size: 40px"";>מוכנים לשלם: <span id=""c_p_y""></span></p>","4","evaluation","39","7","6B,18B,22C,24C,29A","75","11","4","","","","","","","","","","","","","",""
"","","","","","html-keyboard-response","246","493879","0.0-25.0-2.12","d331077c-1fef-4125-8c76-713d77d3c50e","null","<p style=""text-align: center;"">+</p>","null","fixation","","","","","","","","","","","","","","","","","","","",""
"","","","","","html-slider-response","247","494884","0.0-25.0-0.13","d331077c-1fef-4125-8c76-713d77d3c50e","1000","
                  <p style=""text-align: center;"">₪58
                                                <br>30%</p>
                  <p id=""wtp"" style=""text-align:center; margin-top: 0px; margin-bottom: 0px; font-size: 40px"";>&ensp;</p>","-","viewing","0","19","13C,30A","","","","","","","","","","","","","","","","",""
"","","","","","html-slider-response","248","497528","0.0-25.0-1.13","d331077c-1fef-4125-8c76-713d77d3c50e","2643","
                  <p style=""text-align: center;"">₪58
                                                <br>30%</p>
                  <p id=""wtp"" style=""text-align:center; margin-top: 0px; margin-bottom: 0px; font-size: 40px"";>מוכנים לשלם: <span id=""c_p_y""></span></p>","3","evaluation","29","19","13C,30A","30","58","4","","","","","","","","","","","","","",""
"","","","","","html-keyboard-response","249","498341","0.0-25.0-2.13","d331077c-1fef-4125-8c76-713d77d3c50e","null","<p style=""text-align: center;"">+</p>","null","fixation","","","","","","","","","","","","","","","","","","","",""
"","","","","","html-slider-response","250","499343","0.0-25.0-0.14","d331077c-1fef-4125-8c76-713d77d3c50e","1000","
                  <p style=""text-align: center;"">₪71
                                                <br>45%</p>
                  <p id=""wtp"" style=""text-align:center; margin-top: 0px; margin-bottom: 0px; font-size: 40px"";>&ensp;</p>","-","viewing","0","26","2B,16A","","","","","","","","","","","","","","","","",""
"","","","","","html-slider-response","251","501640","0.0-25.0-1.14","d331077c-1fef-4125-8c76-713d77d3c50e","2296","
                  <p style=""text-align: center;"">₪71
                                                <br>45%</p>
                  <p id=""wtp"" style=""text-align:center; margin-top: 0px; margin-bottom: 0px; font-size: 40px"";>מוכנים לשלם: <span id=""c_p_y""></span></p>","2","evaluation","55","26","2B,16A","45","71","3","","","","","","","","","","","","","",""
"","","","","","html-keyboard-response","252","502561","0.0-25.0-2.14","d331077c-1fef-4125-8c76-713d77d3c50e","null","<p style=""text-align: center;"">+</p>","null","fixation","","","","","","","","","","","","","","","","","","","",""
"","","","","","html-slider-response","253","503562","0.0-25.0-0.15","d331077c-1fef-4125-8c76-713d77d3c50e","1000","
                  <p style=""text-align: center;"">₪43
                                                <br>75%</p>
                  <p id=""wtp"" style=""text-align:center; margin-top: 0px; margin-bottom: 0px; font-size: 40px"";>&ensp;</p>","-","viewing","0","18","11B,19B,24A,26A","","","","","","","","","","","","","","","","",""
"","","","","","html-slider-response","254","504888","0.0-25.0-1.15","d331077c-1fef-4125-8c76-713d77d3c50e","1324","
                  <p style=""text-align: center;"">₪43
                                                <br>75%</p>
