"success","timeout","failed_images","failed_audio","failed_video","trial_type","trial_index","time_elapsed","internal_node_id","subject_id","rt","stimulus","response","part","slider_start","ID","set_ID","prob","amount","last_location","actual_choice","actual_EV","binary_id","trinary_id","catch","direction","A_key","S_key","D_key","choice_prob","choice_amount","chosen_part","potential_prize_prob","potential_prize_amount","won_prize","total_prize","prize_cost","remaining_budget","accuracy"
"true","false","[]","[]","[]","preload","0","8","0.0-0.0","485281f9-3957-47f4-bf4a-97d497934f97","","","","","","","","","","","","","","","","","","","","","","","","","","","","",""
"","","","","","html-keyboard-response","1","704056","0.0-1.0","485281f9-3957-47f4-bf4a-97d497934f97","null","
          <h1>שלום וברוכים הבאים!</h1>
          <p>לפניכם ניסוי בקבלת החלטות עם שני חלקים.
          <br><br>לחצו על העכבר כדי להמשיך.</p>","0","example","","","","","","","","","","","","","","","","","","","","","","","","",""
"","","","","","html-keyboard-response","2","712407","0.0-2.0","485281f9-3957-47f4-bf4a-97d497934f97","null","
        <h1>חלק 1</h1>
        <p>בקרוב יוצגו בפניכם הגרלות.
        <br>עליכם לבחור את המחיר המירבי שתהיו מוכנים לשלם כדי להשתתף בהגרלה שתוצג.
        <br>יש לכם תקציב של ₪80 לכל הגרלה. 
        <br>נסו להעריך כל הגרלה בנפרד ולחשוב כמה היא שווה עבורכם, ₪80 זמינים לכל הגרלה בנפרד.
        <br><br>לחצו על העכבר כדי להמשיך.</p>","1","instructions","","","","","","","","","","","","","","","","","","","","","","","","",""
"","","","","","html-keyboard-response","3","721367","0.0-3.0","485281f9-3957-47f4-bf4a-97d497934f97","null","
        <p>בסוף הניסוי, המחשב יבחר את אחת ההגרלות ויקבע מחיר לכרטיס עבורה. 
        <br>במידה והמחיר שבחרתם נמוך מהמחיר שנבחר על ידי המחשב, לא תשתתפו בהגרלה ותשארו עם מלוא התקציב.
        <br>במידה והמחיר שבחרתם גבוה מהמחיר שנבחר על ידי המחשב, תשלמו את המחיר שנקבע ותשתתפו בהגרלה.
        <br><br>לחצו על העכבר כדי להמשיך.</p>","1","instructions","","","","","","","","","","","","","","","","","","","","","","","","",""
"","","","","","html-slider-response","4","738640","0.0-4.0","485281f9-3957-47f4-bf4a-97d497934f97","17162","
        <p style=""font-size: 42px;"">נתחיל עם דוגמא: 
        <br>ההגרלה מטה מציעה 65% סיכוי לזכות ב-₪40 
        <br>&emsp;&emsp;&emsp;&emsp;&emsp;&emsp;&emsp;&emsp;&ensp;35% סיכוי לזכות ב-₪0.
        <br><br>מה המחיר המירבי שתהיו מוכנים לשלם על כרטיס להגרלה זו בין 0 ל-₪80?
        <br>הזיזו את העכבר על פני המלבן ולחצו כדי לבצע בחירה.</p>
        
        <p style=""text-align: center;"">₪40<br>65%</p>

        <p id=""wtp"" style=""text-align:center; margin-top: 0px; margin-bottom: 0px; font-size: 40px"";>מוכנים לשלם: <span id=""c_p_y""></span></p>","20","example","44","","","","","","","","","","","","","","","","","","","","","","","",""
"","","","","","html-keyboard-response","5","746983","0.0-5.0","485281f9-3957-47f4-bf4a-97d497934f97","null","<p>יפה מאוד!
                <br> בחרתם שתהיו מוכנים לשלם ₪20 כדי להשתתף בהגרלה:
                <br><p style=""text-align: center;"">₪40<br>65%</p>
                <p>נשמע נכון?
                <br>נניח שהגרלה זו נבחרה בסוף הניסוי.
                <br>כעת המחשב יקבע מחיר עבורה באקראי.
                <br>לחצו על העכבר להמשך.</p>","1","example","","","","","","","","","","","","","","","","","","","","","","","","",""
"","","","","","html-keyboard-response","6","753919","0.0-6.0","485281f9-3957-47f4-bf4a-97d497934f97","null","<p>המחשב קבע מחיר: ₪23
                <br>ואתם בחרתם לשלם לכל היותר: ₪20
                <br><br>מכיוון שהמחיר שבחרתם נמוך מהמחיר שנקבע, לא תתשתתפו בהגרלה.
                <br>במקרה כזה, בסוף הניסוי תקבלו את כל התקציב ההתחלתי של ₪80.
                <br><br>לחצו על העכבר להמשך.</p>","1","example","","","","","","","","","","","","","","","","","","","","","","","","",""
"","","","","","html-slider-response","7","761120","0.0-7.0","485281f9-3957-47f4-bf4a-97d497934f97","6936","<p style=""font-size: 42px;"">הנה עוד דוגמא:
                <br>ההגרלה מטה מציעה 35% סיכוי לזכות ב-₪18 
                <br>&emsp;&emsp;&emsp;&emsp;&emsp;&emsp;&emsp;&emsp;&ensp;65% סיכוי לזכות ב-₪0.</p>
        
                <p style=""text-align: center;"">₪18<br>35%</p>
                <p id=""wtp"" style=""text-align:center; margin-top: 0px; margin-bottom: 0px; font-size: 40px"";>מוכנים לשלם: <span id=""c_p_y""></span></p>","4","example","72","","","","","","","","","","","","","","","","","","","","","","","",""
"","","","","","html-keyboard-response","8","764847","0.0-8.0","485281f9-3957-47f4-bf4a-97d497934f97","null","<p>הייתם מוכנים לשלם  ₪4 כדי להשתתף בהגרלה:
                <p style=""text-align: center;"">₪18<br>35%</p>
                <p>כעת נניח שהמחשב בחר את ההגרלה הזו בסוף הניסוי, וקבע עבורה מחיר.
                <br><br>לחצו על העכבר כדי להמשיך.</p>","1","instructions","","","","","","","","","","","","","","","","","","","","","","","","",""
"","","","","","html-keyboard-response","9","772399","0.0-9.0","485281f9-3957-47f4-bf4a-97d497934f97","null","<p>המחשב קבע מחיר להגרלה: ₪2<br>ואתם בחרתם לשלם לכל היותר: ₪4
                <br><br>כעת המחיר שנקבע נמוך מזה שבחרתם, אז תשלמו את המחיר שקבע המחשב (₪2) ותשתתפו בהגרלה.
                <br>במקרה כזה, תסיימו את הניסוי עם תקציב של ₪78 ועם סיכוי לזכות ב-₪18 נוספים מההגרלה.
                <br>כלומר, תוכלו לקבל ₪78 אם לא תזכו בהגרלה, או ₪96 אם תזכו בהגרלה.
                <br><br>לחצו על העכבר להמשך.</p>","1","example","","","","","","","","","","","","","","","","","","","","","","","","",""
"","","","","","html-keyboard-response","10","778327","0.0-10.0","485281f9-3957-47f4-bf4a-97d497934f97","null","<p>במהלך הניסוי, קודם תראו את ההגרלה ורק לאחר מכן תוכלו לבחור.
                <p>כמו כן, יהיו לכם מספר שניות מוגבל להגיב.
                <p>בואו ננסה זאת עם ההגרלה הקודמת.
                <br>לחצו על העכבר כדי להמשיך.</p>","1","instructions","","","","","","","","","","","","","","","","","","","","","","","","",""
"","","","","","html-slider-response","11","779607","0.0-11.0","485281f9-3957-47f4-bf4a-97d497934f97","1000","
                    <p style=""text-align: center;"">₪18<br>35%</p>
                    <p id=""wtp"" style=""text-align:center; margin-top: 0px; margin-bottom: 0px; font-size: 40px"";>&ensp;</p>","48","instructions","0","","","","","","","","","","","","","","","","","","","","","","","",""
"","","","","","html-slider-response","12","780151","0.0-12.0","485281f9-3957-47f4-bf4a-97d497934f97","278","
                    <p style=""text-align: center;"">₪18<br>35%</p>
                    <p id=""wtp"" style=""text-align:center; margin-top: 0px; margin-bottom: 0px; font-size: 40px"";>מוכנים לשלם: <span id=""c_p_y""></span></p>","58","instructions","58","","","","","","","","","","","","","","","","","","","","","","","",""
"","","","","","html-keyboard-response","13","782191","0.0-13.0","485281f9-3957-47f4-bf4a-97d497934f97","null","<p>יפה. הפעם בחרתם לשלם לכל היותר ₪58.
                <br><br>לחצו על העכבר כדי להמשיך.</p>","1","instructions","","","","","","","","","","","","","","","","","","","","","","","","",""
"","","","","","html-keyboard-response","14","784503","0.0-15.0","485281f9-3957-47f4-bf4a-97d497934f97","null","<p>כעת נתחיל את הניסוי.
                <br><br>אתם תראו הגרלות ותתבקשו לבחור כמה תהיו מוכנים לשלם כדי להשתתף בהן.
                <br>יש לכם תקציב של ₪80 עבור כל הגרלה.
                <br>בסוף הניסוי הגרלה אחת תבחר באקראי ותשוחק.
                <br><br>לחצו על העכבר כדי להתחיל את הניסוי.</p>","1","instructions","","","","","","","","","","","","","","","","","","","","","","","","",""
"","","","","","html-keyboard-response","15","785764","0.0-16.0","485281f9-3957-47f4-bf4a-97d497934f97","null","<p style=""text-align: center;"">+</p>","null","fixation","","","","","","","","","","","","","","","","","","","","","","","","",""
"","","","","","html-slider-response","16","786780","0.0-17.0-0.0","485281f9-3957-47f4-bf4a-97d497934f97","1000","
                  <p style=""text-align: center;"">₪4
                                                <br>75%</p>
                  <p id=""wtp"" style=""text-align:center; margin-top: 0px; margin-bottom: 0px; font-size: 40px"";>&ensp;</p>","-","viewing","0","3","12B,20B,23B,27C,29C","","","","","","","","","","","","","","","","","","","","","",""
"","","","","","html-slider-response","17","790787","0.0-17.0-1.0","485281f9-3957-47f4-bf4a-97d497934f97","null","
                  <p style=""text-align: center;"">₪4
                                                <br>75%</p>
                  <p id=""wtp"" style=""text-align:center; margin-top: 0px; margin-bottom: 0px; font-size: 40px"";>מוכנים לשלם: <span id=""c_p_y""></span></p>","null","evaluation","12","3","12B,20B,23B,27C,29C","75","4","0","","","","","","","","","","","","","","","","","","",""
"","","","","","html-keyboard-response","18","792052","0.0-17.0-2.0","485281f9-3957-47f4-bf4a-97d497934f97","null","<p style=""text-align: center;"">+</p>","null","fixation","","","","","","","","","","","","","","","","","","","","","","","","",""
"","","","","","html-slider-response","19","793061","0.0-17.0-0.1","485281f9-3957-47f4-bf4a-97d497934f97","1000","
                  <p style=""text-align: center;"">₪79
                                                <br>65%</p>
                  <p id=""wtp"" style=""text-align:center; margin-top: 0px; margin-bottom: 0px; font-size: 40px"";>&ensp;</p>","-","viewing","0","31","8A","","","","","","","","","","","","","","","","","","","","","",""
"","","","","","html-slider-response","20","796071","0.0-17.0-1.1","485281f9-3957-47f4-bf4a-97d497934f97","3009","
                  <p style=""text-align: center;"">₪79
                                                <br>65%</p>
                  <p id=""wtp"" style=""text-align:center; margin-top: 0px; margin-bottom: 0px; font-size: 40px"";>מוכנים לשלם: <span id=""c_p_y""></span></p>","6","evaluation","56","31","8A","65","79","6","","","","","","","","","","","","","","","","","","",""
"","","","","","html-keyboard-response","21","796912","0.0-17.0-2.1","485281f9-3957-47f4-bf4a-97d497934f97","null","<p style=""text-align: center;"">+</p>","null","fixation","","","","","","","","","","","","","","","","","","","","","","","","",""
"","","","","","html-slider-response","22","797914","0.0-17.0-0.2","485281f9-3957-47f4-bf4a-97d497934f97","1000","
                  <p style=""text-align: center;"">₪71
                                                <br>45%</p>
                  <p id=""wtp"" style=""text-align:center; margin-top: 0px; margin-bottom: 0px; font-size: 40px"";>&ensp;</p>","-","viewing","0","26","2B,16A","","","","","","","","","","","","","","","","","","","","","",""
"","","","","","html-slider-response","23","799447","0.0-17.0-1.2","485281f9-3957-47f4-bf4a-97d497934f97","1532","
                  <p style=""text-align: center;"">₪71
                                                <br>45%</p>
                  <p id=""wtp"" style=""text-align:center; margin-top: 0px; margin-bottom: 0px; font-size: 40px"";>מוכנים לשלם: <span id=""c_p_y""></span></p>","39","evaluation","43","26","2B,16A","45","71","39","","","","","","","","","","","","","","","","","","",""
"","","","","","html-keyboard-response","24","800916","0.0-17.0-2.2","485281f9-3957-47f4-bf4a-97d497934f97","null","<p style=""text-align: center;"">+</p>","null","fixation","","","","","","","","","","","","","","","","","","","","","","","","",""
"","","","","","html-slider-response","25","801919","0.0-17.0-0.3","485281f9-3957-47f4-bf4a-97d497934f97","1000","
                  <p style=""text-align: center;"">₪43
                                                <br>60%</p>
                  <p id=""wtp"" style=""text-align:center; margin-top: 0px; margin-bottom: 0px; font-size: 40px"";>&ensp;</p>","-","viewing","0","17","2A,7A,9A,15B","","","","","","","","","","","","","","","","","","","","","",""
"","","","","","html-slider-response","26","803567","0.0-17.0-1.3","485281f9-3957-47f4-bf4a-97d497934f97","1648","
                  <p style=""text-align: center;"">₪43
                                                <br>60%</p>
                  <p id=""wtp"" style=""text-align:center; margin-top: 0px; margin-bottom: 0px; font-size: 40px"";>מוכנים לשלם: <span id=""c_p_y""></span></p>","23","evaluation","33","17","2A,7A,9A,15B","60","43","23","","","","","","","","","","","","","","","","","","",""
"","","","","","html-keyboard-response","27","804253","0.0-17.0-2.3","485281f9-3957-47f4-bf4a-97d497934f97","null","<p style=""text-align: center;"">+</p>","null","fixation","","","","","","","","","","","","","","","","","","","","","","","","",""
"","","","","","html-slider-response","28","805265","0.0-17.0-0.4","485281f9-3957-47f4-bf4a-97d497934f97","1000","
                  <p style=""text-align: center;"">₪58
                                                <br>45%</p>
                  <p id=""wtp"" style=""text-align:center; margin-top: 0px; margin-bottom: 0px; font-size: 40px"";>&ensp;</p>","-","viewing","0","21","11C,18C,25A","","","","","","","","","","","","","","","","","","","","","",""
"","","","","","html-slider-response","29","807951","0.0-17.0-1.4","485281f9-3957-47f4-bf4a-97d497934f97","2685","
                  <p style=""text-align: center;"">₪58
                                                <br>45%</p>
                  <p id=""wtp"" style=""text-align:center; margin-top: 0px; margin-bottom: 0px; font-size: 40px"";>מוכנים לשלם: <span id=""c_p_y""></span></p>","28","evaluation","15","21","11C,18C,25A","45","58","28","","","","","","","","","","","","","","","","","","",""
"","","","","","html-keyboard-response","30","809406","0.0-17.0-2.4","485281f9-3957-47f4-bf4a-97d497934f97","null","<p style=""text-align: center;"">+</p>","null","fixation","","","","","","","","","","","","","","","","","","","","","","","","",""
"","","","","","html-slider-response","31","810416","0.0-17.0-0.5","485281f9-3957-47f4-bf4a-97d497934f97","1000","
                  <p style=""text-align: center;"">₪11
                                                <br>75%</p>
                  <p id=""wtp"" style=""text-align:center; margin-top: 0px; margin-bottom: 0px; font-size: 40px"";>&ensp;</p>","-","viewing","0","7","6B,18B,22C,24C,29A","","","","","","","","","","","","","","","","","","","","","",""
"","","","","","html-slider-response","32","813239","0.0-17.0-1.5","485281f9-3957-47f4-bf4a-97d497934f97","2822","
                  <p style=""text-align: center;"">₪11
                                                <br>75%</p>
                  <p id=""wtp"" style=""text-align:center; margin-top: 0px; margin-bottom: 0px; font-size: 40px"";>מוכנים לשלם: <span id=""c_p_y""></span></p>","16","evaluation","55","7","6B,18B,22C,24C,29A","75","11","16","","","","","","","","","","","","","","","","","","",""
"","","","","","html-keyboard-response","33","814008","0.0-17.0-2.5","485281f9-3957-47f4-bf4a-97d497934f97","null","<p style=""text-align: center;"">+</p>","null","fixation","","","","","","","","","","","","","","","","","","","","","","","","",""
"","","","","","html-slider-response","34","815025","0.0-17.0-0.6","485281f9-3957-47f4-bf4a-97d497934f97","1000","
                  <p style=""text-align: center;"">₪39
                                                <br>60%</p>
                  <p id=""wtp"" style=""text-align:center; margin-top: 0px; margin-bottom: 0px; font-size: 40px"";>&ensp;</p>","-","viewing","0","15","9C,25B","","","","","","","","","","","","","","","","","","","","","",""
"","","","","","html-slider-response","35","817839","0.0-17.0-1.6","485281f9-3957-47f4-bf4a-97d497934f97","2813","
                  <p style=""text-align: center;"">₪39
                                                <br>60%</p>
                  <p id=""wtp"" style=""text-align:center; margin-top: 0px; margin-bottom: 0px; font-size: 40px"";>מוכנים לשלם: <span id=""c_p_y""></span></p>","16","evaluation","18","15","9C,25B","60","39","18","","","","","","","","","","","","","","","","","","",""
"","","","","","html-keyboard-response","36","819002","0.0-17.0-2.6","485281f9-3957-47f4-bf4a-97d497934f97","null","<p style=""text-align: center;"">+</p>","null","fixation","","","","","","","","","","","","","","","","","","","","","","","","",""
"","","","","","html-slider-response","37","820012","0.0-17.0-0.7","485281f9-3957-47f4-bf4a-97d497934f97","1000","
                  <p style=""text-align: center;"">₪11
                                                <br>20%</p>
                  <p id=""wtp"" style=""text-align:center; margin-top: 0px; margin-bottom: 0px; font-size: 40px"";>&ensp;</p>","-","viewing","0","4","12C,17C,23C,28C","","","","","","","","","","","","","","","","","","","","","",""
"","","","","","html-slider-response","38","824024","0.0-17.0-1.7","485281f9-3957-47f4-bf4a-97d497934f97","null","
                  <p style=""text-align: center;"">₪11
                                                <br>20%</p>
                  <p id=""wtp"" style=""text-align:center; margin-top: 0px; margin-bottom: 0px; font-size: 40px"";>מוכנים לשלם: <span id=""c_p_y""></span></p>","null","evaluation","72","4","12C,17C,23C,28C","20","11","0","","","","","","","","","","","","","","","","","","",""
"","","","","","html-keyboard-response","39","825235","0.0-17.0-2.7","485281f9-3957-47f4-bf4a-97d497934f97","null","<p style=""text-align: center;"">+</p>","null","fixation","","","","","","","","","","","","","","","","","","","","","","","","",""
"","","","","","html-slider-response","40","826239","0.0-17.0-0.8","485281f9-3957-47f4-bf4a-97d497934f97","1000","
                  <p style=""text-align: center;"">₪36
                                                <br>30%</p>
                  <p id=""wtp"" style=""text-align:center; margin-top: 0px; margin-bottom: 0px; font-size: 40px"";>&ensp;</p>","-","viewing","0","11","3C,20A,22A","","","","","","","","","","","","","","","","","","","","","",""
"","","","","","html-slider-response","41","828639","0.0-17.0-1.8","485281f9-3957-47f4-bf4a-97d497934f97","2400","
                  <p style=""text-align: center;"">₪36
                                                <br>30%</p>
                  <p id=""wtp"" style=""text-align:center; margin-top: 0px; margin-bottom: 0px; font-size: 40px"";>מוכנים לשלם: <span id=""c_p_y""></span></p>","4","evaluation","43","11","3C,20A,22A","30","36","5","","","","","","","","","","","","","","","","","","",""
"","","","","","html-keyboard-response","42","829421","0.0-17.0-2.8","485281f9-3957-47f4-bf4a-97d497934f97","null","<p style=""text-align: center;"">+</p>","null","fixation","","","","","","","","","","","","","","","","","","","","","","","","",""
"","","","","","html-slider-response","43","830438","0.0-17.0-0.9","485281f9-3957-47f4-bf4a-97d497934f97","1000","
                  <p style=""text-align: center;"">₪64
                                                <br>25%</p>
                  <p id=""wtp"" style=""text-align:center; margin-top: 0px; margin-bottom: 0px; font-size: 40px"";>&ensp;</p>","-","viewing","0","24","6A,21A","","","","","","","","","","","","","","","","","","","","","",""
"","","","","","html-slider-response","44","832759","0.0-17.0-1.9","485281f9-3957-47f4-bf4a-97d497934f97","2320","
                  <p style=""text-align: center;"">₪64
                                                <br>25%</p>
                  <p id=""wtp"" style=""text-align:center; margin-top: 0px; margin-bottom: 0px; font-size: 40px"";>מוכנים לשלם: <span id=""c_p_y""></span></p>","15","evaluation","27","24","6A,21A","25","64","15","","","","","","","","","","","","","","","","","","",""
"","","","","","html-keyboard-response","45","834182","0.0-17.0-2.9","485281f9-3957-47f4-bf4a-97d497934f97","null","<p style=""text-align: center;"">+</p>","null","fixation","","","","","","","","","","","","","","","","","","","","","","","","",""
"","","","","","html-slider-response","46","835184","0.0-17.0-0.10","485281f9-3957-47f4-bf4a-97d497934f97","1000","
                  <p style=""text-align: center;"">₪16
                                                <br>20%</p>
                  <p id=""wtp"" style=""text-align:center; margin-top: 0px; margin-bottom: 0px; font-size: 40px"";>&ensp;</p>","-","viewing","0","8","14C,17A,20C,27A","","","","","","","","","","","","","","","","","","","","","",""
"","","","","","html-slider-response","47","837023","0.0-17.0-1.10","485281f9-3957-47f4-bf4a-97d497934f97","1838","
                  <p style=""text-align: center;"">₪16
                                                <br>20%</p>
                  <p id=""wtp"" style=""text-align:center; margin-top: 0px; margin-bottom: 0px; font-size: 40px"";>מוכנים לשלם: <span id=""c_p_y""></span></p>","2","evaluation","3","8","14C,17A,20C,27A","20","16","2","","","","","","","","","","","","","","","","","","",""
"","","","","","html-keyboard-response","48","838210","0.0-17.0-2.10","485281f9-3957-47f4-bf4a-97d497934f97","null","<p style=""text-align: center;"">+</p>","null","fixation","","","","","","","","","","","","","","","","","","","","","","","","",""
"","","","","","html-slider-response","49","839212","0.0-17.0-0.11","485281f9-3957-47f4-bf4a-97d497934f97","1000","
                  <p style=""text-align: center;"">₪79
                                                <br>40%</p>
                  <p id=""wtp"" style=""text-align:center; margin-top: 0px; margin-bottom: 0px; font-size: 40px"";>&ensp;</p>","-","viewing","0","30","9B","","","","","","","","","","","","","","","","","","","","","",""
"","","","","","html-slider-response","50","841935","0.0-17.0-1.11","485281f9-3957-47f4-bf4a-97d497934f97","2723","
                  <p style=""text-align: center;"">₪79
                                                <br>40%</p>
                  <p id=""wtp"" style=""text-align:center; margin-top: 0px; margin-bottom: 0px; font-size: 40px"";>מוכנים לשלם: <span id=""c_p_y""></span></p>","33","evaluation","51","30","9B","40","79","33","","","","","","","","","","","","","","","","","","",""
"","","","","","html-keyboard-response","51","842985","0.0-17.0-2.11","485281f9-3957-47f4-bf4a-97d497934f97","null","<p style=""text-align: center;"">+</p>","null","fixation","","","","","","","","","","","","","","","","","","","","","","","","",""
"","","","","","html-slider-response","52","843988","0.0-17.0-0.12","485281f9-3957-47f4-bf4a-97d497934f97","1000","
                  <p style=""text-align: center;"">₪58
                                                <br>40%</p>
                  <p id=""wtp"" style=""text-align:center; margin-top: 0px; margin-bottom: 0px; font-size: 40px"";>&ensp;</p>","-","viewing","0","20","10C,13A,19C,21B","","","","","","","","","","","","","","","","","","","","","",""
"","","","","","html-slider-response","53","846007","0.0-17.0-1.12","485281f9-3957-47f4-bf4a-97d497934f97","2018","
                  <p style=""text-align: center;"">₪58
                                                <br>40%</p>
                  <p id=""wtp"" style=""text-align:center; margin-top: 0px; margin-bottom: 0px; font-size: 40px"";>מוכנים לשלם: <span id=""c_p_y""></span></p>","33","evaluation","18","20","10C,13A,19C,21B","40","58","18","","","","","","","","","","","","","","","","","","",""
"","","","","","html-keyboard-response","54","847429","0.0-17.0-2.12","485281f9-3957-47f4-bf4a-97d497934f97","null","<p style=""text-align: center;"">+</p>","null","fixation","","","","","","","","","","","","","","","","","","","","","","","","",""
"","","","","","html-slider-response","55","848441","0.0-17.0-0.13","485281f9-3957-47f4-bf4a-97d497934f97","1000","
                  <p style=""text-align: center;"">₪36
                                                <br>60%</p>
                  <p id=""wtp"" style=""text-align:center; margin-top: 0px; margin-bottom: 0px; font-size: 40px"";>&ensp;</p>","-","viewing","0","12","1C,7C,15C","","","","","","","","","","","","","","","","","","","","","",""
"","","","","","html-slider-response","56","851455","0.0-17.0-1.13","485281f9-3957-47f4-bf4a-97d497934f97","3012","
                  <p style=""text-align: center;"">₪36
                                                <br>60%</p>
                  <p id=""wtp"" style=""text-align:center; margin-top: 0px; margin-bottom: 0px; font-size: 40px"";>מוכנים לשלם: <span id=""c_p_y""></span></p>","11","evaluation","55","12","1C,7C,15C","60","36","11","","","","","","","","","","","","","","","","","","",""
"","","","","","html-keyboard-response","57","852212","0.0-17.0-2.13","485281f9-3957-47f4-bf4a-97d497934f97","null","<p style=""text-align: center;"">+</p>","null","fixation","","","","","","","","","","","","","","","","","","","","","","","","",""
"","","","","","html-slider-response","58","853224","0.0-17.0-0.14","485281f9-3957-47f4-bf4a-97d497934f97","1000","
                  <p style=""text-align: center;"">₪64
                                                <br>50%</p>
                  <p id=""wtp"" style=""text-align:center; margin-top: 0px; margin-bottom: 0px; font-size: 40px"";>&ensp;</p>","-","viewing","0","25","1B,3B,4A","","","","","","","","","","","","","","","","","","","","","",""
"","","","","","html-slider-response","59","855703","0.0-17.0-1.14","485281f9-3957-47f4-bf4a-97d497934f97","2477","
                  <p style=""text-align: center;"">₪64
                                                <br>50%</p>
                  <p id=""wtp"" style=""text-align:center; margin-top: 0px; margin-bottom: 0px; font-size: 40px"";>מוכנים לשלם: <span id=""c_p_y""></span></p>","38","evaluation","33","25","1B,3B,4A","50","64","38","","","","","","","","","","","","","","","","","","",""
"","","","","","html-keyboard-response","60","856357","0.0-17.0-2.14","485281f9-3957-47f4-bf4a-97d497934f97","null","<p style=""text-align: center;"">+</p>","null","fixation","","","","","","","","","","","","","","","","","","","","","","","","",""
"","","","","","html-slider-response","61","857367","0.0-17.0-0.15","485281f9-3957-47f4-bf4a-97d497934f97","1000","
                  <p style=""text-align: center;"">₪11
                                                <br>25%</p>
                  <p id=""wtp"" style=""text-align:center; margin-top: 0px; margin-bottom: 0px; font-size: 40px"";>&ensp;</p>","-","viewing","0","5","12A,27B,28B,30B","","","","","","","","","","","","","","","","","","","","","",""
"","","","","","html-slider-response","62","859399","0.0-17.0-1.15","485281f9-3957-47f4-bf4a-97d497934f97","2030","
                  <p style=""text-align: center;"">₪11
                                                <br>25%</p>
                  <p id=""wtp"" style=""text-align:center; margin-top: 0px; margin-bottom: 0px; font-size: 40px"";>מוכנים לשלם: <span id=""c_p_y""></span></p>","2","evaluation","59","5","12A,27B,28B,30B","25","11","2","","","","","","","","","","","","","","","","","","",""
"","","","","","html-keyboard-response","63","860700","0.0-17.0-2.15","485281f9-3957-47f4-bf4a-97d497934f97","null","<p style=""text-align: center;"">+</p>","null","fixation","","","","","","","","","","","","","","","","","","","","","","","","",""
"","","","","","html-slider-response","64","861702","0.0-17.0-0.16","485281f9-3957-47f4-bf4a-97d497934f97","1000","
                  <p style=""text-align: center;"">₪71
                                                <br>55%</p>
                  <p id=""wtp"" style=""text-align:center; margin-top: 0px; margin-bottom: 0px; font-size: 40px"";>&ensp;</p>","-","viewing","0","27","5B,18A","","","","","","","","","","","","","","","","","","","","","",""
"","","","","","html-slider-response","65","863263","0.0-17.0-1.16","485281f9-3957-47f4-bf4a-97d497934f97","1559","
                  <p style=""text-align: center;"">₪71
                                                <br>55%</p>
                  <p id=""wtp"" style=""text-align:center; margin-top: 0px; margin-bottom: 0px; font-size: 40px"";>מוכנים לשלם: <span id=""c_p_y""></span></p>","40","evaluation","62","27","5B,18A","55","71","40","","","","","","","","","","","","","","","","","","",""
"","","","","","html-keyboard-response","66","864508","0.0-17.0-2.16","485281f9-3957-47f4-bf4a-97d497934f97","null","<p style=""text-align: center;"">+</p>","null","fixation","","","","","","","","","","","","","","","","","","","","","","","","",""
"","","","","","html-slider-response","67","865525","0.0-17.0-0.17","485281f9-3957-47f4-bf4a-97d497934f97","1000","
                  <p style=""text-align: center;"">₪76
                                                <br>65%</p>
                  <p id=""wtp"" style=""text-align:center; margin-top: 0px; margin-bottom: 0px; font-size: 40px"";>&ensp;</p>","-","viewing","0","29","8C,19A,24B","","","","","","","","","","","","","","","","","","","","","",""
"","","","","","html-slider-response","68","869529","0.0-17.0-1.17","485281f9-3957-47f4-bf4a-97d497934f97","null","
                  <p style=""text-align: center;"">₪76
                                                <br>65%</p>
                  <p id=""wtp"" style=""text-align:center; margin-top: 0px; margin-bottom: 0px; font-size: 40px"";>מוכנים לשלם: <span id=""c_p_y""></span></p>","null","evaluation","24","29","8C,19A,24B","65","76","50","","","","","","","","","","","","","","","","","","",""
"","","","","","html-keyboard-response","69","870328","0.0-17.0-2.17","485281f9-3957-47f4-bf4a-97d497934f97","null","<p style=""text-align: center;"">+</p>","null","fixation","","","","","","","","","","","","","","","","","","","","","","","","",""
"","","","","","html-slider-response","70","871332","0.0-17.0-0.18","485281f9-3957-47f4-bf4a-97d497934f97","1000","
                  <p style=""text-align: center;"">₪43
                                                <br>75%</p>
                  <p id=""wtp"" style=""text-align:center; margin-top: 0px; margin-bottom: 0px; font-size: 40px"";>&ensp;</p>","-","viewing","0","18","11B,19B,24A,26A","","","","","","","","","","","","","","","","","","","","","",""
"","","","","","html-slider-response","71","874831","0.0-17.0-1.18","485281f9-3957-47f4-bf4a-97d497934f97","3497","
                  <p style=""text-align: center;"">₪43
                                                <br>75%</p>
                  <p id=""wtp"" style=""text-align:center; margin-top: 0px; margin-bottom: 0px; font-size: 40px"";>מוכנים לשלם: <span id=""c_p_y""></span></p>","40","evaluation","34","18","11B,19B,24A,26A","75","43","40","","","","","","","","","","","","","","","","","","",""
"","","","","","html-keyboard-response","72","875815","0.0-17.0-2.18","485281f9-3957-47f4-bf4a-97d497934f97","null","<p style=""text-align: center;"">+</p>","null","fixation","","","","","","","","","","","","","","","","","","","","","","","","",""
"","","","","","html-slider-response","73","876818","0.0-17.0-0.19","485281f9-3957-47f4-bf4a-97d497934f97","1000","
                  <p style=""text-align: center;"">₪18
                                                <br>50%</p>
                  <p id=""wtp"" style=""text-align:center; margin-top: 0px; margin-bottom: 0px; font-size: 40px"";>&ensp;</p>","-","viewing","0","10","2C,16C,22B,28A","","","","","","","","","","","","","","","","","","","","","",""
"","","","","","html-slider-response","74","880583","0.0-17.0-1.19","485281f9-3957-47f4-bf4a-97d497934f97","3764","
                  <p style=""text-align: center;"">₪18
                                                <br>50%</p>
                  <p id=""wtp"" style=""text-align:center; margin-top: 0px; margin-bottom: 0px; font-size: 40px"";>מוכנים לשלם: <span id=""c_p_y""></span></p>","15","evaluation","60","10","2C,16C,22B,28A","50","18","16","","","","","","","","","","","","","","","","","","",""
"","","","","","html-keyboard-response","75","881129","0.0-17.0-2.19","485281f9-3957-47f4-bf4a-97d497934f97","null","<p style=""text-align: center;"">+</p>","null","fixation","","","","","","","","","","","","","","","","","","","","","","","","",""
"","","","","","html-slider-response","76","882134","0.0-17.0-0.20","485281f9-3957-47f4-bf4a-97d497934f97","1000","
                  <p style=""text-align: center;"">₪61
                                                <br>45%</p>
                  <p id=""wtp"" style=""text-align:center; margin-top: 0px; margin-bottom: 0px; font-size: 40px"";>&ensp;</p>","-","viewing","0","22","10A,11A","","","","","","","","","","","","","","","","","","","","","",""
"","","","","","html-slider-response","77","883391","0.0-17.0-1.20","485281f9-3957-47f4-bf4a-97d497934f97","1255","
                  <p style=""text-align: center;"">₪61
                                                <br>45%</p>
                  <p id=""wtp"" style=""text-align:center; margin-top: 0px; margin-bottom: 0px; font-size: 40px"";>מוכנים לשלם: <span id=""c_p_y""></span></p>","23","evaluation","5","22","10A,11A","45","61","23","","","","","","","","","","","","","","","","","","",""
"","","","","","html-keyboard-response","78","884067","0.0-17.0-2.20","485281f9-3957-47f4-bf4a-97d497934f97","null","<p style=""text-align: center;"">+</p>","null","fixation","","","","","","","","","","","","","","","","","","","","","","","","",""
"","","","","","html-slider-response","79","885077","0.0-17.0-0.21","485281f9-3957-47f4-bf4a-97d497934f97","1000","
                  <p style=""text-align: center;"">₪58
                                                <br>30%</p>
                  <p id=""wtp"" style=""text-align:center; margin-top: 0px; margin-bottom: 0px; font-size: 40px"";>&ensp;</p>","-","viewing","0","19","13C,30A","","","","","","","","","","","","","","","","","","","","","",""
"","","","","","html-slider-response","80","886582","0.0-17.0-1.21","485281f9-3957-47f4-bf4a-97d497934f97","1504","
                  <p style=""text-align: center;"">₪58
                                                <br>30%</p>
                  <p id=""wtp"" style=""text-align:center; margin-top: 0px; margin-bottom: 0px; font-size: 40px"";>מוכנים לשלם: <span id=""c_p_y""></span></p>","17","evaluation","50","19","13C,30A","30","58","17","","","","","","","","","","","","","","","","","","",""
"","","","","","html-keyboard-response","81","887691","0.0-17.0-2.21","485281f9-3957-47f4-bf4a-97d497934f97","null","<p style=""text-align: center;"">+</p>","null","fixation","","","","","","","","","","","","","","","","","","","","","","","","",""
"","","","","","html-slider-response","82","888699","0.0-17.0-0.22","485281f9-3957-47f4-bf4a-97d497934f97","1000","
                  <p style=""text-align: center;"">₪36
                                                <br>70%</p>
                  <p id=""wtp"" style=""text-align:center; margin-top: 0px; margin-bottom: 0px; font-size: 40px"";>&ensp;</p>","-","viewing","0","13","3A,5C,10B","","","","","","","","","","","","","","","","","","","","","",""
"","","","","","html-slider-response","83","890871","0.0-17.0-1.22","485281f9-3957-47f4-bf4a-97d497934f97","2170","
                  <p style=""text-align: center;"">₪36
                                                <br>70%</p>
                  <p id=""wtp"" style=""text-align:center; margin-top: 0px; margin-bottom: 0px; font-size: 40px"";>מוכנים לשלם: <span id=""c_p_y""></span></p>","27","evaluation","27","13","3A,5C,10B","70","36","27","","","","","","","","","","","","","","","","","","",""
"","","","","","html-keyboard-response","84","891744","0.0-17.0-2.22","485281f9-3957-47f4-bf4a-97d497934f97","null","<p style=""text-align: center;"">+</p>","null","fixation","","","","","","","","","","","","","","","","","","","","","","","","",""
"","","","","","html-slider-response","85","892752","0.0-17.0-0.23","485281f9-3957-47f4-bf4a-97d497934f97","1000","
                  <p style=""text-align: center;"">₪36
                                                <br>75%</p>
                  <p id=""wtp"" style=""text-align:center; margin-top: 0px; margin-bottom: 0px; font-size: 40px"";>&ensp;</p>","-","viewing","0","14","4B,5A,13B,16B","","","","","","","","","","","","","","","","","","","","","",""
"","","","","","html-slider-response","86","895159","0.0-17.0-1.23","485281f9-3957-47f4-bf4a-97d497934f97","2406","
                  <p style=""text-align: center;"">₪36
                                                <br>75%</p>
                  <p id=""wtp"" style=""text-align:center; margin-top: 0px; margin-bottom: 0px; font-size: 40px"";>מוכנים לשלם: <span id=""c_p_y""></span></p>","28","evaluation","9","14","4B,5A,13B,16B","75","36","28","","","","","","","","","","","","","","","","","","",""
"","","","","","html-keyboard-response","87","896437","0.0-17.0-2.23","485281f9-3957-47f4-bf4a-97d497934f97","null","<p style=""text-align: center;"">+</p>","null","fixation","","","","","","","","","","","","","","","","","","","","","","","","",""
"","","","","","html-slider-response","88","897439","0.0-17.0-0.24","485281f9-3957-47f4-bf4a-97d497934f97","1000","
                  <p style=""text-align: center;"">₪71
                                                <br>75%</p>
                  <p id=""wtp"" style=""text-align:center; margin-top: 0px; margin-bottom: 0px; font-size: 40px"";>&ensp;</p>","-","viewing","0","28","8B","","","","","","","","","","","","","","","","","","","","","",""
"","","","","","html-slider-response","89","899351","0.0-17.0-1.24","485281f9-3957-47f4-bf4a-97d497934f97","1911","
                  <p style=""text-align: center;"">₪71
                                                <br>75%</p>
                  <p id=""wtp"" style=""text-align:center; margin-top: 0px; margin-bottom: 0px; font-size: 40px"";>מוכנים לשלם: <span id=""c_p_y""></span></p>","50","evaluation","67","28","8B","75","71","50","","","","","","","","","","","","","","","","","","",""
"","","","","","html-keyboard-response","90","900704","0.0-17.0-2.24","485281f9-3957-47f4-bf4a-97d497934f97","null","<p style=""text-align: center;"">+</p>","null","fixation","","","","","","","","","","","","","","","","","","","","","","","","",""
"","","","","","html-slider-response","91","901715","0.0-17.0-0.25","485281f9-3957-47f4-bf4a-97d497934f97","1000","
                  <p style=""text-align: center;"">₪39
                                                <br>65%</p>
                  <p id=""wtp"" style=""text-align:center; margin-top: 0px; margin-bottom: 0px; font-size: 40px"";>&ensp;</p>","-","viewing","0","16","1A,15A,26C","","","","","","","","","","","","","","","","","","","","","",""
"","","","","","html-slider-response","92","904903","0.0-17.0-1.25","485281f9-3957-47f4-bf4a-97d497934f97","3186","
                  <p style=""text-align: center;"">₪39
                                                <br>65%</p>
                  <p id=""wtp"" style=""text-align:center; margin-top: 0px; margin-bottom: 0px; font-size: 40px"";>מוכנים לשלם: <span id=""c_p_y""></span></p>","39","evaluation","37","16","1A,15A,26C","65","39","39","","","","","","","","","","","","","","","","","","",""
"","","","","","html-keyboard-response","93","906088","0.0-17.0-2.25","485281f9-3957-47f4-bf4a-97d497934f97","null","<p style=""text-align: center;"">+</p>","null","fixation","","","","","","","","","","","","","","","","","","","","","","","","",""
"","","","","","html-slider-response","94","907100","0.0-17.0-0.26","485281f9-3957-47f4-bf4a-97d497934f97","1000","
                  <p style=""text-align: center;"">₪4
                                                <br>25%</p>
                  <p id=""wtp"" style=""text-align:center; margin-top: 0px; margin-bottom: 0px; font-size: 40px"";>&ensp;</p>","-","viewing","0","1","6C,29B,30C","","","","","","","","","","","","","","","","","","","","","",""
"","","","","","html-slider-response","95","908167","0.0-17.0-1.26","485281f9-3957-47f4-bf4a-97d497934f97","1066","
                  <p style=""text-align: center;"">₪4
                                                <br>25%</p>
                  <p id=""wtp"" style=""text-align:center; margin-top: 0px; margin-bottom: 0px; font-size: 40px"";>מוכנים לשלם: <span id=""c_p_y""></span></p>","0","evaluation","63","1","6C,29B,30C","25","4","0","","","","","","","","","","","","","","","","","","",""
"","","","","","html-keyboard-response","96","908937","0.0-17.0-2.26","485281f9-3957-47f4-bf4a-97d497934f97","null","<p style=""text-align: center;"">+</p>","null","fixation","","","","","","","","","","","","","","","","","","","","","","","","",""
"","","","","","html-slider-response","97","909952","0.0-17.0-0.27","485281f9-3957-47f4-bf4a-97d497934f97","1000","
                  <p style=""text-align: center;"">₪18
                                                <br>25%</p>
                  <p id=""wtp"" style=""text-align:center; margin-top: 0px; margin-bottom: 0px; font-size: 40px"";>&ensp;</p>","-","viewing","0","9","14A,23A","","","","","","","","","","","","","","","","","","","","","",""
"","","","","","html-slider-response","98","913479","0.0-17.0-1.27","485281f9-3957-47f4-bf4a-97d497934f97","3526","
                  <p style=""text-align: center;"">₪18
                                                <br>25%</p>
                  <p id=""wtp"" style=""text-align:center; margin-top: 0px; margin-bottom: 0px; font-size: 40px"";>מוכנים לשלם: <span id=""c_p_y""></span></p>","2","evaluation","13","9","14A,23A","25","18","2","","","","","","","","","","","","","","","","","","",""
"","","","","","html-keyboard-response","99","914334","0.0-17.0-2.27","485281f9-3957-47f4-bf4a-97d497934f97","null","<p style=""text-align: center;"">+</p>","null","fixation","","","","","","","","","","","","","","","","","","","","","","","","",""
"","","","","","html-slider-response","100","915341","0.0-17.0-0.28","485281f9-3957-47f4-bf4a-97d497934f97","1000","
                  <p style=""text-align: center;"">₪61
                                                <br>55%</p>
                  <p id=""wtp"" style=""text-align:center; margin-top: 0px; margin-bottom: 0px; font-size: 40px"";>&ensp;</p>","-","viewing","0","23","7B,26B","","","","","","","","","","","","","","","","","","","","","",""
"","","","","","html-slider-response","101","916935","0.0-17.0-1.28","485281f9-3957-47f4-bf4a-97d497934f97","1593","
                  <p style=""text-align: center;"">₪61
                                                <br>55%</p>
                  <p id=""wtp"" style=""text-align:center; margin-top: 0px; margin-bottom: 0px; font-size: 40px"";>מוכנים לשלם: <span id=""c_p_y""></span></p>","31","evaluation","60","23","7B,26B","55","61","31","","","","","","","","","","","","","","","","","","",""
"","","","","","html-keyboard-response","102","917678","0.0-17.0-2.28","485281f9-3957-47f4-bf4a-97d497934f97","null","<p style=""text-align: center;"">+</p>","null","fixation","","","","","","","","","","","","","","","","","","","","","","","","",""
"","","","","","html-slider-response","103","918691","0.0-17.0-0.29","485281f9-3957-47f4-bf4a-97d497934f97","1000","
                  <p style=""text-align: center;"">₪4
                                                <br>50%</p>
                  <p id=""wtp"" style=""text-align:center; margin-top: 0px; margin-bottom: 0px; font-size: 40px"";>&ensp;</p>","-","viewing","0","2","4C,17B","","","","","","","","","","","","","","","","","","","","","",""
"","","","","","html-slider-response","104","921343","0.0-17.0-1.29","485281f9-3957-47f4-bf4a-97d497934f97","2651","
                  <p style=""text-align: center;"">₪4
                                                <br>50%</p>
                  <p id=""wtp"" style=""text-align:center; margin-top: 0px; margin-bottom: 0px; font-size: 40px"";>מוכנים לשלם: <span id=""c_p_y""></span></p>","3","evaluation","21","2","4C,17B","50","4","4","","","","","","","","","","","","","","","","","","",""
"","","","","","html-keyboard-response","105","922122","0.0-17.0-2.29","485281f9-3957-47f4-bf4a-97d497934f97","null","<p style=""text-align: center;"">+</p>","null","fixation","","","","","","","","","","","","","","","","","","","","","","","","",""
"","","","","","html-slider-response","106","923128","0.0-17.0-0.30","485281f9-3957-47f4-bf4a-97d497934f97","1000","
                  <p style=""text-align: center;"">₪11
                                                <br>45%</p>
                  <p id=""wtp"" style=""text-align:center; margin-top: 0px; margin-bottom: 0px; font-size: 40px"";>&ensp;</p>","-","viewing","0","6","14B,21C,25C","","","","","","","","","","","","","","","","","","","","","",""
"","","","","","html-slider-response","107","926127","0.0-17.0-1.30","485281f9-3957-47f4-bf4a-97d497934f97","2998","
                  <p style=""text-align: center;"">₪11
                                                <br>45%</p>
                  <p id=""wtp"" style=""text-align:center; margin-top: 0px; margin-bottom: 0px; font-size: 40px"";>מוכנים לשלם: <span id=""c_p_y""></span></p>","6","evaluation","50","6","14B,21C,25C","45","11","7","","","","","","","","","","","","","","","","","","",""
"","","","","","html-keyboard-response","108","927230","0.0-17.0-2.30","485281f9-3957-47f4-bf4a-97d497934f97","null","<p style=""text-align: center;"">+</p>","null","fixation","","","","","","","","","","","","","","","","","","","","","","","","",""
"","","","","","html-keyboard-response","109","928238","0.0-18.0","485281f9-3957-47f4-bf4a-97d497934f97","null","<p style=""text-align: center;"">+</p>","null","fixation","","","","","","","","","","","","","","","","","","","","","","","","",""
"","","","","","html-keyboard-response","110","931015","0.0-19.0","485281f9-3957-47f4-bf4a-97d497934f97","null","<p>הפסקה.
          <br>לחצו כדי להמשיך.</p>","1","scan_wait","","","","","","","","","","","","","","","","","","","","","","","","",""
"","","","","","html-keyboard-response","111","932025","0.0-20.0","485281f9-3957-47f4-bf4a-97d497934f97","null","<p style=""text-align: center;"">+</p>","null","fixation","","","","","","","","","","","","","","","","","","","","","","","","",""
"","","","","","html-slider-response","112","933026","0.0-21.0-0.0","485281f9-3957-47f4-bf4a-97d497934f97","1000","
                  <p style=""text-align: center;"">₪4
                                                <br>75%</p>
                  <p id=""wtp"" style=""text-align:center; margin-top: 0px; margin-bottom: 0px; font-size: 40px"";>&ensp;</p>","-","viewing","0","3","12B,20B,23B,27C,29C","","","","","","","","","","","","","","","","","","","","","",""
"","","","","","html-slider-response","113","937029","0.0-21.0-1.0","485281f9-3957-47f4-bf4a-97d497934f97","null","
                  <p style=""text-align: center;"">₪4
                                                <br>75%</p>
                  <p id=""wtp"" style=""text-align:center; margin-top: 0px; margin-bottom: 0px; font-size: 40px"";>מוכנים לשלם: <span id=""c_p_y""></span></p>","null","evaluation","60","3","12B,20B,23B,27C,29C","75","4","17","","","","","","","","","","","","","","","","","","",""
"","","","","","html-keyboard-response","114","938468","0.0-21.0-2.0","485281f9-3957-47f4-bf4a-97d497934f97","null","<p style=""text-align: center;"">+</p>","null","fixation","","","","","","","","","","","","","","","","","","","","","","","","",""
"","","","","","html-slider-response","115","939483","0.0-21.0-0.1","485281f9-3957-47f4-bf4a-97d497934f97","1000","
                  <p style=""text-align: center;"">₪79
                                                <br>40%</p>
                  <p id=""wtp"" style=""text-align:center; margin-top: 0px; margin-bottom: 0px; font-size: 40px"";>&ensp;</p>","-","viewing","0","30","9B","","","","","","","","","","","","","","","","","","","","","",""
"","","","","","html-slider-response","116","941807","0.0-21.0-1.1","485281f9-3957-47f4-bf4a-97d497934f97","2323","
                  <p style=""text-align: center;"">₪79
                                                <br>40%</p>
                  <p id=""wtp"" style=""text-align:center; margin-top: 0px; margin-bottom: 0px; font-size: 40px"";>מוכנים לשלם: <span id=""c_p_y""></span></p>","10","evaluation","21","30","9B","40","79","10","","","","","","","","","","","","","","","","","","",""
"","","","","","html-keyboard-response","117","943303","0.0-21.0-2.1","485281f9-3957-47f4-bf4a-97d497934f97","null","<p style=""text-align: center;"">+</p>","null","fixation","","","","","","","","","","","","","","","","","","","","","","","","",""
"","","","","","html-slider-response","118","944320","0.0-21.0-0.2","485281f9-3957-47f4-bf4a-97d497934f97","1000","
                  <p style=""text-align: center;"">₪43
                                                <br>60%</p>
                  <p id=""wtp"" style=""text-align:center; margin-top: 0px; margin-bottom: 0px; font-size: 40px"";>&ensp;</p>","-","viewing","0","17","2A,7A,9A,15B","","","","","","","","","","","","","","","","","","","","","",""
"","","","","","html-slider-response","119","946535","0.0-21.0-1.2","485281f9-3957-47f4-bf4a-97d497934f97","2214","
                  <p style=""text-align: center;"">₪43
                                                <br>60%</p>
                  <p id=""wtp"" style=""text-align:center; margin-top: 0px; margin-bottom: 0px; font-size: 40px"";>מוכנים לשלם: <span id=""c_p_y""></span></p>","35","evaluation","38","17","2A,7A,9A,15B","60","43","35","","","","","","","","","","","","","","","","","","",""
"","","","","","html-keyboard-response","120","947642","0.0-21.0-2.2","485281f9-3957-47f4-bf4a-97d497934f97","null","<p style=""text-align: center;"">+</p>","null","fixation","","","","","","","","","","","","","","","","","","","","","","","","",""
"","","","","","html-slider-response","121","948653","0.0-21.0-0.3","485281f9-3957-47f4-bf4a-97d497934f97","1000","
                  <p style=""text-align: center;"">₪64
                                                <br>25%</p>
                  <p id=""wtp"" style=""text-align:center; margin-top: 0px; margin-bottom: 0px; font-size: 40px"";>&ensp;</p>","-","viewing","0","24","6A,21A","","","","","","","","","","","","","","","","","","","","","",""
"","","","","","html-slider-response","122","950431","0.0-21.0-1.3","485281f9-3957-47f4-bf4a-97d497934f97","1777","
                  <p style=""text-align: center;"">₪64
                                                <br>25%</p>
                  <p id=""wtp"" style=""text-align:center; margin-top: 0px; margin-bottom: 0px; font-size: 40px"";>מוכנים לשלם: <span id=""c_p_y""></span></p>","10","evaluation","68","24","6A,21A","25","64","10","","","","","","","","","","","","","","","","","","",""
"","","","","","html-keyboard-response","123","951013","0.0-21.0-2.3","485281f9-3957-47f4-bf4a-97d497934f97","null","<p style=""text-align: center;"">+</p>","null","fixation","","","","","","","","","","","","","","","","","","","","","","","","",""
"","","","","","html-slider-response","124","952027","0.0-21.0-0.4","485281f9-3957-47f4-bf4a-97d497934f97","1000","
                  <p style=""text-align: center;"">₪61
                                                <br>45%</p>
                  <p id=""wtp"" style=""text-align:center; margin-top: 0px; margin-bottom: 0px; font-size: 40px"";>&ensp;</p>","-","viewing","0","22","10A,11A","","","","","","","","","","","","","","","","","","","","","",""
"","","","","","html-slider-response","125","953439","0.0-21.0-1.4","485281f9-3957-47f4-bf4a-97d497934f97","1411","
                  <p style=""text-align: center;"">₪61
                                                <br>45%</p>
                  <p id=""wtp"" style=""text-align:center; margin-top: 0px; margin-bottom: 0px; font-size: 40px"";>מוכנים לשלם: <span id=""c_p_y""></span></p>","19","evaluation","16","22","10A,11A","45","61","19","","","","","","","","","","","","","","","","","","",""
"","","","","","html-keyboard-response","126","954072","0.0-21.0-2.4","485281f9-3957-47f4-bf4a-97d497934f97","null","<p style=""text-align: center;"">+</p>","null","fixation","","","","","","","","","","","","","","","","","","","","","","","","",""
"","","","","","html-slider-response","127","955074","0.0-21.0-0.5","485281f9-3957-47f4-bf4a-97d497934f97","1000","
                  <p style=""text-align: center;"">₪11
                                                <br>45%</p>
                  <p id=""wtp"" style=""text-align:center; margin-top: 0px; margin-bottom: 0px; font-size: 40px"";>&ensp;</p>","-","viewing","0","6","14B,21C,25C","","","","","","","","","","","","","","","","","","","","","",""
"","","","","","html-slider-response","128","957063","0.0-21.0-1.5","485281f9-3957-47f4-bf4a-97d497934f97","1988","
                  <p style=""text-align: center;"">₪11
                                                <br>45%</p>
                  <p id=""wtp"" style=""text-align:center; margin-top: 0px; margin-bottom: 0px; font-size: 40px"";>מוכנים לשלם: <span id=""c_p_y""></span></p>","4","evaluation","65","6","14B,21C,25C","45","11","4","","","","","","","","","","","","","","","","","","",""
"","","","","","html-keyboard-response","129","957825","0.0-21.0-2.5","485281f9-3957-47f4-bf4a-97d497934f97","null","<p style=""text-align: center;"">+</p>","null","fixation","","","","","","","","","","","","","","","","","","","","","","","","",""
"","","","","","html-slider-response","130","958837","0.0-21.0-0.6","485281f9-3957-47f4-bf4a-97d497934f97","1000","
                  <p style=""text-align: center;"">₪36
                                                <br>70%</p>
                  <p id=""wtp"" style=""text-align:center; margin-top: 0px; margin-bottom: 0px; font-size: 40px"";>&ensp;</p>","-","viewing","0","13","3A,5C,10B","","","","","","","","","","","","","","","","","","","","","",""
"","","","","","html-slider-response","131","961734","0.0-21.0-1.6","485281f9-3957-47f4-bf4a-97d497934f97","2896","
                  <p style=""text-align: center;"">₪36
                                                <br>70%</p>
                  <p id=""wtp"" style=""text-align:center; margin-top: 0px; margin-bottom: 0px; font-size: 40px"";>מוכנים לשלם: <span id=""c_p_y""></span></p>","36","evaluation","60","13","3A,5C,10B","70","36","36","","","","","","","","","","","","","","","","","","",""
"","","","","","html-keyboard-response","132","962599","0.0-21.0-2.6","485281f9-3957-47f4-bf4a-97d497934f97","null","<p style=""text-align: center;"">+</p>","null","fixation","","","","","","","","","","","","","","","","","","","","","","","","",""
"","","","","","html-slider-response","133","963606","0.0-21.0-0.7","485281f9-3957-47f4-bf4a-97d497934f97","1000","
                  <p style=""text-align: center;"">₪61
                                                <br>55%</p>
                  <p id=""wtp"" style=""text-align:center; margin-top: 0px; margin-bottom: 0px; font-size: 40px"";>&ensp;</p>","-","viewing","0","23","7B,26B","","","","","","","","","","","","","","","","","","","","","",""
"","","","","","html-slider-response","134","967455","0.0-21.0-1.7","485281f9-3957-47f4-bf4a-97d497934f97","3847","
                  <p style=""text-align: center;"">₪61
                                                <br>55%</p>
                  <p id=""wtp"" style=""text-align:center; margin-top: 0px; margin-bottom: 0px; font-size: 40px"";>מוכנים לשלם: <span id=""c_p_y""></span></p>","33","evaluation","57","23","7B,26B","55","61","33","","","","","","","","","","","","","","","","","","",""
"","","","","","html-keyboard-response","135","968633","0.0-21.0-2.7","485281f9-3957-47f4-bf4a-97d497934f97","null","<p style=""text-align: center;"">+</p>","null","fixation","","","","","","","","","","","","","","","","","","","","","","","","",""
"","","","","","html-slider-response","136","969642","0.0-21.0-0.8","485281f9-3957-47f4-bf4a-97d497934f97","1000","
                  <p style=""text-align: center;"">₪71
                                                <br>75%</p>
                  <p id=""wtp"" style=""text-align:center; margin-top: 0px; margin-bottom: 0px; font-size: 40px"";>&ensp;</p>","-","viewing","0","28","8B","","","","","","","","","","","","","","","","","","","","","",""
"","","","","","html-slider-response","137","971230","0.0-21.0-1.8","485281f9-3957-47f4-bf4a-97d497934f97","1588","
                  <p style=""text-align: center;"">₪71
                                                <br>75%</p>
                  <p id=""wtp"" style=""text-align:center; margin-top: 0px; margin-bottom: 0px; font-size: 40px"";>מוכנים לשלם: <span id=""c_p_y""></span></p>","59","evaluation","9","28","8B","75","71","59","","","","","","","","","","","","","","","","","","",""
"","","","","","html-keyboard-response","138","972120","0.0-21.0-2.8","485281f9-3957-47f4-bf4a-97d497934f97","null","<p style=""text-align: center;"">+</p>","null","fixation","","","","","","","","","","","","","","","","","","","","","","","","",""
"","","","","","html-slider-response","139","973125","0.0-21.0-0.9","485281f9-3957-47f4-bf4a-97d497934f97","1000","
                  <p style=""text-align: center;"">₪11
                                                <br>75%</p>
                  <p id=""wtp"" style=""text-align:center; margin-top: 0px; margin-bottom: 0px; font-size: 40px"";>&ensp;</p>","-","viewing","0","7","6B,18B,22C,24C,29A","","","","","","","","","","","","","","","","","","","","","",""
"","","","","","html-slider-response","140","976247","0.0-21.0-1.9","485281f9-3957-47f4-bf4a-97d497934f97","3120","
                  <p style=""text-align: center;"">₪11
                                                <br>75%</p>
                  <p id=""wtp"" style=""text-align:center; margin-top: 0px; margin-bottom: 0px; font-size: 40px"";>מוכנים לשלם: <span id=""c_p_y""></span></p>","12","evaluation","9","7","6B,18B,22C,24C,29A","75","11","13","","","","","","","","","","","","","","","","","","",""
"","","","","","html-keyboard-response","141","977160","0.0-21.0-2.9","485281f9-3957-47f4-bf4a-97d497934f97","null","<p style=""text-align: center;"">+</p>","null","fixation","","","","","","","","","","","","","","","","","","","","","","","","",""
"","","","","","html-slider-response","142","978163","0.0-21.0-0.10","485281f9-3957-47f4-bf4a-97d497934f97","1000","
                  <p style=""text-align: center;"">₪18
                                                <br>50%</p>
                  <p id=""wtp"" style=""text-align:center; margin-top: 0px; margin-bottom: 0px; font-size: 40px"";>&ensp;</p>","-","viewing","0","10","2C,16C,22B,28A","","","","","","","","","","","","","","","","","","","","","",""
"","","","","","html-slider-response","143","979839","0.0-21.0-1.10","485281f9-3957-47f4-bf4a-97d497934f97","1675","
                  <p style=""text-align: center;"">₪18
                                                <br>50%</p>
                  <p id=""wtp"" style=""text-align:center; margin-top: 0px; margin-bottom: 0px; font-size: 40px"";>מוכנים לשלם: <span id=""c_p_y""></span></p>","17","evaluation","34","10","2C,16C,22B,28A","50","18","17","","","","","","","","","","","","","","","","","","",""
"","","","","","html-keyboard-response","144","981321","0.0-21.0-2.10","485281f9-3957-47f4-bf4a-97d497934f97","null","<p style=""text-align: center;"">+</p>","null","fixation","","","","","","","","","","","","","","","","","","","","","","","","",""
"","","","","","html-slider-response","145","982322","0.0-21.0-0.11","485281f9-3957-47f4-bf4a-97d497934f97","1000","
                  <p style=""text-align: center;"">₪11
                                                <br>20%</p>
                  <p id=""wtp"" style=""text-align:center; margin-top: 0px; margin-bottom: 0px; font-size: 40px"";>&ensp;</p>","-","viewing","0","4","12C,17C,23C,28C","","","","","","","","","","","","","","","","","","","","","",""
"","","","","","html-slider-response","146","983895","0.0-21.0-1.11","485281f9-3957-47f4-bf4a-97d497934f97","1572","
                  <p style=""text-align: center;"">₪11
                                                <br>20%</p>
                  <p id=""wtp"" style=""text-align:center; margin-top: 0px; margin-bottom: 0px; font-size: 40px"";>מוכנים לשלם: <span id=""c_p_y""></span></p>","3","evaluation","16","4","12C,17C,23C,28C","20","11","4","","","","","","","","","","","","","","","","","","",""
"","","","","","html-keyboard-response","147","984817","0.0-21.0-2.11","485281f9-3957-47f4-bf4a-97d497934f97","null","<p style=""text-align: center;"">+</p>","null","fixation","","","","","","","","","","","","","","","","","","","","","","","","",""
"","","","","","html-slider-response","148","985827","0.0-21.0-0.12","485281f9-3957-47f4-bf4a-97d497934f97","1000","
                  <p style=""text-align: center;"">₪11
                                                <br>25%</p>
                  <p id=""wtp"" style=""text-align:center; margin-top: 0px; margin-bottom: 0px; font-size: 40px"";>&ensp;</p>","-","viewing","0","5","12A,27B,28B,30B","","","","","","","","","","","","","","","","","","","","","",""
"","","","","","html-slider-response","149","987215","0.0-21.0-1.12","485281f9-3957-47f4-bf4a-97d497934f97","1386","
                  <p style=""text-align: center;"">₪11
                                                <br>25%</p>
                  <p id=""wtp"" style=""text-align:center; margin-top: 0px; margin-bottom: 0px; font-size: 40px"";>מוכנים לשלם: <span id=""c_p_y""></span></p>","5","evaluation","61","5","12A,27B,28B,30B","25","11","5","","","","","","","","","","","","","","","","","","",""
"","","","","","html-keyboard-response","150","987732","0.0-21.0-2.12","485281f9-3957-47f4-bf4a-97d497934f97","null","<p style=""text-align: center;"">+</p>","null","fixation","","","","","","","","","","","","","","","","","","","","","","","","",""
"","","","","","html-slider-response","151","988748","0.0-21.0-0.13","485281f9-3957-47f4-bf4a-97d497934f97","1000","
                  <p style=""text-align: center;"">₪36
                                                <br>75%</p>
                  <p id=""wtp"" style=""text-align:center; margin-top: 0px; margin-bottom: 0px; font-size: 40px"";>&ensp;</p>","-","viewing","0","14","4B,5A,13B,16B","","","","","","","","","","","","","","","","","","","","","",""
"","","","","","html-slider-response","152","992758","0.0-21.0-1.13","485281f9-3957-47f4-bf4a-97d497934f97","null","
                  <p style=""text-align: center;"">₪36
                                                <br>75%</p>
                  <p id=""wtp"" style=""text-align:center; margin-top: 0px; margin-bottom: 0px; font-size: 40px"";>מוכנים לשלם: <span id=""c_p_y""></span></p>","null","evaluation","79","14","4B,5A,13B,16B","75","36","37","","","","","","","","","","","","","","","","","","",""
"","","","","","html-keyboard-response","153","993664","0.0-21.0-2.13","485281f9-3957-47f4-bf4a-97d497934f97","null","<p style=""text-align: center;"">+</p>","null","fixation","","","","","","","","","","","","","","","","","","","","","","","","",""
"","","","","","html-slider-response","154","994666","0.0-21.0-0.14","485281f9-3957-47f4-bf4a-97d497934f97","1000","
                  <p style=""text-align: center;"">₪4
                                                <br>50%</p>
                  <p id=""wtp"" style=""text-align:center; margin-top: 0px; margin-bottom: 0px; font-size: 40px"";>&ensp;</p>","-","viewing","0","2","4C,17B","","","","","","","","","","","","","","","","","","","","","",""
"","","","","","html-slider-response","155","996919","0.0-21.0-1.14","485281f9-3957-47f4-bf4a-97d497934f97","2252","
                  <p style=""text-align: center;"">₪4
                                                <br>50%</p>
                  <p id=""wtp"" style=""text-align:center; margin-top: 0px; margin-bottom: 0px; font-size: 40px"";>מוכנים לשלם: <span id=""c_p_y""></span></p>","0","evaluation","1","2","4C,17B","50","4","1","","","","","","","","","","","","","","","","","","",""
"","","","","","html-keyboard-response","156","998238","0.0-21.0-2.14","485281f9-3957-47f4-bf4a-97d497934f97","null","<p style=""text-align: center;"">+</p>","null","fixation","","","","","","","","","","","","","","","","","","","","","","","","",""
"","","","","","html-slider-response","157","999242","0.0-21.0-0.15","485281f9-3957-47f4-bf4a-97d497934f97","1000","
                  <p style=""text-align: center;"">₪43
                                                <br>75%</p>
                  <p id=""wtp"" style=""text-align:center; margin-top: 0px; margin-bottom: 0px; font-size: 40px"";>&ensp;</p>","-","viewing","0","18","11B,19B,24A,26A","","","","","","","","","","","","","","","","","","","","","",""
"","","","","","html-slider-response","158","1002103","0.0-21.0-1.15","485281f9-3957-47f4-bf4a-97d497934f97","2859","
                  <p style=""text-align: center;"">₪43
                                                <br>75%</p>
                  <p id=""wtp"" style=""text-align:center; margin-top: 0px; margin-bottom: 0px; font-size: 40px"";>מוכנים לשלם: <span id=""c_p_y""></span></p>","44","evaluation","63","18","11B,19B,24A,26A","75","43","44","","","","","","","","","","","","","","","","","","",""
"","","","","","html-keyboard-response","159","1003447","0.0-21.0-2.15","485281f9-3957-47f4-bf4a-97d497934f97","null","<p style=""text-align: center;"">+</p>","null","fixation","","","","","","","","","","","","","","","","","","","","","","","","",""
"","","","","","html-slider-response","160","1004457","0.0-21.0-0.16","485281f9-3957-47f4-bf4a-97d497934f97","1000","
                  <p style=""text-align: center;"">₪36
                                                <br>60%</p>
                  <p id=""wtp"" style=""text-align:center; margin-top: 0px; margin-bottom: 0px; font-size: 40px"";>&ensp;</p>","-","viewing","0","12","1C,7C,15C","","","","","","","","","","","","","","","","","","","","","",""
"","","","","","html-slider-response","161","1007662","0.0-21.0-1.16","485281f9-3957-47f4-bf4a-97d497934f97","3204","
                  <p style=""text-align: center;"">₪36
                                                <br>60%</p>
                  <p id=""wtp"" style=""text-align:center; margin-top: 0px; margin-bottom: 0px; font-size: 40px"";>מוכנים לשלם: <span id=""c_p_y""></span></p>","33","evaluation","74","12","1C,7C,15C","60","36","33","","","","","","","","","","","","","","","","","","",""
"","","","","","html-keyboard-response","162","1008261","0.0-21.0-2.16","485281f9-3957-47f4-bf4a-97d497934f97","null","<p style=""text-align: center;"">+</p>","null","fixation","","","","","","","","","","","","","","","","","","","","","","","","",""
"","","","","","html-slider-response","163","1009268","0.0-21.0-0.17","485281f9-3957-47f4-bf4a-97d497934f97","1000","
                  <p style=""text-align: center;"">₪71
                                                <br>55%</p>
                  <p id=""wtp"" style=""text-align:center; margin-top: 0px; margin-bottom: 0px; font-size: 40px"";>&ensp;</p>","-","viewing","0","27","5B,18A","","","","","","","","","","","","","","","","","","","","","",""
"","","","","","html-slider-response","164","1012047","0.0-21.0-1.17","485281f9-3957-47f4-bf4a-97d497934f97","2777","
                  <p style=""text-align: center;"">₪71
                                                <br>55%</p>
                  <p id=""wtp"" style=""text-align:center; margin-top: 0px; margin-bottom: 0px; font-size: 40px"";>מוכנים לשלם: <span id=""c_p_y""></span></p>","30","evaluation","39","27","5B,18A","55","71","30","","","","","","","","","","","","","","","","","","",""
"","","","","","html-keyboard-response","165","1013462","0.0-21.0-2.17","485281f9-3957-47f4-bf4a-97d497934f97","null","<p style=""text-align: center;"">+</p>","null","fixation","","","","","","","","","","","","","","","","","","","","","","","","",""
"","","","","","html-slider-response","166","1014473","0.0-21.0-0.18","485281f9-3957-47f4-bf4a-97d497934f97","1000","
                  <p style=""text-align: center;"">₪76
                                                <br>65%</p>
                  <p id=""wtp"" style=""text-align:center; margin-top: 0px; margin-bottom: 0px; font-size: 40px"";>&ensp;</p>","-","viewing","0","29","8C,19A,24B","","","","","","","","","","","","","","","","","","","","","",""
"","","","","","html-slider-response","167","1016711","0.0-21.0-1.18","485281f9-3957-47f4-bf4a-97d497934f97","2236","
                  <p style=""text-align: center;"">₪76
                                                <br>65%</p>
                  <p id=""wtp"" style=""text-align:center; margin-top: 0px; margin-bottom: 0px; font-size: 40px"";>מוכנים לשלם: <span id=""c_p_y""></span></p>","34","evaluation","29","29","8C,19A,24B","65","76","34","","","","","","","","","","","","","","","","","","",""
"","","","","","html-keyboard-response","168","1017977","0.0-21.0-2.18","485281f9-3957-47f4-bf4a-97d497934f97","null","<p style=""text-align: center;"">+</p>","null","fixation","","","","","","","","","","","","","","","","","","","","","","","","",""
"","","","","","html-slider-response","169","1018979","0.0-21.0-0.19","485281f9-3957-47f4-bf4a-97d497934f97","1000","
                  <p style=""text-align: center;"">₪4
                                                <br>25%</p>
                  <p id=""wtp"" style=""text-align:center; margin-top: 0px; margin-bottom: 0px; font-size: 40px"";>&ensp;</p>","-","viewing","0","1","6C,29B,30C","","","","","","","","","","","","","","","","","","","","","",""
"","","","","","html-slider-response","170","1020743","0.0-21.0-1.19","485281f9-3957-47f4-bf4a-97d497934f97","1762","
                  <p style=""text-align: center;"">₪4
                                                <br>25%</p>
                  <p id=""wtp"" style=""text-align:center; margin-top: 0px; margin-bottom: 0px; font-size: 40px"";>מוכנים לשלם: <span id=""c_p_y""></span></p>","1","evaluation","70","1","6C,29B,30C","25","4","2","","","","","","","","","","","","","","","","","","",""
"","","","","","html-keyboard-response","171","1021378","0.0-21.0-2.19","485281f9-3957-47f4-bf4a-97d497934f97","null","<p style=""text-align: center;"">+</p>","null","fixation","","","","","","","","","","","","","","","","","","","","","","","","",""
"","","","","","html-slider-response","172","1022382","0.0-21.0-0.20","485281f9-3957-47f4-bf4a-97d497934f97","1000","
                  <p style=""text-align: center;"">₪39
                                                <br>60%</p>
                  <p id=""wtp"" style=""text-align:center; margin-top: 0px; margin-bottom: 0px; font-size: 40px"";>&ensp;</p>","-","viewing","0","15","9C,25B","","","","","","","","","","","","","","","","","","","","","",""
"","","","","","html-slider-response","173","1024214","0.0-21.0-1.20","485281f9-3957-47f4-bf4a-97d497934f97","1832","
                  <p style=""text-align: center;"">₪39
                                                <br>60%</p>
                  <p id=""wtp"" style=""text-align:center; margin-top: 0px; margin-bottom: 0px; font-size: 40px"";>מוכנים לשלם: <span id=""c_p_y""></span></p>","30","evaluation","12","15","9C,25B","60","39","30","","","","","","","","","","","","","","","","","","",""
"","","","","","html-keyboard-response","174","1025665","0.0-21.0-2.20","485281f9-3957-47f4-bf4a-97d497934f97","null","<p style=""text-align: center;"">+</p>","null","fixation","","","","","","","","","","","","","","","","","","","","","","","","",""
"","","","","","html-slider-response","175","1026681","0.0-21.0-0.21","485281f9-3957-47f4-bf4a-97d497934f97","1000","
                  <p style=""text-align: center;"">₪16
                                                <br>20%</p>
                  <p id=""wtp"" style=""text-align:center; margin-top: 0px; margin-bottom: 0px; font-size: 40px"";>&ensp;</p>","-","viewing","0","8","14C,17A,20C,27A","","","","","","","","","","","","","","","","","","","","","",""
"","","","","","html-slider-response","176","1028726","0.0-21.0-1.21","485281f9-3957-47f4-bf4a-97d497934f97","2044","
                  <p style=""text-align: center;"">₪16
                                                <br>20%</p>
                  <p id=""wtp"" style=""text-align:center; margin-top: 0px; margin-bottom: 0px; font-size: 40px"";>מוכנים לשלם: <span id=""c_p_y""></span></p>","2","evaluation","11","8","14C,17A,20C,27A","20","16","2","","","","","","","","","","","","","","","","","","",""
"","","","","","html-keyboard-response","177","1030208","0.0-21.0-2.21","485281f9-3957-47f4-bf4a-97d497934f97","null","<p style=""text-align: center;"">+</p>","null","fixation","","","","","","","","","","","","","","","","","","","","","","","","",""
"","","","","","html-slider-response","178","1031215","0.0-21.0-0.22","485281f9-3957-47f4-bf4a-97d497934f97","1000","
                  <p style=""text-align: center;"">₪58
                                                <br>30%</p>
                  <p id=""wtp"" style=""text-align:center; margin-top: 0px; margin-bottom: 0px; font-size: 40px"";>&ensp;</p>","-","viewing","0","19","13C,30A","","","","","","","","","","","","","","","","","","","","","",""
"","","","","","html-slider-response","179","1033902","0.0-21.0-1.22","485281f9-3957-47f4-bf4a-97d497934f97","2686","
                  <p style=""text-align: center;"">₪58
                                                <br>30%</p>
                  <p id=""wtp"" style=""text-align:center; margin-top: 0px; margin-bottom: 0px; font-size: 40px"";>מוכנים לשלם: <span id=""c_p_y""></span></p>","12","evaluation","20","19","13C,30A","30","58","12","","","","","","","","","","","","","","","","","","",""
"","","","","","html-keyboard-response","180","1034503","0.0-21.0-2.22","485281f9-3957-47f4-bf4a-97d497934f97","null","<p style=""text-align: center;"">+</p>","null","fixation","","","","","","","","","","","","","","","","","","","","","","","","",""
"","","","","","html-slider-response","181","1035521","0.0-21.0-0.23","485281f9-3957-47f4-bf4a-97d497934f97","1000","
                  <p style=""text-align: center;"">₪36
                                                <br>30%</p>
                  <p id=""wtp"" style=""text-align:center; margin-top: 0px; margin-bottom: 0px; font-size: 40px"";>&ensp;</p>","-","viewing","0","11","3C,20A,22A","","","","","","","","","","","","","","","","","","","","","",""
"","","","","","html-slider-response","182","1037166","0.0-21.0-1.23","485281f9-3957-47f4-bf4a-97d497934f97","1645","
                  <p style=""text-align: center;"">₪36
                                                <br>30%</p>
                  <p id=""wtp"" style=""text-align:center; margin-top: 0px; margin-bottom: 0px; font-size: 40px"";>מוכנים לשלם: <span id=""c_p_y""></span></p>","10","evaluation","8","11","3C,20A,22A","30","36","10","","","","","","","","","","","","","","","","","","",""
"","","","","","html-keyboard-response","183","1038394","0.0-21.0-2.23","485281f9-3957-47f4-bf4a-97d497934f97","null","<p style=""text-align: center;"">+</p>","null","fixation","","","","","","","","","","","","","","","","","","","","","","","","",""
"","","","","","html-slider-response","184","1039396","0.0-21.0-0.24","485281f9-3957-47f4-bf4a-97d497934f97","1000","
                  <p style=""text-align: center;"">₪71
                                                <br>45%</p>
                  <p id=""wtp"" style=""text-align:center; margin-top: 0px; margin-bottom: 0px; font-size: 40px"";>&ensp;</p>","-","viewing","0","26","2B,16A","","","","","","","","","","","","","","","","","","","","","",""
"","","","","","html-slider-response","185","1042254","0.0-21.0-1.24","485281f9-3957-47f4-bf4a-97d497934f97","2857","
                  <p style=""text-align: center;"">₪71
                                                <br>45%</p>
                  <p id=""wtp"" style=""text-align:center; margin-top: 0px; margin-bottom: 0px; font-size: 40px"";>מוכנים לשלם: <span id=""c_p_y""></span></p>","15","evaluation","41","26","2B,16A","45","71","15","","","","","","","","","","","","","","","","","","",""
"","","","","","html-keyboard-response","186","1042878","0.0-21.0-2.24","485281f9-3957-47f4-bf4a-97d497934f97","null","<p style=""text-align: center;"">+</p>","null","fixation","","","","","","","","","","","","","","","","","","","","","","","","",""
"","","","","","html-slider-response","187","1043883","0.0-21.0-0.25","485281f9-3957-47f4-bf4a-97d497934f97","1000","
                  <p style=""text-align: center;"">₪58
                                                <br>45%</p>
                  <p id=""wtp"" style=""text-align:center; margin-top: 0px; margin-bottom: 0px; font-size: 40px"";>&ensp;</p>","-","viewing","0","21","11C,18C,25A","","","","","","","","","","","","","","","","","","","","","",""
"","","","","","html-slider-response","188","1047470","0.0-21.0-1.25","485281f9-3957-47f4-bf4a-97d497934f97","3586","
                  <p style=""text-align: center;"">₪58
                                                <br>45%</p>
                  <p id=""wtp"" style=""text-align:center; margin-top: 0px; margin-bottom: 0px; font-size: 40px"";>מוכנים לשלם: <span id=""c_p_y""></span></p>","16","evaluation","30","21","11C,18C,25A","45","58","16","","","","","","","","","","","","","","","","","","",""
"","","","","","html-keyboard-response","189","1048273","0.0-21.0-2.25","485281f9-3957-47f4-bf4a-97d497934f97","null","<p style=""text-align: center;"">+</p>","null","fixation","","","","","","","","","","","","","","","","","","","","","","","","",""
"","","","","","html-slider-response","190","1049281","0.0-21.0-0.26","485281f9-3957-47f4-bf4a-97d497934f97","1000","
                  <p style=""text-align: center;"">₪79
                                                <br>65%</p>
                  <p id=""wtp"" style=""text-align:center; margin-top: 0px; margin-bottom: 0px; font-size: 40px"";>&ensp;</p>","-","viewing","0","31","8A","","","","","","","","","","","","","","","","","","","","","",""
"","","","","","html-slider-response","191","1051910","0.0-21.0-1.26","485281f9-3957-47f4-bf4a-97d497934f97","2628","
                  <p style=""text-align: center;"">₪79
                                                <br>65%</p>
                  <p id=""wtp"" style=""text-align:center; margin-top: 0px; margin-bottom: 0px; font-size: 40px"";>מוכנים לשלם: <span id=""c_p_y""></span></p>","50","evaluation","26","31","8A","65","79","50","","","","","","","","","","","","","","","","","","",""
"","","","","","html-keyboard-response","192","1053324","0.0-21.0-2.26","485281f9-3957-47f4-bf4a-97d497934f97","null","<p style=""text-align: center;"">+</p>","null","fixation","","","","","","","","","","","","","","","","","","","","","","","","",""
"","","","","","html-slider-response","193","1054340","0.0-21.0-0.27","485281f9-3957-47f4-bf4a-97d497934f97","1000","
                  <p style=""text-align: center;"">₪18
                                                <br>25%</p>
                  <p id=""wtp"" style=""text-align:center; margin-top: 0px; margin-bottom: 0px; font-size: 40px"";>&ensp;</p>","-","viewing","0","9","14A,23A","","","","","","","","","","","","","","","","","","","","","",""
"","","","","","html-slider-response","194","1056710","0.0-21.0-1.27","485281f9-3957-47f4-bf4a-97d497934f97","2369","
                  <p style=""text-align: center;"">₪18
                                                <br>25%</p>
                  <p id=""wtp"" style=""text-align:center; margin-top: 0px; margin-bottom: 0px; font-size: 40px"";>מוכנים לשלם: <span id=""c_p_y""></span></p>","3","evaluation","5","9","14A,23A","25","18","4","","","","","","","","","","","","","","","","","","",""
"","","","","","html-keyboard-response","195","1058143","0.0-21.0-2.27","485281f9-3957-47f4-bf4a-97d497934f97","null","<p style=""text-align: center;"">+</p>","null","fixation","","","","","","","","","","","","","","","","","","","","","","","","",""
"","","","","","html-slider-response","196","1059148","0.0-21.0-0.28","485281f9-3957-47f4-bf4a-97d497934f97","1000","
                  <p style=""text-align: center;"">₪58
                                                <br>40%</p>
                  <p id=""wtp"" style=""text-align:center; margin-top: 0px; margin-bottom: 0px; font-size: 40px"";>&ensp;</p>","-","viewing","0","20","10C,13A,19C,21B","","","","","","","","","","","","","","","","","","","","","",""
"","","","","","html-slider-response","197","1060662","0.0-21.0-1.28","485281f9-3957-47f4-bf4a-97d497934f97","1514","
                  <p style=""text-align: center;"">₪58
                                                <br>40%</p>
                  <p id=""wtp"" style=""text-align:center; margin-top: 0px; margin-bottom: 0px; font-size: 40px"";>מוכנים לשלם: <span id=""c_p_y""></span></p>","7","evaluation","46","20","10C,13A,19C,21B","40","58","7","","","","","","","","","","","","","","","","","","",""
"","","","","","html-keyboard-response","198","1061467","0.0-21.0-2.28","485281f9-3957-47f4-bf4a-97d497934f97","null","<p style=""text-align: center;"">+</p>","null","fixation","","","","","","","","","","","","","","","","","","","","","","","","",""
"","","","","","html-slider-response","199","1062472","0.0-21.0-0.29","485281f9-3957-47f4-bf4a-97d497934f97","1000","
                  <p style=""text-align: center;"">₪64
                                                <br>50%</p>
                  <p id=""wtp"" style=""text-align:center; margin-top: 0px; margin-bottom: 0px; font-size: 40px"";>&ensp;</p>","-","viewing","0","25","1B,3B,4A","","","","","","","","","","","","","","","","","","","","","",""
"","","","","","html-slider-response","200","1066489","0.0-21.0-1.29","485281f9-3957-47f4-bf4a-97d497934f97","null","
                  <p style=""text-align: center;"">₪64
                                                <br>50%</p>
                  <p id=""wtp"" style=""text-align:center; margin-top: 0px; margin-bottom: 0px; font-size: 40px"";>מוכנים לשלם: <span id=""c_p_y""></span></p>","null","evaluation","13","25","1B,3B,4A","50","64","29","","","","","","","","","","","","","","","","","","",""
"","","","","","html-keyboard-response","201","1067673","0.0-21.0-2.29","485281f9-3957-47f4-bf4a-97d497934f97","null","<p style=""text-align: center;"">+</p>","null","fixation","","","","","","","","","","","","","","","","","","","","","","","","",""
"","","","","","html-slider-response","202","1068676","0.0-21.0-0.30","485281f9-3957-47f4-bf4a-97d497934f97","1000","
                  <p style=""text-align: center;"">₪39
                                                <br>65%</p>
                  <p id=""wtp"" style=""text-align:center; margin-top: 0px; margin-bottom: 0px; font-size: 40px"";>&ensp;</p>","-","viewing","0","16","1A,15A,26C","","","","","","","","","","","","","","","","","","","","","",""
"","","","","","html-slider-response","203","1070686","0.0-21.0-1.30","485281f9-3957-47f4-bf4a-97d497934f97","2009","
                  <p style=""text-align: center;"">₪39
                                                <br>65%</p>
                  <p id=""wtp"" style=""text-align:center; margin-top: 0px; margin-bottom: 0px; font-size: 40px"";>מוכנים לשלם: <span id=""c_p_y""></span></p>","32","evaluation","78","16","1A,15A,26C","65","39","32","","","","","","","","","","","","","","","","","","",""
"","","","","","html-keyboard-response","204","1072193","0.0-21.0-2.30","485281f9-3957-47f4-bf4a-97d497934f97","null","<p style=""text-align: center;"">+</p>","null","fixation","","","","","","","","","","","","","","","","","","","","","","","","",""
"","","","","","html-keyboard-response","205","1073196","0.0-22.0","485281f9-3957-47f4-bf4a-97d497934f97","null","<p style=""text-align: center;"">+</p>","null","fixation","","","","","","","","","","","","","","","","","","","","","","","","",""
"","","","","","html-keyboard-response","206","1074422","0.0-23.0","485281f9-3957-47f4-bf4a-97d497934f97","null","<p>הפסקה.
          <br>לחצו כדי להמשיך.</p>","1","scan_wait","","","","","","","","","","","","","","","","","","","","","","","","",""
"","","","","","html-keyboard-response","207","1075430","0.0-24.0","485281f9-3957-47f4-bf4a-97d497934f97","null","<p style=""text-align: center;"">+</p>","null","fixation","","","","","","","","","","","","","","","","","","","","","","","","",""
"","","","","","html-slider-response","208","1076433","0.0-25.0-0.0","485281f9-3957-47f4-bf4a-97d497934f97","1000","
                  <p style=""text-align: center;"">₪39
                                                <br>65%</p>
                  <p id=""wtp"" style=""text-align:center; margin-top: 0px; margin-bottom: 0px; font-size: 40px"";>&ensp;</p>","-","viewing","0","16","1A,15A,26C","","","","","","","","","","","","","","","","","","","","","",""
"","","","","","html-slider-response","209","1077902","0.0-25.0-1.0","485281f9-3957-47f4-bf4a-97d497934f97","1469","
                  <p style=""text-align: center;"">₪39
                                                <br>65%</p>
                  <p id=""wtp"" style=""text-align:center; margin-top: 0px; margin-bottom: 0px; font-size: 40px"";>מוכנים לשלם: <span id=""c_p_y""></span></p>","29","evaluation","0","16","1A,15A,26C","65","39","29","","","","","","","","","","","","","","","","","","",""
"","","","","","html-keyboard-response","210","1078999","0.0-25.0-2.0","485281f9-3957-47f4-bf4a-97d497934f97","null","<p style=""text-align: center;"">+</p>","null","fixation","","","","","","","","","","","","","","","","","","","","","","","","",""
"","","","","","html-slider-response","211","1080007","0.0-25.0-0.1","485281f9-3957-47f4-bf4a-97d497934f97","1000","
                  <p style=""text-align: center;"">₪36
                                                <br>70%</p>
                  <p id=""wtp"" style=""text-align:center; margin-top: 0px; margin-bottom: 0px; font-size: 40px"";>&ensp;</p>","-","viewing","0","13","3A,5C,10B","","","","","","","","","","","","","","","","","","","","","",""
"","","","","","html-slider-response","212","1082582","0.0-25.0-1.1","485281f9-3957-47f4-bf4a-97d497934f97","2575","
                  <p style=""text-align: center;"">₪36
                                                <br>70%</p>
                  <p id=""wtp"" style=""text-align:center; margin-top: 0px; margin-bottom: 0px; font-size: 40px"";>מוכנים לשלם: <span id=""c_p_y""></span></p>","34","evaluation","31","13","3A,5C,10B","70","36","34","","","","","","","","","","","","","","","","","","",""
"","","","","","html-keyboard-response","213","1083525","0.0-25.0-2.1","485281f9-3957-47f4-bf4a-97d497934f97","null","<p style=""text-align: center;"">+</p>","null","fixation","","","","","","","","","","","","","","","","","","","","","","","","",""
"","","","","","html-slider-response","214","1084535","0.0-25.0-0.2","485281f9-3957-47f4-bf4a-97d497934f97","1000","
                  <p style=""text-align: center;"">₪11
                                                <br>20%</p>
                  <p id=""wtp"" style=""text-align:center; margin-top: 0px; margin-bottom: 0px; font-size: 40px"";>&ensp;</p>","-","viewing","0","4","12C,17C,23C,28C","","","","","","","","","","","","","","","","","","","","","",""
"","","","","","html-slider-response","215","1088110","0.0-25.0-1.2","485281f9-3957-47f4-bf4a-97d497934f97","3574","
                  <p style=""text-align: center;"">₪11
                                                <br>20%</p>
                  <p id=""wtp"" style=""text-align:center; margin-top: 0px; margin-bottom: 0px; font-size: 40px"";>מוכנים לשלם: <span id=""c_p_y""></span></p>","4","evaluation","7","4","12C,17C,23C,28C","20","11","4","","","","","","","","","","","","","","","","","","",""
"","","","","","html-keyboard-response","216","1089570","0.0-25.0-2.2","485281f9-3957-47f4-bf4a-97d497934f97","null","<p style=""text-align: center;"">+</p>","null","fixation","","","","","","","","","","","","","","","","","","","","","","","","",""
"","","","","","html-slider-response","217","1090580","0.0-25.0-0.3","485281f9-3957-47f4-bf4a-97d497934f97","1000","
                  <p style=""text-align: center;"">₪76
                                                <br>65%</p>
                  <p id=""wtp"" style=""text-align:center; margin-top: 0px; margin-bottom: 0px; font-size: 40px"";>&ensp;</p>","-","viewing","0","29","8C,19A,24B","","","","","","","","","","","","","","","","","","","","","",""
"","","","","","html-slider-response","218","1093518","0.0-25.0-1.3","485281f9-3957-47f4-bf4a-97d497934f97","2938","
                  <p style=""text-align: center;"">₪76
                                                <br>65%</p>
                  <p id=""wtp"" style=""text-align:center; margin-top: 0px; margin-bottom: 0px; font-size: 40px"";>מוכנים לשלם: <span id=""c_p_y""></span></p>","38","evaluation","70","29","8C,19A,24B","65","76","38","","","","","","","","","","","","","","","","","","",""
"","","","","","html-keyboard-response","219","1094853","0.0-25.0-2.3","485281f9-3957-47f4-bf4a-97d497934f97","null","<p style=""text-align: center;"">+</p>","null","fixation","","","","","","","","","","","","","","","","","","","","","","","","",""
"","","","","","html-slider-response","220","1095856","0.0-25.0-0.4","485281f9-3957-47f4-bf4a-97d497934f97","1000","
                  <p style=""text-align: center;"">₪61
                                                <br>45%</p>
                  <p id=""wtp"" style=""text-align:center; margin-top: 0px; margin-bottom: 0px; font-size: 40px"";>&ensp;</p>","-","viewing","0","22","10A,11A","","","","","","","","","","","","","","","","","","","","","",""
"","","","","","html-slider-response","221","1097703","0.0-25.0-1.4","485281f9-3957-47f4-bf4a-97d497934f97","1846","
                  <p style=""text-align: center;"">₪61
                                                <br>45%</p>
                  <p id=""wtp"" style=""text-align:center; margin-top: 0px; margin-bottom: 0px; font-size: 40px"";>מוכנים לשלם: <span id=""c_p_y""></span></p>","28","evaluation","59","22","10A,11A","45","61","28","","","","","","","","","","","","","","","","","","",""
"","","","","","html-keyboard-response","222","1098286","0.0-25.0-2.4","485281f9-3957-47f4-bf4a-97d497934f97","null","<p style=""text-align: center;"">+</p>","null","fixation","","","","","","","","","","","","","","","","","","","","","","","","",""
"","","","","","html-slider-response","223","1099302","0.0-25.0-0.5","485281f9-3957-47f4-bf4a-97d497934f97","1000","
                  <p style=""text-align: center;"">₪39
                                                <br>60%</p>
                  <p id=""wtp"" style=""text-align:center; margin-top: 0px; margin-bottom: 0px; font-size: 40px"";>&ensp;</p>","-","viewing","0","15","9C,25B","","","","","","","","","","","","","","","","","","","","","",""
"","","","","","html-slider-response","224","1101942","0.0-25.0-1.5","485281f9-3957-47f4-bf4a-97d497934f97","2639","
                  <p style=""text-align: center;"">₪39
                                                <br>60%</p>
                  <p id=""wtp"" style=""text-align:center; margin-top: 0px; margin-bottom: 0px; font-size: 40px"";>מוכנים לשלם: <span id=""c_p_y""></span></p>","25","evaluation","1","15","9C,25B","60","39","25","","","","","","","","","","","","","","","","","","",""
"","","","","","html-keyboard-response","225","1103086","0.0-25.0-2.5","485281f9-3957-47f4-bf4a-97d497934f97","null","<p style=""text-align: center;"">+</p>","null","fixation","","","","","","","","","","","","","","","","","","","","","","","","",""
"","","","","","html-slider-response","226","1104094","0.0-25.0-0.6","485281f9-3957-47f4-bf4a-97d497934f97","1000","
                  <p style=""text-align: center;"">₪36
                                                <br>60%</p>
                  <p id=""wtp"" style=""text-align:center; margin-top: 0px; margin-bottom: 0px; font-size: 40px"";>&ensp;</p>","-","viewing","0","12","1C,7C,15C","","","","","","","","","","","","","","","","","","","","","",""
"","","","","","html-slider-response","227","1105094","0.0-25.0-1.6","485281f9-3957-47f4-bf4a-97d497934f97","998","
                  <p style=""text-align: center;"">₪36
                                                <br>60%</p>
                  <p id=""wtp"" style=""text-align:center; margin-top: 0px; margin-bottom: 0px; font-size: 40px"";>מוכנים לשלם: <span id=""c_p_y""></span></p>","25","evaluation","16","12","1C,7C,15C","60","36","25","","","","","","","","","","","","","","","","","","",""
"","","","","","html-keyboard-response","228","1106303","0.0-25.0-2.6","485281f9-3957-47f4-bf4a-97d497934f97","null","<p style=""text-align: center;"">+</p>","null","fixation","","","","","","","","","","","","","","","","","","","","","","","","",""
"","","","","","html-slider-response","229","1107316","0.0-25.0-0.7","485281f9-3957-47f4-bf4a-97d497934f97","1000","
                  <p style=""text-align: center;"">₪71
                                                <br>55%</p>
                  <p id=""wtp"" style=""text-align:center; margin-top: 0px; margin-bottom: 0px; font-size: 40px"";>&ensp;</p>","-","viewing","0","27","5B,18A","","","","","","","","","","","","","","","","","","","","","",""
"","","","","","html-slider-response","230","1110734","0.0-25.0-1.7","485281f9-3957-47f4-bf4a-97d497934f97","3417","
                  <p style=""text-align: center;"">₪71
                                                <br>55%</p>
                  <p id=""wtp"" style=""text-align:center; margin-top: 0px; margin-bottom: 0px; font-size: 40px"";>מוכנים לשלם: <span id=""c_p_y""></span></p>","30","evaluation","61","27","5B,18A","55","71","30","","","","","","","","","","","","","","","","","","",""
"","","","","","html-keyboard-response","231","1111613","0.0-25.0-2.7","485281f9-3957-47f4-bf4a-97d497934f97","null","<p style=""text-align: center;"">+</p>","null","fixation","","","","","","","","","","","","","","","","","","","","","","","","",""
"","","","","","html-slider-response","232","1112618","0.0-25.0-0.8","485281f9-3957-47f4-bf4a-97d497934f97","1000","
                  <p style=""text-align: center;"">₪43
                                                <br>75%</p>
                  <p id=""wtp"" style=""text-align:center; margin-top: 0px; margin-bottom: 0px; font-size: 40px"";>&ensp;</p>","-","viewing","0","18","11B,19B,24A,26A","","","","","","","","","","","","","","","","","","","","","",""
"","","","","","html-slider-response","233","1114990","0.0-25.0-1.8","485281f9-3957-47f4-bf4a-97d497934f97","2371","
                  <p style=""text-align: center;"">₪43
                                                <br>75%</p>
                  <p id=""wtp"" style=""text-align:center; margin-top: 0px; margin-bottom: 0px; font-size: 40px"";>מוכנים לשלם: <span id=""c_p_y""></span></p>","32","evaluation","29","18","11B,19B,24A,26A","75","43","32","","","","","","","","","","","","","","","","","","",""
"","","","","","html-keyboard-response","234","1115588","0.0-25.0-2.8","485281f9-3957-47f4-bf4a-97d497934f97","null","<p style=""text-align: center;"">+</p>","null","fixation","","","","","","","","","","","","","","","","","","","","","","","","",""
"","","","","","html-slider-response","235","1116599","0.0-25.0-0.9","485281f9-3957-47f4-bf4a-97d497934f97","1000","
                  <p style=""text-align: center;"">₪58
                                                <br>40%</p>
                  <p id=""wtp"" style=""text-align:center; margin-top: 0px; margin-bottom: 0px; font-size: 40px"";>&ensp;</p>","-","viewing","0","20","10C,13A,19C,21B","","","","","","","","","","","","","","","","","","","","","",""
"","","","","","html-slider-response","236","1120182","0.0-25.0-1.9","485281f9-3957-47f4-bf4a-97d497934f97","3582","
                  <p style=""text-align: center;"">₪58
                                                <br>40%</p>
                  <p id=""wtp"" style=""text-align:center; margin-top: 0px; margin-bottom: 0px; font-size: 40px"";>מוכנים לשלם: <span id=""c_p_y""></span></p>","33","evaluation","45","20","10C,13A,19C,21B","40","58","33","","","","","","","","","","","","","","","","","","",""
"","","","","","html-keyboard-response","237","1121463","0.0-25.0-2.9","485281f9-3957-47f4-bf4a-97d497934f97","null","<p style=""text-align: center;"">+</p>","null","fixation","","","","","","","","","","","","","","","","","","","","","","","","",""
"","","","","","html-slider-response","238","1122470","0.0-25.0-0.10","485281f9-3957-47f4-bf4a-97d497934f97","1000","
                  <p style=""text-align: center;"">₪18
                                                <br>50%</p>
                  <p id=""wtp"" style=""text-align:center; margin-top: 0px; margin-bottom: 0px; font-size: 40px"";>&ensp;</p>","-","viewing","0","10","2C,16C,22B,28A","","","","","","","","","","","","","","","","","","","","","",""
"","","","","","html-slider-response","239","1126054","0.0-25.0-1.10","485281f9-3957-47f4-bf4a-97d497934f97","3583","
                  <p style=""text-align: center;"">₪18
                                                <br>50%</p>
                  <p id=""wtp"" style=""text-align:center; margin-top: 0px; margin-bottom: 0px; font-size: 40px"";>מוכנים לשלם: <span id=""c_p_y""></span></p>","7","evaluation","34","10","2C,16C,22B,28A","50","18","7","","","","","","","","","","","","","","","","","","",""
"","","","","","html-keyboard-response","240","1127388","0.0-25.0-2.10","485281f9-3957-47f4-bf4a-97d497934f97","null","<p style=""text-align: center;"">+</p>","null","fixation","","","","","","","","","","","","","","","","","","","","","","","","",""
"","","","","","html-slider-response","241","1128404","0.0-25.0-0.11","485281f9-3957-47f4-bf4a-97d497934f97","1000","
                  <p style=""text-align: center;"">₪58
                                                <br>30%</p>
                  <p id=""wtp"" style=""text-align:center; margin-top: 0px; margin-bottom: 0px; font-size: 40px"";>&ensp;</p>","-","viewing","0","19","13C,30A","","","","","","","","","","","","","","","","","","","","","",""
"","","","","","html-slider-response","242","1129574","0.0-25.0-1.11","485281f9-3957-47f4-bf4a-97d497934f97","1169","
                  <p style=""text-align: center;"">₪58
                                                <br>30%</p>
                  <p id=""wtp"" style=""text-align:center; margin-top: 0px; margin-bottom: 0px; font-size: 40px"";>מוכנים לשלם: <span id=""c_p_y""></span></p>","12","evaluation","58","19","13C,30A","30","58","12","","","","","","","","","","","","","","","","","","",""
"","","","","","html-keyboard-response","243","1130350","0.0-25.0-2.11","485281f9-3957-47f4-bf4a-97d497934f97","null","<p style=""text-align: center;"">+</p>","null","fixation","","","","","","","","","","","","","","","","","","","","","","","","",""
"","","","","","html-slider-response","244","1131351","0.0-25.0-0.12","485281f9-3957-47f4-bf4a-97d497934f97","1000","
                  <p style=""text-align: center;"">₪4
                                                <br>25%</p>
                  <p id=""wtp"" style=""text-align:center; margin-top: 0px; margin-bottom: 0px; font-size: 40px"";>&ensp;</p>","-","viewing","0","1","6C,29B,30C","","","","","","","","","","","","","","","","","","","","","",""
"","","","","","html-slider-response","245","1132846","0.0-25.0-1.12","485281f9-3957-47f4-bf4a-97d497934f97","1494","
                  <p style=""text-align: center;"">₪4
                                                <br>25%</p>
