"success","timeout","failed_images","failed_audio","failed_video","trial_type","trial_index","time_elapsed","internal_node_id","subject_id","rt","stimulus","response","part","slider_start","ID","set_ID","prob","amount","last_location","actual_choice","actual_EV","binary_id","trinary_id","catch","direction","A_key","S_key","D_key","choice_prob","choice_amount","potential_prize_prob","potential_prize_amount","won_prize","total_prize","remaining_budget","accuracy"
"true","false","[]","[]","[]","preload","0","6","0.0-0.0","41578bda-270a-4ced-a297-3451d0874fca","","","","","","","","","","","","","","","","","","","","","","","","","","",""
"","","","","","html-keyboard-response","1","11785","0.0-1.0","41578bda-270a-4ced-a297-3451d0874fca","null","
          <h1>שלום וברוכים הבאים!</h1>
          <p>לפניכם ניסוי בקבלת החלטות עם שני חלקים.
          <br><br>לחצו על העכבר כדי להמשיך.</p>","0","example","","","","","","","","","","","","","","","","","","","","","","",""
"","","","","","html-keyboard-response","2","17641","0.0-2.0","41578bda-270a-4ced-a297-3451d0874fca","null","
        <h1>חלק 1</h1>
        <p>בקרוב יוצגו בפניכם הגרלות.
        <br>עליכם לבחור את המחיר המירבי שתהיו מוכנים לשלם כדי להשתתף בהגרלה שתוצג.
        <br>יש לכם תקציב של ₪80 לכל הגרלה. 
        <br>נסו להעריך כל הגרלה בנפרד ולחשוב כמה היא שווה עבורכם, ₪80 זמינים לכל הגרלה בנפרד.
        <br><br>לחצו על העכבר כדי להמשיך.</p>","1","instructions","","","","","","","","","","","","","","","","","","","","","","",""
"","","","","","html-keyboard-response","3","27673","0.0-3.0","41578bda-270a-4ced-a297-3451d0874fca","null","
        <p>בסוף הניסוי, המחשב יבחר את אחת ההגרלות ויקבע מחיר לכרטיס עבורה. 
        <br>במידה והמחיר שבחרתם נמוך מהמחיר שנבחר על ידי המחשב, לא תשתתפו בהגרלה ותשארו עם מלוא התקציב.
        <br>במידה והמחיר שבחרתם גבוה מהמחיר שנבחר על ידי המחשב, תשלמו את המחיר שנקבע ותשתתפו בהגרלה.
        <br><br>לחצו על העכבר כדי להמשיך.</p>","1","instructions","","","","","","","","","","","","","","","","","","","","","","",""
"","","","","","html-slider-response","4","42161","0.0-4.0","41578bda-270a-4ced-a297-3451d0874fca","14377","
        <p style=""font-size: 42px;"">נתחיל עם דוגמא: 
        <br>ההגרלה מטה מציעה 65% סיכוי לזכות ב-₪40 
        <br>&emsp;&emsp;&emsp;&emsp;&emsp;&emsp;&emsp;&emsp;&ensp;35% סיכוי לזכות ב-₪0.
        <br><br>מה המחיר המירבי שתהיו מוכנים לשלם על כרטיס להגרלה זו בין 0 ל-₪80?
        <br>הזיזו את העכבר על פני המלבן ולחצו כדי לבצע בחירה.</p>
        
        <p style=""text-align: center;"">₪40<br>65%</p>

        <p id=""wtp"" style=""text-align:center; margin-top: 0px; margin-bottom: 0px; font-size: 40px"";>מוכנים לשלם: <span id=""c_p_y""></span></p>","25","example","41","","","","","","","","","","","","","","","","","","","","","",""
"","","","","","html-keyboard-response","5","51857","0.0-5.0","41578bda-270a-4ced-a297-3451d0874fca","null","<p>יפה מאוד!
                <br> בחרתם שתהיו מוכנים לשלם ₪25 כדי להשתתף בהגרלה:
                <br><p style=""text-align: center;"">₪40<br>65%</p>
                <p>נשמע נכון?
                <br>נניח שהגרלה זו נבחרה בסוף הניסוי.
                <br>כעת המחשב יקבע מחיר עבורה באקראי.
                <br>לחצו על העכבר להמשך.</p>","1","example","","","","","","","","","","","","","","","","","","","","","","",""
"","","","","","html-keyboard-response","6","59265","0.0-6.0","41578bda-270a-4ced-a297-3451d0874fca","null","<p>המחשב קבע מחיר: ₪73
                <br>ואתם בחרתם לשלם לכל היותר: ₪25
                <br><br>מכיוון שהמחיר שבחרתם נמוך מהמחיר שנקבע, לא תתשתתפו בהגרלה.
                <br>במקרה כזה, בסוף הניסוי תקבלו את כל התקציב ההתחלתי של ₪80.
                <br><br>לחצו על העכבר להמשך.</p>","1","example","","","","","","","","","","","","","","","","","","","","","","",""
"","","","","","html-slider-response","7","69977","0.0-7.0","41578bda-270a-4ced-a297-3451d0874fca","10454","<p style=""font-size: 42px;"">הנה עוד דוגמא:
                <br>ההגרלה מטה מציעה 35% סיכוי לזכות ב-₪18 
                <br>&emsp;&emsp;&emsp;&emsp;&emsp;&emsp;&emsp;&emsp;&ensp;65% סיכוי לזכות ב-₪0.</p>
        
                <p style=""text-align: center;"">₪18<br>35%</p>
                <p id=""wtp"" style=""text-align:center; margin-top: 0px; margin-bottom: 0px; font-size: 40px"";>מוכנים לשלם: <span id=""c_p_y""></span></p>","23","example","11","","","","","","","","","","","","","","","","","","","","","",""
"","","","","","html-keyboard-response","8","78913","0.0-8.0","41578bda-270a-4ced-a297-3451d0874fca","null","<p>הייתם מוכנים לשלם  ₪23 כדי להשתתף בהגרלה:
                <p style=""text-align: center;"">₪18<br>35%</p>
                <p>כעת נניח שהמחשב בחר את ההגרלה הזו בסוף הניסוי, וקבע עבורה מחיר.
                <br><br>לחצו על העכבר כדי להמשיך.</p>","1","instructions","","","","","","","","","","","","","","","","","","","","","","",""
"","","","","","html-keyboard-response","9","112617","0.0-9.0","41578bda-270a-4ced-a297-3451d0874fca","null","<p>המחשב קבע מחיר להגרלה: ₪23
                <br>ואתם בחרתם לשלם לכל היותר: ₪23
                <br><br>כעת המחיר שנקבע זהה לזה שבחרתם, אז תשלמו את המחיר שקבע המחשב (₪23) ותשתתפו בהגרלה.
                <br>במקרה כזה, תסיימו את הניסוי עם תקציב של ₪57 ועם סיכוי לזכות ב-₪18 נוספים מההגרלה.
                <br>כלומר, תוכלו לקבל ₪57 אם לא תזכו בהגרלה, או ₪75 אם תזכו בהגרלה.
                <br><br>לחצו על העכבר להמשך.</p>","1","example","","","","","","","","","","","","","","","","","","","","","","",""
"","","","","","html-keyboard-response","10","117873","0.0-10.0","41578bda-270a-4ced-a297-3451d0874fca","null","<p>במהלך הניסוי, קודם תראו את ההגרלה ורק לאחר מכן תוכלו לבחור.
                <p>כמו כן, יהיו לכם מספר שניות מוגבל להגיב.
                <p>בואו ננסה זאת עם ההגרלה הקודמת.
                <br>לחצו על העכבר כדי להמשיך.</p>","1","instructions","","","","","","","","","","","","","","","","","","","","","","",""
"","","","","","html-slider-response","11","119138","0.0-11.0","41578bda-270a-4ced-a297-3451d0874fca","1000","
                    <p style=""text-align: center;"">₪18<br>35%</p>
                    <p id=""wtp"" style=""text-align:center; margin-top: 0px; margin-bottom: 0px; font-size: 40px"";>&ensp;</p>","38","instructions","0","","","","","","","","","","","","","","","","","","","","","",""
"","","","","","html-slider-response","12","121873","0.0-12.0","41578bda-270a-4ced-a297-3451d0874fca","2484","
                    <p style=""text-align: center;"">₪18<br>35%</p>
                    <p id=""wtp"" style=""text-align:center; margin-top: 0px; margin-bottom: 0px; font-size: 40px"";>מוכנים לשלם: <span id=""c_p_y""></span></p>","14","instructions","76","","","","","","","","","","","","","","","","","","","","","",""
"","","","","","html-keyboard-response","13","127489","0.0-13.0","41578bda-270a-4ced-a297-3451d0874fca","null","<p>יפה. הפעם בחרתם לשלם לכל היותר ₪14.
                <br><br>לחצו על העכבר כדי להמשיך.</p>","1","instructions","","","","","","","","","","","","","","","","","","","","","","",""
"","","","","","html-keyboard-response","14","134417","0.0-15.0","41578bda-270a-4ced-a297-3451d0874fca","null","<p>כעת נתחיל את הניסוי.
                <br><br>אתם תראו הגרלות ותתבקשו לבחור כמה תהיו מוכנים לשלם כדי להשתתף בהן.
                <br>יש לכם תקציב של ₪80 עבור כל הגרלה.
                <br>בסוף הניסוי הגרלה אחת תבחר באקראי ותשוחק.
                <br><br>לחצו על העכבר כדי להתחיל את הניסוי.</p>","1","instructions","","","","","","","","","","","","","","","","","","","","","","",""
"","","","","","html-keyboard-response","15","135673","0.0-16.0","41578bda-270a-4ced-a297-3451d0874fca","null","<p style=""text-align: center;"">+</p>","null","fixation","","","","","","","","","","","","","","","","","","","","","","",""
"","","","","","html-slider-response","16","136687","0.0-17.0-0.0","41578bda-270a-4ced-a297-3451d0874fca","1000","
                  <p style=""text-align: center;"">₪79
                                                <br>40%</p>
                  <p id=""wtp"" style=""text-align:center; margin-top: 0px; margin-bottom: 0px; font-size: 40px"";>&ensp;</p>","-","viewing","0","30","9B","","","","","","","","","","","","","","","","","","","",""
"","","","","","html-slider-response","17","139617","0.0-17.0-1.0","41578bda-270a-4ced-a297-3451d0874fca","2929","
                  <p style=""text-align: center;"">₪79
                                                <br>40%</p>
                  <p id=""wtp"" style=""text-align:center; margin-top: 0px; margin-bottom: 0px; font-size: 40px"";>מוכנים לשלם: <span id=""c_p_y""></span></p>","65","evaluation","32","30","9B","40","79","65","","","","","","","","","","","","","","","","",""
"","","","","","html-keyboard-response","18","140531","0.0-17.0-2.0","41578bda-270a-4ced-a297-3451d0874fca","null","<p style=""text-align: center;"">+</p>","null","fixation","","","","","","","","","","","","","","","","","","","","","","",""
"","","","","","html-slider-response","19","141537","0.0-17.0-0.1","41578bda-270a-4ced-a297-3451d0874fca","1000","
                  <p style=""text-align: center;"">₪18
                                                <br>50%</p>
                  <p id=""wtp"" style=""text-align:center; margin-top: 0px; margin-bottom: 0px; font-size: 40px"";>&ensp;</p>","-","viewing","0","10","2C,16C,22B,28A","","","","","","","","","","","","","","","","","","","",""
"","","","","","html-slider-response","20","145539","0.0-17.0-1.1","41578bda-270a-4ced-a297-3451d0874fca","null","
                  <p style=""text-align: center;"">₪18
                                                <br>50%</p>
                  <p id=""wtp"" style=""text-align:center; margin-top: 0px; margin-bottom: 0px; font-size: 40px"";>מוכנים לשלם: <span id=""c_p_y""></span></p>","null","evaluation","48","10","2C,16C,22B,28A","50","18","13","","","","","","","","","","","","","","","","",""
"","","","","","html-keyboard-response","21","146898","0.0-17.0-2.1","41578bda-270a-4ced-a297-3451d0874fca","null","<p style=""text-align: center;"">+</p>","null","fixation","","","","","","","","","","","","","","","","","","","","","","",""
"","","","","","html-slider-response","22","147901","0.0-17.0-0.2","41578bda-270a-4ced-a297-3451d0874fca","1000","
                  <p style=""text-align: center;"">₪4
                                                <br>50%</p>
                  <p id=""wtp"" style=""text-align:center; margin-top: 0px; margin-bottom: 0px; font-size: 40px"";>&ensp;</p>","-","viewing","0","2","4C,17B","","","","","","","","","","","","","","","","","","","",""
"","","","","","html-slider-response","23","151881","0.0-17.0-1.2","41578bda-270a-4ced-a297-3451d0874fca","3980","
                  <p style=""text-align: center;"">₪4
                                                <br>50%</p>
                  <p id=""wtp"" style=""text-align:center; margin-top: 0px; margin-bottom: 0px; font-size: 40px"";>מוכנים לשלם: <span id=""c_p_y""></span></p>","2","evaluation","64","2","4C,17B","50","4","2","","","","","","","","","","","","","","","","",""
"","","","","","html-keyboard-response","24","152677","0.0-17.0-2.2","41578bda-270a-4ced-a297-3451d0874fca","null","<p style=""text-align: center;"">+</p>","null","fixation","","","","","","","","","","","","","","","","","","","","","","",""
"","","","","","html-slider-response","25","153688","0.0-17.0-0.3","41578bda-270a-4ced-a297-3451d0874fca","1000","
                  <p style=""text-align: center;"">₪58
                                                <br>40%</p>
                  <p id=""wtp"" style=""text-align:center; margin-top: 0px; margin-bottom: 0px; font-size: 40px"";>&ensp;</p>","-","viewing","0","20","10C,13A,19C,21B","","","","","","","","","","","","","","","","","","","",""
"","","","","","html-slider-response","26","157691","0.0-17.0-1.3","41578bda-270a-4ced-a297-3451d0874fca","null","
                  <p style=""text-align: center;"">₪58
                                                <br>40%</p>
                  <p id=""wtp"" style=""text-align:center; margin-top: 0px; margin-bottom: 0px; font-size: 40px"";>מוכנים לשלם: <span id=""c_p_y""></span></p>","null","evaluation","29","20","10C,13A,19C,21B","40","58","5","","","","","","","","","","","","","","","","",""
"","","","","","html-keyboard-response","27","158606","0.0-17.0-2.3","41578bda-270a-4ced-a297-3451d0874fca","null","<p style=""text-align: center;"">+</p>","null","fixation","","","","","","","","","","","","","","","","","","","","","","",""
"","","","","","html-slider-response","28","159612","0.0-17.0-0.4","41578bda-270a-4ced-a297-3451d0874fca","1000","
                  <p style=""text-align: center;"">₪64
                                                <br>25%</p>
                  <p id=""wtp"" style=""text-align:center; margin-top: 0px; margin-bottom: 0px; font-size: 40px"";>&ensp;</p>","-","viewing","0","24","6A,21A","","","","","","","","","","","","","","","","","","","",""
"","","","","","html-slider-response","29","163233","0.0-17.0-1.4","41578bda-270a-4ced-a297-3451d0874fca","3619","
                  <p style=""text-align: center;"">₪64
                                                <br>25%</p>
                  <p id=""wtp"" style=""text-align:center; margin-top: 0px; margin-bottom: 0px; font-size: 40px"";>מוכנים לשלם: <span id=""c_p_y""></span></p>","17","evaluation","77","24","6A,21A","25","64","17","","","","","","","","","","","","","","","","",""
"","","","","","html-keyboard-response","30","164210","0.0-17.0-2.4","41578bda-270a-4ced-a297-3451d0874fca","null","<p style=""text-align: center;"">+</p>","null","fixation","","","","","","","","","","","","","","","","","","","","","","",""
"","","","","","html-slider-response","31","165212","0.0-17.0-0.5","41578bda-270a-4ced-a297-3451d0874fca","1000","
                  <p style=""text-align: center;"">₪71
                                                <br>75%</p>
                  <p id=""wtp"" style=""text-align:center; margin-top: 0px; margin-bottom: 0px; font-size: 40px"";>&ensp;</p>","-","viewing","0","28","8B","","","","","","","","","","","","","","","","","","","",""
"","","","","","html-slider-response","32","169214","0.0-17.0-1.5","41578bda-270a-4ced-a297-3451d0874fca","null","
                  <p style=""text-align: center;"">₪71
                                                <br>75%</p>
                  <p id=""wtp"" style=""text-align:center; margin-top: 0px; margin-bottom: 0px; font-size: 40px"";>מוכנים לשלם: <span id=""c_p_y""></span></p>","null","evaluation","38","28","8B","75","71","47","","","","","","","","","","","","","","","","",""
"","","","","","html-keyboard-response","33","170299","0.0-17.0-2.5","41578bda-270a-4ced-a297-3451d0874fca","null","<p style=""text-align: center;"">+</p>","null","fixation","","","","","","","","","","","","","","","","","","","","","","",""
"","","","","","html-slider-response","34","171300","0.0-17.0-0.6","41578bda-270a-4ced-a297-3451d0874fca","1000","
                  <p style=""text-align: center;"">₪79
                                                <br>65%</p>
                  <p id=""wtp"" style=""text-align:center; margin-top: 0px; margin-bottom: 0px; font-size: 40px"";>&ensp;</p>","-","viewing","0","31","8A","","","","","","","","","","","","","","","","","","","",""
"","","","","","html-slider-response","35","173721","0.0-17.0-1.6","41578bda-270a-4ced-a297-3451d0874fca","2420","
                  <p style=""text-align: center;"">₪79
                                                <br>65%</p>
                  <p id=""wtp"" style=""text-align:center; margin-top: 0px; margin-bottom: 0px; font-size: 40px"";>מוכנים לשלם: <span id=""c_p_y""></span></p>","59","evaluation","57","31","8A","65","79","59","","","","","","","","","","","","","","","","",""
"","","","","","html-keyboard-response","36","174480","0.0-17.0-2.6","41578bda-270a-4ced-a297-3451d0874fca","null","<p style=""text-align: center;"">+</p>","null","fixation","","","","","","","","","","","","","","","","","","","","","","",""
"","","","","","html-slider-response","37","175483","0.0-17.0-0.7","41578bda-270a-4ced-a297-3451d0874fca","1000","
                  <p style=""text-align: center;"">₪18
                                                <br>25%</p>
                  <p id=""wtp"" style=""text-align:center; margin-top: 0px; margin-bottom: 0px; font-size: 40px"";>&ensp;</p>","-","viewing","0","9","14A,23A","","","","","","","","","","","","","","","","","","","",""
"","","","","","html-slider-response","38","177969","0.0-17.0-1.7","41578bda-270a-4ced-a297-3451d0874fca","2484","
                  <p style=""text-align: center;"">₪18
                                                <br>25%</p>
                  <p id=""wtp"" style=""text-align:center; margin-top: 0px; margin-bottom: 0px; font-size: 40px"";>מוכנים לשלם: <span id=""c_p_y""></span></p>","3","evaluation","7","9","14A,23A","25","18","3","","","","","","","","","","","","","","","","",""
"","","","","","html-keyboard-response","39","179160","0.0-17.0-2.7","41578bda-270a-4ced-a297-3451d0874fca","null","<p style=""text-align: center;"">+</p>","null","fixation","","","","","","","","","","","","","","","","","","","","","","",""
"","","","","","html-slider-response","40","180162","0.0-17.0-0.8","41578bda-270a-4ced-a297-3451d0874fca","1000","
                  <p style=""text-align: center;"">₪43
                                                <br>75%</p>
                  <p id=""wtp"" style=""text-align:center; margin-top: 0px; margin-bottom: 0px; font-size: 40px"";>&ensp;</p>","-","viewing","0","18","11B,19B,24A,26A","","","","","","","","","","","","","","","","","","","",""
"","","","","","html-slider-response","41","183057","0.0-17.0-1.8","41578bda-270a-4ced-a297-3451d0874fca","2894","
                  <p style=""text-align: center;"">₪43
                                                <br>75%</p>
                  <p id=""wtp"" style=""text-align:center; margin-top: 0px; margin-bottom: 0px; font-size: 40px"";>מוכנים לשלם: <span id=""c_p_y""></span></p>","20","evaluation","6","18","11B,19B,24A,26A","75","43","20","","","","","","","","","","","","","","","","",""
"","","","","","html-keyboard-response","42","184214","0.0-17.0-2.8","41578bda-270a-4ced-a297-3451d0874fca","null","<p style=""text-align: center;"">+</p>","null","fixation","","","","","","","","","","","","","","","","","","","","","","",""
"","","","","","html-slider-response","43","185216","0.0-17.0-0.9","41578bda-270a-4ced-a297-3451d0874fca","1000","
                  <p style=""text-align: center;"">₪39
                                                <br>65%</p>
                  <p id=""wtp"" style=""text-align:center; margin-top: 0px; margin-bottom: 0px; font-size: 40px"";>&ensp;</p>","-","viewing","0","16","1A,15A,26C","","","","","","","","","","","","","","","","","","","",""
"","","","","","html-slider-response","44","187321","0.0-17.0-1.9","41578bda-270a-4ced-a297-3451d0874fca","2103","
                  <p style=""text-align: center;"">₪39
                                                <br>65%</p>
                  <p id=""wtp"" style=""text-align:center; margin-top: 0px; margin-bottom: 0px; font-size: 40px"";>מוכנים לשלם: <span id=""c_p_y""></span></p>","16","evaluation","38","16","1A,15A,26C","65","39","16","","","","","","","","","","","","","","","","",""
"","","","","","html-keyboard-response","45","188518","0.0-17.0-2.9","41578bda-270a-4ced-a297-3451d0874fca","null","<p style=""text-align: center;"">+</p>","null","fixation","","","","","","","","","","","","","","","","","","","","","","",""
"","","","","","html-slider-response","46","189520","0.0-17.0-0.10","41578bda-270a-4ced-a297-3451d0874fca","1000","
                  <p style=""text-align: center;"">₪76
                                                <br>65%</p>
                  <p id=""wtp"" style=""text-align:center; margin-top: 0px; margin-bottom: 0px; font-size: 40px"";>&ensp;</p>","-","viewing","0","29","8C,19A,24B","","","","","","","","","","","","","","","","","","","",""
"","","","","","html-slider-response","47","193241","0.0-17.0-1.10","41578bda-270a-4ced-a297-3451d0874fca","3719","
                  <p style=""text-align: center;"">₪76
                                                <br>65%</p>
                  <p id=""wtp"" style=""text-align:center; margin-top: 0px; margin-bottom: 0px; font-size: 40px"";>מוכנים לשלם: <span id=""c_p_y""></span></p>","46","evaluation","49","29","8C,19A,24B","65","76","46","","","","","","","","","","","","","","","","",""
"","","","","","html-keyboard-response","48","194079","0.0-17.0-2.10","41578bda-270a-4ced-a297-3451d0874fca","null","<p style=""text-align: center;"">+</p>","null","fixation","","","","","","","","","","","","","","","","","","","","","","",""
"","","","","","html-slider-response","49","195081","0.0-17.0-0.11","41578bda-270a-4ced-a297-3451d0874fca","1000","
                  <p style=""text-align: center;"">₪71
                                                <br>55%</p>
                  <p id=""wtp"" style=""text-align:center; margin-top: 0px; margin-bottom: 0px; font-size: 40px"";>&ensp;</p>","-","viewing","0","27","5B,18A","","","","","","","","","","","","","","","","","","","",""
"","","","","","html-slider-response","50","198881","0.0-17.0-1.11","41578bda-270a-4ced-a297-3451d0874fca","3798","
                  <p style=""text-align: center;"">₪71
                                                <br>55%</p>
                  <p id=""wtp"" style=""text-align:center; margin-top: 0px; margin-bottom: 0px; font-size: 40px"";>מוכנים לשלם: <span id=""c_p_y""></span></p>","30","evaluation","11","27","5B,18A","55","71","30","","","","","","","","","","","","","","","","",""
"","","","","","html-keyboard-response","51","199434","0.0-17.0-2.11","41578bda-270a-4ced-a297-3451d0874fca","null","<p style=""text-align: center;"">+</p>","null","fixation","","","","","","","","","","","","","","","","","","","","","","",""
"","","","","","html-slider-response","52","200436","0.0-17.0-0.12","41578bda-270a-4ced-a297-3451d0874fca","1000","
                  <p style=""text-align: center;"">₪36
                                                <br>30%</p>
                  <p id=""wtp"" style=""text-align:center; margin-top: 0px; margin-bottom: 0px; font-size: 40px"";>&ensp;</p>","-","viewing","0","11","3C,20A,22A","","","","","","","","","","","","","","","","","","","",""
"","","","","","html-slider-response","53","203793","0.0-17.0-1.12","41578bda-270a-4ced-a297-3451d0874fca","3356","
                  <p style=""text-align: center;"">₪36
                                                <br>30%</p>
                  <p id=""wtp"" style=""text-align:center; margin-top: 0px; margin-bottom: 0px; font-size: 40px"";>מוכנים לשלם: <span id=""c_p_y""></span></p>","25","evaluation","9","11","3C,20A,22A","30","36","25","","","","","","","","","","","","","","","","",""
"","","","","","html-keyboard-response","54","204395","0.0-17.0-2.12","41578bda-270a-4ced-a297-3451d0874fca","null","<p style=""text-align: center;"">+</p>","null","fixation","","","","","","","","","","","","","","","","","","","","","","",""
"","","","","","html-slider-response","55","205397","0.0-17.0-0.13","41578bda-270a-4ced-a297-3451d0874fca","1000","
                  <p style=""text-align: center;"">₪64
                                                <br>50%</p>
                  <p id=""wtp"" style=""text-align:center; margin-top: 0px; margin-bottom: 0px; font-size: 40px"";>&ensp;</p>","-","viewing","0","25","1B,3B,4A","","","","","","","","","","","","","","","","","","","",""
"","","","","","html-slider-response","56","208649","0.0-17.0-1.13","41578bda-270a-4ced-a297-3451d0874fca","3250","
                  <p style=""text-align: center;"">₪64
                                                <br>50%</p>
                  <p id=""wtp"" style=""text-align:center; margin-top: 0px; margin-bottom: 0px; font-size: 40px"";>מוכנים לשלם: <span id=""c_p_y""></span></p>","33","evaluation","13","25","1B,3B,4A","50","64","33","","","","","","","","","","","","","","","","",""
"","","","","","html-keyboard-response","57","209712","0.0-17.0-2.13","41578bda-270a-4ced-a297-3451d0874fca","null","<p style=""text-align: center;"">+</p>","null","fixation","","","","","","","","","","","","","","","","","","","","","","",""
"","","","","","html-slider-response","58","210722","0.0-17.0-0.14","41578bda-270a-4ced-a297-3451d0874fca","1000","
                  <p style=""text-align: center;"">₪58
                                                <br>45%</p>
                  <p id=""wtp"" style=""text-align:center; margin-top: 0px; margin-bottom: 0px; font-size: 40px"";>&ensp;</p>","-","viewing","0","21","11C,18C,25A","","","","","","","","","","","","","","","","","","","",""
"","","","","","html-slider-response","59","214600","0.0-17.0-1.14","41578bda-270a-4ced-a297-3451d0874fca","3877","
                  <p style=""text-align: center;"">₪58
                                                <br>45%</p>
                  <p id=""wtp"" style=""text-align:center; margin-top: 0px; margin-bottom: 0px; font-size: 40px"";>מוכנים לשלם: <span id=""c_p_y""></span></p>","23","evaluation","29","21","11C,18C,25A","45","58","23","","","","","","","","","","","","","","","","",""
"","","","","","html-keyboard-response","60","215170","0.0-17.0-2.14","41578bda-270a-4ced-a297-3451d0874fca","null","<p style=""text-align: center;"">+</p>","null","fixation","","","","","","","","","","","","","","","","","","","","","","",""
"","","","","","html-slider-response","61","216172","0.0-17.0-0.15","41578bda-270a-4ced-a297-3451d0874fca","1000","
                  <p style=""text-align: center;"">₪11
                                                <br>45%</p>
                  <p id=""wtp"" style=""text-align:center; margin-top: 0px; margin-bottom: 0px; font-size: 40px"";>&ensp;</p>","-","viewing","0","6","14B,21C,25C","","","","","","","","","","","","","","","","","","","",""
"","","","","","html-slider-response","62","219009","0.0-17.0-1.15","41578bda-270a-4ced-a297-3451d0874fca","2835","
                  <p style=""text-align: center;"">₪11
                                                <br>45%</p>
                  <p id=""wtp"" style=""text-align:center; margin-top: 0px; margin-bottom: 0px; font-size: 40px"";>מוכנים לשלם: <span id=""c_p_y""></span></p>","16","evaluation","63","6","14B,21C,25C","45","11","16","","","","","","","","","","","","","","","","",""
"","","","","","html-keyboard-response","63","219779","0.0-17.0-2.15","41578bda-270a-4ced-a297-3451d0874fca","null","<p style=""text-align: center;"">+</p>","null","fixation","","","","","","","","","","","","","","","","","","","","","","",""
"","","","","","html-slider-response","64","220784","0.0-17.0-0.16","41578bda-270a-4ced-a297-3451d0874fca","1000","
                  <p style=""text-align: center;"">₪4
                                                <br>75%</p>
                  <p id=""wtp"" style=""text-align:center; margin-top: 0px; margin-bottom: 0px; font-size: 40px"";>&ensp;</p>","-","viewing","0","3","12B,20B,23B,27C,29C","","","","","","","","","","","","","","","","","","","",""
"","","","","","html-slider-response","65","223745","0.0-17.0-1.16","41578bda-270a-4ced-a297-3451d0874fca","2960","
                  <p style=""text-align: center;"">₪4
                                                <br>75%</p>
                  <p id=""wtp"" style=""text-align:center; margin-top: 0px; margin-bottom: 0px; font-size: 40px"";>מוכנים לשלם: <span id=""c_p_y""></span></p>","1","evaluation","47","3","12B,20B,23B,27C,29C","75","4","2","","","","","","","","","","","","","","","","",""
"","","","","","html-keyboard-response","66","225077","0.0-17.0-2.16","41578bda-270a-4ced-a297-3451d0874fca","null","<p style=""text-align: center;"">+</p>","null","fixation","","","","","","","","","","","","","","","","","","","","","","",""
"","","","","","html-slider-response","67","226089","0.0-17.0-0.17","41578bda-270a-4ced-a297-3451d0874fca","1000","
                  <p style=""text-align: center;"">₪39
                                                <br>60%</p>
                  <p id=""wtp"" style=""text-align:center; margin-top: 0px; margin-bottom: 0px; font-size: 40px"";>&ensp;</p>","-","viewing","0","15","9C,25B","","","","","","","","","","","","","","","","","","","",""
"","","","","","html-slider-response","68","230104","0.0-17.0-1.17","41578bda-270a-4ced-a297-3451d0874fca","null","
                  <p style=""text-align: center;"">₪39
                                                <br>60%</p>
                  <p id=""wtp"" style=""text-align:center; margin-top: 0px; margin-bottom: 0px; font-size: 40px"";>מוכנים לשלם: <span id=""c_p_y""></span></p>","null","evaluation","20","15","9C,25B","60","39","17","","","","","","","","","","","","","","","","",""
"","","","","","html-keyboard-response","69","231167","0.0-17.0-2.17","41578bda-270a-4ced-a297-3451d0874fca","null","<p style=""text-align: center;"">+</p>","null","fixation","","","","","","","","","","","","","","","","","","","","","","",""
"","","","","","html-slider-response","70","232180","0.0-17.0-0.18","41578bda-270a-4ced-a297-3451d0874fca","1000","
                  <p style=""text-align: center;"">₪36
                                                <br>60%</p>
                  <p id=""wtp"" style=""text-align:center; margin-top: 0px; margin-bottom: 0px; font-size: 40px"";>&ensp;</p>","-","viewing","0","12","1C,7C,15C","","","","","","","","","","","","","","","","","","","",""
"","","","","","html-slider-response","71","235489","0.0-17.0-1.18","41578bda-270a-4ced-a297-3451d0874fca","3308","
                  <p style=""text-align: center;"">₪36
                                                <br>60%</p>
                  <p id=""wtp"" style=""text-align:center; margin-top: 0px; margin-bottom: 0px; font-size: 40px"";>מוכנים לשלם: <span id=""c_p_y""></span></p>","19","evaluation","17","12","1C,7C,15C","60","36","20","","","","","","","","","","","","","","","","",""
"","","","","","html-keyboard-response","72","236231","0.0-17.0-2.18","41578bda-270a-4ced-a297-3451d0874fca","null","<p style=""text-align: center;"">+</p>","null","fixation","","","","","","","","","","","","","","","","","","","","","","",""
"","","","","","html-slider-response","73","237237","0.0-17.0-0.19","41578bda-270a-4ced-a297-3451d0874fca","1000","
                  <p style=""text-align: center;"">₪4
                                                <br>25%</p>
                  <p id=""wtp"" style=""text-align:center; margin-top: 0px; margin-bottom: 0px; font-size: 40px"";>&ensp;</p>","-","viewing","0","1","6C,29B,30C","","","","","","","","","","","","","","","","","","","",""
"","","","","","html-slider-response","74","240249","0.0-17.0-1.19","41578bda-270a-4ced-a297-3451d0874fca","3011","
                  <p style=""text-align: center;"">₪4
                                                <br>25%</p>
                  <p id=""wtp"" style=""text-align:center; margin-top: 0px; margin-bottom: 0px; font-size: 40px"";>מוכנים לשלם: <span id=""c_p_y""></span></p>","0","evaluation","38","1","6C,29B,30C","25","4","0","","","","","","","","","","","","","","","","",""
"","","","","","html-keyboard-response","75","241441","0.0-17.0-2.19","41578bda-270a-4ced-a297-3451d0874fca","null","<p style=""text-align: center;"">+</p>","null","fixation","","","","","","","","","","","","","","","","","","","","","","",""
"","","","","","html-slider-response","76","242443","0.0-17.0-0.20","41578bda-270a-4ced-a297-3451d0874fca","1000","
                  <p style=""text-align: center;"">₪61
                                                <br>45%</p>
                  <p id=""wtp"" style=""text-align:center; margin-top: 0px; margin-bottom: 0px; font-size: 40px"";>&ensp;</p>","-","viewing","0","22","10A,11A","","","","","","","","","","","","","","","","","","","",""
"","","","","","html-slider-response","77","245649","0.0-17.0-1.20","41578bda-270a-4ced-a297-3451d0874fca","3204","
                  <p style=""text-align: center;"">₪61
                                                <br>45%</p>
                  <p id=""wtp"" style=""text-align:center; margin-top: 0px; margin-bottom: 0px; font-size: 40px"";>מוכנים לשלם: <span id=""c_p_y""></span></p>","23","evaluation","79","22","10A,11A","45","61","23","","","","","","","","","","","","","","","","",""
"","","","","","html-keyboard-response","78","246391","0.0-17.0-2.20","41578bda-270a-4ced-a297-3451d0874fca","null","<p style=""text-align: center;"">+</p>","null","fixation","","","","","","","","","","","","","","","","","","","","","","",""
"","","","","","html-slider-response","79","247395","0.0-17.0-0.21","41578bda-270a-4ced-a297-3451d0874fca","1000","
                  <p style=""text-align: center;"">₪71
                                                <br>45%</p>
                  <p id=""wtp"" style=""text-align:center; margin-top: 0px; margin-bottom: 0px; font-size: 40px"";>&ensp;</p>","-","viewing","0","26","2B,16A","","","","","","","","","","","","","","","","","","","",""
"","","","","","html-slider-response","80","251313","0.0-17.0-1.21","41578bda-270a-4ced-a297-3451d0874fca","3917","
                  <p style=""text-align: center;"">₪71
                                                <br>45%</p>
                  <p id=""wtp"" style=""text-align:center; margin-top: 0px; margin-bottom: 0px; font-size: 40px"";>מוכנים לשלם: <span id=""c_p_y""></span></p>","24","evaluation","61","26","2B,16A","45","71","24","","","","","","","","","","","","","","","","",""
"","","","","","html-keyboard-response","81","252211","0.0-17.0-2.21","41578bda-270a-4ced-a297-3451d0874fca","null","<p style=""text-align: center;"">+</p>","null","fixation","","","","","","","","","","","","","","","","","","","","","","",""
"","","","","","html-slider-response","82","253214","0.0-17.0-0.22","41578bda-270a-4ced-a297-3451d0874fca","1000","
                  <p style=""text-align: center;"">₪58
                                                <br>30%</p>
                  <p id=""wtp"" style=""text-align:center; margin-top: 0px; margin-bottom: 0px; font-size: 40px"";>&ensp;</p>","-","viewing","0","19","13C,30A","","","","","","","","","","","","","","","","","","","",""
"","","","","","html-slider-response","83","256177","0.0-17.0-1.22","41578bda-270a-4ced-a297-3451d0874fca","2962","
                  <p style=""text-align: center;"">₪58
                                                <br>30%</p>
                  <p id=""wtp"" style=""text-align:center; margin-top: 0px; margin-bottom: 0px; font-size: 40px"";>מוכנים לשלם: <span id=""c_p_y""></span></p>","10","evaluation","9","19","13C,30A","30","58","11","","","","","","","","","","","","","","","","",""
"","","","","","html-keyboard-response","84","256876","0.0-17.0-2.22","41578bda-270a-4ced-a297-3451d0874fca","null","<p style=""text-align: center;"">+</p>","null","fixation","","","","","","","","","","","","","","","","","","","","","","",""
"","","","","","html-slider-response","85","257878","0.0-17.0-0.23","41578bda-270a-4ced-a297-3451d0874fca","1000","
                  <p style=""text-align: center;"">₪11
                                                <br>20%</p>
                  <p id=""wtp"" style=""text-align:center; margin-top: 0px; margin-bottom: 0px; font-size: 40px"";>&ensp;</p>","-","viewing","0","4","12C,17C,23C,28C","","","","","","","","","","","","","","","","","","","",""
"","","","","","html-slider-response","86","261097","0.0-17.0-1.23","41578bda-270a-4ced-a297-3451d0874fca","3218","
                  <p style=""text-align: center;"">₪11
                                                <br>20%</p>
                  <p id=""wtp"" style=""text-align:center; margin-top: 0px; margin-bottom: 0px; font-size: 40px"";>מוכנים לשלם: <span id=""c_p_y""></span></p>","5","evaluation","46","4","12C,17C,23C,28C","20","11","5","","","","","","","","","","","","","","","","",""
"","","","","","html-keyboard-response","87","261868","0.0-17.0-2.23","41578bda-270a-4ced-a297-3451d0874fca","null","<p style=""text-align: center;"">+</p>","null","fixation","","","","","","","","","","","","","","","","","","","","","","",""
"","","","","","html-slider-response","88","262870","0.0-17.0-0.24","41578bda-270a-4ced-a297-3451d0874fca","1000","
                  <p style=""text-align: center;"">₪11
                                                <br>75%</p>
                  <p id=""wtp"" style=""text-align:center; margin-top: 0px; margin-bottom: 0px; font-size: 40px"";>&ensp;</p>","-","viewing","0","7","6B,18B,22C,24C,29A","","","","","","","","","","","","","","","","","","","",""
"","","","","","html-slider-response","89","266625","0.0-17.0-1.24","41578bda-270a-4ced-a297-3451d0874fca","3753","
                  <p style=""text-align: center;"">₪11
                                                <br>75%</p>
                  <p id=""wtp"" style=""text-align:center; margin-top: 0px; margin-bottom: 0px; font-size: 40px"";>מוכנים לשלם: <span id=""c_p_y""></span></p>","6","evaluation","80","7","6B,18B,22C,24C,29A","75","11","7","","","","","","","","","","","","","","","","",""
"","","","","","html-keyboard-response","90","267231","0.0-17.0-2.24","41578bda-270a-4ced-a297-3451d0874fca","null","<p style=""text-align: center;"">+</p>","null","fixation","","","","","","","","","","","","","","","","","","","","","","",""
"","","","","","html-slider-response","91","268234","0.0-17.0-0.25","41578bda-270a-4ced-a297-3451d0874fca","1000","
                  <p style=""text-align: center;"">₪36
                                                <br>70%</p>
                  <p id=""wtp"" style=""text-align:center; margin-top: 0px; margin-bottom: 0px; font-size: 40px"";>&ensp;</p>","-","viewing","0","13","3A,5C,10B","","","","","","","","","","","","","","","","","","","",""
"","","","","","html-slider-response","92","271514","0.0-17.0-1.25","41578bda-270a-4ced-a297-3451d0874fca","3278","
                  <p style=""text-align: center;"">₪36
                                                <br>70%</p>
                  <p id=""wtp"" style=""text-align:center; margin-top: 0px; margin-bottom: 0px; font-size: 40px"";>מוכנים לשלם: <span id=""c_p_y""></span></p>","13","evaluation","37","13","3A,5C,10B","70","36","14","","","","","","","","","","","","","","","","",""
"","","","","","html-keyboard-response","93","272491","0.0-17.0-2.25","41578bda-270a-4ced-a297-3451d0874fca","null","<p style=""text-align: center;"">+</p>","null","fixation","","","","","","","","","","","","","","","","","","","","","","",""
"","","","","","html-slider-response","94","273508","0.0-17.0-0.26","41578bda-270a-4ced-a297-3451d0874fca","1000","
                  <p style=""text-align: center;"">₪36
                                                <br>75%</p>
                  <p id=""wtp"" style=""text-align:center; margin-top: 0px; margin-bottom: 0px; font-size: 40px"";>&ensp;</p>","-","viewing","0","14","4B,5A,13B,16B","","","","","","","","","","","","","","","","","","","",""
"","","","","","html-slider-response","95","274865","0.0-17.0-1.26","41578bda-270a-4ced-a297-3451d0874fca","1356","
                  <p style=""text-align: center;"">₪36
                                                <br>75%</p>
                  <p id=""wtp"" style=""text-align:center; margin-top: 0px; margin-bottom: 0px; font-size: 40px"";>מוכנים לשלם: <span id=""c_p_y""></span></p>","15","evaluation","18","14","4B,5A,13B,16B","75","36","16","","","","","","","","","","","","","","","","",""
"","","","","","html-keyboard-response","96","275724","0.0-17.0-2.26","41578bda-270a-4ced-a297-3451d0874fca","null","<p style=""text-align: center;"">+</p>","null","fixation","","","","","","","","","","","","","","","","","","","","","","",""
"","","","","","html-slider-response","97","276730","0.0-17.0-0.27","41578bda-270a-4ced-a297-3451d0874fca","1000","
                  <p style=""text-align: center;"">₪61
                                                <br>55%</p>
                  <p id=""wtp"" style=""text-align:center; margin-top: 0px; margin-bottom: 0px; font-size: 40px"";>&ensp;</p>","-","viewing","0","23","7B,26B","","","","","","","","","","","","","","","","","","","",""
"","","","","","html-slider-response","98","279833","0.0-17.0-1.27","41578bda-270a-4ced-a297-3451d0874fca","3101","
                  <p style=""text-align: center;"">₪61
                                                <br>55%</p>
                  <p id=""wtp"" style=""text-align:center; margin-top: 0px; margin-bottom: 0px; font-size: 40px"";>מוכנים לשלם: <span id=""c_p_y""></span></p>","27","evaluation","34","23","7B,26B","55","61","27","","","","","","","","","","","","","","","","",""
"","","","","","html-keyboard-response","99","280872","0.0-17.0-2.27","41578bda-270a-4ced-a297-3451d0874fca","null","<p style=""text-align: center;"">+</p>","null","fixation","","","","","","","","","","","","","","","","","","","","","","",""
"","","","","","html-slider-response","100","281876","0.0-17.0-0.28","41578bda-270a-4ced-a297-3451d0874fca","1000","
                  <p style=""text-align: center;"">₪11
                                                <br>25%</p>
                  <p id=""wtp"" style=""text-align:center; margin-top: 0px; margin-bottom: 0px; font-size: 40px"";>&ensp;</p>","-","viewing","0","5","12A,27B,28B,30B","","","","","","","","","","","","","","","","","","","",""
"","","","","","html-slider-response","101","285825","0.0-17.0-1.28","41578bda-270a-4ced-a297-3451d0874fca","3948","
                  <p style=""text-align: center;"">₪11
                                                <br>25%</p>
                  <p id=""wtp"" style=""text-align:center; margin-top: 0px; margin-bottom: 0px; font-size: 40px"";>מוכנים לשלם: <span id=""c_p_y""></span></p>","8","evaluation","32","5","12A,27B,28B,30B","25","11","8","","","","","","","","","","","","","","","","",""
"","","","","","html-keyboard-response","102","287076","0.0-17.0-2.28","41578bda-270a-4ced-a297-3451d0874fca","null","<p style=""text-align: center;"">+</p>","null","fixation","","","","","","","","","","","","","","","","","","","","","","",""
"","","","","","html-slider-response","103","288089","0.0-17.0-0.29","41578bda-270a-4ced-a297-3451d0874fca","1000","
                  <p style=""text-align: center;"">₪43
                                                <br>60%</p>
                  <p id=""wtp"" style=""text-align:center; margin-top: 0px; margin-bottom: 0px; font-size: 40px"";>&ensp;</p>","-","viewing","0","17","2A,7A,9A,15B","","","","","","","","","","","","","","","","","","","",""
"","","","","","html-slider-response","104","292090","0.0-17.0-1.29","41578bda-270a-4ced-a297-3451d0874fca","null","
                  <p style=""text-align: center;"">₪43
                                                <br>60%</p>
                  <p id=""wtp"" style=""text-align:center; margin-top: 0px; margin-bottom: 0px; font-size: 40px"";>מוכנים לשלם: <span id=""c_p_y""></span></p>","null","evaluation","45","17","2A,7A,9A,15B","60","43","21","","","","","","","","","","","","","","","","",""
"","","","","","html-keyboard-response","105","292851","0.0-17.0-2.29","41578bda-270a-4ced-a297-3451d0874fca","null","<p style=""text-align: center;"">+</p>","null","fixation","","","","","","","","","","","","","","","","","","","","","","",""
"","","","","","html-slider-response","106","293854","0.0-17.0-0.30","41578bda-270a-4ced-a297-3451d0874fca","1000","
                  <p style=""text-align: center;"">₪16
                                                <br>20%</p>
                  <p id=""wtp"" style=""text-align:center; margin-top: 0px; margin-bottom: 0px; font-size: 40px"";>&ensp;</p>","-","viewing","0","8","14C,17A,20C,27A","","","","","","","","","","","","","","","","","","","",""
"","","","","","html-slider-response","107","297017","0.0-17.0-1.30","41578bda-270a-4ced-a297-3451d0874fca","3163","
                  <p style=""text-align: center;"">₪16
                                                <br>20%</p>
                  <p id=""wtp"" style=""text-align:center; margin-top: 0px; margin-bottom: 0px; font-size: 40px"";>מוכנים לשלם: <span id=""c_p_y""></span></p>","5","evaluation","65","8","14C,17A,20C,27A","20","16","5","","","","","","","","","","","","","","","","",""
"","","","","","html-keyboard-response","108","298133","0.0-17.0-2.30","41578bda-270a-4ced-a297-3451d0874fca","null","<p style=""text-align: center;"">+</p>","null","fixation","","","","","","","","","","","","","","","","","","","","","","",""
"","","","","","html-keyboard-response","109","299143","0.0-18.0","41578bda-270a-4ced-a297-3451d0874fca","null","<p style=""text-align: center;"">+</p>","null","fixation","","","","","","","","","","","","","","","","","","","","","","",""
"","","","","","html-keyboard-response","110","302873","0.0-19.0","41578bda-270a-4ced-a297-3451d0874fca","null","<p>הפסקה.
          <br>לחצו כדי להמשיך.</p>","1","scan_wait","","","","","","","","","","","","","","","","","","","","","","",""
"","","","","","html-keyboard-response","111","303887","0.0-20.0","41578bda-270a-4ced-a297-3451d0874fca","null","<p style=""text-align: center;"">+</p>","null","fixation","","","","","","","","","","","","","","","","","","","","","","",""
"","","","","","html-slider-response","112","304890","0.0-21.0-0.0","41578bda-270a-4ced-a297-3451d0874fca","1000","
                  <p style=""text-align: center;"">₪58
                                                <br>40%</p>
                  <p id=""wtp"" style=""text-align:center; margin-top: 0px; margin-bottom: 0px; font-size: 40px"";>&ensp;</p>","-","viewing","0","20","10C,13A,19C,21B","","","","","","","","","","","","","","","","","","","",""
"","","","","","html-slider-response","113","307841","0.0-21.0-1.0","41578bda-270a-4ced-a297-3451d0874fca","2950","
                  <p style=""text-align: center;"">₪58
                                                <br>40%</p>
                  <p id=""wtp"" style=""text-align:center; margin-top: 0px; margin-bottom: 0px; font-size: 40px"";>מוכנים לשלם: <span id=""c_p_y""></span></p>","14","evaluation","39","20","10C,13A,19C,21B","40","58","15","","","","","","","","","","","","","","","","",""
"","","","","","html-keyboard-response","114","308794","0.0-21.0-2.0","41578bda-270a-4ced-a297-3451d0874fca","null","<p style=""text-align: center;"">+</p>","null","fixation","","","","","","","","","","","","","","","","","","","","","","",""
"","","","","","html-slider-response","115","309796","0.0-21.0-0.1","41578bda-270a-4ced-a297-3451d0874fca","1000","
                  <p style=""text-align: center;"">₪61
                                                <br>55%</p>
                  <p id=""wtp"" style=""text-align:center; margin-top: 0px; margin-bottom: 0px; font-size: 40px"";>&ensp;</p>","-","viewing","0","23","7B,26B","","","","","","","","","","","","","","","","","","","",""
"","","","","","html-slider-response","116","312777","0.0-21.0-1.1","41578bda-270a-4ced-a297-3451d0874fca","2980","
                  <p style=""text-align: center;"">₪61
                                                <br>55%</p>
                  <p id=""wtp"" style=""text-align:center; margin-top: 0px; margin-bottom: 0px; font-size: 40px"";>מוכנים לשלם: <span id=""c_p_y""></span></p>","24","evaluation","71","23","7B,26B","55","61","24","","","","","","","","","","","","","","","","",""
"","","","","","html-keyboard-response","117","314149","0.0-21.0-2.1","41578bda-270a-4ced-a297-3451d0874fca","null","<p style=""text-align: center;"">+</p>","null","fixation","","","","","","","","","","","","","","","","","","","","","","",""
"","","","","","html-slider-response","118","315156","0.0-21.0-0.2","41578bda-270a-4ced-a297-3451d0874fca","1000","
                  <p style=""text-align: center;"">₪64
                                                <br>25%</p>
                  <p id=""wtp"" style=""text-align:center; margin-top: 0px; margin-bottom: 0px; font-size: 40px"";>&ensp;</p>","-","viewing","0","24","6A,21A","","","","","","","","","","","","","","","","","","","",""
"","","","","","html-slider-response","119","318049","0.0-21.0-1.2","41578bda-270a-4ced-a297-3451d0874fca","2892","
                  <p style=""text-align: center;"">₪64
                                                <br>25%</p>
                  <p id=""wtp"" style=""text-align:center; margin-top: 0px; margin-bottom: 0px; font-size: 40px"";>מוכנים לשלם: <span id=""c_p_y""></span></p>","13","evaluation","24","24","6A,21A","25","64","13","","","","","","","","","","","","","","","","",""
"","","","","","html-keyboard-response","120","319381","0.0-21.0-2.2","41578bda-270a-4ced-a297-3451d0874fca","null","<p style=""text-align: center;"">+</p>","null","fixation","","","","","","","","","","","","","","","","","","","","","","",""
"","","","","","html-slider-response","121","320384","0.0-21.0-0.3","41578bda-270a-4ced-a297-3451d0874fca","1000","
                  <p style=""text-align: center;"">₪36
                                                <br>70%</p>
                  <p id=""wtp"" style=""text-align:center; margin-top: 0px; margin-bottom: 0px; font-size: 40px"";>&ensp;</p>","-","viewing","0","13","3A,5C,10B","","","","","","","","","","","","","","","","","","","",""
"","","","","","html-slider-response","122","324361","0.0-21.0-1.3","41578bda-270a-4ced-a297-3451d0874fca","3976","
                  <p style=""text-align: center;"">₪36
                                                <br>70%</p>
                  <p id=""wtp"" style=""text-align:center; margin-top: 0px; margin-bottom: 0px; font-size: 40px"";>מוכנים לשלם: <span id=""c_p_y""></span></p>","23","evaluation","53","13","3A,5C,10B","70","36","23","","","","","","","","","","","","","","","","",""
"","","","","","html-keyboard-response","123","325664","0.0-21.0-2.3","41578bda-270a-4ced-a297-3451d0874fca","null","<p style=""text-align: center;"">+</p>","null","fixation","","","","","","","","","","","","","","","","","","","","","","",""
"","","","","","html-slider-response","124","326666","0.0-21.0-0.4","41578bda-270a-4ced-a297-3451d0874fca","1000","
                  <p style=""text-align: center;"">₪11
                                                <br>20%</p>
                  <p id=""wtp"" style=""text-align:center; margin-top: 0px; margin-bottom: 0px; font-size: 40px"";>&ensp;</p>","-","viewing","0","4","12C,17C,23C,28C","","","","","","","","","","","","","","","","","","","",""
"","","","","","html-slider-response","125","330669","0.0-21.0-1.4","41578bda-270a-4ced-a297-3451d0874fca","null","
                  <p style=""text-align: center;"">₪11
                                                <br>20%</p>
                  <p id=""wtp"" style=""text-align:center; margin-top: 0px; margin-bottom: 0px; font-size: 40px"";>מוכנים לשלם: <span id=""c_p_y""></span></p>","null","evaluation","23","4","12C,17C,23C,28C","20","11","3","","","","","","","","","","","","","","","","",""
"","","","","","html-keyboard-response","126","332089","0.0-21.0-2.4","41578bda-270a-4ced-a297-3451d0874fca","null","<p style=""text-align: center;"">+</p>","null","fixation","","","","","","","","","","","","","","","","","","","","","","",""
"","","","","","html-slider-response","127","333101","0.0-21.0-0.5","41578bda-270a-4ced-a297-3451d0874fca","1000","
                  <p style=""text-align: center;"">₪36
                                                <br>60%</p>
                  <p id=""wtp"" style=""text-align:center; margin-top: 0px; margin-bottom: 0px; font-size: 40px"";>&ensp;</p>","-","viewing","0","12","1C,7C,15C","","","","","","","","","","","","","","","","","","","",""
"","","","","","html-slider-response","128","337033","0.0-21.0-1.5","41578bda-270a-4ced-a297-3451d0874fca","3931","
                  <p style=""text-align: center;"">₪36
                                                <br>60%</p>
                  <p id=""wtp"" style=""text-align:center; margin-top: 0px; margin-bottom: 0px; font-size: 40px"";>מוכנים לשלם: <span id=""c_p_y""></span></p>","15","evaluation","34","12","1C,7C,15C","60","36","15","","","","","","","","","","","","","","","","",""
"","","","","","html-keyboard-response","129","338327","0.0-21.0-2.5","41578bda-270a-4ced-a297-3451d0874fca","null","<p style=""text-align: center;"">+</p>","null","fixation","","","","","","","","","","","","","","","","","","","","","","",""
"","","","","","html-slider-response","130","339329","0.0-21.0-0.6","41578bda-270a-4ced-a297-3451d0874fca","1000","
                  <p style=""text-align: center;"">₪39
                                                <br>60%</p>
                  <p id=""wtp"" style=""text-align:center; margin-top: 0px; margin-bottom: 0px; font-size: 40px"";>&ensp;</p>","-","viewing","0","15","9C,25B","","","","","","","","","","","","","","","","","","","",""
"","","","","","html-slider-response","131","342513","0.0-21.0-1.6","41578bda-270a-4ced-a297-3451d0874fca","3183","
                  <p style=""text-align: center;"">₪39
                                                <br>60%</p>
                  <p id=""wtp"" style=""text-align:center; margin-top: 0px; margin-bottom: 0px; font-size: 40px"";>מוכנים לשלם: <span id=""c_p_y""></span></p>","23","evaluation","31","15","9C,25B","60","39","23","","","","","","","","","","","","","","","","",""
"","","","","","html-keyboard-response","132","343833","0.0-21.0-2.6","41578bda-270a-4ced-a297-3451d0874fca","null","<p style=""text-align: center;"">+</p>","null","fixation","","","","","","","","","","","","","","","","","","","","","","",""
"","","","","","html-slider-response","133","344843","0.0-21.0-0.7","41578bda-270a-4ced-a297-3451d0874fca","1000","
                  <p style=""text-align: center;"">₪39
                                                <br>65%</p>
                  <p id=""wtp"" style=""text-align:center; margin-top: 0px; margin-bottom: 0px; font-size: 40px"";>&ensp;</p>","-","viewing","0","16","1A,15A,26C","","","","","","","","","","","","","","","","","","","",""
"","","","","","html-slider-response","134","346297","0.0-21.0-1.7","41578bda-270a-4ced-a297-3451d0874fca","1454","
                  <p style=""text-align: center;"">₪39
                                                <br>65%</p>
                  <p id=""wtp"" style=""text-align:center; margin-top: 0px; margin-bottom: 0px; font-size: 40px"";>מוכנים לשלם: <span id=""c_p_y""></span></p>","26","evaluation","20","16","1A,15A,26C","65","39","26","","","","","","","","","","","","","","","","",""
"","","","","","html-keyboard-response","135","347735","0.0-21.0-2.7","41578bda-270a-4ced-a297-3451d0874fca","null","<p style=""text-align: center;"">+</p>","null","fixation","","","","","","","","","","","","","","","","","","","","","","",""
"","","","","","html-slider-response","136","348749","0.0-21.0-0.8","41578bda-270a-4ced-a297-3451d0874fca","1000","
                  <p style=""text-align: center;"">₪18
                                                <br>25%</p>
                  <p id=""wtp"" style=""text-align:center; margin-top: 0px; margin-bottom: 0px; font-size: 40px"";>&ensp;</p>","-","viewing","0","9","14A,23A","","","","","","","","","","","","","","","","","","","",""
"","","","","","html-slider-response","137","352649","0.0-21.0-1.8","41578bda-270a-4ced-a297-3451d0874fca","3899","
                  <p style=""text-align: center;"">₪18
                                                <br>25%</p>
                  <p id=""wtp"" style=""text-align:center; margin-top: 0px; margin-bottom: 0px; font-size: 40px"";>מוכנים לשלם: <span id=""c_p_y""></span></p>","6","evaluation","25","9","14A,23A","25","18","6","","","","","","","","","","","","","","","","",""
"","","","","","html-keyboard-response","138","353319","0.0-21.0-2.8","41578bda-270a-4ced-a297-3451d0874fca","null","<p style=""text-align: center;"">+</p>","null","fixation","","","","","","","","","","","","","","","","","","","","","","",""
"","","","","","html-slider-response","139","354331","0.0-21.0-0.9","41578bda-270a-4ced-a297-3451d0874fca","1000","
                  <p style=""text-align: center;"">₪11
                                                <br>25%</p>
                  <p id=""wtp"" style=""text-align:center; margin-top: 0px; margin-bottom: 0px; font-size: 40px"";>&ensp;</p>","-","viewing","0","5","12A,27B,28B,30B","","","","","","","","","","","","","","","","","","","",""
"","","","","","html-slider-response","140","358281","0.0-21.0-1.9","41578bda-270a-4ced-a297-3451d0874fca","3949","
                  <p style=""text-align: center;"">₪11
                                                <br>25%</p>
                  <p id=""wtp"" style=""text-align:center; margin-top: 0px; margin-bottom: 0px; font-size: 40px"";>מוכנים לשלם: <span id=""c_p_y""></span></p>","2","evaluation","60","5","12A,27B,28B,30B","25","11","3","","","","","","","","","","","","","","","","",""
"","","","","","html-keyboard-response","141","359662","0.0-21.0-2.9","41578bda-270a-4ced-a297-3451d0874fca","null","<p style=""text-align: center;"">+</p>","null","fixation","","","","","","","","","","","","","","","","","","","","","","",""
"","","","","","html-slider-response","142","360674","0.0-21.0-0.10","41578bda-270a-4ced-a297-3451d0874fca","1000","
                  <p style=""text-align: center;"">₪71
                                                <br>75%</p>
                  <p id=""wtp"" style=""text-align:center; margin-top: 0px; margin-bottom: 0px; font-size: 40px"";>&ensp;</p>","-","viewing","0","28","8B","","","","","","","","","","","","","","","","","","","",""
"","","","","","html-slider-response","143","364686","0.0-21.0-1.10","41578bda-270a-4ced-a297-3451d0874fca","null","
                  <p style=""text-align: center;"">₪71
                                                <br>75%</p>
                  <p id=""wtp"" style=""text-align:center; margin-top: 0px; margin-bottom: 0px; font-size: 40px"";>מוכנים לשלם: <span id=""c_p_y""></span></p>","null","evaluation","78","28","8B","75","71","36","","","","","","","","","","","","","","","","",""
"","","","","","html-keyboard-response","144","365980","0.0-21.0-2.10","41578bda-270a-4ced-a297-3451d0874fca","null","<p style=""text-align: center;"">+</p>","null","fixation","","","","","","","","","","","","","","","","","","","","","","",""
"","","","","","html-slider-response","145","366996","0.0-21.0-0.11","41578bda-270a-4ced-a297-3451d0874fca","1000","
                  <p style=""text-align: center;"">₪58
                                                <br>45%</p>
                  <p id=""wtp"" style=""text-align:center; margin-top: 0px; margin-bottom: 0px; font-size: 40px"";>&ensp;</p>","-","viewing","0","21","11C,18C,25A","","","","","","","","","","","","","","","","","","","",""
"","","","","","html-slider-response","146","370113","0.0-21.0-1.11","41578bda-270a-4ced-a297-3451d0874fca","3116","
                  <p style=""text-align: center;"">₪58
                                                <br>45%</p>
                  <p id=""wtp"" style=""text-align:center; margin-top: 0px; margin-bottom: 0px; font-size: 40px"";>מוכנים לשלם: <span id=""c_p_y""></span></p>","26","evaluation","68","21","11C,18C,25A","45","58","26","","","","","","","","","","","","","","","","",""
"","","","","","html-keyboard-response","147","371451","0.0-21.0-2.11","41578bda-270a-4ced-a297-3451d0874fca","null","<p style=""text-align: center;"">+</p>","null","fixation","","","","","","","","","","","","","","","","","","","","","","",""
"","","","","","html-slider-response","148","372455","0.0-21.0-0.12","41578bda-270a-4ced-a297-3451d0874fca","1000","
                  <p style=""text-align: center;"">₪11
                                                <br>75%</p>
                  <p id=""wtp"" style=""text-align:center; margin-top: 0px; margin-bottom: 0px; font-size: 40px"";>&ensp;</p>","-","viewing","0","7","6B,18B,22C,24C,29A","","","","","","","","","","","","","","","","","","","",""
"","","","","","html-slider-response","149","376305","0.0-21.0-1.12","41578bda-270a-4ced-a297-3451d0874fca","3849","
                  <p style=""text-align: center;"">₪11
                                                <br>75%</p>
                  <p id=""wtp"" style=""text-align:center; margin-top: 0px; margin-bottom: 0px; font-size: 40px"";>מוכנים לשלם: <span id=""c_p_y""></span></p>","6","evaluation","37","7","6B,18B,22C,24C,29A","75","11","6","","","","","","","","","","","","","","","","",""
"","","","","","html-keyboard-response","150","377434","0.0-21.0-2.12","41578bda-270a-4ced-a297-3451d0874fca","null","<p style=""text-align: center;"">+</p>","null","fixation","","","","","","","","","","","","","","","","","","","","","","",""
"","","","","","html-slider-response","151","378438","0.0-21.0-0.13","41578bda-270a-4ced-a297-3451d0874fca","1000","
                  <p style=""text-align: center;"">₪36
                                                <br>30%</p>
                  <p id=""wtp"" style=""text-align:center; margin-top: 0px; margin-bottom: 0px; font-size: 40px"";>&ensp;</p>","-","viewing","0","11","3C,20A,22A","","","","","","","","","","","","","","","","","","","",""
"","","","","","html-slider-response","152","381561","0.0-21.0-1.13","41578bda-270a-4ced-a297-3451d0874fca","3122","
                  <p style=""text-align: center;"">₪36
                                                <br>30%</p>
                  <p id=""wtp"" style=""text-align:center; margin-top: 0px; margin-bottom: 0px; font-size: 40px"";>מוכנים לשלם: <span id=""c_p_y""></span></p>","7","evaluation","79","11","3C,20A,22A","30","36","7","","","","","","","","","","","","","","","","",""
"","","","","","html-keyboard-response","153","382179","0.0-21.0-2.13","41578bda-270a-4ced-a297-3451d0874fca","null","<p style=""text-align: center;"">+</p>","null","fixation","","","","","","","","","","","","","","","","","","","","","","",""
"","","","","","html-slider-response","154","383183","0.0-21.0-0.14","41578bda-270a-4ced-a297-3451d0874fca","1000","
                  <p style=""text-align: center;"">₪71
                                                <br>55%</p>
                  <p id=""wtp"" style=""text-align:center; margin-top: 0px; margin-bottom: 0px; font-size: 40px"";>&ensp;</p>","-","viewing","0","27","5B,18A","","","","","","","","","","","","","","","","","","","",""
"","","","","","html-slider-response","155","387186","0.0-21.0-1.14","41578bda-270a-4ced-a297-3451d0874fca","null","
                  <p style=""text-align: center;"">₪71
                                                <br>55%</p>
                  <p id=""wtp"" style=""text-align:center; margin-top: 0px; margin-bottom: 0px; font-size: 40px"";>מוכנים לשלם: <span id=""c_p_y""></span></p>","null","evaluation","48","27","5B,18A","55","71","44","","","","","","","","","","","","","","","","",""
"","","","","","html-keyboard-response","156","387736","0.0-21.0-2.14","41578bda-270a-4ced-a297-3451d0874fca","null","<p style=""text-align: center;"">+</p>","null","fixation","","","","","","","","","","","","","","","","","","","","","","",""
"","","","","","html-slider-response","157","388739","0.0-21.0-0.15","41578bda-270a-4ced-a297-3451d0874fca","1000","
                  <p style=""text-align: center;"">₪71
                                                <br>45%</p>
                  <p id=""wtp"" style=""text-align:center; margin-top: 0px; margin-bottom: 0px; font-size: 40px"";>&ensp;</p>","-","viewing","0","26","2B,16A","","","","","","","","","","","","","","","","","","","",""
"","","","","","html-slider-response","158","390545","0.0-21.0-1.15","41578bda-270a-4ced-a297-3451d0874fca","1806","
                  <p style=""text-align: center;"">₪71
                                                <br>45%</p>
                  <p id=""wtp"" style=""text-align:center; margin-top: 0px; margin-bottom: 0px; font-size: 40px"";>מוכנים לשלם: <span id=""c_p_y""></span></p>","25","evaluation","3","26","2B,16A","45","71","26","","","","","","","","","","","","","","","","",""
"","","","","","html-keyboard-response","159","391486","0.0-21.0-2.15","41578bda-270a-4ced-a297-3451d0874fca","null","<p style=""text-align: center;"">+</p>","null","fixation","","","","","","","","","","","","","","","","","","","","","","",""
"","","","","","html-slider-response","160","392489","0.0-21.0-0.16","41578bda-270a-4ced-a297-3451d0874fca","1000","
                  <p style=""text-align: center;"">₪4
                                                <br>25%</p>
                  <p id=""wtp"" style=""text-align:center; margin-top: 0px; margin-bottom: 0px; font-size: 40px"";>&ensp;</p>","-","viewing","0","1","6C,29B,30C","","","","","","","","","","","","","","","","","","","",""
"","","","","","html-slider-response","161","396491","0.0-21.0-1.16","41578bda-270a-4ced-a297-3451d0874fca","null","
                  <p style=""text-align: center;"">₪4
                                                <br>25%</p>
                  <p id=""wtp"" style=""text-align:center; margin-top: 0px; margin-bottom: 0px; font-size: 40px"";>מוכנים לשלם: <span id=""c_p_y""></span></p>","null","evaluation","28","1","6C,29B,30C","25","4","1","","","","","","","","","","","","","","","","",""
"","","","","","html-keyboard-response","162","397074","0.0-21.0-2.16","41578bda-270a-4ced-a297-3451d0874fca","null","<p style=""text-align: center;"">+</p>","null","fixation","","","","","","","","","","","","","","","","","","","","","","",""
"","","","","","html-slider-response","163","398091","0.0-21.0-0.17","41578bda-270a-4ced-a297-3451d0874fca","1000","
                  <p style=""text-align: center;"">₪18
                                                <br>50%</p>
                  <p id=""wtp"" style=""text-align:center; margin-top: 0px; margin-bottom: 0px; font-size: 40px"";>&ensp;</p>","-","viewing","0","10","2C,16C,22B,28A","","","","","","","","","","","","","","","","","","","",""
"","","","","","html-slider-response","164","402094","0.0-21.0-1.17","41578bda-270a-4ced-a297-3451d0874fca","null","
                  <p style=""text-align: center;"">₪18
                                                <br>50%</p>
                  <p id=""wtp"" style=""text-align:center; margin-top: 0px; margin-bottom: 0px; font-size: 40px"";>מוכנים לשלם: <span id=""c_p_y""></span></p>","null","evaluation","61","10","2C,16C,22B,28A","50","18","7","","","","","","","","","","","","","","","","",""
"","","","","","html-keyboard-response","165","402851","0.0-21.0-2.17","41578bda-270a-4ced-a297-3451d0874fca","null","<p style=""text-align: center;"">+</p>","null","fixation","","","","","","","","","","","","","","","","","","","","","","",""
"","","","","","html-slider-response","166","403855","0.0-21.0-0.18","41578bda-270a-4ced-a297-3451d0874fca","1000","
                  <p style=""text-align: center;"">₪76
                                                <br>65%</p>
                  <p id=""wtp"" style=""text-align:center; margin-top: 0px; margin-bottom: 0px; font-size: 40px"";>&ensp;</p>","-","viewing","0","29","8C,19A,24B","","","","","","","","","","","","","","","","","","","",""
"","","","","","html-slider-response","167","407065","0.0-21.0-1.18","41578bda-270a-4ced-a297-3451d0874fca","3208","
                  <p style=""text-align: center;"">₪76
                                                <br>65%</p>
                  <p id=""wtp"" style=""text-align:center; margin-top: 0px; margin-bottom: 0px; font-size: 40px"";>מוכנים לשלם: <span id=""c_p_y""></span></p>","36","evaluation","53","29","8C,19A,24B","65","76","36","","","","","","","","","","","","","","","","",""
"","","","","","html-keyboard-response","168","408470","0.0-21.0-2.18","41578bda-270a-4ced-a297-3451d0874fca","null","<p style=""text-align: center;"">+</p>","null","fixation","","","","","","","","","","","","","","","","","","","","","","",""
"","","","","","html-slider-response","169","409476","0.0-21.0-0.19","41578bda-270a-4ced-a297-3451d0874fca","1000","
                  <p style=""text-align: center;"">₪11
                                                <br>45%</p>
                  <p id=""wtp"" style=""text-align:center; margin-top: 0px; margin-bottom: 0px; font-size: 40px"";>&ensp;</p>","-","viewing","0","6","14B,21C,25C","","","","","","","","","","","","","","","","","","","",""
"","","","","","html-slider-response","170","412281","0.0-21.0-1.19","41578bda-270a-4ced-a297-3451d0874fca","2804","
                  <p style=""text-align: center;"">₪11
                                                <br>45%</p>
                  <p id=""wtp"" style=""text-align:center; margin-top: 0px; margin-bottom: 0px; font-size: 40px"";>מוכנים לשלם: <span id=""c_p_y""></span></p>","4","evaluation","68","6","14B,21C,25C","45","11","4","","","","","","","","","","","","","","","","",""
"","","","","","html-keyboard-response","171","413095","0.0-21.0-2.19","41578bda-270a-4ced-a297-3451d0874fca","null","<p style=""text-align: center;"">+</p>","null","fixation","","","","","","","","","","","","","","","","","","","","","","",""
"","","","","","html-slider-response","172","414105","0.0-21.0-0.20","41578bda-270a-4ced-a297-3451d0874fca","1000","
                  <p style=""text-align: center;"">₪4
                                                <br>50%</p>
                  <p id=""wtp"" style=""text-align:center; margin-top: 0px; margin-bottom: 0px; font-size: 40px"";>&ensp;</p>","-","viewing","0","2","4C,17B","","","","","","","","","","","","","","","","","","","",""
"","","","","","html-slider-response","173","418105","0.0-21.0-1.20","41578bda-270a-4ced-a297-3451d0874fca","3999","
                  <p style=""text-align: center;"">₪4
                                                <br>50%</p>
                  <p id=""wtp"" style=""text-align:center; margin-top: 0px; margin-bottom: 0px; font-size: 40px"";>מוכנים לשלם: <span id=""c_p_y""></span></p>","2","evaluation","38","2","4C,17B","50","4","2","","","","","","","","","","","","","","","","",""
"","","","","","html-keyboard-response","174","419468","0.0-21.0-2.20","41578bda-270a-4ced-a297-3451d0874fca","null","<p style=""text-align: center;"">+</p>","null","fixation","","","","","","","","","","","","","","","","","","","","","","",""
"","","","","","html-slider-response","175","420484","0.0-21.0-0.21","41578bda-270a-4ced-a297-3451d0874fca","1000","
                  <p style=""text-align: center;"">₪43
                                                <br>75%</p>
                  <p id=""wtp"" style=""text-align:center; margin-top: 0px; margin-bottom: 0px; font-size: 40px"";>&ensp;</p>","-","viewing","0","18","11B,19B,24A,26A","","","","","","","","","","","","","","","","","","","",""
"","","","","","html-slider-response","176","424233","0.0-21.0-1.21","41578bda-270a-4ced-a297-3451d0874fca","3747","
                  <p style=""text-align: center;"">₪43
                                                <br>75%</p>
                  <p id=""wtp"" style=""text-align:center; margin-top: 0px; margin-bottom: 0px; font-size: 40px"";>מוכנים לשלם: <span id=""c_p_y""></span></p>","15","evaluation","54","18","11B,19B,24A,26A","75","43","15","","","","","","","","","","","","","","","","",""
"","","","","","html-keyboard-response","177","425329","0.0-21.0-2.21","41578bda-270a-4ced-a297-3451d0874fca","null","<p style=""text-align: center;"">+</p>","null","fixation","","","","","","","","","","","","","","","","","","","","","","",""
"","","","","","html-slider-response","178","426330","0.0-21.0-0.22","41578bda-270a-4ced-a297-3451d0874fca","1000","
                  <p style=""text-align: center;"">₪79
                                                <br>65%</p>
                  <p id=""wtp"" style=""text-align:center; margin-top: 0px; margin-bottom: 0px; font-size: 40px"";>&ensp;</p>","-","viewing","0","31","8A","","","","","","","","","","","","","","","","","","","",""
"","","","","","html-slider-response","179","430097","0.0-21.0-1.22","41578bda-270a-4ced-a297-3451d0874fca","3766","
                  <p style=""text-align: center;"">₪79
                                                <br>65%</p>
                  <p id=""wtp"" style=""text-align:center; margin-top: 0px; margin-bottom: 0px; font-size: 40px"";>מוכנים לשלם: <span id=""c_p_y""></span></p>","47","evaluation","40","31","8A","65","79","46","","","","","","","","","","","","","","","","",""
"","","","","","html-keyboard-response","180","431079","0.0-21.0-2.22","41578bda-270a-4ced-a297-3451d0874fca","null","<p style=""text-align: center;"">+</p>","null","fixation","","","","","","","","","","","","","","","","","","","","","","",""
"","","","","","html-slider-response","181","432088","0.0-21.0-0.23","41578bda-270a-4ced-a297-3451d0874fca","1000","
                  <p style=""text-align: center;"">₪16
                                                <br>20%</p>
                  <p id=""wtp"" style=""text-align:center; margin-top: 0px; margin-bottom: 0px; font-size: 40px"";>&ensp;</p>","-","viewing","0","8","14C,17A,20C,27A","","","","","","","","","","","","","","","","","","","",""
"","","","","","html-slider-response","182","436101","0.0-21.0-1.23","41578bda-270a-4ced-a297-3451d0874fca","null","
                  <p style=""text-align: center;"">₪16
                                                <br>20%</p>
                  <p id=""wtp"" style=""text-align:center; margin-top: 0px; margin-bottom: 0px; font-size: 40px"";>מוכנים לשלם: <span id=""c_p_y""></span></p>","null","evaluation","64","8","14C,17A,20C,27A","20","16","10","","","","","","","","","","","","","","","","",""
"","","","","","html-keyboard-response","183","437203","0.0-21.0-2.23","41578bda-270a-4ced-a297-3451d0874fca","null","<p style=""text-align: center;"">+</p>","null","fixation","","","","","","","","","","","","","","","","","","","","","","",""
"","","","","","html-slider-response","184","438209","0.0-21.0-0.24","41578bda-270a-4ced-a297-3451d0874fca","1000","
                  <p style=""text-align: center;"">₪4
                                                <br>75%</p>
                  <p id=""wtp"" style=""text-align:center; margin-top: 0px; margin-bottom: 0px; font-size: 40px"";>&ensp;</p>","-","viewing","0","3","12B,20B,23B,27C,29C","","","","","","","","","","","","","","","","","","","",""
"","","","","","html-slider-response","185","441729","0.0-21.0-1.24","41578bda-270a-4ced-a297-3451d0874fca","3518","
                  <p style=""text-align: center;"">₪4
                                                <br>75%</p>
                  <p id=""wtp"" style=""text-align:center; margin-top: 0px; margin-bottom: 0px; font-size: 40px"";>מוכנים לשלם: <span id=""c_p_y""></span></p>","0","evaluation","75","3","12B,20B,23B,27C,29C","75","4","1","","","","","","","","","","","","","","","","",""
"","","","","","html-keyboard-response","186","443032","0.0-21.0-2.24","41578bda-270a-4ced-a297-3451d0874fca","null","<p style=""text-align: center;"">+</p>","null","fixation","","","","","","","","","","","","","","","","","","","","","","",""
"","","","","","html-slider-response","187","444039","0.0-21.0-0.25","41578bda-270a-4ced-a297-3451d0874fca","1000","
                  <p style=""text-align: center;"">₪58
                                                <br>30%</p>
                  <p id=""wtp"" style=""text-align:center; margin-top: 0px; margin-bottom: 0px; font-size: 40px"";>&ensp;</p>","-","viewing","0","19","13C,30A","","","","","","","","","","","","","","","","","","","",""
"","","","","","html-slider-response","188","448040","0.0-21.0-1.25","41578bda-270a-4ced-a297-3451d0874fca","null","
                  <p style=""text-align: center;"">₪58
                                                <br>30%</p>
                  <p id=""wtp"" style=""text-align:center; margin-top: 0px; margin-bottom: 0px; font-size: 40px"";>מוכנים לשלם: <span id=""c_p_y""></span></p>","null","evaluation","46","19","13C,30A","30","58","23","","","","","","","","","","","","","","","","",""
"","","","","","html-keyboard-response","189","449029","0.0-21.0-2.25","41578bda-270a-4ced-a297-3451d0874fca","null","<p style=""text-align: center;"">+</p>","null","fixation","","","","","","","","","","","","","","","","","","","","","","",""
"","","","","","html-slider-response","190","450036","0.0-21.0-0.26","41578bda-270a-4ced-a297-3451d0874fca","1000","
                  <p style=""text-align: center;"">₪36
                                                <br>75%</p>
                  <p id=""wtp"" style=""text-align:center; margin-top: 0px; margin-bottom: 0px; font-size: 40px"";>&ensp;</p>","-","viewing","0","14","4B,5A,13B,16B","","","","","","","","","","","","","","","","","","","",""
"","","","","","html-slider-response","191","452009","0.0-21.0-1.26","41578bda-270a-4ced-a297-3451d0874fca","1972","
                  <p style=""text-align: center;"">₪36
                                                <br>75%</p>
                  <p id=""wtp"" style=""text-align:center; margin-top: 0px; margin-bottom: 0px; font-size: 40px"";>מוכנים לשלם: <span id=""c_p_y""></span></p>","13","evaluation","0","14","4B,5A,13B,16B","75","36","14","","","","","","","","","","","","","","","","",""
"","","","","","html-keyboard-response","192","453024","0.0-21.0-2.26","41578bda-270a-4ced-a297-3451d0874fca","null","<p style=""text-align: center;"">+</p>","null","fixation","","","","","","","","","","","","","","","","","","","","","","",""
"","","","","","html-slider-response","193","454039","0.0-21.0-0.27","41578bda-270a-4ced-a297-3451d0874fca","1000","
                  <p style=""text-align: center;"">₪43
                                                <br>60%</p>
                  <p id=""wtp"" style=""text-align:center; margin-top: 0px; margin-bottom: 0px; font-size: 40px"";>&ensp;</p>","-","viewing","0","17","2A,7A,9A,15B","","","","","","","","","","","","","","","","","","","",""
"","","","","","html-slider-response","194","457321","0.0-21.0-1.27","41578bda-270a-4ced-a297-3451d0874fca","3280","
                  <p style=""text-align: center;"">₪43
                                                <br>60%</p>
                  <p id=""wtp"" style=""text-align:center; margin-top: 0px; margin-bottom: 0px; font-size: 40px"";>מוכנים לשלם: <span id=""c_p_y""></span></p>","19","evaluation","7","17","2A,7A,9A,15B","60","43","19","","","","","","","","","","","","","","","","",""
"","","","","","html-keyboard-response","195","458748","0.0-21.0-2.27","41578bda-270a-4ced-a297-3451d0874fca","null","<p style=""text-align: center;"">+</p>","null","fixation","","","","","","","","","","","","","","","","","","","","","","",""
"","","","","","html-slider-response","196","459750","0.0-21.0-0.28","41578bda-270a-4ced-a297-3451d0874fca","1000","
                  <p style=""text-align: center;"">₪64
                                                <br>50%</p>
                  <p id=""wtp"" style=""text-align:center; margin-top: 0px; margin-bottom: 0px; font-size: 40px"";>&ensp;</p>","-","viewing","0","25","1B,3B,4A","","","","","","","","","","","","","","","","","","","",""
"","","","","","html-slider-response","197","462905","0.0-21.0-1.28","41578bda-270a-4ced-a297-3451d0874fca","3154","
                  <p style=""text-align: center;"">₪64
                                                <br>50%</p>
                  <p id=""wtp"" style=""text-align:center; margin-top: 0px; margin-bottom: 0px; font-size: 40px"";>מוכנים לשלם: <span id=""c_p_y""></span></p>","15","evaluation","20","25","1B,3B,4A","50","64","15","","","","","","","","","","","","","","","","",""
"","","","","","html-keyboard-response","198","464315","0.0-21.0-2.28","41578bda-270a-4ced-a297-3451d0874fca","null","<p style=""text-align: center;"">+</p>","null","fixation","","","","","","","","","","","","","","","","","","","","","","",""
"","","","","","html-slider-response","199","465317","0.0-21.0-0.29","41578bda-270a-4ced-a297-3451d0874fca","1000","
                  <p style=""text-align: center;"">₪79
                                                <br>40%</p>
                  <p id=""wtp"" style=""text-align:center; margin-top: 0px; margin-bottom: 0px; font-size: 40px"";>&ensp;</p>","-","viewing","0","30","9B","","","","","","","","","","","","","","","","","","","",""
"","","","","","html-slider-response","200","469319","0.0-21.0-1.29","41578bda-270a-4ced-a297-3451d0874fca","null","
                  <p style=""text-align: center;"">₪79
                                                <br>40%</p>
                  <p id=""wtp"" style=""text-align:center; margin-top: 0px; margin-bottom: 0px; font-size: 40px"";>מוכנים לשלם: <span id=""c_p_y""></span></p>","null","evaluation","31","30","9B","40","79","28","","","","","","","","","","","","","","","","",""
"","","","","","html-keyboard-response","201","469848","0.0-21.0-2.29","41578bda-270a-4ced-a297-3451d0874fca","null","<p style=""text-align: center;"">+</p>","null","fixation","","","","","","","","","","","","","","","","","","","","","","",""
"","","","","","html-slider-response","202","470852","0.0-21.0-0.30","41578bda-270a-4ced-a297-3451d0874fca","1000","
                  <p style=""text-align: center;"">₪61
                                                <br>45%</p>
                  <p id=""wtp"" style=""text-align:center; margin-top: 0px; margin-bottom: 0px; font-size: 40px"";>&ensp;</p>","-","viewing","0","22","10A,11A","","","","","","","","","","","","","","","","","","","",""
"","","","","","html-slider-response","203","472241","0.0-21.0-1.30","41578bda-270a-4ced-a297-3451d0874fca","1387","
                  <p style=""text-align: center;"">₪61
                                                <br>45%</p>
                  <p id=""wtp"" style=""text-align:center; margin-top: 0px; margin-bottom: 0px; font-size: 40px"";>מוכנים לשלם: <span id=""c_p_y""></span></p>","24","evaluation","60","22","10A,11A","45","61","24","","","","","","","","","","","","","","","","",""
"","","","","","html-keyboard-response","204","472943","0.0-21.0-2.30","41578bda-270a-4ced-a297-3451d0874fca","null","<p style=""text-align: center;"">+</p>","null","fixation","","","","","","","","","","","","","","","","","","","","","","",""
"","","","","","html-keyboard-response","205","473944","0.0-22.0","41578bda-270a-4ced-a297-3451d0874fca","null","<p style=""text-align: center;"">+</p>","null","fixation","","","","","","","","","","","","","","","","","","","","","","",""
"","","","","","html-keyboard-response","206","490000","0.0-23.0","41578bda-270a-4ced-a297-3451d0874fca","null","<p>הפסקה.
          <br>לחצו כדי להמשיך.</p>","1","scan_wait","","","","","","","","","","","","","","","","","","","","","","",""
"","","","","","html-keyboard-response","207","491016","0.0-24.0","41578bda-270a-4ced-a297-3451d0874fca","null","<p style=""text-align: center;"">+</p>","null","fixation","","","","","","","","","","","","","","","","","","","","","","",""
"","","","","","html-slider-response","208","492018","0.0-25.0-0.0","41578bda-270a-4ced-a297-3451d0874fca","1000","
                  <p style=""text-align: center;"">₪36
                                                <br>70%</p>
                  <p id=""wtp"" style=""text-align:center; margin-top: 0px; margin-bottom: 0px; font-size: 40px"";>&ensp;</p>","-","viewing","0","13","3A,5C,10B","","","","","","","","","","","","","","","","","","","",""
"","","","","","html-slider-response","209","495633","0.0-25.0-1.0","41578bda-270a-4ced-a297-3451d0874fca","3614","
                  <p style=""text-align: center;"">₪36
                                                <br>70%</p>
                  <p id=""wtp"" style=""text-align:center; margin-top: 0px; margin-bottom: 0px; font-size: 40px"";>מוכנים לשלם: <span id=""c_p_y""></span></p>","12","evaluation","22","13","3A,5C,10B","70","36","12","","","","","","","","","","","","","","","","",""
"","","","","","html-keyboard-response","210","496583","0.0-25.0-2.0","41578bda-270a-4ced-a297-3451d0874fca","null","<p style=""text-align: center;"">+</p>","null","fixation","","","","","","","","","","","","","","","","","","","","","","",""
"","","","","","html-slider-response","211","497586","0.0-25.0-0.1","41578bda-270a-4ced-a297-3451d0874fca","1000","
                  <p style=""text-align: center;"">₪71
                                                <br>45%</p>
                  <p id=""wtp"" style=""text-align:center; margin-top: 0px; margin-bottom: 0px; font-size: 40px"";>&ensp;</p>","-","viewing","0","26","2B,16A","","","","","","","","","","","","","","","","","","","",""
"","","","","","html-slider-response","212","499569","0.0-25.0-1.1","41578bda-270a-4ced-a297-3451d0874fca","1982","
                  <p style=""text-align: center;"">₪71
                                                <br>45%</p>
                  <p id=""wtp"" style=""text-align:center; margin-top: 0px; margin-bottom: 0px; font-size: 40px"";>מוכנים לשלם: <span id=""c_p_y""></span></p>","29","evaluation","9","26","2B,16A","45","71","29","","","","","","","","","","","","","","","","",""
"","","","","","html-keyboard-response","213","500336","0.0-25.0-2.1","41578bda-270a-4ced-a297-3451d0874fca","null","<p style=""text-align: center;"">+</p>","null","fixation","","","","","","","","","","","","","","","","","","","","","","",""
"","","","","","html-slider-response","214","501338","0.0-25.0-0.2","41578bda-270a-4ced-a297-3451d0874fca","1000","
                  <p style=""text-align: center;"">₪11
                                                <br>45%</p>
                  <p id=""wtp"" style=""text-align:center; margin-top: 0px; margin-bottom: 0px; font-size: 40px"";>&ensp;</p>","-","viewing","0","6","14B,21C,25C","","","","","","","","","","","","","","","","","","","",""
"","","","","","html-slider-response","215","504561","0.0-25.0-1.2","41578bda-270a-4ced-a297-3451d0874fca","3222","
                  <p style=""text-align: center;"">₪11
                                                <br>45%</p>
                  <p id=""wtp"" style=""text-align:center; margin-top: 0px; margin-bottom: 0px; font-size: 40px"";>מוכנים לשלם: <span id=""c_p_y""></span></p>","4","evaluation","67","6","14B,21C,25C","45","11","5","","","","","","","","","","","","","","","","",""
"","","","","","html-keyboard-response","216","505279","0.0-25.0-2.2","41578bda-270a-4ced-a297-3451d0874fca","null","<p style=""text-align: center;"">+</p>","null","fixation","","","","","","","","","","","","","","","","","","","","","","",""
"","","","","","html-slider-response","217","506281","0.0-25.0-0.3","41578bda-270a-4ced-a297-3451d0874fca","1000","
                  <p style=""text-align: center;"">₪4
                                                <br>25%</p>
                  <p id=""wtp"" style=""text-align:center; margin-top: 0px; margin-bottom: 0px; font-size: 40px"";>&ensp;</p>","-","viewing","0","1","6C,29B,30C","","","","","","","","","","","","","","","","","","","",""
"","","","","","html-slider-response","218","508177","0.0-25.0-1.3","41578bda-270a-4ced-a297-3451d0874fca","1894","
                  <p style=""text-align: center;"">₪4
                                                <br>25%</p>
                  <p id=""wtp"" style=""text-align:center; margin-top: 0px; margin-bottom: 0px; font-size: 40px"";>מוכנים לשלם: <span id=""c_p_y""></span></p>","0","evaluation","23","1","6C,29B,30C","25","4","1","","","","","","","","","","","","","","","","",""
"","","","","","html-keyboard-response","219","508714","0.0-25.0-2.3","41578bda-270a-4ced-a297-3451d0874fca","null","<p style=""text-align: center;"">+</p>","null","fixation","","","","","","","","","","","","","","","","","","","","","","",""
"","","","","","html-slider-response","220","509717","0.0-25.0-0.4","41578bda-270a-4ced-a297-3451d0874fca","1000","
                  <p style=""text-align: center;"">₪11
                                                <br>75%</p>
                  <p id=""wtp"" style=""text-align:center; margin-top: 0px; margin-bottom: 0px; font-size: 40px"";>&ensp;</p>","-","viewing","0","7","6B,18B,22C,24C,29A","","","","","","","","","","","","","","","","","","","",""
"","","","","","html-slider-response","221","513723","0.0-25.0-1.4","41578bda-270a-4ced-a297-3451d0874fca","null","
                  <p style=""text-align: center;"">₪11
                                                <br>75%</p>
                  <p id=""wtp"" style=""text-align:center; margin-top: 0px; margin-bottom: 0px; font-size: 40px"";>מוכנים לשלם: <span id=""c_p_y""></span></p>","null","evaluation","36","7","6B,18B,22C,24C,29A","75","11","5","","","","","","","","","","","","","","","","",""
"","","","","","html-keyboard-response","222","514531","0.0-25.0-2.4","41578bda-270a-4ced-a297-3451d0874fca","null","<p style=""text-align: center;"">+</p>","null","fixation","","","","","","","","","","","","","","","","","","","","","","",""
"","","","","","html-slider-response","223","515534","0.0-25.0-0.5","41578bda-270a-4ced-a297-3451d0874fca","1000","
                  <p style=""text-align: center;"">₪16
                                                <br>20%</p>
                  <p id=""wtp"" style=""text-align:center; margin-top: 0px; margin-bottom: 0px; font-size: 40px"";>&ensp;</p>","-","viewing","0","8","14C,17A,20C,27A","","","","","","","","","","","","","","","","","","","",""
"","","","","","html-slider-response","224","518857","0.0-25.0-1.5","41578bda-270a-4ced-a297-3451d0874fca","3322","
                  <p style=""text-align: center;"">₪16
                                                <br>20%</p>
                  <p id=""wtp"" style=""text-align:center; margin-top: 0px; margin-bottom: 0px; font-size: 40px"";>מוכנים לשלם: <span id=""c_p_y""></span></p>","3","evaluation","69","8","14C,17A,20C,27A","20","16","4","","","","","","","","","","","","","","","","",""
"","","","","","html-keyboard-response","225","519821","0.0-25.0-2.5","41578bda-270a-4ced-a297-3451d0874fca","null","<p style=""text-align: center;"">+</p>","null","fixation","","","","","","","","","","","","","","","","","","","","","","",""
"","","","","","html-slider-response","226","520823","0.0-25.0-0.6","41578bda-270a-4ced-a297-3451d0874fca","1000","
                  <p style=""text-align: center;"">₪39
                                                <br>60%</p>
                  <p id=""wtp"" style=""text-align:center; margin-top: 0px; margin-bottom: 0px; font-size: 40px"";>&ensp;</p>","-","viewing","0","15","9C,25B","","","","","","","","","","","","","","","","","","","",""
"","","","","","html-slider-response","227","524835","0.0-25.0-1.6","41578bda-270a-4ced-a297-3451d0874fca","null","
                  <p style=""text-align: center;"">₪39
                                                <br>60%</p>
                  <p id=""wtp"" style=""text-align:center; margin-top: 0px; margin-bottom: 0px; font-size: 40px"";>מוכנים לשלם: <span id=""c_p_y""></span></p>","null","evaluation","79","15","9C,25B","60","39","13","","","","","","","","","","","","","","","","",""
"","","","","","html-keyboard-response","228","525452","0.0-25.0-2.6","41578bda-270a-4ced-a297-3451d0874fca","null","<p style=""text-align: center;"">+</p>","null","fixation","","","","","","","","","","","","","","","","","","","","","","",""
"","","","","","html-slider-response","229","526467","0.0-25.0-0.7","41578bda-270a-4ced-a297-3451d0874fca","1000","
                  <p style=""text-align: center;"">₪36
                                                <br>30%</p>
                  <p id=""wtp"" style=""text-align:center; margin-top: 0px; margin-bottom: 0px; font-size: 40px"";>&ensp;</p>","-","viewing","0","11","3C,20A,22A","","","","","","","","","","","","","","","","","","","",""
"","","","","","html-slider-response","230","528841","0.0-25.0-1.7","41578bda-270a-4ced-a297-3451d0874fca","2372","
                  <p style=""text-align: center;"">₪36
                                                <br>30%</p>
                  <p id=""wtp"" style=""text-align:center; margin-top: 0px; margin-bottom: 0px; font-size: 40px"";>מוכנים לשלם: <span id=""c_p_y""></span></p>","4","evaluation","62","11","3C,20A,22A","30","36","5","","","","","","","","","","","","","","","","",""
"","","","","","html-keyboard-response","231","529863","0.0-25.0-2.7","41578bda-270a-4ced-a297-3451d0874fca","null","<p style=""text-align: center;"">+</p>","null","fixation","","","","","","","","","","","","","","","","","","","","","","",""
"","","","","","html-slider-response","232","530871","0.0-25.0-0.8","41578bda-270a-4ced-a297-3451d0874fca","1000","
                  <p style=""text-align: center;"">₪11
                                                <br>20%</p>
                  <p id=""wtp"" style=""text-align:center; margin-top: 0px; margin-bottom: 0px; font-size: 40px"";>&ensp;</p>","-","viewing","0","4","12C,17C,23C,28C","","","","","","","","","","","","","","","","","","","",""
"","","","","","html-slider-response","233","533313","0.0-25.0-1.8","41578bda-270a-4ced-a297-3451d0874fca","2440","
                  <p style=""text-align: center;"">₪11
                                                <br>20%</p>
                  <p id=""wtp"" style=""text-align:center; margin-top: 0px; margin-bottom: 0px; font-size: 40px"";>מוכנים לשלם: <span id=""c_p_y""></span></p>","3","evaluation","79","4","12C,17C,23C,28C","20","11","3","","","","","","","","","","","","","","","","",""
"","","","","","html-keyboard-response","234","533979","0.0-25.0-2.8","41578bda-270a-4ced-a297-3451d0874fca","null","<p style=""text-align: center;"">+</p>","null","fixation","","","","","","","","","","","","","","","","","","","","","","",""
"","","","","","html-slider-response","235","534994","0.0-25.0-0.9","41578bda-270a-4ced-a297-3451d0874fca","1000","
                  <p style=""text-align: center;"">₪79
                                                <br>65%</p>
                  <p id=""wtp"" style=""text-align:center; margin-top: 0px; margin-bottom: 0px; font-size: 40px"";>&ensp;</p>","-","viewing","0","31","8A","","","","","","","","","","","","","","","","","","","",""
"","","","","","html-slider-response","236","536929","0.0-25.0-1.9","41578bda-270a-4ced-a297-3451d0874fca","1934","
                  <p style=""text-align: center;"">₪79
                                                <br>65%</p>
                  <p id=""wtp"" style=""text-align:center; margin-top: 0px; margin-bottom: 0px; font-size: 40px"";>מוכנים לשלם: <span id=""c_p_y""></span></p>","23","evaluation","18","31","8A","65","79","23","","","","","","","","","","","","","","","","",""
"","","","","","html-keyboard-response","237","538025","0.0-25.0-2.9","41578bda-270a-4ced-a297-3451d0874fca","null","<p style=""text-align: center;"">+</p>","null","fixation","","","","","","","","","","","","","","","","","","","","","","",""
"","","","","","html-slider-response","238","539040","0.0-25.0-0.10","41578bda-270a-4ced-a297-3451d0874fca","1000","
                  <p style=""text-align: center;"">₪11
                                                <br>25%</p>
                  <p id=""wtp"" style=""text-align:center; margin-top: 0px; margin-bottom: 0px; font-size: 40px"";>&ensp;</p>","-","viewing","0","5","12A,27B,28B,30B","","","","","","","","","","","","","","","","","","","",""
"","","","","","html-slider-response","239","542169","0.0-25.0-1.10","41578bda-270a-4ced-a297-3451d0874fca","3128","
                  <p style=""text-align: center;"">₪11
                                                <br>25%</p>
                  <p id=""wtp"" style=""text-align:center; margin-top: 0px; margin-bottom: 0px; font-size: 40px"";>מוכנים לשלם: <span id=""c_p_y""></span></p>","1","evaluation","56","5","12A,27B,28B,30B","25","11","2","","","","","","","","","","","","","","","","",""
"","","","","","html-keyboard-response","240","543329","0.0-25.0-2.10","41578bda-270a-4ced-a297-3451d0874fca","null","<p style=""text-align: center;"">+</p>","null","fixation","","","","","","","","","","","","","","","","","","","","","","",""
"","","","","","html-slider-response","241","544338","0.0-25.0-0.11","41578bda-270a-4ced-a297-3451d0874fca","1000","
                  <p style=""text-align: center;"">₪18
                                                <br>50%</p>
                  <p id=""wtp"" style=""text-align:center; margin-top: 0px; margin-bottom: 0px; font-size: 40px"";>&ensp;</p>","-","viewing","0","10","2C,16C,22B,28A","","","","","","","","","","","","","","","","","","","",""
"","","","","","html-slider-response","242","546233","0.0-25.0-1.11","41578bda-270a-4ced-a297-3451d0874fca","1894","
                  <p style=""text-align: center;"">₪18
                                                <br>50%</p>
                  <p id=""wtp"" style=""text-align:center; margin-top: 0px; margin-bottom: 0px; font-size: 40px"";>מוכנים לשלם: <span id=""c_p_y""></span></p>","4","evaluation","9","10","2C,16C,22B,28A","50","18","4","","","","","","","","","","","","","","","","",""
"","","","","","html-keyboard-response","243","547240","0.0-25.0-2.11","41578bda-270a-4ced-a297-3451d0874fca","null","<p style=""text-align: center;"">+</p>","null","fixation","","","","","","","","","","","","","","","","","","","","","","",""
"","","","","","html-slider-response","244","548245","0.0-25.0-0.12","41578bda-270a-4ced-a297-3451d0874fca","1000","
                  <p style=""text-align: center;"">₪39
                                                <br>65%</p>
                  <p id=""wtp"" style=""text-align:center; margin-top: 0px; margin-bottom: 0px; font-size: 40px"";>&ensp;</p>","-","viewing","0","16","1A,15A,26C","","","","","","","","","","","","","","","","","","","",""
"","","","","","html-slider-response","245","551105","0.0-25.0-1.12","41578bda-270a-4ced-a297-3451d0874fca","2859","
                  <p style=""text-align: center;"">₪39
                                                <br>65%</p>
                  <p id=""wtp"" style=""text-align:center; margin-top: 0px; margin-bottom: 0px; font-size: 40px"";>מוכנים לשלם: <span id=""c_p_y""></span></p>","10","evaluation","13","16","1A,15A,26C","65","39","10","","","","","","","","","","","","","","","","",""
"","","","","","html-keyboard-response","246","551888","0.0-25.0-2.12","41578bda-270a-4ced-a297-3451d0874fca","null","<p style=""text-align: center;"">+</p>","null","fixation","","","","","","","","","","","","","","","","","","","","","","",""
"","","","","","html-slider-response","247","552900","0.0-25.0-0.13","41578bda-270a-4ced-a297-3451d0874fca","1000","
                  <p style=""text-align: center;"">₪36
                                                <br>75%</p>
                  <p id=""wtp"" style=""text-align:center; margin-top: 0px; margin-bottom: 0px; font-size: 40px"";>&ensp;</p>","-","viewing","0","14","4B,5A,13B,16B","","","","","","","","","","","","","","","","","","","",""
"","","","","","html-slider-response","248","556665","0.0-25.0-1.13","41578bda-270a-4ced-a297-3451d0874fca","3763","
                  <p style=""text-align: center;"">₪36
                                                <br>75%</p>
