"success","timeout","failed_images","failed_audio","failed_video","trial_type","trial_index","time_elapsed","internal_node_id","subject_id","rt","stimulus","response","part","slider_start","ID","set_ID","prob","amount","last_location","actual_choice","actual_EV","binary_id","trinary_id","catch","direction","A_key","S_key","D_key","choice_prob","choice_amount","chosen_part","won_prize","potential_prize_amount","potential_prize_prob","total_prize","accuracy"
"true","false","[]","[]","[]","preload","0","81","0.0-0.0","d492e1fc-ffbf-4941-9011-3b1a4a7b9bbf","","","","","","","","","","","","","","","","","","","","","","","","","","",""
"","","","","","html-keyboard-response","1","577366","0.0-1.0","d492e1fc-ffbf-4941-9011-3b1a4a7b9bbf","null","
          <h1>שלום וברוכים הבאים!</h1>
          <p>לפניכם ניסוי בקבלת החלטות עם שני חלקים.
          <br><br>לחצו על העכבר כדי להמשיך.</p>","0","example","","","","","","","","","","","","","","","","","","","","","","",""
"","","","","","html-keyboard-response","2","996885","0.0-2.0","d492e1fc-ffbf-4941-9011-3b1a4a7b9bbf","null","
        <h1>חלק 1</h1>
        <p>בקרוב יוצגו בפניכם הגרלות.
        <br>עליכם לבחור את המחיר המירבי שתהיו מוכנים לשלם כדי להשתתף בהגרלה שתוצג.
        <br>יש לכם תקציב של ₪80 לכל הגרלה. 
        <br>נסו להעריך כל הגרלה בנפרד ולחשוב כמה היא שווה עבורכם, ₪80 זמינים לכל הגרלה בנפרד.
        <br><br>לחצו על העכבר כדי להמשיך.</p>","1","instructions","","","","","","","","","","","","","","","","","","","","","","",""
"","","","","","html-keyboard-response","3","1000165","0.0-3.0","d492e1fc-ffbf-4941-9011-3b1a4a7b9bbf","null","
        <p>בסוף הניסוי, המחשב יבחר את אחת ההגרלות ויקבע מחיר לכרטיס עבורה. 
        <br>במידה והמחיר שבחרתם נמוך מהמחיר שנבחר על ידי המחשב, לא תשתתפו בהגרלה ותשארו עם מלוא התקציב.
        <br>במידה והמחיר שבחרתם גבוה מהמחיר שנבחר על ידי המחשב, תשלמו את המחיר שנקבע ותשתתפו בהגרלה.
        <br><br>לחצו על העכבר כדי להמשיך.</p>","1","instructions","","","","","","","","","","","","","","","","","","","","","","",""
"","","","","","html-slider-response","4","1044381","0.0-4.0","d492e1fc-ffbf-4941-9011-3b1a4a7b9bbf","44107","
        <p style=""font-size: 42px;"">נתחיל עם דוגמא: 
        <br>ההגרלה מטה מציעה 65% סיכוי לזכות ב-₪40 
        <br>&emsp;&emsp;&emsp;&emsp;&emsp;&emsp;&emsp;&emsp;&ensp;35% סיכוי לזכות ב-₪0.
        <br><br>מה המחיר המירבי שתהיו מוכנים לשלם על כרטיס להגרלה זו בין 0 ל-₪80?
        <br>הזיזו את העכבר על פני המלבן ולחצו כדי לבצע בחירה.</p>
        
        <p style=""text-align: center;"">₪40<br>65%</p>

        <p id=""wtp"" style=""text-align:center; margin-top: 0px; margin-bottom: 0px; font-size: 40px"";>מוכנים לשלם: <span id=""c_p_y""></span></p>","15","example","80","","","","","","","","","","","","","","","","","","","","","",""
"","","","","","html-keyboard-response","5","1052501","0.0-5.0","d492e1fc-ffbf-4941-9011-3b1a4a7b9bbf","null","<p>יפה מאוד!
                <br> בחרתם שתהיו מוכנים לשלם ₪15 כדי להשתתף בהגרלה:
                <br><p style=""text-align: center;"">₪40<br>65%</p>
                <p>נשמע נכון?
                <br>נניח שהגרלה זו נבחרה בסוף הניסוי.
                <br>כעת המחשב יקבע מחיר עבורה באקראי.
                <br>לחצו על העכבר להמשך.</p>","1","example","","","","","","","","","","","","","","","","","","","","","","",""
"","","","","","html-keyboard-response","6","1066173","0.0-6.0","d492e1fc-ffbf-4941-9011-3b1a4a7b9bbf","null","<p>המחשב קבע מחיר: ₪76
                <br>ואתם בחרתם לשלם לכל היותר: ₪15
                <br><br>מכיוון שהמחיר שבחרתם נמוך מהמחיר שנקבע, לא תתשתתפו בהגרלה.
                <br>במקרה כזה, בסוף הניסוי תקבלו את כל התקציב ההתחלתי של ₪80.
                <br><br>לחצו על העכבר להמשך.</p>","1","example","","","","","","","","","","","","","","","","","","","","","","",""
"","","","","","html-slider-response","7","1078893","0.0-7.0","d492e1fc-ffbf-4941-9011-3b1a4a7b9bbf","12464","<p style=""font-size: 42px;"">הנה עוד דוגמא:
                <br>ההגרלה מטה מציעה 35% סיכוי לזכות ב-₪18 
                <br>&emsp;&emsp;&emsp;&emsp;&emsp;&emsp;&emsp;&emsp;&ensp;65% סיכוי לזכות ב-₪0.</p>
        
                <p style=""text-align: center;"">₪18<br>35%</p>
                <p id=""wtp"" style=""text-align:center; margin-top: 0px; margin-bottom: 0px; font-size: 40px"";>מוכנים לשלם: <span id=""c_p_y""></span></p>","10","example","19","","","","","","","","","","","","","","","","","","","","","",""
"","","","","","html-keyboard-response","8","1082301","0.0-8.0","d492e1fc-ffbf-4941-9011-3b1a4a7b9bbf","null","<p>הייתם מוכנים לשלם  ₪10 כדי להשתתף בהגרלה:
                <p style=""text-align: center;"">₪18<br>35%</p>
                <p>כעת נניח שהמחשב בחר את ההגרלה הזו בסוף הניסוי, וקבע עבורה מחיר.
                <br><br>לחצו על העכבר כדי להמשיך.</p>","1","instructions","","","","","","","","","","","","","","","","","","","","","","",""
"","","","","","html-keyboard-response","9","1087093","0.0-9.0","d492e1fc-ffbf-4941-9011-3b1a4a7b9bbf","null","<p>המחשב קבע מחיר להגרלה: ₪5<br>ואתם בחרתם לשלם לכל היותר: ₪10
                <br><br>כעת המחיר שנקבע נמוך מזה שבחרתם, אז תשלמו את המחיר שקבע המחשב (₪5) ותשתתפו בהגרלה.
                <br>במקרה כזה, תסיימו את הניסוי עם תקציב של ₪75 ועם סיכוי לזכות ב-₪18 נוספים מההגרלה.
                <br>כלומר, תוכלו לקבל ₪75 אם לא תזכו בהגרלה, או ₪93 אם תזכו בהגרלה.
                <br><br>לחצו על העכבר להמשך.</p>","1","example","","","","","","","","","","","","","","","","","","","","","","",""
"","","","","","html-keyboard-response","10","1092349","0.0-10.0","d492e1fc-ffbf-4941-9011-3b1a4a7b9bbf","null","<p>במהלך הניסוי, קודם תראו את ההגרלה ורק לאחר מכן תוכלו לבחור.
                <p>כמו כן, יהיו לכם מספר שניות מוגבל להגיב.
                <p>בואו ננסה זאת עם ההגרלה הקודמת.
                <br>לחצו על העכבר כדי להמשיך.</p>","1","instructions","","","","","","","","","","","","","","","","","","","","","","",""
"","","","","","html-slider-response","11","1093620","0.0-11.0","d492e1fc-ffbf-4941-9011-3b1a4a7b9bbf","1000","
                    <p style=""text-align: center;"">₪18<br>35%</p>
                    <p id=""wtp"" style=""text-align:center; margin-top: 0px; margin-bottom: 0px; font-size: 40px"";>&ensp;</p>","45","instructions","0","","","","","","","","","","","","","","","","","","","","","",""
"","","","","","html-slider-response","12","1097887","0.0-12.0","d492e1fc-ffbf-4941-9011-3b1a4a7b9bbf","null","
                    <p style=""text-align: center;"">₪18<br>35%</p>
                    <p id=""wtp"" style=""text-align:center; margin-top: 0px; margin-bottom: 0px; font-size: 40px"";>מוכנים לשלם: <span id=""c_p_y""></span></p>","null","instructions","11","","","","","","","","","","","","","","","","","","","","","",""
"","","","","","html-keyboard-response","13","1103557","0.0-13.0","d492e1fc-ffbf-4941-9011-3b1a4a7b9bbf","null","<p>לא הגבתם בזמן המוקצב לתגובה. 
                <br>נסו להגיב מהר יותר בפעם הבאה.
                <br><br>לחצו על העכבר כדי להמשיך.</p>","1","instructions","","","","","","","","","","","","","","","","","","","","","","",""
"","","","","","html-slider-response","14","1105933","0.0-14.0-0.0","d492e1fc-ffbf-4941-9011-3b1a4a7b9bbf","2118","
                    <p style=""text-align: center;"">₪40<br>65%</p>
                    <p id=""wtp"" style=""text-align:center; margin-top: 0px; margin-bottom: 0px; font-size: 40px"";>מוכנים לשלם: <span id=""c_p_y""></span></p>","32","instructions","65","","","","","","","","","","","","","","","","","","","","","",""
"","","","","","html-keyboard-response","15","1109557","0.0-14.0-1.0","d492e1fc-ffbf-4941-9011-3b1a4a7b9bbf","null","<p>יפה. הפעם בחרתם לשלם לכל היותר ₪32.
                <br><br>לחצו על העכבר כדי להמשיך.</p>","1","instructions","","","","","","","","","","","","","","","","","","","","","","",""
"","","","","","html-keyboard-response","16","1114309","0.0-15.0","d492e1fc-ffbf-4941-9011-3b1a4a7b9bbf","null","<p>כעת נתחיל את הניסוי.
                <br><br>אתם תראו הגרלות ותתבקשו לבחור כמה תהיו מוכנים לשלם כדי להשתתף בהן.
                <br>יש לכם תקציב של ₪80 עבור כל הגרלה.
                <br>בסוף הניסוי הגרלה אחת תבחר באקראי ותשוחק.
                <br><br>לחצו על העכבר כדי להתחיל את הניסוי.</p>","1","instructions","","","","","","","","","","","","","","","","","","","","","","",""
"","","","","","html-keyboard-response","17","1115560","0.0-16.0","d492e1fc-ffbf-4941-9011-3b1a4a7b9bbf","null","<p style=""text-align: center;"">+</p>","null","fixation","","","","","","","","","","","","","","","","","","","","","","",""
"","","","","","html-slider-response","18","1116574","0.0-17.0-0.0","d492e1fc-ffbf-4941-9011-3b1a4a7b9bbf","1000","
                  <p style=""text-align: center;"">₪43
                                                <br>60%</p>
                  <p id=""wtp"" style=""text-align:center; margin-top: 0px; margin-bottom: 0px; font-size: 40px"";>&ensp;</p>","-","viewing","0","17","2A,7A,9A,15B","","","","","","","","","","","","","","","","","","","",""
"","","","","","html-slider-response","19","1118749","0.0-17.0-1.0","d492e1fc-ffbf-4941-9011-3b1a4a7b9bbf","2173","
                  <p style=""text-align: center;"">₪43
                                                <br>60%</p>
                  <p id=""wtp"" style=""text-align:center; margin-top: 0px; margin-bottom: 0px; font-size: 40px"";>מוכנים לשלם: <span id=""c_p_y""></span></p>","41","evaluation","6","17","2A,7A,9A,15B","60","43","41","","","","","","","","","","","","","","","","",""
"","","","","","html-keyboard-response","20","1119933","0.0-17.0-2.0","d492e1fc-ffbf-4941-9011-3b1a4a7b9bbf","null","<p style=""text-align: center;"">+</p>","null","fixation","","","","","","","","","","","","","","","","","","","","","","",""
"","","","","","html-slider-response","21","1120947","0.0-17.0-0.1","d492e1fc-ffbf-4941-9011-3b1a4a7b9bbf","1000","
                  <p style=""text-align: center;"">₪61
                                                <br>55%</p>
                  <p id=""wtp"" style=""text-align:center; margin-top: 0px; margin-bottom: 0px; font-size: 40px"";>&ensp;</p>","-","viewing","0","23","7B,26B","","","","","","","","","","","","","","","","","","","",""
"","","","","","html-slider-response","22","1123453","0.0-17.0-1.1","d492e1fc-ffbf-4941-9011-3b1a4a7b9bbf","2505","
                  <p style=""text-align: center;"">₪61
                                                <br>55%</p>
                  <p id=""wtp"" style=""text-align:center; margin-top: 0px; margin-bottom: 0px; font-size: 40px"";>מוכנים לשלם: <span id=""c_p_y""></span></p>","40","evaluation","60","23","7B,26B","55","61","40","","","","","","","","","","","","","","","","",""
"","","","","","html-keyboard-response","23","1124218","0.0-17.0-2.1","d492e1fc-ffbf-4941-9011-3b1a4a7b9bbf","null","<p style=""text-align: center;"">+</p>","null","fixation","","","","","","","","","","","","","","","","","","","","","","",""
"","","","","","html-slider-response","24","1125235","0.0-17.0-0.2","d492e1fc-ffbf-4941-9011-3b1a4a7b9bbf","1000","
                  <p style=""text-align: center;"">₪11
                                                <br>25%</p>
                  <p id=""wtp"" style=""text-align:center; margin-top: 0px; margin-bottom: 0px; font-size: 40px"";>&ensp;</p>","-","viewing","0","5","12A,27B,28B,30B","","","","","","","","","","","","","","","","","","","",""
"","","","","","html-slider-response","25","1128029","0.0-17.0-1.2","d492e1fc-ffbf-4941-9011-3b1a4a7b9bbf","2793","
                  <p style=""text-align: center;"">₪11
                                                <br>25%</p>
                  <p id=""wtp"" style=""text-align:center; margin-top: 0px; margin-bottom: 0px; font-size: 40px"";>מוכנים לשלם: <span id=""c_p_y""></span></p>","20","evaluation","2","5","12A,27B,28B,30B","25","11","20","","","","","","","","","","","","","","","","",""
"","","","","","html-keyboard-response","26","1128640","0.0-17.0-2.2","d492e1fc-ffbf-4941-9011-3b1a4a7b9bbf","null","<p style=""text-align: center;"">+</p>","null","fixation","","","","","","","","","","","","","","","","","","","","","","",""
"","","","","","html-slider-response","27","1129655","0.0-17.0-0.3","d492e1fc-ffbf-4941-9011-3b1a4a7b9bbf","1000","
                  <p style=""text-align: center;"">₪79
                                                <br>65%</p>
                  <p id=""wtp"" style=""text-align:center; margin-top: 0px; margin-bottom: 0px; font-size: 40px"";>&ensp;</p>","-","viewing","0","31","8A","","","","","","","","","","","","","","","","","","","",""
"","","","","","html-slider-response","28","1133077","0.0-17.0-1.3","d492e1fc-ffbf-4941-9011-3b1a4a7b9bbf","3420","
                  <p style=""text-align: center;"">₪79
                                                <br>65%</p>
                  <p id=""wtp"" style=""text-align:center; margin-top: 0px; margin-bottom: 0px; font-size: 40px"";>מוכנים לשלם: <span id=""c_p_y""></span></p>","58","evaluation","56","31","8A","65","79","58","","","","","","","","","","","","","","","","",""
"","","","","","html-keyboard-response","29","1133812","0.0-17.0-2.3","d492e1fc-ffbf-4941-9011-3b1a4a7b9bbf","null","<p style=""text-align: center;"">+</p>","null","fixation","","","","","","","","","","","","","","","","","","","","","","",""
"","","","","","html-slider-response","30","1134827","0.0-17.0-0.4","d492e1fc-ffbf-4941-9011-3b1a4a7b9bbf","1000","
                  <p style=""text-align: center;"">₪39
                                                <br>60%</p>
                  <p id=""wtp"" style=""text-align:center; margin-top: 0px; margin-bottom: 0px; font-size: 40px"";>&ensp;</p>","-","viewing","0","15","9C,25B","","","","","","","","","","","","","","","","","","","",""
"","","","","","html-slider-response","31","1138833","0.0-17.0-1.4","d492e1fc-ffbf-4941-9011-3b1a4a7b9bbf","null","
                  <p style=""text-align: center;"">₪39
                                                <br>60%</p>
                  <p id=""wtp"" style=""text-align:center; margin-top: 0px; margin-bottom: 0px; font-size: 40px"";>מוכנים לשלם: <span id=""c_p_y""></span></p>","null","evaluation","4","15","9C,25B","60","39","27","","","","","","","","","","","","","","","","",""
"","","","","","html-keyboard-response","32","1140069","0.0-17.0-2.4","d492e1fc-ffbf-4941-9011-3b1a4a7b9bbf","null","<p style=""text-align: center;"">+</p>","null","fixation","","","","","","","","","","","","","","","","","","","","","","",""
"","","","","","html-slider-response","33","1141081","0.0-17.0-0.5","d492e1fc-ffbf-4941-9011-3b1a4a7b9bbf","1000","
                  <p style=""text-align: center;"">₪4
                                                <br>50%</p>
                  <p id=""wtp"" style=""text-align:center; margin-top: 0px; margin-bottom: 0px; font-size: 40px"";>&ensp;</p>","-","viewing","0","2","4C,17B","","","","","","","","","","","","","","","","","","","",""
"","","","","","html-slider-response","34","1145095","0.0-17.0-1.5","d492e1fc-ffbf-4941-9011-3b1a4a7b9bbf","null","
                  <p style=""text-align: center;"">₪4
                                                <br>50%</p>
                  <p id=""wtp"" style=""text-align:center; margin-top: 0px; margin-bottom: 0px; font-size: 40px"";>מוכנים לשלם: <span id=""c_p_y""></span></p>","null","evaluation","33","2","4C,17B","50","4","35","","","","","","","","","","","","","","","","",""
"","","","","","html-keyboard-response","35","1146313","0.0-17.0-2.5","d492e1fc-ffbf-4941-9011-3b1a4a7b9bbf","null","<p style=""text-align: center;"">+</p>","null","fixation","","","","","","","","","","","","","","","","","","","","","","",""
"","","","","","html-slider-response","36","1147322","0.0-17.0-0.6","d492e1fc-ffbf-4941-9011-3b1a4a7b9bbf","1000","
                  <p style=""text-align: center;"">₪11
                                                <br>75%</p>
                  <p id=""wtp"" style=""text-align:center; margin-top: 0px; margin-bottom: 0px; font-size: 40px"";>&ensp;</p>","-","viewing","0","7","6B,18B,22C,24C,29A","","","","","","","","","","","","","","","","","","","",""
"","","","","","html-slider-response","37","1149277","0.0-17.0-1.6","d492e1fc-ffbf-4941-9011-3b1a4a7b9bbf","1954","
                  <p style=""text-align: center;"">₪11
                                                <br>75%</p>
                  <p id=""wtp"" style=""text-align:center; margin-top: 0px; margin-bottom: 0px; font-size: 40px"";>מוכנים לשלם: <span id=""c_p_y""></span></p>","40","evaluation","12","7","6B,18B,22C,24C,29A","75","11","40","","","","","","","","","","","","","","","","",""
"","","","","","html-keyboard-response","38","1150715","0.0-17.0-2.6","d492e1fc-ffbf-4941-9011-3b1a4a7b9bbf","null","<p style=""text-align: center;"">+</p>","null","fixation","","","","","","","","","","","","","","","","","","","","","","",""
"","","","","","html-slider-response","39","1151728","0.0-17.0-0.7","d492e1fc-ffbf-4941-9011-3b1a4a7b9bbf","1000","
                  <p style=""text-align: center;"">₪36
                                                <br>30%</p>
                  <p id=""wtp"" style=""text-align:center; margin-top: 0px; margin-bottom: 0px; font-size: 40px"";>&ensp;</p>","-","viewing","0","11","3C,20A,22A","","","","","","","","","","","","","","","","","","","",""
"","","","","","html-slider-response","40","1154245","0.0-17.0-1.7","d492e1fc-ffbf-4941-9011-3b1a4a7b9bbf","2516","
                  <p style=""text-align: center;"">₪36
                                                <br>30%</p>
                  <p id=""wtp"" style=""text-align:center; margin-top: 0px; margin-bottom: 0px; font-size: 40px"";>מוכנים לשלם: <span id=""c_p_y""></span></p>","22","evaluation","51","11","3C,20A,22A","30","36","22","","","","","","","","","","","","","","","","",""
"","","","","","html-keyboard-response","41","1154770","0.0-17.0-2.7","d492e1fc-ffbf-4941-9011-3b1a4a7b9bbf","null","<p style=""text-align: center;"">+</p>","null","fixation","","","","","","","","","","","","","","","","","","","","","","",""
"","","","","","html-slider-response","42","1155778","0.0-17.0-0.8","d492e1fc-ffbf-4941-9011-3b1a4a7b9bbf","1000","
                  <p style=""text-align: center;"">₪64
                                                <br>50%</p>
                  <p id=""wtp"" style=""text-align:center; margin-top: 0px; margin-bottom: 0px; font-size: 40px"";>&ensp;</p>","-","viewing","0","25","1B,3B,4A","","","","","","","","","","","","","","","","","","","",""
"","","","","","html-slider-response","43","1157677","0.0-17.0-1.8","d492e1fc-ffbf-4941-9011-3b1a4a7b9bbf","1897","
                  <p style=""text-align: center;"">₪64
                                                <br>50%</p>
                  <p id=""wtp"" style=""text-align:center; margin-top: 0px; margin-bottom: 0px; font-size: 40px"";>מוכנים לשלם: <span id=""c_p_y""></span></p>","40","evaluation","61","25","1B,3B,4A","50","64","40","","","","","","","","","","","","","","","","",""
"","","","","","html-keyboard-response","44","1159001","0.0-17.0-2.8","d492e1fc-ffbf-4941-9011-3b1a4a7b9bbf","null","<p style=""text-align: center;"">+</p>","null","fixation","","","","","","","","","","","","","","","","","","","","","","",""
"","","","","","html-slider-response","45","1160005","0.0-17.0-0.9","d492e1fc-ffbf-4941-9011-3b1a4a7b9bbf","1000","
                  <p style=""text-align: center;"">₪11
                                                <br>45%</p>
                  <p id=""wtp"" style=""text-align:center; margin-top: 0px; margin-bottom: 0px; font-size: 40px"";>&ensp;</p>","-","viewing","0","6","14B,21C,25C","","","","","","","","","","","","","","","","","","","",""
"","","","","","html-slider-response","46","1162917","0.0-17.0-1.9","d492e1fc-ffbf-4941-9011-3b1a4a7b9bbf","2910","
                  <p style=""text-align: center;"">₪11
                                                <br>45%</p>
                  <p id=""wtp"" style=""text-align:center; margin-top: 0px; margin-bottom: 0px; font-size: 40px"";>מוכנים לשלם: <span id=""c_p_y""></span></p>","45","evaluation","5","6","14B,21C,25C","45","11","45","","","","","","","","","","","","","","","","",""
"","","","","","html-keyboard-response","47","1164169","0.0-17.0-2.9","d492e1fc-ffbf-4941-9011-3b1a4a7b9bbf","null","<p style=""text-align: center;"">+</p>","null","fixation","","","","","","","","","","","","","","","","","","","","","","",""
"","","","","","html-slider-response","48","1165171","0.0-17.0-0.10","d492e1fc-ffbf-4941-9011-3b1a4a7b9bbf","1000","
                  <p style=""text-align: center;"">₪36
                                                <br>70%</p>
                  <p id=""wtp"" style=""text-align:center; margin-top: 0px; margin-bottom: 0px; font-size: 40px"";>&ensp;</p>","-","viewing","0","13","3A,5C,10B","","","","","","","","","","","","","","","","","","","",""
"","","","","","html-slider-response","49","1167621","0.0-17.0-1.10","d492e1fc-ffbf-4941-9011-3b1a4a7b9bbf","2449","
                  <p style=""text-align: center;"">₪36
                                                <br>70%</p>
                  <p id=""wtp"" style=""text-align:center; margin-top: 0px; margin-bottom: 0px; font-size: 40px"";>מוכנים לשלם: <span id=""c_p_y""></span></p>","57","evaluation","17","13","3A,5C,10B","70","36","57","","","","","","","","","","","","","","","","",""
"","","","","","html-keyboard-response","50","1168371","0.0-17.0-2.10","d492e1fc-ffbf-4941-9011-3b1a4a7b9bbf","null","<p style=""text-align: center;"">+</p>","null","fixation","","","","","","","","","","","","","","","","","","","","","","",""
"","","","","","html-slider-response","51","1169373","0.0-17.0-0.11","d492e1fc-ffbf-4941-9011-3b1a4a7b9bbf","1000","
                  <p style=""text-align: center;"">₪64
                                                <br>25%</p>
                  <p id=""wtp"" style=""text-align:center; margin-top: 0px; margin-bottom: 0px; font-size: 40px"";>&ensp;</p>","-","viewing","0","24","6A,21A","","","","","","","","","","","","","","","","","","","",""
"","","","","","html-slider-response","52","1170885","0.0-17.0-1.11","d492e1fc-ffbf-4941-9011-3b1a4a7b9bbf","1512","
                  <p style=""text-align: center;"">₪64
                                                <br>25%</p>
                  <p id=""wtp"" style=""text-align:center; margin-top: 0px; margin-bottom: 0px; font-size: 40px"";>מוכנים לשלם: <span id=""c_p_y""></span></p>","19","evaluation","18","24","6A,21A","25","64","19","","","","","","","","","","","","","","","","",""
"","","","","","html-keyboard-response","53","1171523","0.0-17.0-2.11","d492e1fc-ffbf-4941-9011-3b1a4a7b9bbf","null","<p style=""text-align: center;"">+</p>","null","fixation","","","","","","","","","","","","","","","","","","","","","","",""
"","","","","","html-slider-response","54","1172524","0.0-17.0-0.12","d492e1fc-ffbf-4941-9011-3b1a4a7b9bbf","1000","
                  <p style=""text-align: center;"">₪18
                                                <br>25%</p>
                  <p id=""wtp"" style=""text-align:center; margin-top: 0px; margin-bottom: 0px; font-size: 40px"";>&ensp;</p>","-","viewing","0","9","14A,23A","","","","","","","","","","","","","","","","","","","",""
"","","","","","html-slider-response","55","1173901","0.0-17.0-1.12","d492e1fc-ffbf-4941-9011-3b1a4a7b9bbf","1376","
                  <p style=""text-align: center;"">₪18
                                                <br>25%</p>
                  <p id=""wtp"" style=""text-align:center; margin-top: 0px; margin-bottom: 0px; font-size: 40px"";>מוכנים לשלם: <span id=""c_p_y""></span></p>","20","evaluation","41","9","14A,23A","25","18","20","","","","","","","","","","","","","","","","",""
"","","","","","html-keyboard-response","56","1174639","0.0-17.0-2.12","d492e1fc-ffbf-4941-9011-3b1a4a7b9bbf","null","<p style=""text-align: center;"">+</p>","null","fixation","","","","","","","","","","","","","","","","","","","","","","",""
"","","","","","html-slider-response","57","1175641","0.0-17.0-0.13","d492e1fc-ffbf-4941-9011-3b1a4a7b9bbf","1000","
                  <p style=""text-align: center;"">₪16
                                                <br>20%</p>
                  <p id=""wtp"" style=""text-align:center; margin-top: 0px; margin-bottom: 0px; font-size: 40px"";>&ensp;</p>","-","viewing","0","8","14C,17A,20C,27A","","","","","","","","","","","","","","","","","","","",""
"","","","","","html-slider-response","58","1177501","0.0-17.0-1.13","d492e1fc-ffbf-4941-9011-3b1a4a7b9bbf","1859","
                  <p style=""text-align: center;"">₪16
                                                <br>20%</p>
                  <p id=""wtp"" style=""text-align:center; margin-top: 0px; margin-bottom: 0px; font-size: 40px"";>מוכנים לשלם: <span id=""c_p_y""></span></p>","20","evaluation","36","8","14C,17A,20C,27A","20","16","20","","","","","","","","","","","","","","","","",""
"","","","","","html-keyboard-response","59","1178534","0.0-17.0-2.13","d492e1fc-ffbf-4941-9011-3b1a4a7b9bbf","null","<p style=""text-align: center;"">+</p>","null","fixation","","","","","","","","","","","","","","","","","","","","","","",""
"","","","","","html-slider-response","60","1179537","0.0-17.0-0.14","d492e1fc-ffbf-4941-9011-3b1a4a7b9bbf","1000","
                  <p style=""text-align: center;"">₪18
                                                <br>50%</p>
                  <p id=""wtp"" style=""text-align:center; margin-top: 0px; margin-bottom: 0px; font-size: 40px"";>&ensp;</p>","-","viewing","0","10","2C,16C,22B,28A","","","","","","","","","","","","","","","","","","","",""
"","","","","","html-slider-response","61","1180293","0.0-17.0-1.14","d492e1fc-ffbf-4941-9011-3b1a4a7b9bbf","755","
                  <p style=""text-align: center;"">₪18
                                                <br>50%</p>
                  <p id=""wtp"" style=""text-align:center; margin-top: 0px; margin-bottom: 0px; font-size: 40px"";>מוכנים לשלם: <span id=""c_p_y""></span></p>","40","evaluation","79","10","2C,16C,22B,28A","50","18","40","","","","","","","","","","","","","","","","",""
"","","","","","html-keyboard-response","62","1181494","0.0-17.0-2.14","d492e1fc-ffbf-4941-9011-3b1a4a7b9bbf","null","<p style=""text-align: center;"">+</p>","null","fixation","","","","","","","","","","","","","","","","","","","","","","",""
"","","","","","html-slider-response","63","1182508","0.0-17.0-0.15","d492e1fc-ffbf-4941-9011-3b1a4a7b9bbf","1000","
                  <p style=""text-align: center;"">₪79
                                                <br>40%</p>
                  <p id=""wtp"" style=""text-align:center; margin-top: 0px; margin-bottom: 0px; font-size: 40px"";>&ensp;</p>","-","viewing","0","30","9B","","","","","","","","","","","","","","","","","","","",""
"","","","","","html-slider-response","64","1184461","0.0-17.0-1.15","d492e1fc-ffbf-4941-9011-3b1a4a7b9bbf","1951","
                  <p style=""text-align: center;"">₪79
                                                <br>40%</p>
                  <p id=""wtp"" style=""text-align:center; margin-top: 0px; margin-bottom: 0px; font-size: 40px"";>מוכנים לשלם: <span id=""c_p_y""></span></p>","30","evaluation","20","30","9B","40","79","30","","","","","","","","","","","","","","","","",""
"","","","","","html-keyboard-response","65","1185158","0.0-17.0-2.15","d492e1fc-ffbf-4941-9011-3b1a4a7b9bbf","null","<p style=""text-align: center;"">+</p>","null","fixation","","","","","","","","","","","","","","","","","","","","","","",""
"","","","","","html-slider-response","66","1186167","0.0-17.0-0.16","d492e1fc-ffbf-4941-9011-3b1a4a7b9bbf","1000","
                  <p style=""text-align: center;"">₪61
                                                <br>45%</p>
                  <p id=""wtp"" style=""text-align:center; margin-top: 0px; margin-bottom: 0px; font-size: 40px"";>&ensp;</p>","-","viewing","0","22","10A,11A","","","","","","","","","","","","","","","","","","","",""
"","","","","","html-slider-response","67","1189789","0.0-17.0-1.16","d492e1fc-ffbf-4941-9011-3b1a4a7b9bbf","3620","
                  <p style=""text-align: center;"">₪61
                                                <br>45%</p>
                  <p id=""wtp"" style=""text-align:center; margin-top: 0px; margin-bottom: 0px; font-size: 40px"";>מוכנים לשלם: <span id=""c_p_y""></span></p>","34","evaluation","57","22","10A,11A","45","61","34","","","","","","","","","","","","","","","","",""
"","","","","","html-keyboard-response","68","1191143","0.0-17.0-2.16","d492e1fc-ffbf-4941-9011-3b1a4a7b9bbf","null","<p style=""text-align: center;"">+</p>","null","fixation","","","","","","","","","","","","","","","","","","","","","","",""
"","","","","","html-slider-response","69","1192150","0.0-17.0-0.17","d492e1fc-ffbf-4941-9011-3b1a4a7b9bbf","1000","
                  <p style=""text-align: center;"">₪39
                                                <br>65%</p>
                  <p id=""wtp"" style=""text-align:center; margin-top: 0px; margin-bottom: 0px; font-size: 40px"";>&ensp;</p>","-","viewing","0","16","1A,15A,26C","","","","","","","","","","","","","","","","","","","",""
"","","","","","html-slider-response","70","1196166","0.0-17.0-1.17","d492e1fc-ffbf-4941-9011-3b1a4a7b9bbf","null","
                  <p style=""text-align: center;"">₪39
                                                <br>65%</p>
                  <p id=""wtp"" style=""text-align:center; margin-top: 0px; margin-bottom: 0px; font-size: 40px"";>מוכנים לשלם: <span id=""c_p_y""></span></p>","null","evaluation","70","16","1A,15A,26C","65","39","34","","","","","","","","","","","","","","","","",""
"","","","","","html-keyboard-response","71","1197386","0.0-17.0-2.17","d492e1fc-ffbf-4941-9011-3b1a4a7b9bbf","null","<p style=""text-align: center;"">+</p>","null","fixation","","","","","","","","","","","","","","","","","","","","","","",""
"","","","","","html-slider-response","72","1198392","0.0-17.0-0.18","d492e1fc-ffbf-4941-9011-3b1a4a7b9bbf","1000","
                  <p style=""text-align: center;"">₪58
                                                <br>40%</p>
                  <p id=""wtp"" style=""text-align:center; margin-top: 0px; margin-bottom: 0px; font-size: 40px"";>&ensp;</p>","-","viewing","0","20","10C,13A,19C,21B","","","","","","","","","","","","","","","","","","","",""
"","","","","","html-slider-response","73","1201565","0.0-17.0-1.18","d492e1fc-ffbf-4941-9011-3b1a4a7b9bbf","3172","
                  <p style=""text-align: center;"">₪58
                                                <br>40%</p>
                  <p id=""wtp"" style=""text-align:center; margin-top: 0px; margin-bottom: 0px; font-size: 40px"";>מוכנים לשלם: <span id=""c_p_y""></span></p>","19","evaluation","19","20","10C,13A,19C,21B","40","58","19","","","","","","","","","","","","","","","","",""
"","","","","","html-keyboard-response","74","1202516","0.0-17.0-2.18","d492e1fc-ffbf-4941-9011-3b1a4a7b9bbf","null","<p style=""text-align: center;"">+</p>","null","fixation","","","","","","","","","","","","","","","","","","","","","","",""
"","","","","","html-slider-response","75","1203517","0.0-17.0-0.19","d492e1fc-ffbf-4941-9011-3b1a4a7b9bbf","1000","
                  <p style=""text-align: center;"">₪58
                                                <br>45%</p>
                  <p id=""wtp"" style=""text-align:center; margin-top: 0px; margin-bottom: 0px; font-size: 40px"";>&ensp;</p>","-","viewing","0","21","11C,18C,25A","","","","","","","","","","","","","","","","","","","",""
"","","","","","html-slider-response","76","1204885","0.0-17.0-1.19","d492e1fc-ffbf-4941-9011-3b1a4a7b9bbf","1366","
                  <p style=""text-align: center;"">₪58
                                                <br>45%</p>
                  <p id=""wtp"" style=""text-align:center; margin-top: 0px; margin-bottom: 0px; font-size: 40px"";>מוכנים לשלם: <span id=""c_p_y""></span></p>","33","evaluation","17","21","11C,18C,25A","45","58","33","","","","","","","","","","","","","","","","",""
"","","","","","html-keyboard-response","77","1205496","0.0-17.0-2.19","d492e1fc-ffbf-4941-9011-3b1a4a7b9bbf","null","<p style=""text-align: center;"">+</p>","null","fixation","","","","","","","","","","","","","","","","","","","","","","",""
"","","","","","html-slider-response","78","1206499","0.0-17.0-0.20","d492e1fc-ffbf-4941-9011-3b1a4a7b9bbf","1000","
                  <p style=""text-align: center;"">₪4
                                                <br>75%</p>
                  <p id=""wtp"" style=""text-align:center; margin-top: 0px; margin-bottom: 0px; font-size: 40px"";>&ensp;</p>","-","viewing","0","3","12B,20B,23B,27C,29C","","","","","","","","","","","","","","","","","","","",""
"","","","","","html-slider-response","79","1207853","0.0-17.0-1.20","d492e1fc-ffbf-4941-9011-3b1a4a7b9bbf","1353","
                  <p style=""text-align: center;"">₪4
                                                <br>75%</p>
                  <p id=""wtp"" style=""text-align:center; margin-top: 0px; margin-bottom: 0px; font-size: 40px"";>מוכנים לשלם: <span id=""c_p_y""></span></p>","64","evaluation","53","3","12B,20B,23B,27C,29C","75","4","63","","","","","","","","","","","","","","","","",""
"","","","","","html-keyboard-response","80","1209009","0.0-17.0-2.20","d492e1fc-ffbf-4941-9011-3b1a4a7b9bbf","null","<p style=""text-align: center;"">+</p>","null","fixation","","","","","","","","","","","","","","","","","","","","","","",""
"","","","","","html-slider-response","81","1210019","0.0-17.0-0.21","d492e1fc-ffbf-4941-9011-3b1a4a7b9bbf","1000","
                  <p style=""text-align: center;"">₪71
                                                <br>45%</p>
                  <p id=""wtp"" style=""text-align:center; margin-top: 0px; margin-bottom: 0px; font-size: 40px"";>&ensp;</p>","-","viewing","0","26","2B,16A","","","","","","","","","","","","","","","","","","","",""
"","","","","","html-slider-response","82","1212141","0.0-17.0-1.21","d492e1fc-ffbf-4941-9011-3b1a4a7b9bbf","2120","
                  <p style=""text-align: center;"">₪71
                                                <br>45%</p>
                  <p id=""wtp"" style=""text-align:center; margin-top: 0px; margin-bottom: 0px; font-size: 40px"";>מוכנים לשלם: <span id=""c_p_y""></span></p>","30","evaluation","46","26","2B,16A","45","71","30","","","","","","","","","","","","","","","","",""
"","","","","","html-keyboard-response","83","1213529","0.0-17.0-2.21","d492e1fc-ffbf-4941-9011-3b1a4a7b9bbf","null","<p style=""text-align: center;"">+</p>","null","fixation","","","","","","","","","","","","","","","","","","","","","","",""
"","","","","","html-slider-response","84","1214540","0.0-17.0-0.22","d492e1fc-ffbf-4941-9011-3b1a4a7b9bbf","1000","
                  <p style=""text-align: center;"">₪71
                                                <br>55%</p>
                  <p id=""wtp"" style=""text-align:center; margin-top: 0px; margin-bottom: 0px; font-size: 40px"";>&ensp;</p>","-","viewing","0","27","5B,18A","","","","","","","","","","","","","","","","","","","",""
"","","","","","html-slider-response","85","1215869","0.0-17.0-1.22","d492e1fc-ffbf-4941-9011-3b1a4a7b9bbf","1328","
                  <p style=""text-align: center;"">₪71
                                                <br>55%</p>
                  <p id=""wtp"" style=""text-align:center; margin-top: 0px; margin-bottom: 0px; font-size: 40px"";>מוכנים לשלם: <span id=""c_p_y""></span></p>","49","evaluation","45","27","5B,18A","55","71","49","","","","","","","","","","","","","","","","",""
"","","","","","html-keyboard-response","86","1216677","0.0-17.0-2.22","d492e1fc-ffbf-4941-9011-3b1a4a7b9bbf","null","<p style=""text-align: center;"">+</p>","null","fixation","","","","","","","","","","","","","","","","","","","","","","",""
"","","","","","html-slider-response","87","1217693","0.0-17.0-0.23","d492e1fc-ffbf-4941-9011-3b1a4a7b9bbf","1000","
                  <p style=""text-align: center;"">₪76
                                                <br>65%</p>
                  <p id=""wtp"" style=""text-align:center; margin-top: 0px; margin-bottom: 0px; font-size: 40px"";>&ensp;</p>","-","viewing","0","29","8C,19A,24B","","","","","","","","","","","","","","","","","","","",""
"","","","","","html-slider-response","88","1218676","0.0-17.0-1.23","d492e1fc-ffbf-4941-9011-3b1a4a7b9bbf","982","
                  <p style=""text-align: center;"">₪76
                                                <br>65%</p>
                  <p id=""wtp"" style=""text-align:center; margin-top: 0px; margin-bottom: 0px; font-size: 40px"";>מוכנים לשלם: <span id=""c_p_y""></span></p>","64","evaluation","37","29","8C,19A,24B","65","76","63","","","","","","","","","","","","","","","","",""
"","","","","","html-keyboard-response","89","1219872","0.0-17.0-2.23","d492e1fc-ffbf-4941-9011-3b1a4a7b9bbf","null","<p style=""text-align: center;"">+</p>","null","fixation","","","","","","","","","","","","","","","","","","","","","","",""
"","","","","","html-slider-response","90","1220877","0.0-17.0-0.24","d492e1fc-ffbf-4941-9011-3b1a4a7b9bbf","1000","
                  <p style=""text-align: center;"">₪11
                                                <br>20%</p>
                  <p id=""wtp"" style=""text-align:center; margin-top: 0px; margin-bottom: 0px; font-size: 40px"";>&ensp;</p>","-","viewing","0","4","12C,17C,23C,28C","","","","","","","","","","","","","","","","","","","",""
"","","","","","html-slider-response","91","1222060","0.0-17.0-1.24","d492e1fc-ffbf-4941-9011-3b1a4a7b9bbf","1182","
                  <p style=""text-align: center;"">₪11
                                                <br>20%</p>
                  <p id=""wtp"" style=""text-align:center; margin-top: 0px; margin-bottom: 0px; font-size: 40px"";>מוכנים לשלם: <span id=""c_p_y""></span></p>","14","evaluation","58","4","12C,17C,23C,28C","20","11","14","","","","","","","","","","","","","","","","",""
"","","","","","html-keyboard-response","92","1222824","0.0-17.0-2.24","d492e1fc-ffbf-4941-9011-3b1a4a7b9bbf","null","<p style=""text-align: center;"">+</p>","null","fixation","","","","","","","","","","","","","","","","","","","","","","",""
"","","","","","html-slider-response","93","1223829","0.0-17.0-0.25","d492e1fc-ffbf-4941-9011-3b1a4a7b9bbf","1000","
                  <p style=""text-align: center;"">₪71
                                                <br>75%</p>
                  <p id=""wtp"" style=""text-align:center; margin-top: 0px; margin-bottom: 0px; font-size: 40px"";>&ensp;</p>","-","viewing","0","28","8B","","","","","","","","","","","","","","","","","","","",""
"","","","","","html-slider-response","94","1225589","0.0-17.0-1.25","d492e1fc-ffbf-4941-9011-3b1a4a7b9bbf","1759","
                  <p style=""text-align: center;"">₪71
                                                <br>75%</p>
                  <p id=""wtp"" style=""text-align:center; margin-top: 0px; margin-bottom: 0px; font-size: 40px"";>מוכנים לשלם: <span id=""c_p_y""></span></p>","62","evaluation","33","28","8B","75","71","61","","","","","","","","","","","","","","","","",""
"","","","","","html-keyboard-response","95","1226205","0.0-17.0-2.25","d492e1fc-ffbf-4941-9011-3b1a4a7b9bbf","null","<p style=""text-align: center;"">+</p>","null","fixation","","","","","","","","","","","","","","","","","","","","","","",""
"","","","","","html-slider-response","96","1227220","0.0-17.0-0.26","d492e1fc-ffbf-4941-9011-3b1a4a7b9bbf","1000","
                  <p style=""text-align: center;"">₪36
                                                <br>60%</p>
                  <p id=""wtp"" style=""text-align:center; margin-top: 0px; margin-bottom: 0px; font-size: 40px"";>&ensp;</p>","-","viewing","0","12","1C,7C,15C","","","","","","","","","","","","","","","","","","","",""
"","","","","","html-slider-response","97","1229117","0.0-17.0-1.26","d492e1fc-ffbf-4941-9011-3b1a4a7b9bbf","1895","
                  <p style=""text-align: center;"">₪36
                                                <br>60%</p>
                  <p id=""wtp"" style=""text-align:center; margin-top: 0px; margin-bottom: 0px; font-size: 40px"";>מוכנים לשלם: <span id=""c_p_y""></span></p>","50","evaluation","20","12","1C,7C,15C","60","36","49","","","","","","","","","","","","","","","","",""
"","","","","","html-keyboard-response","98","1230480","0.0-17.0-2.26","d492e1fc-ffbf-4941-9011-3b1a4a7b9bbf","null","<p style=""text-align: center;"">+</p>","null","fixation","","","","","","","","","","","","","","","","","","","","","","",""
"","","","","","html-slider-response","99","1231483","0.0-17.0-0.27","d492e1fc-ffbf-4941-9011-3b1a4a7b9bbf","1000","
                  <p style=""text-align: center;"">₪58
                                                <br>30%</p>
                  <p id=""wtp"" style=""text-align:center; margin-top: 0px; margin-bottom: 0px; font-size: 40px"";>&ensp;</p>","-","viewing","0","19","13C,30A","","","","","","","","","","","","","","","","","","","",""
"","","","","","html-slider-response","100","1233309","0.0-17.0-1.27","d492e1fc-ffbf-4941-9011-3b1a4a7b9bbf","1825","
                  <p style=""text-align: center;"">₪58
                                                <br>30%</p>
                  <p id=""wtp"" style=""text-align:center; margin-top: 0px; margin-bottom: 0px; font-size: 40px"";>מוכנים לשלם: <span id=""c_p_y""></span></p>","23","evaluation","49","19","13C,30A","30","58","23","","","","","","","","","","","","","","","","",""
"","","","","","html-keyboard-response","101","1234718","0.0-17.0-2.27","d492e1fc-ffbf-4941-9011-3b1a4a7b9bbf","null","<p style=""text-align: center;"">+</p>","null","fixation","","","","","","","","","","","","","","","","","","","","","","",""
"","","","","","html-slider-response","102","1235727","0.0-17.0-0.28","d492e1fc-ffbf-4941-9011-3b1a4a7b9bbf","1000","
                  <p style=""text-align: center;"">₪36
                                                <br>75%</p>
                  <p id=""wtp"" style=""text-align:center; margin-top: 0px; margin-bottom: 0px; font-size: 40px"";>&ensp;</p>","-","viewing","0","14","4B,5A,13B,16B","","","","","","","","","","","","","","","","","","","",""
"","","","","","html-slider-response","103","1236845","0.0-17.0-1.28","d492e1fc-ffbf-4941-9011-3b1a4a7b9bbf","1117","
                  <p style=""text-align: center;"">₪36
                                                <br>75%</p>
                  <p id=""wtp"" style=""text-align:center; margin-top: 0px; margin-bottom: 0px; font-size: 40px"";>מוכנים לשלם: <span id=""c_p_y""></span></p>","69","evaluation","62","14","4B,5A,13B,16B","75","36","69","","","","","","","","","","","","","","","","",""
"","","","","","html-keyboard-response","104","1238104","0.0-17.0-2.28","d492e1fc-ffbf-4941-9011-3b1a4a7b9bbf","null","<p style=""text-align: center;"">+</p>","null","fixation","","","","","","","","","","","","","","","","","","","","","","",""
"","","","","","html-slider-response","105","1239112","0.0-17.0-0.29","d492e1fc-ffbf-4941-9011-3b1a4a7b9bbf","1000","
                  <p style=""text-align: center;"">₪43
                                                <br>75%</p>
                  <p id=""wtp"" style=""text-align:center; margin-top: 0px; margin-bottom: 0px; font-size: 40px"";>&ensp;</p>","-","viewing","0","18","11B,19B,24A,26A","","","","","","","","","","","","","","","","","","","",""
"","","","","","html-slider-response","106","1240260","0.0-17.0-1.29","d492e1fc-ffbf-4941-9011-3b1a4a7b9bbf","1147","
                  <p style=""text-align: center;"">₪43
                                                <br>75%</p>
                  <p id=""wtp"" style=""text-align:center; margin-top: 0px; margin-bottom: 0px; font-size: 40px"";>מוכנים לשלם: <span id=""c_p_y""></span></p>","71","evaluation","5","18","11B,19B,24A,26A","75","43","71","","","","","","","","","","","","","","","","",""
"","","","","","html-keyboard-response","107","1240834","0.0-17.0-2.29","d492e1fc-ffbf-4941-9011-3b1a4a7b9bbf","null","<p style=""text-align: center;"">+</p>","null","fixation","","","","","","","","","","","","","","","","","","","","","","",""
"","","","","","html-slider-response","108","1241848","0.0-17.0-0.30","d492e1fc-ffbf-4941-9011-3b1a4a7b9bbf","1000","
                  <p style=""text-align: center;"">₪4
                                                <br>25%</p>
                  <p id=""wtp"" style=""text-align:center; margin-top: 0px; margin-bottom: 0px; font-size: 40px"";>&ensp;</p>","-","viewing","0","1","6C,29B,30C","","","","","","","","","","","","","","","","","","","",""
"","","","","","html-slider-response","109","1242917","0.0-17.0-1.30","d492e1fc-ffbf-4941-9011-3b1a4a7b9bbf","1068","
                  <p style=""text-align: center;"">₪4
                                                <br>25%</p>
                  <p id=""wtp"" style=""text-align:center; margin-top: 0px; margin-bottom: 0px; font-size: 40px"";>מוכנים לשלם: <span id=""c_p_y""></span></p>","26","evaluation","66","1","6C,29B,30C","25","4","26","","","","","","","","","","","","","","","","",""
"","","","","","html-keyboard-response","110","1243642","0.0-17.0-2.30","d492e1fc-ffbf-4941-9011-3b1a4a7b9bbf","null","<p style=""text-align: center;"">+</p>","null","fixation","","","","","","","","","","","","","","","","","","","","","","",""
"","","","","","html-keyboard-response","111","1244653","0.0-18.0","d492e1fc-ffbf-4941-9011-3b1a4a7b9bbf","null","<p style=""text-align: center;"">+</p>","null","fixation","","","","","","","","","","","","","","","","","","","","","","",""
"","","","","","html-keyboard-response","112","1246237","0.0-19.0","d492e1fc-ffbf-4941-9011-3b1a4a7b9bbf","null","<p>הפסקה.
          <br>לחצו כדי להמשיך.</p>","1","scan_wait","","","","","","","","","","","","","","","","","","","","","","",""
"","","","","","html-keyboard-response","113","1247240","0.0-20.0","d492e1fc-ffbf-4941-9011-3b1a4a7b9bbf","null","<p style=""text-align: center;"">+</p>","null","fixation","","","","","","","","","","","","","","","","","","","","","","",""
"","","","","","html-slider-response","114","1248242","0.0-21.0-0.0","d492e1fc-ffbf-4941-9011-3b1a4a7b9bbf","1000","
                  <p style=""text-align: center;"">₪4
                                                <br>50%</p>
                  <p id=""wtp"" style=""text-align:center; margin-top: 0px; margin-bottom: 0px; font-size: 40px"";>&ensp;</p>","-","viewing","0","2","4C,17B","","","","","","","","","","","","","","","","","","","",""
"","","","","","html-slider-response","115","1249453","0.0-21.0-1.0","d492e1fc-ffbf-4941-9011-3b1a4a7b9bbf","1210","
                  <p style=""text-align: center;"">₪4
                                                <br>50%</p>
                  <p id=""wtp"" style=""text-align:center; margin-top: 0px; margin-bottom: 0px; font-size: 40px"";>מוכנים לשלם: <span id=""c_p_y""></span></p>","39","evaluation","48","2","4C,17B","50","4","39","","","","","","","","","","","","","","","","",""
"","","","","","html-keyboard-response","116","1250578","0.0-21.0-2.0","d492e1fc-ffbf-4941-9011-3b1a4a7b9bbf","null","<p style=""text-align: center;"">+</p>","null","fixation","","","","","","","","","","","","","","","","","","","","","","",""
"","","","","","html-slider-response","117","1251589","0.0-21.0-0.1","d492e1fc-ffbf-4941-9011-3b1a4a7b9bbf","1000","
                  <p style=""text-align: center;"">₪39
                                                <br>60%</p>
                  <p id=""wtp"" style=""text-align:center; margin-top: 0px; margin-bottom: 0px; font-size: 40px"";>&ensp;</p>","-","viewing","0","15","9C,25B","","","","","","","","","","","","","","","","","","","",""
"","","","","","html-slider-response","118","1253212","0.0-21.0-1.1","d492e1fc-ffbf-4941-9011-3b1a4a7b9bbf","1622","
                  <p style=""text-align: center;"">₪39
                                                <br>60%</p>
                  <p id=""wtp"" style=""text-align:center; margin-top: 0px; margin-bottom: 0px; font-size: 40px"";>מוכנים לשלם: <span id=""c_p_y""></span></p>","53","evaluation","32","15","9C,25B","60","39","53","","","","","","","","","","","","","","","","",""
"","","","","","html-keyboard-response","119","1254561","0.0-21.0-2.1","d492e1fc-ffbf-4941-9011-3b1a4a7b9bbf","null","<p style=""text-align: center;"">+</p>","null","fixation","","","","","","","","","","","","","","","","","","","","","","",""
"","","","","","html-slider-response","120","1255565","0.0-21.0-0.2","d492e1fc-ffbf-4941-9011-3b1a4a7b9bbf","1000","
                  <p style=""text-align: center;"">₪43
                                                <br>60%</p>
                  <p id=""wtp"" style=""text-align:center; margin-top: 0px; margin-bottom: 0px; font-size: 40px"";>&ensp;</p>","-","viewing","0","17","2A,7A,9A,15B","","","","","","","","","","","","","","","","","","","",""
"","","","","","html-slider-response","121","1257037","0.0-21.0-1.2","d492e1fc-ffbf-4941-9011-3b1a4a7b9bbf","1470","
                  <p style=""text-align: center;"">₪43
                                                <br>60%</p>
                  <p id=""wtp"" style=""text-align:center; margin-top: 0px; margin-bottom: 0px; font-size: 40px"";>מוכנים לשלם: <span id=""c_p_y""></span></p>","55","evaluation","31","17","2A,7A,9A,15B","60","43","55","","","","","","","","","","","","","","","","",""
"","","","","","html-keyboard-response","122","1258122","0.0-21.0-2.2","d492e1fc-ffbf-4941-9011-3b1a4a7b9bbf","null","<p style=""text-align: center;"">+</p>","null","fixation","","","","","","","","","","","","","","","","","","","","","","",""
"","","","","","html-slider-response","123","1259125","0.0-21.0-0.3","d492e1fc-ffbf-4941-9011-3b1a4a7b9bbf","1000","
                  <p style=""text-align: center;"">₪58
                                                <br>40%</p>
                  <p id=""wtp"" style=""text-align:center; margin-top: 0px; margin-bottom: 0px; font-size: 40px"";>&ensp;</p>","-","viewing","0","20","10C,13A,19C,21B","","","","","","","","","","","","","","","","","","","",""
"","","","","","html-slider-response","124","1260828","0.0-21.0-1.3","d492e1fc-ffbf-4941-9011-3b1a4a7b9bbf","1703","
                  <p style=""text-align: center;"">₪58
                                                <br>40%</p>
                  <p id=""wtp"" style=""text-align:center; margin-top: 0px; margin-bottom: 0px; font-size: 40px"";>מוכנים לשלם: <span id=""c_p_y""></span></p>","28","evaluation","31","20","10C,13A,19C,21B","40","58","28","","","","","","","","","","","","","","","","",""
"","","","","","html-keyboard-response","125","1261859","0.0-21.0-2.3","d492e1fc-ffbf-4941-9011-3b1a4a7b9bbf","null","<p style=""text-align: center;"">+</p>","null","fixation","","","","","","","","","","","","","","","","","","","","","","",""
"","","","","","html-slider-response","126","1262861","0.0-21.0-0.4","d492e1fc-ffbf-4941-9011-3b1a4a7b9bbf","1000","
                  <p style=""text-align: center;"">₪71
                                                <br>75%</p>
                  <p id=""wtp"" style=""text-align:center; margin-top: 0px; margin-bottom: 0px; font-size: 40px"";>&ensp;</p>","-","viewing","0","28","8B","","","","","","","","","","","","","","","","","","","",""
"","","","","","html-slider-response","127","1264797","0.0-21.0-1.4","d492e1fc-ffbf-4941-9011-3b1a4a7b9bbf","1935","
                  <p style=""text-align: center;"">₪71
                                                <br>75%</p>
                  <p id=""wtp"" style=""text-align:center; margin-top: 0px; margin-bottom: 0px; font-size: 40px"";>מוכנים לשלם: <span id=""c_p_y""></span></p>","65","evaluation","56","28","8B","75","71","64","","","","","","","","","","","","","","","","",""
"","","","","","html-keyboard-response","128","1266072","0.0-21.0-2.4","d492e1fc-ffbf-4941-9011-3b1a4a7b9bbf","null","<p style=""text-align: center;"">+</p>","null","fixation","","","","","","","","","","","","","","","","","","","","","","",""
"","","","","","html-slider-response","129","1267085","0.0-21.0-0.5","d492e1fc-ffbf-4941-9011-3b1a4a7b9bbf","1000","
                  <p style=""text-align: center;"">₪11
                                                <br>20%</p>
                  <p id=""wtp"" style=""text-align:center; margin-top: 0px; margin-bottom: 0px; font-size: 40px"";>&ensp;</p>","-","viewing","0","4","12C,17C,23C,28C","","","","","","","","","","","","","","","","","","","",""
"","","","","","html-slider-response","130","1268309","0.0-21.0-1.5","d492e1fc-ffbf-4941-9011-3b1a4a7b9bbf","1222","
                  <p style=""text-align: center;"">₪11
                                                <br>20%</p>
                  <p id=""wtp"" style=""text-align:center; margin-top: 0px; margin-bottom: 0px; font-size: 40px"";>מוכנים לשלם: <span id=""c_p_y""></span></p>","20","evaluation","47","4","12C,17C,23C,28C","20","11","20","","","","","","","","","","","","","","","","",""
"","","","","","html-keyboard-response","131","1268859","0.0-21.0-2.5","d492e1fc-ffbf-4941-9011-3b1a4a7b9bbf","null","<p style=""text-align: center;"">+</p>","null","fixation","","","","","","","","","","","","","","","","","","","","","","",""
"","","","","","html-slider-response","132","1269861","0.0-21.0-0.6","d492e1fc-ffbf-4941-9011-3b1a4a7b9bbf","1000","
                  <p style=""text-align: center;"">₪43
                                                <br>75%</p>
                  <p id=""wtp"" style=""text-align:center; margin-top: 0px; margin-bottom: 0px; font-size: 40px"";>&ensp;</p>","-","viewing","0","18","11B,19B,24A,26A","","","","","","","","","","","","","","","","","","","",""
"","","","","","html-slider-response","133","1273197","0.0-21.0-1.6","d492e1fc-ffbf-4941-9011-3b1a4a7b9bbf","3336","
                  <p style=""text-align: center;"">₪43
                                                <br>75%</p>
                  <p id=""wtp"" style=""text-align:center; margin-top: 0px; margin-bottom: 0px; font-size: 40px"";>מוכנים לשלם: <span id=""c_p_y""></span></p>","42","evaluation","61","18","11B,19B,24A,26A","75","43","42","","","","","","","","","","","","","","","","",""
"","","","","","html-keyboard-response","134","1274170","0.0-21.0-2.6","d492e1fc-ffbf-4941-9011-3b1a4a7b9bbf","null","<p style=""text-align: center;"">+</p>","null","fixation","","","","","","","","","","","","","","","","","","","","","","",""
"","","","","","html-slider-response","135","1275184","0.0-21.0-0.7","d492e1fc-ffbf-4941-9011-3b1a4a7b9bbf","1000","
                  <p style=""text-align: center;"">₪58
                                                <br>30%</p>
                  <p id=""wtp"" style=""text-align:center; margin-top: 0px; margin-bottom: 0px; font-size: 40px"";>&ensp;</p>","-","viewing","0","19","13C,30A","","","","","","","","","","","","","","","","","","","",""
"","","","","","html-slider-response","136","1277757","0.0-21.0-1.7","d492e1fc-ffbf-4941-9011-3b1a4a7b9bbf","2572","
                  <p style=""text-align: center;"">₪58
                                                <br>30%</p>
                  <p id=""wtp"" style=""text-align:center; margin-top: 0px; margin-bottom: 0px; font-size: 40px"";>מוכנים לשלם: <span id=""c_p_y""></span></p>","28","evaluation","1","19","13C,30A","30","58","28","","","","","","","","","","","","","","","","",""
"","","","","","html-keyboard-response","137","1278728","0.0-21.0-2.7","d492e1fc-ffbf-4941-9011-3b1a4a7b9bbf","null","<p style=""text-align: center;"">+</p>","null","fixation","","","","","","","","","","","","","","","","","","","","","","",""
"","","","","","html-slider-response","138","1279739","0.0-21.0-0.8","d492e1fc-ffbf-4941-9011-3b1a4a7b9bbf","1000","
                  <p style=""text-align: center;"">₪58
                                                <br>45%</p>
                  <p id=""wtp"" style=""text-align:center; margin-top: 0px; margin-bottom: 0px; font-size: 40px"";>&ensp;</p>","-","viewing","0","21","11C,18C,25A","","","","","","","","","","","","","","","","","","","",""
"","","","","","html-slider-response","139","1281445","0.0-21.0-1.8","d492e1fc-ffbf-4941-9011-3b1a4a7b9bbf","1705","
                  <p style=""text-align: center;"">₪58
                                                <br>45%</p>
                  <p id=""wtp"" style=""text-align:center; margin-top: 0px; margin-bottom: 0px; font-size: 40px"";>מוכנים לשלם: <span id=""c_p_y""></span></p>","44","evaluation","5","21","11C,18C,25A","45","58","44","","","","","","","","","","","","","","","","",""
"","","","","","html-keyboard-response","140","1282567","0.0-21.0-2.8","d492e1fc-ffbf-4941-9011-3b1a4a7b9bbf","null","<p style=""text-align: center;"">+</p>","null","fixation","","","","","","","","","","","","","","","","","","","","","","",""
"","","","","","html-slider-response","141","1283576","0.0-21.0-0.9","d492e1fc-ffbf-4941-9011-3b1a4a7b9bbf","1000","
                  <p style=""text-align: center;"">₪71
                                                <br>55%</p>
                  <p id=""wtp"" style=""text-align:center; margin-top: 0px; margin-bottom: 0px; font-size: 40px"";>&ensp;</p>","-","viewing","0","27","5B,18A","","","","","","","","","","","","","","","","","","","",""
"","","","","","html-slider-response","142","1284917","0.0-21.0-1.9","d492e1fc-ffbf-4941-9011-3b1a4a7b9bbf","1340","
                  <p style=""text-align: center;"">₪71
                                                <br>55%</p>
                  <p id=""wtp"" style=""text-align:center; margin-top: 0px; margin-bottom: 0px; font-size: 40px"";>מוכנים לשלם: <span id=""c_p_y""></span></p>","46","evaluation","22","27","5B,18A","55","71","46","","","","","","","","","","","","","","","","",""
"","","","","","html-keyboard-response","143","1286017","0.0-21.0-2.9","d492e1fc-ffbf-4941-9011-3b1a4a7b9bbf","null","<p style=""text-align: center;"">+</p>","null","fixation","","","","","","","","","","","","","","","","","","","","","","",""
"","","","","","html-slider-response","144","1287020","0.0-21.0-0.10","d492e1fc-ffbf-4941-9011-3b1a4a7b9bbf","1000","
                  <p style=""text-align: center;"">₪36
                                                <br>60%</p>
                  <p id=""wtp"" style=""text-align:center; margin-top: 0px; margin-bottom: 0px; font-size: 40px"";>&ensp;</p>","-","viewing","0","12","1C,7C,15C","","","","","","","","","","","","","","","","","","","",""
"","","","","","html-slider-response","145","1289133","0.0-21.0-1.10","d492e1fc-ffbf-4941-9011-3b1a4a7b9bbf","2112","
                  <p style=""text-align: center;"">₪36
                                                <br>60%</p>
                  <p id=""wtp"" style=""text-align:center; margin-top: 0px; margin-bottom: 0px; font-size: 40px"";>מוכנים לשלם: <span id=""c_p_y""></span></p>","33","evaluation","76","12","1C,7C,15C","60","36","33","","","","","","","","","","","","","","","","",""
"","","","","","html-keyboard-response","146","1289842","0.0-21.0-2.10","d492e1fc-ffbf-4941-9011-3b1a4a7b9bbf","null","<p style=""text-align: center;"">+</p>","null","fixation","","","","","","","","","","","","","","","","","","","","","","",""
"","","","","","html-slider-response","147","1290846","0.0-21.0-0.11","d492e1fc-ffbf-4941-9011-3b1a4a7b9bbf","1000","
                  <p style=""text-align: center;"">₪11
                                                <br>45%</p>
                  <p id=""wtp"" style=""text-align:center; margin-top: 0px; margin-bottom: 0px; font-size: 40px"";>&ensp;</p>","-","viewing","0","6","14B,21C,25C","","","","","","","","","","","","","","","","","","","",""
"","","","","","html-slider-response","148","1293013","0.0-21.0-1.11","d492e1fc-ffbf-4941-9011-3b1a4a7b9bbf","2165","
                  <p style=""text-align: center;"">₪11
                                                <br>45%</p>
                  <p id=""wtp"" style=""text-align:center; margin-top: 0px; margin-bottom: 0px; font-size: 40px"";>מוכנים לשלם: <span id=""c_p_y""></span></p>","9","evaluation","68","6","14B,21C,25C","45","11","9","","","","","","","","","","","","","","","","",""
"","","","","","html-keyboard-response","149","1294198","0.0-21.0-2.11","d492e1fc-ffbf-4941-9011-3b1a4a7b9bbf","null","<p style=""text-align: center;"">+</p>","null","fixation","","","","","","","","","","","","","","","","","","","","","","",""
"","","","","","html-slider-response","150","1295205","0.0-21.0-0.12","d492e1fc-ffbf-4941-9011-3b1a4a7b9bbf","1000","
                  <p style=""text-align: center;"">₪16
                                                <br>20%</p>
                  <p id=""wtp"" style=""text-align:center; margin-top: 0px; margin-bottom: 0px; font-size: 40px"";>&ensp;</p>","-","viewing","0","8","14C,17A,20C,27A","","","","","","","","","","","","","","","","","","","",""
"","","","","","html-slider-response","151","1296277","0.0-21.0-1.12","d492e1fc-ffbf-4941-9011-3b1a4a7b9bbf","1071","
                  <p style=""text-align: center;"">₪16
                                                <br>20%</p>
                  <p id=""wtp"" style=""text-align:center; margin-top: 0px; margin-bottom: 0px; font-size: 40px"";>מוכנים לשלם: <span id=""c_p_y""></span></p>","14","evaluation","74","8","14C,17A,20C,27A","20","16","14","","","","","","","","","","","","","","","","",""
"","","","","","html-keyboard-response","152","1297539","0.0-21.0-2.12","d492e1fc-ffbf-4941-9011-3b1a4a7b9bbf","null","<p style=""text-align: center;"">+</p>","null","fixation","","","","","","","","","","","","","","","","","","","","","","",""
"","","","","","html-slider-response","153","1298555","0.0-21.0-0.13","d492e1fc-ffbf-4941-9011-3b1a4a7b9bbf","1000","
                  <p style=""text-align: center;"">₪4
                                                <br>25%</p>
                  <p id=""wtp"" style=""text-align:center; margin-top: 0px; margin-bottom: 0px; font-size: 40px"";>&ensp;</p>","-","viewing","0","1","6C,29B,30C","","","","","","","","","","","","","","","","","","","",""
"","","","","","html-slider-response","154","1300821","0.0-21.0-1.13","d492e1fc-ffbf-4941-9011-3b1a4a7b9bbf","2265","
                  <p style=""text-align: center;"">₪4
                                                <br>25%</p>
                  <p id=""wtp"" style=""text-align:center; margin-top: 0px; margin-bottom: 0px; font-size: 40px"";>מוכנים לשלם: <span id=""c_p_y""></span></p>","1","evaluation","26","1","6C,29B,30C","25","4","2","","","","","","","","","","","","","","","","",""
"","","","","","html-keyboard-response","155","1301332","0.0-21.0-2.13","d492e1fc-ffbf-4941-9011-3b1a4a7b9bbf","null","<p style=""text-align: center;"">+</p>","null","fixation","","","","","","","","","","","","","","","","","","","","","","",""
"","","","","","html-slider-response","156","1302332","0.0-21.0-0.14","d492e1fc-ffbf-4941-9011-3b1a4a7b9bbf","1000","
                  <p style=""text-align: center;"">₪18
                                                <br>50%</p>
                  <p id=""wtp"" style=""text-align:center; margin-top: 0px; margin-bottom: 0px; font-size: 40px"";>&ensp;</p>","-","viewing","0","10","2C,16C,22B,28A","","","","","","","","","","","","","","","","","","","",""
"","","","","","html-slider-response","157","1304164","0.0-21.0-1.14","d492e1fc-ffbf-4941-9011-3b1a4a7b9bbf","1830","
                  <p style=""text-align: center;"">₪18
                                                <br>50%</p>
                  <p id=""wtp"" style=""text-align:center; margin-top: 0px; margin-bottom: 0px; font-size: 40px"";>מוכנים לשלם: <span id=""c_p_y""></span></p>","12","evaluation","17","10","2C,16C,22B,28A","50","18","12","","","","","","","","","","","","","","","","",""
"","","","","","html-keyboard-response","158","1305349","0.0-21.0-2.14","d492e1fc-ffbf-4941-9011-3b1a4a7b9bbf","null","<p style=""text-align: center;"">+</p>","null","fixation","","","","","","","","","","","","","","","","","","","","","","",""
"","","","","","html-slider-response","159","1306361","0.0-21.0-0.15","d492e1fc-ffbf-4941-9011-3b1a4a7b9bbf","1000","
                  <p style=""text-align: center;"">₪64
                                                <br>25%</p>
                  <p id=""wtp"" style=""text-align:center; margin-top: 0px; margin-bottom: 0px; font-size: 40px"";>&ensp;</p>","-","viewing","0","24","6A,21A","","","","","","","","","","","","","","","","","","","",""
"","","","","","html-slider-response","160","1307564","0.0-21.0-1.15","d492e1fc-ffbf-4941-9011-3b1a4a7b9bbf","1202","
                  <p style=""text-align: center;"">₪64
                                                <br>25%</p>
                  <p id=""wtp"" style=""text-align:center; margin-top: 0px; margin-bottom: 0px; font-size: 40px"";>מוכנים לשלם: <span id=""c_p_y""></span></p>","42","evaluation","78","24","6A,21A","25","64","42","","","","","","","","","","","","","","","","",""
"","","","","","html-keyboard-response","161","1308113","0.0-21.0-2.15","d492e1fc-ffbf-4941-9011-3b1a4a7b9bbf","null","<p style=""text-align: center;"">+</p>","null","fixation","","","","","","","","","","","","","","","","","","","","","","",""
"","","","","","html-slider-response","162","1309131","0.0-21.0-0.16","d492e1fc-ffbf-4941-9011-3b1a4a7b9bbf","1000","
                  <p style=""text-align: center;"">₪79
                                                <br>40%</p>
                  <p id=""wtp"" style=""text-align:center; margin-top: 0px; margin-bottom: 0px; font-size: 40px"";>&ensp;</p>","-","viewing","0","30","9B","","","","","","","","","","","","","","","","","","","",""
"","","","","","html-slider-response","163","1311188","0.0-21.0-1.16","d492e1fc-ffbf-4941-9011-3b1a4a7b9bbf","2056","
                  <p style=""text-align: center;"">₪79
                                                <br>40%</p>
                  <p id=""wtp"" style=""text-align:center; margin-top: 0px; margin-bottom: 0px; font-size: 40px"";>מוכנים לשלם: <span id=""c_p_y""></span></p>","44","evaluation","76","30","9B","40","79","44","","","","","","","","","","","","","","","","",""
"","","","","","html-keyboard-response","164","1312334","0.0-21.0-2.16","d492e1fc-ffbf-4941-9011-3b1a4a7b9bbf","null","<p style=""text-align: center;"">+</p>","null","fixation","","","","","","","","","","","","","","","","","","","","","","",""
"","","","","","html-slider-response","165","1313341","0.0-21.0-0.17","d492e1fc-ffbf-4941-9011-3b1a4a7b9bbf","1000","
                  <p style=""text-align: center;"">₪36
                                                <br>30%</p>
                  <p id=""wtp"" style=""text-align:center; margin-top: 0px; margin-bottom: 0px; font-size: 40px"";>&ensp;</p>","-","viewing","0","11","3C,20A,22A","","","","","","","","","","","","","","","","","","","",""
"","","","","","html-slider-response","166","1314628","0.0-21.0-1.17","d492e1fc-ffbf-4941-9011-3b1a4a7b9bbf","1286","
                  <p style=""text-align: center;"">₪36
                                                <br>30%</p>
                  <p id=""wtp"" style=""text-align:center; margin-top: 0px; margin-bottom: 0px; font-size: 40px"";>מוכנים לשלם: <span id=""c_p_y""></span></p>","24","evaluation","30","11","3C,20A,22A","30","36","24","","","","","","","","","","","","","","","","",""
"","","","","","html-keyboard-response","167","1316032","0.0-21.0-2.17","d492e1fc-ffbf-4941-9011-3b1a4a7b9bbf","null","<p style=""text-align: center;"">+</p>","null","fixation","","","","","","","","","","","","","","","","","","","","","","",""
"","","","","","html-slider-response","168","1317048","0.0-21.0-0.18","d492e1fc-ffbf-4941-9011-3b1a4a7b9bbf","1000","
                  <p style=""text-align: center;"">₪36
                                                <br>75%</p>
                  <p id=""wtp"" style=""text-align:center; margin-top: 0px; margin-bottom: 0px; font-size: 40px"";>&ensp;</p>","-","viewing","0","14","4B,5A,13B,16B","","","","","","","","","","","","","","","","","","","",""
"","","","","","html-slider-response","169","1320540","0.0-21.0-1.18","d492e1fc-ffbf-4941-9011-3b1a4a7b9bbf","3491","
                  <p style=""text-align: center;"">₪36
                                                <br>75%</p>
                  <p id=""wtp"" style=""text-align:center; margin-top: 0px; margin-bottom: 0px; font-size: 40px"";>מוכנים לשלם: <span id=""c_p_y""></span></p>","26","evaluation","43","14","4B,5A,13B,16B","75","36","26","","","","","","","","","","","","","","","","",""
"","","","","","html-keyboard-response","170","1321411","0.0-21.0-2.18","d492e1fc-ffbf-4941-9011-3b1a4a7b9bbf","null","<p style=""text-align: center;"">+</p>","null","fixation","","","","","","","","","","","","","","","","","","","","","","",""
"","","","","","html-slider-response","171","1322413","0.0-21.0-0.19","d492e1fc-ffbf-4941-9011-3b1a4a7b9bbf","1000","
                  <p style=""text-align: center;"">₪71
                                                <br>45%</p>
                  <p id=""wtp"" style=""text-align:center; margin-top: 0px; margin-bottom: 0px; font-size: 40px"";>&ensp;</p>","-","viewing","0","26","2B,16A","","","","","","","","","","","","","","","","","","","",""
"","","","","","html-slider-response","172","1325628","0.0-21.0-1.19","d492e1fc-ffbf-4941-9011-3b1a4a7b9bbf","3213","
                  <p style=""text-align: center;"">₪71
                                                <br>45%</p>
                  <p id=""wtp"" style=""text-align:center; margin-top: 0px; margin-bottom: 0px; font-size: 40px"";>מוכנים לשלם: <span id=""c_p_y""></span></p>","36","evaluation","11","26","2B,16A","45","71","36","","","","","","","","","","","","","","","","",""
"","","","","","html-keyboard-response","173","1326369","0.0-21.0-2.19","d492e1fc-ffbf-4941-9011-3b1a4a7b9bbf","null","<p style=""text-align: center;"">+</p>","null","fixation","","","","","","","","","","","","","","","","","","","","","","",""
"","","","","","html-slider-response","174","1327372","0.0-21.0-0.20","d492e1fc-ffbf-4941-9011-3b1a4a7b9bbf","1000","
                  <p style=""text-align: center;"">₪11
                                                <br>75%</p>
                  <p id=""wtp"" style=""text-align:center; margin-top: 0px; margin-bottom: 0px; font-size: 40px"";>&ensp;</p>","-","viewing","0","7","6B,18B,22C,24C,29A","","","","","","","","","","","","","","","","","","","",""
"","","","","","html-slider-response","175","1329932","0.0-21.0-1.20","d492e1fc-ffbf-4941-9011-3b1a4a7b9bbf","2559","
                  <p style=""text-align: center;"">₪11
                                                <br>75%</p>
                  <p id=""wtp"" style=""text-align:center; margin-top: 0px; margin-bottom: 0px; font-size: 40px"";>מוכנים לשלם: <span id=""c_p_y""></span></p>","9","evaluation","45","7","6B,18B,22C,24C,29A","75","11","9","","","","","","","","","","","","","","","","",""
"","","","","","html-keyboard-response","176","1330452","0.0-21.0-2.20","d492e1fc-ffbf-4941-9011-3b1a4a7b9bbf","null","<p style=""text-align: center;"">+</p>","null","fixation","","","","","","","","","","","","","","","","","","","","","","",""
"","","","","","html-slider-response","177","1331460","0.0-21.0-0.21","d492e1fc-ffbf-4941-9011-3b1a4a7b9bbf","1000","
                  <p style=""text-align: center;"">₪61
                                                <br>55%</p>
                  <p id=""wtp"" style=""text-align:center; margin-top: 0px; margin-bottom: 0px; font-size: 40px"";>&ensp;</p>","-","viewing","0","23","7B,26B","","","","","","","","","","","","","","","","","","","",""
"","","","","","html-slider-response","178","1334340","0.0-21.0-1.21","d492e1fc-ffbf-4941-9011-3b1a4a7b9bbf","2878","
                  <p style=""text-align: center;"">₪61
                                                <br>55%</p>
                  <p id=""wtp"" style=""text-align:center; margin-top: 0px; margin-bottom: 0px; font-size: 40px"";>מוכנים לשלם: <span id=""c_p_y""></span></p>","27","evaluation","18","23","7B,26B","55","61","27","","","","","","","","","","","","","","","","",""
"","","","","","html-keyboard-response","179","1335220","0.0-21.0-2.21","d492e1fc-ffbf-4941-9011-3b1a4a7b9bbf","null","<p style=""text-align: center;"">+</p>","null","fixation","","","","","","","","","","","","","","","","","","","","","","",""
"","","","","","html-slider-response","180","1336223","0.0-21.0-0.22","d492e1fc-ffbf-4941-9011-3b1a4a7b9bbf","1000","
                  <p style=""text-align: center;"">₪18
                                                <br>25%</p>
                  <p id=""wtp"" style=""text-align:center; margin-top: 0px; margin-bottom: 0px; font-size: 40px"";>&ensp;</p>","-","viewing","0","9","14A,23A","","","","","","","","","","","","","","","","","","","",""
"","","","","","html-slider-response","181","1339756","0.0-21.0-1.22","d492e1fc-ffbf-4941-9011-3b1a4a7b9bbf","3532","
                  <p style=""text-align: center;"">₪18
                                                <br>25%</p>
                  <p id=""wtp"" style=""text-align:center; margin-top: 0px; margin-bottom: 0px; font-size: 40px"";>מוכנים לשלם: <span id=""c_p_y""></span></p>","11","evaluation","56","9","14A,23A","25","18","11","","","","","","","","","","","","","","","","",""
"","","","","","html-keyboard-response","182","1341035","0.0-21.0-2.22","d492e1fc-ffbf-4941-9011-3b1a4a7b9bbf","null","<p style=""text-align: center;"">+</p>","null","fixation","","","","","","","","","","","","","","","","","","","","","","",""
"","","","","","html-slider-response","183","1342037","0.0-21.0-0.23","d492e1fc-ffbf-4941-9011-3b1a4a7b9bbf","1000","
                  <p style=""text-align: center;"">₪76
                                                <br>65%</p>
                  <p id=""wtp"" style=""text-align:center; margin-top: 0px; margin-bottom: 0px; font-size: 40px"";>&ensp;</p>","-","viewing","0","29","8C,19A,24B","","","","","","","","","","","","","","","","","","","",""
"","","","","","html-slider-response","184","1343828","0.0-21.0-1.23","d492e1fc-ffbf-4941-9011-3b1a4a7b9bbf","1790","
                  <p style=""text-align: center;"">₪76
                                                <br>65%</p>
                  <p id=""wtp"" style=""text-align:center; margin-top: 0px; margin-bottom: 0px; font-size: 40px"";>מוכנים לשלם: <span id=""c_p_y""></span></p>","41","evaluation","51","29","8C,19A,24B","65","76","41","","","","","","","","","","","","","","","","",""
"","","","","","html-keyboard-response","185","1345298","0.0-21.0-2.23","d492e1fc-ffbf-4941-9011-3b1a4a7b9bbf","null","<p style=""text-align: center;"">+</p>","null","fixation","","","","","","","","","","","","","","","","","","","","","","",""
"","","","","","html-slider-response","186","1346308","0.0-21.0-0.24","d492e1fc-ffbf-4941-9011-3b1a4a7b9bbf","1000","
                  <p style=""text-align: center;"">₪64
                                                <br>50%</p>
                  <p id=""wtp"" style=""text-align:center; margin-top: 0px; margin-bottom: 0px; font-size: 40px"";>&ensp;</p>","-","viewing","0","25","1B,3B,4A","","","","","","","","","","","","","","","","","","","",""
"","","","","","html-slider-response","187","1348876","0.0-21.0-1.24","d492e1fc-ffbf-4941-9011-3b1a4a7b9bbf","2567","
                  <p style=""text-align: center;"">₪64
                                                <br>50%</p>
                  <p id=""wtp"" style=""text-align:center; margin-top: 0px; margin-bottom: 0px; font-size: 40px"";>מוכנים לשלם: <span id=""c_p_y""></span></p>","44","evaluation","11","25","1B,3B,4A","50","64","44","","","","","","","","","","","","","","","","",""
"","","","","","html-keyboard-response","188","1349988","0.0-21.0-2.24","d492e1fc-ffbf-4941-9011-3b1a4a7b9bbf","null","<p style=""text-align: center;"">+</p>","null","fixation","","","","","","","","","","","","","","","","","","","","","","",""
"","","","","","html-slider-response","189","1350992","0.0-21.0-0.25","d492e1fc-ffbf-4941-9011-3b1a4a7b9bbf","1000","
                  <p style=""text-align: center;"">₪39
                                                <br>65%</p>
                  <p id=""wtp"" style=""text-align:center; margin-top: 0px; margin-bottom: 0px; font-size: 40px"";>&ensp;</p>","-","viewing","0","16","1A,15A,26C","","","","","","","","","","","","","","","","","","","",""
"","","","","","html-slider-response","190","1354244","0.0-21.0-1.25","d492e1fc-ffbf-4941-9011-3b1a4a7b9bbf","3251","
                  <p style=""text-align: center;"">₪39
                                                <br>65%</p>
                  <p id=""wtp"" style=""text-align:center; margin-top: 0px; margin-bottom: 0px; font-size: 40px"";>מוכנים לשלם: <span id=""c_p_y""></span></p>","27","evaluation","69","16","1A,15A,26C","65","39","27","","","","","","","","","","","","","","","","",""
"","","","","","html-keyboard-response","191","1355408","0.0-21.0-2.25","d492e1fc-ffbf-4941-9011-3b1a4a7b9bbf","null","<p style=""text-align: center;"">+</p>","null","fixation","","","","","","","","","","","","","","","","","","","","","","",""
"","","","","","html-slider-response","192","1356415","0.0-21.0-0.26","d492e1fc-ffbf-4941-9011-3b1a4a7b9bbf","1000","
                  <p style=""text-align: center;"">₪11
                                                <br>25%</p>
                  <p id=""wtp"" style=""text-align:center; margin-top: 0px; margin-bottom: 0px; font-size: 40px"";>&ensp;</p>","-","viewing","0","5","12A,27B,28B,30B","","","","","","","","","","","","","","","","","","","",""
"","","","","","html-slider-response","193","1358396","0.0-21.0-1.26","d492e1fc-ffbf-4941-9011-3b1a4a7b9bbf","1980","
                  <p style=""text-align: center;"">₪11
                                                <br>25%</p>
                  <p id=""wtp"" style=""text-align:center; margin-top: 0px; margin-bottom: 0px; font-size: 40px"";>מוכנים לשלם: <span id=""c_p_y""></span></p>","6","evaluation","17","5","12A,27B,28B,30B","25","11","6","","","","","","","","","","","","","","","","",""
"","","","","","html-keyboard-response","194","1359498","0.0-21.0-2.26","d492e1fc-ffbf-4941-9011-3b1a4a7b9bbf","null","<p style=""text-align: center;"">+</p>","null","fixation","","","","","","","","","","","","","","","","","","","","","","",""
"","","","","","html-slider-response","195","1360502","0.0-21.0-0.27","d492e1fc-ffbf-4941-9011-3b1a4a7b9bbf","1000","
                  <p style=""text-align: center;"">₪4
                                                <br>75%</p>
                  <p id=""wtp"" style=""text-align:center; margin-top: 0px; margin-bottom: 0px; font-size: 40px"";>&ensp;</p>","-","viewing","0","3","12B,20B,23B,27C,29C","","","","","","","","","","","","","","","","","","","",""
"","","","","","html-slider-response","196","1361869","0.0-21.0-1.27","d492e1fc-ffbf-4941-9011-3b1a4a7b9bbf","1365","
                  <p style=""text-align: center;"">₪4
                                                <br>75%</p>
                  <p id=""wtp"" style=""text-align:center; margin-top: 0px; margin-bottom: 0px; font-size: 40px"";>מוכנים לשלם: <span id=""c_p_y""></span></p>","3","evaluation","26","3","12B,20B,23B,27C,29C","75","4","3","","","","","","","","","","","","","","","","",""
"","","","","","html-keyboard-response","197","1362486","0.0-21.0-2.27","d492e1fc-ffbf-4941-9011-3b1a4a7b9bbf","null","<p style=""text-align: center;"">+</p>","null","fixation","","","","","","","","","","","","","","","","","","","","","","",""
"","","","","","html-slider-response","198","1363501","0.0-21.0-0.28","d492e1fc-ffbf-4941-9011-3b1a4a7b9bbf","1000","
                  <p style=""text-align: center;"">₪61
                                                <br>45%</p>
                  <p id=""wtp"" style=""text-align:center; margin-top: 0px; margin-bottom: 0px; font-size: 40px"";>&ensp;</p>","-","viewing","0","22","10A,11A","","","","","","","","","","","","","","","","","","","",""
"","","","","","html-slider-response","199","1366452","0.0-21.0-1.28","d492e1fc-ffbf-4941-9011-3b1a4a7b9bbf","2950","
                  <p style=""text-align: center;"">₪61
                                                <br>45%</p>
                  <p id=""wtp"" style=""text-align:center; margin-top: 0px; margin-bottom: 0px; font-size: 40px"";>מוכנים לשלם: <span id=""c_p_y""></span></p>","29","evaluation","71","22","10A,11A","45","61","29","","","","","","","","","","","","","","","","",""
"","","","","","html-keyboard-response","200","1367054","0.0-21.0-2.28","d492e1fc-ffbf-4941-9011-3b1a4a7b9bbf","null","<p style=""text-align: center;"">+</p>","null","fixation","","","","","","","","","","","","","","","","","","","","","","",""
"","","","","","html-slider-response","201","1368067","0.0-21.0-0.29","d492e1fc-ffbf-4941-9011-3b1a4a7b9bbf","1000","
                  <p style=""text-align: center;"">₪79
                                                <br>65%</p>
                  <p id=""wtp"" style=""text-align:center; margin-top: 0px; margin-bottom: 0px; font-size: 40px"";>&ensp;</p>","-","viewing","0","31","8A","","","","","","","","","","","","","","","","","","","",""
"","","","","","html-slider-response","202","1370621","0.0-21.0-1.29","d492e1fc-ffbf-4941-9011-3b1a4a7b9bbf","2553","
                  <p style=""text-align: center;"">₪79
                                                <br>65%</p>
                  <p id=""wtp"" style=""text-align:center; margin-top: 0px; margin-bottom: 0px; font-size: 40px"";>מוכנים לשלם: <span id=""c_p_y""></span></p>","40","evaluation","11","31","8A","65","79","40","","","","","","","","","","","","","","","","",""
"","","","","","html-keyboard-response","203","1371893","0.0-21.0-2.29","d492e1fc-ffbf-4941-9011-3b1a4a7b9bbf","null","<p style=""text-align: center;"">+</p>","null","fixation","","","","","","","","","","","","","","","","","","","","","","",""
"","","","","","html-slider-response","204","1372895","0.0-21.0-0.30","d492e1fc-ffbf-4941-9011-3b1a4a7b9bbf","1000","
                  <p style=""text-align: center;"">₪36
                                                <br>70%</p>
                  <p id=""wtp"" style=""text-align:center; margin-top: 0px; margin-bottom: 0px; font-size: 40px"";>&ensp;</p>","-","viewing","0","13","3A,5C,10B","","","","","","","","","","","","","","","","","","","",""
"","","","","","html-slider-response","205","1374213","0.0-21.0-1.30","d492e1fc-ffbf-4941-9011-3b1a4a7b9bbf","1317","
                  <p style=""text-align: center;"">₪36
                                                <br>70%</p>
                  <p id=""wtp"" style=""text-align:center; margin-top: 0px; margin-bottom: 0px; font-size: 40px"";>מוכנים לשלם: <span id=""c_p_y""></span></p>","26","evaluation","55","13","3A,5C,10B","70","36","26","","","","","","","","","","","","","","","","",""
"","","","","","html-keyboard-response","206","1374915","0.0-21.0-2.30","d492e1fc-ffbf-4941-9011-3b1a4a7b9bbf","null","<p style=""text-align: center;"">+</p>","null","fixation","","","","","","","","","","","","","","","","","","","","","","",""
"","","","","","html-keyboard-response","207","1375916","0.0-22.0","d492e1fc-ffbf-4941-9011-3b1a4a7b9bbf","null","<p style=""text-align: center;"">+</p>","null","fixation","","","","","","","","","","","","","","","","","","","","","","",""
"","","","","","html-keyboard-response","208","1376869","0.0-23.0","d492e1fc-ffbf-4941-9011-3b1a4a7b9bbf","null","<p>הפסקה.
          <br>לחצו כדי להמשיך.</p>","1","scan_wait","","","","","","","","","","","","","","","","","","","","","","",""
"","","","","","html-keyboard-response","209","1377870","0.0-24.0","d492e1fc-ffbf-4941-9011-3b1a4a7b9bbf","null","<p style=""text-align: center;"">+</p>","null","fixation","","","","","","","","","","","","","","","","","","","","","","",""
"","","","","","html-slider-response","210","1378872","0.0-25.0-0.0","d492e1fc-ffbf-4941-9011-3b1a4a7b9bbf","1000","
                  <p style=""text-align: center;"">₪71
                                                <br>45%</p>
                  <p id=""wtp"" style=""text-align:center; margin-top: 0px; margin-bottom: 0px; font-size: 40px"";>&ensp;</p>","-","viewing","0","26","2B,16A","","","","","","","","","","","","","","","","","","","",""
"","","","","","html-slider-response","211","1380645","0.0-25.0-1.0","d492e1fc-ffbf-4941-9011-3b1a4a7b9bbf","1772","
                  <p style=""text-align: center;"">₪71
                                                <br>45%</p>
                  <p id=""wtp"" style=""text-align:center; margin-top: 0px; margin-bottom: 0px; font-size: 40px"";>מוכנים לשלם: <span id=""c_p_y""></span></p>","39","evaluation","67","26","2B,16A","45","71","39","","","","","","","","","","","","","","","","",""
"","","","","","html-keyboard-response","212","1381897","0.0-25.0-2.0","d492e1fc-ffbf-4941-9011-3b1a4a7b9bbf","null","<p style=""text-align: center;"">+</p>","null","fixation","","","","","","","","","","","","","","","","","","","","","","",""
"","","","","","html-slider-response","213","1382909","0.0-25.0-0.1","d492e1fc-ffbf-4941-9011-3b1a4a7b9bbf","1000","
                  <p style=""text-align: center;"">₪4
                                                <br>25%</p>
                  <p id=""wtp"" style=""text-align:center; margin-top: 0px; margin-bottom: 0px; font-size: 40px"";>&ensp;</p>","-","viewing","0","1","6C,29B,30C","","","","","","","","","","","","","","","","","","","",""
"","","","","","html-slider-response","214","1384101","0.0-25.0-1.1","d492e1fc-ffbf-4941-9011-3b1a4a7b9bbf","1191","
                  <p style=""text-align: center;"">₪4
                                                <br>25%</p>
                  <p id=""wtp"" style=""text-align:center; margin-top: 0px; margin-bottom: 0px; font-size: 40px"";>מוכנים לשלם: <span id=""c_p_y""></span></p>","2","evaluation","77","1","6C,29B,30C","25","4","2","","","","","","","","","","","","","","","","",""
"","","","","","html-keyboard-response","215","1384876","0.0-25.0-2.1","d492e1fc-ffbf-4941-9011-3b1a4a7b9bbf","null","<p style=""text-align: center;"">+</p>","null","fixation","","","","","","","","","","","","","","","","","","","","","","",""
"","","","","","html-slider-response","216","1385877","0.0-25.0-0.2","d492e1fc-ffbf-4941-9011-3b1a4a7b9bbf","1000","
                  <p style=""text-align: center;"">₪61
                                                <br>45%</p>
                  <p id=""wtp"" style=""text-align:center; margin-top: 0px; margin-bottom: 0px; font-size: 40px"";>&ensp;</p>","-","viewing","0","22","10A,11A","","","","","","","","","","","","","","","","","","","",""
"","","","","","html-slider-response","217","1388061","0.0-25.0-1.2","d492e1fc-ffbf-4941-9011-3b1a4a7b9bbf","2183","
                  <p style=""text-align: center;"">₪61
                                                <br>45%</p>
                  <p id=""wtp"" style=""text-align:center; margin-top: 0px; margin-bottom: 0px; font-size: 40px"";>מוכנים לשלם: <span id=""c_p_y""></span></p>","29","evaluation","54","22","10A,11A","45","61","29","","","","","","","","","","","","","","","","",""
"","","","","","html-keyboard-response","218","1388916","0.0-25.0-2.2","d492e1fc-ffbf-4941-9011-3b1a4a7b9bbf","null","<p style=""text-align: center;"">+</p>","null","fixation","","","","","","","","","","","","","","","","","","","","","","",""
"","","","","","html-slider-response","219","1389920","0.0-25.0-0.3","d492e1fc-ffbf-4941-9011-3b1a4a7b9bbf","1000","
                  <p style=""text-align: center;"">₪71
                                                <br>55%</p>
                  <p id=""wtp"" style=""text-align:center; margin-top: 0px; margin-bottom: 0px; font-size: 40px"";>&ensp;</p>","-","viewing","0","27","5B,18A","","","","","","","","","","","","","","","","","","","",""
"","","","","","html-slider-response","220","1391085","0.0-25.0-1.3","d492e1fc-ffbf-4941-9011-3b1a4a7b9bbf","1164","
                  <p style=""text-align: center;"">₪71
                                                <br>55%</p>
                  <p id=""wtp"" style=""text-align:center; margin-top: 0px; margin-bottom: 0px; font-size: 40px"";>מוכנים לשלם: <span id=""c_p_y""></span></p>","32","evaluation","74","27","5B,18A","55","71","32","","","","","","","","","","","","","","","","",""
"","","","","","html-keyboard-response","221","1392101","0.0-25.0-2.3","d492e1fc-ffbf-4941-9011-3b1a4a7b9bbf","null","<p style=""text-align: center;"">+</p>","null","fixation","","","","","","","","","","","","","","","","","","","","","","",""
"","","","","","html-slider-response","222","1393118","0.0-25.0-0.4","d492e1fc-ffbf-4941-9011-3b1a4a7b9bbf","1000","
                  <p style=""text-align: center;"">₪79
                                                <br>40%</p>
                  <p id=""wtp"" style=""text-align:center; margin-top: 0px; margin-bottom: 0px; font-size: 40px"";>&ensp;</p>","-","viewing","0","30","9B","","","","","","","","","","","","","","","","","","","",""
"","","","","","html-slider-response","223","1393973","0.0-25.0-1.4","d492e1fc-ffbf-4941-9011-3b1a4a7b9bbf","854","
                  <p style=""text-align: center;"">₪79
                                                <br>40%</p>
                  <p id=""wtp"" style=""text-align:center; margin-top: 0px; margin-bottom: 0px; font-size: 40px"";>מוכנים לשלם: <span id=""c_p_y""></span></p>","26","evaluation","78","30","9B","40","79","26","","","","","","","","","","","","","","","","",""
"","","","","","html-keyboard-response","224","1394940","0.0-25.0-2.4","d492e1fc-ffbf-4941-9011-3b1a4a7b9bbf","null","<p style=""text-align: center;"">+</p>","null","fixation","","","","","","","","","","","","","","","","","","","","","","",""
"","","","","","html-slider-response","225","1395941","0.0-25.0-0.5","d492e1fc-ffbf-4941-9011-3b1a4a7b9bbf","1000","
                  <p style=""text-align: center;"">₪18
                                                <br>25%</p>
                  <p id=""wtp"" style=""text-align:center; margin-top: 0px; margin-bottom: 0px; font-size: 40px"";>&ensp;</p>","-","viewing","0","9","14A,23A","","","","","","","","","","","","","","","","","","","",""
"","","","","","html-slider-response","226","1398381","0.0-25.0-1.5","d492e1fc-ffbf-4941-9011-3b1a4a7b9bbf","2438","
                  <p style=""text-align: center;"">₪18
                                                <br>25%</p>
                  <p id=""wtp"" style=""text-align:center; margin-top: 0px; margin-bottom: 0px; font-size: 40px"";>מוכנים לשלם: <span id=""c_p_y""></span></p>","14","evaluation","71","9","14A,23A","25","18","14","","","","","","","","","","","","","","","","",""
"","","","","","html-keyboard-response","227","1399356","0.0-25.0-2.5","d492e1fc-ffbf-4941-9011-3b1a4a7b9bbf","null","<p style=""text-align: center;"">+</p>","null","fixation","","","","","","","","","","","","","","","","","","","","","","",""
"","","","","","html-slider-response","228","1400369","0.0-25.0-0.6","d492e1fc-ffbf-4941-9011-3b1a4a7b9bbf","1000","
                  <p style=""text-align: center;"">₪36
                                                <br>75%</p>
                  <p id=""wtp"" style=""text-align:center; margin-top: 0px; margin-bottom: 0px; font-size: 40px"";>&ensp;</p>","-","viewing","0","14","4B,5A,13B,16B","","","","","","","","","","","","","","","","","","","",""
"","","","","","html-slider-response","229","1401413","0.0-25.0-1.6","d492e1fc-ffbf-4941-9011-3b1a4a7b9bbf","1043","
                  <p style=""text-align: center;"">₪36
                                                <br>75%</p>
                  <p id=""wtp"" style=""text-align:center; margin-top: 0px; margin-bottom: 0px; font-size: 40px"";>מוכנים לשלם: <span id=""c_p_y""></span></p>","25","evaluation","67","14","4B,5A,13B,16B","75","36","26","","","","","","","","","","","","","","","","",""
"","","","","","html-keyboard-response","230","1402333","0.0-25.0-2.6","d492e1fc-ffbf-4941-9011-3b1a4a7b9bbf","null","<p style=""text-align: center;"">+</p>","null","fixation","","","","","","","","","","","","","","","","","","","","","","",""
"","","","","","html-slider-response","231","1403341","0.0-25.0-0.7","d492e1fc-ffbf-4941-9011-3b1a4a7b9bbf","1000","
                  <p style=""text-align: center;"">₪71
                                                <br>75%</p>
                  <p id=""wtp"" style=""text-align:center; margin-top: 0px; margin-bottom: 0px; font-size: 40px"";>&ensp;</p>","-","viewing","0","28","8B","","","","","","","","","","","","","","","","","","","",""
"","","","","","html-slider-response","232","1405813","0.0-25.0-1.7","d492e1fc-ffbf-4941-9011-3b1a4a7b9bbf","2470","
                  <p style=""text-align: center;"">₪71
                                                <br>75%</p>
                  <p id=""wtp"" style=""text-align:center; margin-top: 0px; margin-bottom: 0px; font-size: 40px"";>מוכנים לשלם: <span id=""c_p_y""></span></p>","27","evaluation","13","28","8B","75","71","27","","","","","","","","","","","","","","","","",""
"","","","","","html-keyboard-response","233","1406613","0.0-25.0-2.7","d492e1fc-ffbf-4941-9011-3b1a4a7b9bbf","null","<p style=""text-align: center;"">+</p>","null","fixation","","","","","","","","","","","","","","","","","","","","","","",""
"","","","","","html-slider-response","234","1407625","0.0-25.0-0.8","d492e1fc-ffbf-4941-9011-3b1a4a7b9bbf","1000","
                  <p style=""text-align: center;"">₪43
                                                <br>75%</p>
                  <p id=""wtp"" style=""text-align:center; margin-top: 0px; margin-bottom: 0px; font-size: 40px"";>&ensp;</p>","-","viewing","0","18","11B,19B,24A,26A","","","","","","","","","","","","","","","","","","","",""
"","","","","","html-slider-response","235","1411365","0.0-25.0-1.8","d492e1fc-ffbf-4941-9011-3b1a4a7b9bbf","3739","
                  <p style=""text-align: center;"">₪43
                                                <br>75%</p>
                  <p id=""wtp"" style=""text-align:center; margin-top: 0px; margin-bottom: 0px; font-size: 40px"";>מוכנים לשלם: <span id=""c_p_y""></span></p>","4","evaluation","12","18","11B,19B,24A,26A","75","43","4","","","","","","","","","","","","","","","","",""
"","","","","","html-keyboard-response","236","1412246","0.0-25.0-2.8","d492e1fc-ffbf-4941-9011-3b1a4a7b9bbf","null","<p style=""text-align: center;"">+</p>","null","fixation","","","","","","","","","","","","","","","","","","","","","","",""
"","","","","","html-slider-response","237","1413252","0.0-25.0-0.9","d492e1fc-ffbf-4941-9011-3b1a4a7b9bbf","1000","
                  <p style=""text-align: center;"">₪11
                                                <br>45%</p>
                  <p id=""wtp"" style=""text-align:center; margin-top: 0px; margin-bottom: 0px; font-size: 40px"";>&ensp;</p>","-","viewing","0","6","14B,21C,25C","","","","","","","","","","","","","","","","","","","",""
"","","","","","html-slider-response","238","1414949","0.0-25.0-1.9","d492e1fc-ffbf-4941-9011-3b1a4a7b9bbf","1696","
                  <p style=""text-align: center;"">₪11
                                                <br>45%</p>
                  <p id=""wtp"" style=""text-align:center; margin-top: 0px; margin-bottom: 0px; font-size: 40px"";>מוכנים לשלם: <span id=""c_p_y""></span></p>","0","evaluation","61","6","14B,21C,25C","45","11","1","","","","","","","","","","","","","","","","",""
"","","","","","html-keyboard-response","239","1415455","0.0-25.0-2.9","d492e1fc-ffbf-4941-9011-3b1a4a7b9bbf","null","<p style=""text-align: center;"">+</p>","null","fixation","","","","","","","","","","","","","","","","","","","","","","",""
"","","","","","html-slider-response","240","1416459","0.0-25.0-0.10","d492e1fc-ffbf-4941-9011-3b1a4a7b9bbf","1000","
                  <p style=""text-align: center;"">₪4
                                                <br>50%</p>
                  <p id=""wtp"" style=""text-align:center; margin-top: 0px; margin-bottom: 0px; font-size: 40px"";>&ensp;</p>","-","viewing","0","2","4C,17B","","","","","","","","","","","","","","","","","","","",""
"","","","","","html-slider-response","241","1417716","0.0-25.0-1.10","d492e1fc-ffbf-4941-9011-3b1a4a7b9bbf","1256","
                  <p style=""text-align: center;"">₪4
                                                <br>50%</p>
                  <p id=""wtp"" style=""text-align:center; margin-top: 0px; margin-bottom: 0px; font-size: 40px"";>מוכנים לשלם: <span id=""c_p_y""></span></p>","1","evaluation","49","2","4C,17B","50","4","1","","","","","","","","","","","","","","","","",""
"","","","","","html-keyboard-response","242","1418292","0.0-25.0-2.10","d492e1fc-ffbf-4941-9011-3b1a4a7b9bbf","null","<p style=""text-align: center;"">+</p>","null","fixation","","","","","","","","","","","","","","","","","","","","","","",""
"","","","","","html-slider-response","243","1419294","0.0-25.0-0.11","d492e1fc-ffbf-4941-9011-3b1a4a7b9bbf","1000","
                  <p style=""text-align: center;"">₪39
                                                <br>65%</p>
                  <p id=""wtp"" style=""text-align:center; margin-top: 0px; margin-bottom: 0px; font-size: 40px"";>&ensp;</p>","-","viewing","0","16","1A,15A,26C","","","","","","","","","","","","","","","","","","","",""
"","","","","","html-slider-response","244","1421693","0.0-25.0-1.11","d492e1fc-ffbf-4941-9011-3b1a4a7b9bbf","2398","
                  <p style=""text-align: center;"">₪39
                                                <br>65%</p>
                  <p id=""wtp"" style=""text-align:center; margin-top: 0px; margin-bottom: 0px; font-size: 40px"";>מוכנים לשלם: <span id=""c_p_y""></span></p>","26","evaluation","52","16","1A,15A,26C","65","39","26","","","","","","","","","","","","","","","","",""
"","","","","","html-keyboard-response","245","1422485","0.0-25.0-2.11","d492e1fc-ffbf-4941-9011-3b1a4a7b9bbf","null","<p style=""text-align: center;"">+</p>","null","fixation","","","","","","","","","","","","","","","","","","","","","","",""
"","","","","","html-slider-response","246","1423490","0.0-25.0-0.12","d492e1fc-ffbf-4941-9011-3b1a4a7b9bbf","1000","
                  <p style=""text-align: center;"">₪11
                                                <br>75%</p>
                  <p id=""wtp"" style=""text-align:center; margin-top: 0px; margin-bottom: 0px; font-size: 40px"";>&ensp;</p>","-","viewing","0","7","6B,18B,22C,24C,29A","","","","","","","","","","","","","","","","","","","",""
"","","","","","html-slider-response","247","1426069","0.0-25.0-1.12","d492e1fc-ffbf-4941-9011-3b1a4a7b9bbf","2578","
                  <p style=""text-align: center;"">₪11
                                                <br>75%</p>
                  <p id=""wtp"" style=""text-align:center; margin-top: 0px; margin-bottom: 0px; font-size: 40px"";>מוכנים לשלם: <span id=""c_p_y""></span></p>","2","evaluation","31","7","6B,18B,22C,24C,29A","75","11","2","","","","","","","","","","","","","","","","",""
"","","","","","html-keyboard-response","248","1427506","0.0-25.0-2.12","d492e1fc-ffbf-4941-9011-3b1a4a7b9bbf","null","<p style=""text-align: center;"">+</p>","null","fixation","","","","","","","","","","","","","","","","","","","","","","",""
"","","","","","html-slider-response","249","1428517","0.0-25.0-0.13","d492e1fc-ffbf-4941-9011-3b1a4a7b9bbf","1000","
                  <p style=""text-align: center;"">₪11
