"success","timeout","failed_images","failed_audio","failed_video","trial_type","trial_index","time_elapsed","internal_node_id","subject_id","rt","stimulus","response","part","slider_start","ID","set_ID","prob","amount","last_location","actual_choice","actual_EV","binary_id","trinary_id","catch","A_key","D_key","choice_prob","choice_amount","chosen_part","won_prize","potential_prize_amount","potential_prize_prob","total_prize","accuracy"
"true","false","[]","[]","[]","preload","0","85","0.0-0.0","e98db0fa-cbd1-4415-ab8b-41b6226373b8","","","","","","","","","","","","","","","","","","","","","","","","",""
"","","","","","html-keyboard-response","1","822168","0.0-1.0","e98db0fa-cbd1-4415-ab8b-41b6226373b8","null","
          <h1>שלום וברוכים הבאים!</h1>
          <p>לפניכם ניסוי בקבלת החלטות עם שני חלקים.
          <br><br>לחצו על העכבר כדי להמשיך.</p>","0","example","","","","","","","","","","","","","","","","","","","","",""
"","","","","","html-keyboard-response","2","840904","0.0-2.0","e98db0fa-cbd1-4415-ab8b-41b6226373b8","null","
        <h1>חלק 1</h1>
        <p>בקרוב יוצגו בפניכם הגרלות.
        <br>עליכם לבחור את המחיר המירבי שתהיו מוכנים לשלם כדי להשתתף בהגרלה שתוצג.
        <br>יש לכם תקציב של ₪80 לכל הגרלה. 
        <br>נסו להעריך כל הגרלה בנפרד ולחשוב כמה היא שווה עבורכם, ₪80 זמינים לכל הגרלה בנפרד.
        <br><br>לחצו על העכבר כדי להמשיך.</p>","1","instructions","","","","","","","","","","","","","","","","","","","","",""
"","","","","","html-keyboard-response","3","860616","0.0-3.0","e98db0fa-cbd1-4415-ab8b-41b6226373b8","null","
        <p>בסוף הניסוי, המחשב יבחר את אחת ההגרלות ויקבע מחיר לכרטיס עבורה. 
        <br>במידה והמחיר שבחרתם נמוך מהמחיר שנבחר על ידי המחשב, לא תשתתפו בהגרלה ותשארו עם מלוא התקציב.
        <br>במידה והמחיר שבחרתם גבוה מהמחיר שנבחר על ידי המחשב, תשלמו את המחיר שנקבע ותשתתפו בהגרלה.
        <br><br>לחצו על העכבר כדי להמשיך.</p>","1","instructions","","","","","","","","","","","","","","","","","","","","",""
"","","","","","html-slider-response","4","882896","0.0-4.0","e98db0fa-cbd1-4415-ab8b-41b6226373b8","22174","
        <p style=""font-size: 42px;"">נתחיל עם דוגמא: 
        <br>ההגרלה מטה מציעה 65% סיכוי לזכות ב-₪40 
        <br>&emsp;&emsp;&emsp;&emsp;&emsp;&emsp;&emsp;&emsp;&ensp;35% סיכוי לזכות ב-₪0.
        <br><br>מה המחיר המירבי שתהיו מוכנים לשלם על כרטיס להגרלה זו בין 0 ל-₪80?
        <br>הזיזו את העכבר על פני המלבן ולחצו כדי לבצע בחירה.</p>
        
        <p style=""text-align: center;"">₪40<br>65%</p>

        <p id=""wtp"" style=""text-align:center; margin-top: 0px; margin-bottom: 0px; font-size: 40px"";>מוכנים לשלם: <span id=""c_p_y""></span></p>","22","example","57","","","","","","","","","","","","","","","","","","","",""
"","","","","","html-keyboard-response","5","901680","0.0-5.0","e98db0fa-cbd1-4415-ab8b-41b6226373b8","null","<p>יפה מאוד!
                <br> בחרתם שתהיו מוכנים לשלם ₪22 כדי להשתתף בהגרלה:
                <br><p style=""text-align: center;"">₪40<br>65%</p>
                <p>נשמע נכון?
                <br>נניח שהגרלה זו נבחרה בסוף הניסוי.
                <br>כעת המחשב יקבע מחיר עבורה באקראי.
                <br>לחצו על העכבר להמשך.</p>","1","example","","","","","","","","","","","","","","","","","","","","",""
"","","","","","html-keyboard-response","6","923272","0.0-6.0","e98db0fa-cbd1-4415-ab8b-41b6226373b8","null","<p>המחשב קבע מחיר: ₪56
                <br>ואתם בחרתם לשלם לכל היותר: ₪22
                <br><br>מכיוון שהמחיר שבחרתם נמוך מהמחיר שנקבע, לא תתשתתפו בהגרלה.
                <br>במקרה כזה, בסוף הניסוי תקבלו את כל התקציב ההתחלתי של ₪80.
                <br><br>לחצו על העכבר להמשך.</p>","1","example","","","","","","","","","","","","","","","","","","","","",""
"","","","","","html-slider-response","7","932280","0.0-7.0","e98db0fa-cbd1-4415-ab8b-41b6226373b8","8756","<p style=""font-size: 42px;"">הנה עוד דוגמא:
                <br>ההגרלה מטה מציעה 35% סיכוי לזכות ב-₪18 
                <br>&emsp;&emsp;&emsp;&emsp;&emsp;&emsp;&emsp;&emsp;&ensp;65% סיכוי לזכות ב-₪0.</p>
        
                <p style=""text-align: center;"">₪18<br>35%</p>
                <p id=""wtp"" style=""text-align:center; margin-top: 0px; margin-bottom: 0px; font-size: 40px"";>מוכנים לשלם: <span id=""c_p_y""></span></p>","2","example","0","","","","","","","","","","","","","","","","","","","",""
"","","","","","html-keyboard-response","8","943576","0.0-8.0","e98db0fa-cbd1-4415-ab8b-41b6226373b8","null","<p>הייתם מוכנים לשלם  ₪2 כדי להשתתף בהגרלה:
                <p style=""text-align: center;"">₪18<br>35%</p>
                <p>כעת נניח שהמחשב בחר את ההגרלה הזו בסוף הניסוי, וקבע עבורה מחיר.
                <br><br>לחצו על העכבר כדי להמשיך.</p>","1","instructions","","","","","","","","","","","","","","","","","","","","",""
"","","","","","html-keyboard-response","9","959576","0.0-9.0","e98db0fa-cbd1-4415-ab8b-41b6226373b8","null","<p>המחשב קבע מחיר להגרלה: ₪1<br>ואתם בחרתם לשלם לכל היותר: ₪2
                <br><br>כעת המחיר שנקבע נמוך מזה שבחרתם, אז תשלמו את המחיר שקבע המחשב (₪1) ותשתתפו בהגרלה.
                <br>במקרה כזה, תסיימו את הניסוי עם תקציב של ₪79 ועם סיכוי לזכות ב-₪18 נוספים מההגרלה.
                <br>כלומר, תוכלו לקבל ₪79 אם לא תזכו בהגרלה, או ₪97 אם תזכו בהגרלה.
                <br><br>לחצו על העכבר להמשך.</p>","1","example","","","","","","","","","","","","","","","","","","","","",""
"","","","","","html-keyboard-response","10","967856","0.0-10.0","e98db0fa-cbd1-4415-ab8b-41b6226373b8","null","<p>במהלך הניסוי, קודם תראו את ההגרלה ורק לאחר מכן תוכלו לבחור.
                <p>כמו כן, יהיו לכם מספר שניות מוגבל להגיב.
                <p>בואו ננסה זאת עם ההגרלה הקודמת.
                <br>לחצו על העכבר כדי להמשיך.</p>","1","instructions","","","","","","","","","","","","","","","","","","","","",""
"","","","","","html-slider-response","11","969133","0.0-11.0","e98db0fa-cbd1-4415-ab8b-41b6226373b8","1000","
                    <p style=""text-align: center;"">₪18<br>35%</p>
                    <p id=""wtp"" style=""text-align:center; margin-top: 0px; margin-bottom: 0px; font-size: 40px"";>&ensp;</p>","58","instructions","0","","","","","","","","","","","","","","","","","","","",""
"","","","","","html-slider-response","12","971800","0.0-12.0","e98db0fa-cbd1-4415-ab8b-41b6226373b8","2401","
                    <p style=""text-align: center;"">₪18<br>35%</p>
                    <p id=""wtp"" style=""text-align:center; margin-top: 0px; margin-bottom: 0px; font-size: 40px"";>מוכנים לשלם: <span id=""c_p_y""></span></p>","1","instructions","4","","","","","","","","","","","","","","","","","","","",""
"","","","","","html-keyboard-response","13","975432","0.0-13.0","e98db0fa-cbd1-4415-ab8b-41b6226373b8","null","<p>יפה. הפעם בחרתם לשלם לכל היותר ₪1.
                <br><br>לחצו על העכבר כדי להמשיך.</p>","1","instructions","","","","","","","","","","","","","","","","","","","","",""
"","","","","","html-keyboard-response","14","988488","0.0-15.0","e98db0fa-cbd1-4415-ab8b-41b6226373b8","null","<p>כעת נתחיל את הניסוי.
                <br><br>אתם תראו הגרלות ותתבקשו לבחור כמה תהיו מוכנים לשלם כדי להשתתף בהן.
                <br>יש לכם תקציב של ₪80 עבור כל הגרלה.
                <br>בסוף הניסוי הגרלה אחת תבחר באקראי ותשוחק.
                <br><br>לחצו על העכבר כדי להתחיל את הניסוי.</p>","1","instructions","","","","","","","","","","","","","","","","","","","","",""
"","","","","","html-keyboard-response","15","989754","0.0-16.0","e98db0fa-cbd1-4415-ab8b-41b6226373b8","null","<p style=""text-align: center;"">+</p>","null","fixation","","","","","","","","","","","","","","","","","","","","",""
"","","","","","html-slider-response","16","990764","0.0-17.0-0.0","e98db0fa-cbd1-4415-ab8b-41b6226373b8","1000","
                  <p style=""text-align: center;"">₪61
                                                <br>55%</p>
                  <p id=""wtp"" style=""text-align:center; margin-top: 0px; margin-bottom: 0px; font-size: 40px"";>&ensp;</p>","-","viewing","0","23","7B,26B","","","","","","","","","","","","","","","","","",""
"","","","","","html-slider-response","17","994769","0.0-17.0-1.0","e98db0fa-cbd1-4415-ab8b-41b6226373b8","null","
                  <p style=""text-align: center;"">₪61
                                                <br>55%</p>
                  <p id=""wtp"" style=""text-align:center; margin-top: 0px; margin-bottom: 0px; font-size: 40px"";>מוכנים לשלם: <span id=""c_p_y""></span></p>","null","evaluation","21","23","7B,26B","55","61","19","","","","","","","","","","","","","","",""
"","","","","","html-keyboard-response","18","995484","0.0-17.0-2.0","e98db0fa-cbd1-4415-ab8b-41b6226373b8","null","<p style=""text-align: center;"">+</p>","null","fixation","","","","","","","","","","","","","","","","","","","","",""
"","","","","","html-slider-response","19","996492","0.0-17.0-0.1","e98db0fa-cbd1-4415-ab8b-41b6226373b8","1000","
                  <p style=""text-align: center;"">₪58
                                                <br>30%</p>
                  <p id=""wtp"" style=""text-align:center; margin-top: 0px; margin-bottom: 0px; font-size: 40px"";>&ensp;</p>","-","viewing","0","19","13C,30A","","","","","","","","","","","","","","","","","",""
"","","","","","html-slider-response","20","998360","0.0-17.0-1.1","e98db0fa-cbd1-4415-ab8b-41b6226373b8","1866","
                  <p style=""text-align: center;"">₪58
                                                <br>30%</p>
                  <p id=""wtp"" style=""text-align:center; margin-top: 0px; margin-bottom: 0px; font-size: 40px"";>מוכנים לשלם: <span id=""c_p_y""></span></p>","16","evaluation","25","19","13C,30A","30","58","16","","","","","","","","","","","","","","",""
"","","","","","html-keyboard-response","21","999785","0.0-17.0-2.1","e98db0fa-cbd1-4415-ab8b-41b6226373b8","null","<p style=""text-align: center;"">+</p>","null","fixation","","","","","","","","","","","","","","","","","","","","",""
"","","","","","html-slider-response","22","1000797","0.0-17.0-0.2","e98db0fa-cbd1-4415-ab8b-41b6226373b8","1000","
                  <p style=""text-align: center;"">₪36
                                                <br>30%</p>
                  <p id=""wtp"" style=""text-align:center; margin-top: 0px; margin-bottom: 0px; font-size: 40px"";>&ensp;</p>","-","viewing","0","11","3C,20A,22A","","","","","","","","","","","","","","","","","",""
"","","","","","html-slider-response","23","1003456","0.0-17.0-1.2","e98db0fa-cbd1-4415-ab8b-41b6226373b8","2658","
                  <p style=""text-align: center;"">₪36
                                                <br>30%</p>
                  <p id=""wtp"" style=""text-align:center; margin-top: 0px; margin-bottom: 0px; font-size: 40px"";>מוכנים לשלם: <span id=""c_p_y""></span></p>","11","evaluation","35","11","3C,20A,22A","30","36","11","","","","","","","","","","","","","","",""
"","","","","","html-keyboard-response","24","1003968","0.0-17.0-2.2","e98db0fa-cbd1-4415-ab8b-41b6226373b8","null","<p style=""text-align: center;"">+</p>","null","fixation","","","","","","","","","","","","","","","","","","","","",""
"","","","","","html-slider-response","25","1004977","0.0-17.0-0.3","e98db0fa-cbd1-4415-ab8b-41b6226373b8","1000","
                  <p style=""text-align: center;"">₪43
                                                <br>60%</p>
                  <p id=""wtp"" style=""text-align:center; margin-top: 0px; margin-bottom: 0px; font-size: 40px"";>&ensp;</p>","-","viewing","0","17","2A,7A,9A,15B","","","","","","","","","","","","","","","","","",""
"","","","","","html-slider-response","26","1007080","0.0-17.0-1.3","e98db0fa-cbd1-4415-ab8b-41b6226373b8","2101","
                  <p style=""text-align: center;"">₪43
                                                <br>60%</p>
                  <p id=""wtp"" style=""text-align:center; margin-top: 0px; margin-bottom: 0px; font-size: 40px"";>מוכנים לשלם: <span id=""c_p_y""></span></p>","36","evaluation","59","17","2A,7A,9A,15B","60","43","36","","","","","","","","","","","","","","",""
"","","","","","html-keyboard-response","27","1007807","0.0-17.0-2.3","e98db0fa-cbd1-4415-ab8b-41b6226373b8","null","<p style=""text-align: center;"">+</p>","null","fixation","","","","","","","","","","","","","","","","","","","","",""
"","","","","","html-slider-response","28","1008822","0.0-17.0-0.4","e98db0fa-cbd1-4415-ab8b-41b6226373b8","1000","
                  <p style=""text-align: center;"">₪39
                                                <br>65%</p>
                  <p id=""wtp"" style=""text-align:center; margin-top: 0px; margin-bottom: 0px; font-size: 40px"";>&ensp;</p>","-","viewing","0","16","1A,15A,26C","","","","","","","","","","","","","","","","","",""
"","","","","","html-slider-response","29","1011888","0.0-17.0-1.4","e98db0fa-cbd1-4415-ab8b-41b6226373b8","3065","
                  <p style=""text-align: center;"">₪39
                                                <br>65%</p>
                  <p id=""wtp"" style=""text-align:center; margin-top: 0px; margin-bottom: 0px; font-size: 40px"";>מוכנים לשלם: <span id=""c_p_y""></span></p>","33","evaluation","56","16","1A,15A,26C","65","39","33","","","","","","","","","","","","","","",""
"","","","","","html-keyboard-response","30","1012503","0.0-17.0-2.4","e98db0fa-cbd1-4415-ab8b-41b6226373b8","null","<p style=""text-align: center;"">+</p>","null","fixation","","","","","","","","","","","","","","","","","","","","",""
"","","","","","html-slider-response","31","1013510","0.0-17.0-0.5","e98db0fa-cbd1-4415-ab8b-41b6226373b8","1000","
                  <p style=""text-align: center;"">₪18
                                                <br>50%</p>
                  <p id=""wtp"" style=""text-align:center; margin-top: 0px; margin-bottom: 0px; font-size: 40px"";>&ensp;</p>","-","viewing","0","10","2C,16C,22B,28A","","","","","","","","","","","","","","","","","",""
"","","","","","html-slider-response","32","1016791","0.0-17.0-1.5","e98db0fa-cbd1-4415-ab8b-41b6226373b8","3280","
                  <p style=""text-align: center;"">₪18
                                                <br>50%</p>
                  <p id=""wtp"" style=""text-align:center; margin-top: 0px; margin-bottom: 0px; font-size: 40px"";>מוכנים לשלם: <span id=""c_p_y""></span></p>","9","evaluation","53","10","2C,16C,22B,28A","50","18","9","","","","","","","","","","","","","","",""
"","","","","","html-keyboard-response","33","1017470","0.0-17.0-2.5","e98db0fa-cbd1-4415-ab8b-41b6226373b8","null","<p style=""text-align: center;"">+</p>","null","fixation","","","","","","","","","","","","","","","","","","","","",""
"","","","","","html-slider-response","34","1018476","0.0-17.0-0.6","e98db0fa-cbd1-4415-ab8b-41b6226373b8","1000","
                  <p style=""text-align: center;"">₪79
                                                <br>65%</p>
                  <p id=""wtp"" style=""text-align:center; margin-top: 0px; margin-bottom: 0px; font-size: 40px"";>&ensp;</p>","-","viewing","0","31","8A","","","","","","","","","","","","","","","","","",""
"","","","","","html-slider-response","35","1020640","0.0-17.0-1.6","e98db0fa-cbd1-4415-ab8b-41b6226373b8","2163","
                  <p style=""text-align: center;"">₪79
                                                <br>65%</p>
                  <p id=""wtp"" style=""text-align:center; margin-top: 0px; margin-bottom: 0px; font-size: 40px"";>מוכנים לשלם: <span id=""c_p_y""></span></p>","52","evaluation","74","31","8A","65","79","52","","","","","","","","","","","","","","",""
"","","","","","html-keyboard-response","36","1021917","0.0-17.0-2.6","e98db0fa-cbd1-4415-ab8b-41b6226373b8","null","<p style=""text-align: center;"">+</p>","null","fixation","","","","","","","","","","","","","","","","","","","","",""
"","","","","","html-slider-response","37","1022921","0.0-17.0-0.7","e98db0fa-cbd1-4415-ab8b-41b6226373b8","1000","
                  <p style=""text-align: center;"">₪64
                                                <br>50%</p>
                  <p id=""wtp"" style=""text-align:center; margin-top: 0px; margin-bottom: 0px; font-size: 40px"";>&ensp;</p>","-","viewing","0","25","1B,3B,4A","","","","","","","","","","","","","","","","","",""
"","","","","","html-slider-response","38","1025008","0.0-17.0-1.7","e98db0fa-cbd1-4415-ab8b-41b6226373b8","2086","
                  <p style=""text-align: center;"">₪64
                                                <br>50%</p>
                  <p id=""wtp"" style=""text-align:center; margin-top: 0px; margin-bottom: 0px; font-size: 40px"";>מוכנים לשלם: <span id=""c_p_y""></span></p>","40","evaluation","13","25","1B,3B,4A","50","64","40","","","","","","","","","","","","","","",""
"","","","","","html-keyboard-response","39","1026007","0.0-17.0-2.7","e98db0fa-cbd1-4415-ab8b-41b6226373b8","null","<p style=""text-align: center;"">+</p>","null","fixation","","","","","","","","","","","","","","","","","","","","",""
"","","","","","html-slider-response","40","1027024","0.0-17.0-0.8","e98db0fa-cbd1-4415-ab8b-41b6226373b8","1000","
                  <p style=""text-align: center;"">₪58
                                                <br>45%</p>
                  <p id=""wtp"" style=""text-align:center; margin-top: 0px; margin-bottom: 0px; font-size: 40px"";>&ensp;</p>","-","viewing","0","21","11C,18C,25A","","","","","","","","","","","","","","","","","",""
"","","","","","html-slider-response","41","1028728","0.0-17.0-1.8","e98db0fa-cbd1-4415-ab8b-41b6226373b8","1703","
                  <p style=""text-align: center;"">₪58
                                                <br>45%</p>
                  <p id=""wtp"" style=""text-align:center; margin-top: 0px; margin-bottom: 0px; font-size: 40px"";>מוכנים לשלם: <span id=""c_p_y""></span></p>","26","evaluation","31","21","11C,18C,25A","45","58","26","","","","","","","","","","","","","","",""
"","","","","","html-keyboard-response","42","1029866","0.0-17.0-2.8","e98db0fa-cbd1-4415-ab8b-41b6226373b8","null","<p style=""text-align: center;"">+</p>","null","fixation","","","","","","","","","","","","","","","","","","","","",""
"","","","","","html-slider-response","43","1030872","0.0-17.0-0.9","e98db0fa-cbd1-4415-ab8b-41b6226373b8","1000","
                  <p style=""text-align: center;"">₪11
                                                <br>45%</p>
                  <p id=""wtp"" style=""text-align:center; margin-top: 0px; margin-bottom: 0px; font-size: 40px"";>&ensp;</p>","-","viewing","0","6","14B,21C,25C","","","","","","","","","","","","","","","","","",""
"","","","","","html-slider-response","44","1033151","0.0-17.0-1.9","e98db0fa-cbd1-4415-ab8b-41b6226373b8","2279","
                  <p style=""text-align: center;"">₪11
                                                <br>45%</p>
                  <p id=""wtp"" style=""text-align:center; margin-top: 0px; margin-bottom: 0px; font-size: 40px"";>מוכנים לשלם: <span id=""c_p_y""></span></p>","3","evaluation","26","6","14B,21C,25C","45","11","3","","","","","","","","","","","","","","",""
"","","","","","html-keyboard-response","45","1033742","0.0-17.0-2.9","e98db0fa-cbd1-4415-ab8b-41b6226373b8","null","<p style=""text-align: center;"">+</p>","null","fixation","","","","","","","","","","","","","","","","","","","","",""
"","","","","","html-slider-response","46","1034748","0.0-17.0-0.10","e98db0fa-cbd1-4415-ab8b-41b6226373b8","1000","
                  <p style=""text-align: center;"">₪4
                                                <br>50%</p>
                  <p id=""wtp"" style=""text-align:center; margin-top: 0px; margin-bottom: 0px; font-size: 40px"";>&ensp;</p>","-","viewing","0","2","4C,17B","","","","","","","","","","","","","","","","","",""
"","","","","","html-slider-response","47","1036464","0.0-17.0-1.10","e98db0fa-cbd1-4415-ab8b-41b6226373b8","1714","
                  <p style=""text-align: center;"">₪4
                                                <br>50%</p>
                  <p id=""wtp"" style=""text-align:center; margin-top: 0px; margin-bottom: 0px; font-size: 40px"";>מוכנים לשלם: <span id=""c_p_y""></span></p>","1","evaluation","5","2","4C,17B","50","4","1","","","","","","","","","","","","","","",""
"","","","","","html-keyboard-response","48","1037398","0.0-17.0-2.10","e98db0fa-cbd1-4415-ab8b-41b6226373b8","null","<p style=""text-align: center;"">+</p>","null","fixation","","","","","","","","","","","","","","","","","","","","",""
"","","","","","html-slider-response","49","1038409","0.0-17.0-0.11","e98db0fa-cbd1-4415-ab8b-41b6226373b8","1000","
                  <p style=""text-align: center;"">₪36
                                                <br>70%</p>
                  <p id=""wtp"" style=""text-align:center; margin-top: 0px; margin-bottom: 0px; font-size: 40px"";>&ensp;</p>","-","viewing","0","13","3A,5C,10B","","","","","","","","","","","","","","","","","",""
"","","","","","html-slider-response","50","1041200","0.0-17.0-1.11","e98db0fa-cbd1-4415-ab8b-41b6226373b8","2791","
                  <p style=""text-align: center;"">₪36
                                                <br>70%</p>
                  <p id=""wtp"" style=""text-align:center; margin-top: 0px; margin-bottom: 0px; font-size: 40px"";>מוכנים לשלם: <span id=""c_p_y""></span></p>","30","evaluation","25","13","3A,5C,10B","70","36","30","","","","","","","","","","","","","","",""
"","","","","","html-keyboard-response","51","1042436","0.0-17.0-2.11","e98db0fa-cbd1-4415-ab8b-41b6226373b8","null","<p style=""text-align: center;"">+</p>","null","fixation","","","","","","","","","","","","","","","","","","","","",""
"","","","","","html-slider-response","52","1043447","0.0-17.0-0.12","e98db0fa-cbd1-4415-ab8b-41b6226373b8","1000","
                  <p style=""text-align: center;"">₪71
                                                <br>55%</p>
                  <p id=""wtp"" style=""text-align:center; margin-top: 0px; margin-bottom: 0px; font-size: 40px"";>&ensp;</p>","-","viewing","0","27","5B,18A","","","","","","","","","","","","","","","","","",""
"","","","","","html-slider-response","53","1046648","0.0-17.0-1.12","e98db0fa-cbd1-4415-ab8b-41b6226373b8","3199","
                  <p style=""text-align: center;"">₪71
                                                <br>55%</p>
                  <p id=""wtp"" style=""text-align:center; margin-top: 0px; margin-bottom: 0px; font-size: 40px"";>מוכנים לשלם: <span id=""c_p_y""></span></p>","40","evaluation","37","27","5B,18A","55","71","40","","","","","","","","","","","","","","",""
"","","","","","html-keyboard-response","54","1047740","0.0-17.0-2.12","e98db0fa-cbd1-4415-ab8b-41b6226373b8","null","<p style=""text-align: center;"">+</p>","null","fixation","","","","","","","","","","","","","","","","","","","","",""
"","","","","","html-slider-response","55","1048746","0.0-17.0-0.13","e98db0fa-cbd1-4415-ab8b-41b6226373b8","1000","
                  <p style=""text-align: center;"">₪36
                                                <br>75%</p>
                  <p id=""wtp"" style=""text-align:center; margin-top: 0px; margin-bottom: 0px; font-size: 40px"";>&ensp;</p>","-","viewing","0","14","4B,5A,13B,16B","","","","","","","","","","","","","","","","","",""
"","","","","","html-slider-response","56","1052728","0.0-17.0-1.13","e98db0fa-cbd1-4415-ab8b-41b6226373b8","3981","
                  <p style=""text-align: center;"">₪36
                                                <br>75%</p>
                  <p id=""wtp"" style=""text-align:center; margin-top: 0px; margin-bottom: 0px; font-size: 40px"";>מוכנים לשלם: <span id=""c_p_y""></span></p>","30","evaluation","41","14","4B,5A,13B,16B","75","36","30","","","","","","","","","","","","","","",""
"","","","","","html-keyboard-response","57","1053750","0.0-17.0-2.13","e98db0fa-cbd1-4415-ab8b-41b6226373b8","null","<p style=""text-align: center;"">+</p>","null","fixation","","","","","","","","","","","","","","","","","","","","",""
"","","","","","html-slider-response","58","1054757","0.0-17.0-0.14","e98db0fa-cbd1-4415-ab8b-41b6226373b8","1000","
                  <p style=""text-align: center;"">₪71
                                                <br>45%</p>
                  <p id=""wtp"" style=""text-align:center; margin-top: 0px; margin-bottom: 0px; font-size: 40px"";>&ensp;</p>","-","viewing","0","26","2B,16A","","","","","","","","","","","","","","","","","",""
"","","","","","html-slider-response","59","1057848","0.0-17.0-1.14","e98db0fa-cbd1-4415-ab8b-41b6226373b8","3091","
                  <p style=""text-align: center;"">₪71
                                                <br>45%</p>
                  <p id=""wtp"" style=""text-align:center; margin-top: 0px; margin-bottom: 0px; font-size: 40px"";>מוכנים לשלם: <span id=""c_p_y""></span></p>","25","evaluation","18","26","2B,16A","45","71","25","","","","","","","","","","","","","","",""
"","","","","","html-keyboard-response","60","1058978","0.0-17.0-2.14","e98db0fa-cbd1-4415-ab8b-41b6226373b8","null","<p style=""text-align: center;"">+</p>","null","fixation","","","","","","","","","","","","","","","","","","","","",""
"","","","","","html-slider-response","61","1059990","0.0-17.0-0.15","e98db0fa-cbd1-4415-ab8b-41b6226373b8","1000","
                  <p style=""text-align: center;"">₪18
                                                <br>25%</p>
                  <p id=""wtp"" style=""text-align:center; margin-top: 0px; margin-bottom: 0px; font-size: 40px"";>&ensp;</p>","-","viewing","0","9","14A,23A","","","","","","","","","","","","","","","","","",""
"","","","","","html-slider-response","62","1063703","0.0-17.0-1.15","e98db0fa-cbd1-4415-ab8b-41b6226373b8","3713","
                  <p style=""text-align: center;"">₪18
                                                <br>25%</p>
                  <p id=""wtp"" style=""text-align:center; margin-top: 0px; margin-bottom: 0px; font-size: 40px"";>מוכנים לשלם: <span id=""c_p_y""></span></p>","10","evaluation","70","9","14A,23A","25","18","10","","","","","","","","","","","","","","",""
"","","","","","html-keyboard-response","63","1064674","0.0-17.0-2.15","e98db0fa-cbd1-4415-ab8b-41b6226373b8","null","<p style=""text-align: center;"">+</p>","null","fixation","","","","","","","","","","","","","","","","","","","","",""
"","","","","","html-slider-response","64","1065691","0.0-17.0-0.16","e98db0fa-cbd1-4415-ab8b-41b6226373b8","1000","
                  <p style=""text-align: center;"">₪16
                                                <br>20%</p>
                  <p id=""wtp"" style=""text-align:center; margin-top: 0px; margin-bottom: 0px; font-size: 40px"";>&ensp;</p>","-","viewing","0","8","14C,17A,20C,27A","","","","","","","","","","","","","","","","","",""
"","","","","","html-slider-response","65","1067039","0.0-17.0-1.16","e98db0fa-cbd1-4415-ab8b-41b6226373b8","1346","
                  <p style=""text-align: center;"">₪16
                                                <br>20%</p>
                  <p id=""wtp"" style=""text-align:center; margin-top: 0px; margin-bottom: 0px; font-size: 40px"";>מוכנים לשלם: <span id=""c_p_y""></span></p>","6","evaluation","17","8","14C,17A,20C,27A","20","16","6","","","","","","","","","","","","","","",""
"","","","","","html-keyboard-response","66","1068109","0.0-17.0-2.16","e98db0fa-cbd1-4415-ab8b-41b6226373b8","null","<p style=""text-align: center;"">+</p>","null","fixation","","","","","","","","","","","","","","","","","","","","",""
"","","","","","html-slider-response","67","1069116","0.0-17.0-0.17","e98db0fa-cbd1-4415-ab8b-41b6226373b8","1000","
                  <p style=""text-align: center;"">₪71
                                                <br>75%</p>
                  <p id=""wtp"" style=""text-align:center; margin-top: 0px; margin-bottom: 0px; font-size: 40px"";>&ensp;</p>","-","viewing","0","28","8B","","","","","","","","","","","","","","","","","",""
"","","","","","html-slider-response","68","1072703","0.0-17.0-1.17","e98db0fa-cbd1-4415-ab8b-41b6226373b8","3586","
                  <p style=""text-align: center;"">₪71
                                                <br>75%</p>
                  <p id=""wtp"" style=""text-align:center; margin-top: 0px; margin-bottom: 0px; font-size: 40px"";>מוכנים לשלם: <span id=""c_p_y""></span></p>","66","evaluation","61","28","8B","75","71","65","","","","","","","","","","","","","","",""
"","","","","","html-keyboard-response","69","1073955","0.0-17.0-2.17","e98db0fa-cbd1-4415-ab8b-41b6226373b8","null","<p style=""text-align: center;"">+</p>","null","fixation","","","","","","","","","","","","","","","","","","","","",""
"","","","","","html-slider-response","70","1074968","0.0-17.0-0.18","e98db0fa-cbd1-4415-ab8b-41b6226373b8","1000","
                  <p style=""text-align: center;"">₪76
                                                <br>65%</p>
                  <p id=""wtp"" style=""text-align:center; margin-top: 0px; margin-bottom: 0px; font-size: 40px"";>&ensp;</p>","-","viewing","0","29","8C,19A,24B","","","","","","","","","","","","","","","","","",""
"","","","","","html-slider-response","71","1078799","0.0-17.0-1.18","e98db0fa-cbd1-4415-ab8b-41b6226373b8","3830","
                  <p style=""text-align: center;"">₪76
                                                <br>65%</p>
                  <p id=""wtp"" style=""text-align:center; margin-top: 0px; margin-bottom: 0px; font-size: 40px"";>מוכנים לשלם: <span id=""c_p_y""></span></p>","64","evaluation","7","29","8C,19A,24B","65","76","64","","","","","","","","","","","","","","",""
"","","","","","html-keyboard-response","72","1080074","0.0-17.0-2.18","e98db0fa-cbd1-4415-ab8b-41b6226373b8","null","<p style=""text-align: center;"">+</p>","null","fixation","","","","","","","","","","","","","","","","","","","","",""
"","","","","","html-slider-response","73","1081080","0.0-17.0-0.19","e98db0fa-cbd1-4415-ab8b-41b6226373b8","1000","
                  <p style=""text-align: center;"">₪11
                                                <br>25%</p>
                  <p id=""wtp"" style=""text-align:center; margin-top: 0px; margin-bottom: 0px; font-size: 40px"";>&ensp;</p>","-","viewing","0","5","12A,27B,28B,30B","","","","","","","","","","","","","","","","","",""
"","","","","","html-slider-response","74","1083159","0.0-17.0-1.19","e98db0fa-cbd1-4415-ab8b-41b6226373b8","2078","
                  <p style=""text-align: center;"">₪11
                                                <br>25%</p>
                  <p id=""wtp"" style=""text-align:center; margin-top: 0px; margin-bottom: 0px; font-size: 40px"";>מוכנים לשלם: <span id=""c_p_y""></span></p>","0","evaluation","64","5","12A,27B,28B,30B","25","11","0","","","","","","","","","","","","","","",""
"","","","","","html-keyboard-response","75","1084569","0.0-17.0-2.19","e98db0fa-cbd1-4415-ab8b-41b6226373b8","null","<p style=""text-align: center;"">+</p>","null","fixation","","","","","","","","","","","","","","","","","","","","",""
"","","","","","html-slider-response","76","1085576","0.0-17.0-0.20","e98db0fa-cbd1-4415-ab8b-41b6226373b8","1000","
                  <p style=""text-align: center;"">₪11
                                                <br>75%</p>
                  <p id=""wtp"" style=""text-align:center; margin-top: 0px; margin-bottom: 0px; font-size: 40px"";>&ensp;</p>","-","viewing","0","7","6B,18B,22C,24C,29A","","","","","","","","","","","","","","","","","",""
"","","","","","html-slider-response","77","1088375","0.0-17.0-1.20","e98db0fa-cbd1-4415-ab8b-41b6226373b8","2799","
                  <p style=""text-align: center;"">₪11
                                                <br>75%</p>
                  <p id=""wtp"" style=""text-align:center; margin-top: 0px; margin-bottom: 0px; font-size: 40px"";>מוכנים לשלם: <span id=""c_p_y""></span></p>","2","evaluation","51","7","6B,18B,22C,24C,29A","75","11","2","","","","","","","","","","","","","","",""
"","","","","","html-keyboard-response","78","1089494","0.0-17.0-2.20","e98db0fa-cbd1-4415-ab8b-41b6226373b8","null","<p style=""text-align: center;"">+</p>","null","fixation","","","","","","","","","","","","","","","","","","","","",""
"","","","","","html-slider-response","79","1090502","0.0-17.0-0.21","e98db0fa-cbd1-4415-ab8b-41b6226373b8","1000","
                  <p style=""text-align: center;"">₪43
                                                <br>75%</p>
                  <p id=""wtp"" style=""text-align:center; margin-top: 0px; margin-bottom: 0px; font-size: 40px"";>&ensp;</p>","-","viewing","0","18","11B,19B,24A,26A","","","","","","","","","","","","","","","","","",""
"","","","","","html-slider-response","80","1093215","0.0-17.0-1.21","e98db0fa-cbd1-4415-ab8b-41b6226373b8","2713","
                  <p style=""text-align: center;"">₪43
                                                <br>75%</p>
                  <p id=""wtp"" style=""text-align:center; margin-top: 0px; margin-bottom: 0px; font-size: 40px"";>מוכנים לשלם: <span id=""c_p_y""></span></p>","21","evaluation","73","18","11B,19B,24A,26A","75","43","21","","","","","","","","","","","","","","",""
"","","","","","html-keyboard-response","81","1094301","0.0-17.0-2.21","e98db0fa-cbd1-4415-ab8b-41b6226373b8","null","<p style=""text-align: center;"">+</p>","null","fixation","","","","","","","","","","","","","","","","","","","","",""
"","","","","","html-slider-response","82","1095314","0.0-17.0-0.22","e98db0fa-cbd1-4415-ab8b-41b6226373b8","1000","
                  <p style=""text-align: center;"">₪4
                                                <br>75%</p>
                  <p id=""wtp"" style=""text-align:center; margin-top: 0px; margin-bottom: 0px; font-size: 40px"";>&ensp;</p>","-","viewing","0","3","12B,20B,23B,27C,29C","","","","","","","","","","","","","","","","","",""
"","","","","","html-slider-response","83","1097239","0.0-17.0-1.22","e98db0fa-cbd1-4415-ab8b-41b6226373b8","1924","
                  <p style=""text-align: center;"">₪4
                                                <br>75%</p>
                  <p id=""wtp"" style=""text-align:center; margin-top: 0px; margin-bottom: 0px; font-size: 40px"";>מוכנים לשלם: <span id=""c_p_y""></span></p>","1","evaluation","51","3","12B,20B,23B,27C,29C","75","4","1","","","","","","","","","","","","","","",""
"","","","","","html-keyboard-response","84","1098057","0.0-17.0-2.22","e98db0fa-cbd1-4415-ab8b-41b6226373b8","null","<p style=""text-align: center;"">+</p>","null","fixation","","","","","","","","","","","","","","","","","","","","",""
"","","","","","html-slider-response","85","1099064","0.0-17.0-0.23","e98db0fa-cbd1-4415-ab8b-41b6226373b8","1000","
                  <p style=""text-align: center;"">₪39
                                                <br>60%</p>
                  <p id=""wtp"" style=""text-align:center; margin-top: 0px; margin-bottom: 0px; font-size: 40px"";>&ensp;</p>","-","viewing","0","15","9C,25B","","","","","","","","","","","","","","","","","",""
"","","","","","html-slider-response","86","1101967","0.0-17.0-1.23","e98db0fa-cbd1-4415-ab8b-41b6226373b8","2902","
                  <p style=""text-align: center;"">₪39
                                                <br>60%</p>
                  <p id=""wtp"" style=""text-align:center; margin-top: 0px; margin-bottom: 0px; font-size: 40px"";>מוכנים לשלם: <span id=""c_p_y""></span></p>","29","evaluation","78","15","9C,25B","60","39","29","","","","","","","","","","","","","","",""
"","","","","","html-keyboard-response","87","1103310","0.0-17.0-2.23","e98db0fa-cbd1-4415-ab8b-41b6226373b8","null","<p style=""text-align: center;"">+</p>","null","fixation","","","","","","","","","","","","","","","","","","","","",""
"","","","","","html-slider-response","88","1104317","0.0-17.0-0.24","e98db0fa-cbd1-4415-ab8b-41b6226373b8","1000","
                  <p style=""text-align: center;"">₪58
                                                <br>40%</p>
                  <p id=""wtp"" style=""text-align:center; margin-top: 0px; margin-bottom: 0px; font-size: 40px"";>&ensp;</p>","-","viewing","0","20","10C,13A,19C,21B","","","","","","","","","","","","","","","","","",""
"","","","","","html-slider-response","89","1107311","0.0-17.0-1.24","e98db0fa-cbd1-4415-ab8b-41b6226373b8","2993","
                  <p style=""text-align: center;"">₪58
                                                <br>40%</p>
                  <p id=""wtp"" style=""text-align:center; margin-top: 0px; margin-bottom: 0px; font-size: 40px"";>מוכנים לשלם: <span id=""c_p_y""></span></p>","26","evaluation","48","20","10C,13A,19C,21B","40","58","26","","","","","","","","","","","","","","",""
"","","","","","html-keyboard-response","90","1108070","0.0-17.0-2.24","e98db0fa-cbd1-4415-ab8b-41b6226373b8","null","<p style=""text-align: center;"">+</p>","null","fixation","","","","","","","","","","","","","","","","","","","","",""
"","","","","","html-slider-response","91","1109074","0.0-17.0-0.25","e98db0fa-cbd1-4415-ab8b-41b6226373b8","1000","
                  <p style=""text-align: center;"">₪79
                                                <br>40%</p>
                  <p id=""wtp"" style=""text-align:center; margin-top: 0px; margin-bottom: 0px; font-size: 40px"";>&ensp;</p>","-","viewing","0","30","9B","","","","","","","","","","","","","","","","","",""
"","","","","","html-slider-response","92","1111111","0.0-17.0-1.25","e98db0fa-cbd1-4415-ab8b-41b6226373b8","2035","
                  <p style=""text-align: center;"">₪79
                                                <br>40%</p>
                  <p id=""wtp"" style=""text-align:center; margin-top: 0px; margin-bottom: 0px; font-size: 40px"";>מוכנים לשלם: <span id=""c_p_y""></span></p>","31","evaluation","20","30","9B","40","79","31","","","","","","","","","","","","","","",""
"","","","","","html-keyboard-response","93","1111921","0.0-17.0-2.25","e98db0fa-cbd1-4415-ab8b-41b6226373b8","null","<p style=""text-align: center;"">+</p>","null","fixation","","","","","","","","","","","","","","","","","","","","",""
"","","","","","html-slider-response","94","1112927","0.0-17.0-0.26","e98db0fa-cbd1-4415-ab8b-41b6226373b8","1000","
                  <p style=""text-align: center;"">₪64
                                                <br>25%</p>
                  <p id=""wtp"" style=""text-align:center; margin-top: 0px; margin-bottom: 0px; font-size: 40px"";>&ensp;</p>","-","viewing","0","24","6A,21A","","","","","","","","","","","","","","","","","",""
"","","","","","html-slider-response","95","1116519","0.0-17.0-1.26","e98db0fa-cbd1-4415-ab8b-41b6226373b8","3591","
                  <p style=""text-align: center;"">₪64
                                                <br>25%</p>
                  <p id=""wtp"" style=""text-align:center; margin-top: 0px; margin-bottom: 0px; font-size: 40px"";>מוכנים לשלם: <span id=""c_p_y""></span></p>","36","evaluation","42","24","6A,21A","25","64","36","","","","","","","","","","","","","","",""
"","","","","","html-keyboard-response","96","1117077","0.0-17.0-2.26","e98db0fa-cbd1-4415-ab8b-41b6226373b8","null","<p style=""text-align: center;"">+</p>","null","fixation","","","","","","","","","","","","","","","","","","","","",""
"","","","","","html-slider-response","97","1118081","0.0-17.0-0.27","e98db0fa-cbd1-4415-ab8b-41b6226373b8","1000","
                  <p style=""text-align: center;"">₪36
                                                <br>60%</p>
                  <p id=""wtp"" style=""text-align:center; margin-top: 0px; margin-bottom: 0px; font-size: 40px"";>&ensp;</p>","-","viewing","0","12","1C,7C,15C","","","","","","","","","","","","","","","","","",""
"","","","","","html-slider-response","98","1121087","0.0-17.0-1.27","e98db0fa-cbd1-4415-ab8b-41b6226373b8","3005","
                  <p style=""text-align: center;"">₪36
                                                <br>60%</p>
                  <p id=""wtp"" style=""text-align:center; margin-top: 0px; margin-bottom: 0px; font-size: 40px"";>מוכנים לשלם: <span id=""c_p_y""></span></p>","23","evaluation","64","12","1C,7C,15C","60","36","23","","","","","","","","","","","","","","",""
"","","","","","html-keyboard-response","99","1121695","0.0-17.0-2.27","e98db0fa-cbd1-4415-ab8b-41b6226373b8","null","<p style=""text-align: center;"">+</p>","null","fixation","","","","","","","","","","","","","","","","","","","","",""
"","","","","","html-slider-response","100","1122690","0.0-17.0-0.28","e98db0fa-cbd1-4415-ab8b-41b6226373b8","1000","
                  <p style=""text-align: center;"">₪11
                                                <br>20%</p>
                  <p id=""wtp"" style=""text-align:center; margin-top: 0px; margin-bottom: 0px; font-size: 40px"";>&ensp;</p>","-","viewing","0","4","12C,17C,23C,28C","","","","","","","","","","","","","","","","","",""
"","","","","","html-slider-response","101","1124321","0.0-17.0-1.28","e98db0fa-cbd1-4415-ab8b-41b6226373b8","1631","
                  <p style=""text-align: center;"">₪11
                                                <br>20%</p>
                  <p id=""wtp"" style=""text-align:center; margin-top: 0px; margin-bottom: 0px; font-size: 40px"";>מוכנים לשלם: <span id=""c_p_y""></span></p>","1","evaluation","61","4","12C,17C,23C,28C","20","11","1","","","","","","","","","","","","","","",""
"","","","","","html-keyboard-response","102","1125106","0.0-17.0-2.28","e98db0fa-cbd1-4415-ab8b-41b6226373b8","null","<p style=""text-align: center;"">+</p>","null","fixation","","","","","","","","","","","","","","","","","","","","",""
"","","","","","html-slider-response","103","1126118","0.0-17.0-0.29","e98db0fa-cbd1-4415-ab8b-41b6226373b8","1000","
                  <p style=""text-align: center;"">₪4
                                                <br>25%</p>
                  <p id=""wtp"" style=""text-align:center; margin-top: 0px; margin-bottom: 0px; font-size: 40px"";>&ensp;</p>","-","viewing","0","1","6C,29B,30C","","","","","","","","","","","","","","","","","",""
"","","","","","html-slider-response","104","1127041","0.0-17.0-1.29","e98db0fa-cbd1-4415-ab8b-41b6226373b8","922","
                  <p style=""text-align: center;"">₪4
                                                <br>25%</p>
                  <p id=""wtp"" style=""text-align:center; margin-top: 0px; margin-bottom: 0px; font-size: 40px"";>מוכנים לשלם: <span id=""c_p_y""></span></p>","0","evaluation","42","1","6C,29B,30C","25","4","0","","","","","","","","","","","","","","",""
"","","","","","html-keyboard-response","105","1128060","0.0-17.0-2.29","e98db0fa-cbd1-4415-ab8b-41b6226373b8","null","<p style=""text-align: center;"">+</p>","null","fixation","","","","","","","","","","","","","","","","","","","","",""
"","","","","","html-slider-response","106","1129065","0.0-17.0-0.30","e98db0fa-cbd1-4415-ab8b-41b6226373b8","1000","
                  <p style=""text-align: center;"">₪61
                                                <br>45%</p>
                  <p id=""wtp"" style=""text-align:center; margin-top: 0px; margin-bottom: 0px; font-size: 40px"";>&ensp;</p>","-","viewing","0","22","10A,11A","","","","","","","","","","","","","","","","","",""
"","","","","","html-slider-response","107","1132633","0.0-17.0-1.30","e98db0fa-cbd1-4415-ab8b-41b6226373b8","3567","
                  <p style=""text-align: center;"">₪61
                                                <br>45%</p>
                  <p id=""wtp"" style=""text-align:center; margin-top: 0px; margin-bottom: 0px; font-size: 40px"";>מוכנים לשלם: <span id=""c_p_y""></span></p>","38","evaluation","19","22","10A,11A","45","61","38","","","","","","","","","","","","","","",""
"","","","","","html-keyboard-response","108","1133415","0.0-17.0-2.30","e98db0fa-cbd1-4415-ab8b-41b6226373b8","null","<p style=""text-align: center;"">+</p>","null","fixation","","","","","","","","","","","","","","","","","","","","",""
"","","","","","html-keyboard-response","109","1134417","0.0-18.0","e98db0fa-cbd1-4415-ab8b-41b6226373b8","null","<p style=""text-align: center;"">+</p>","null","fixation","","","","","","","","","","","","","","","","","","","","",""
"","","","","","html-keyboard-response","110","1138737","0.0-19.0","e98db0fa-cbd1-4415-ab8b-41b6226373b8","null","<p>הפסקה.
          <br>לחצו כדי להמשיך.</p>","1","scan_wait","","","","","","","","","","","","","","","","","","","","",""
"","","","","","html-keyboard-response","111","1139739","0.0-20.0","e98db0fa-cbd1-4415-ab8b-41b6226373b8","null","<p style=""text-align: center;"">+</p>","null","fixation","","","","","","","","","","","","","","","","","","","","",""
"","","","","","html-slider-response","112","1140756","0.0-21.0-0.0","e98db0fa-cbd1-4415-ab8b-41b6226373b8","1000","
                  <p style=""text-align: center;"">₪4
                                                <br>75%</p>
                  <p id=""wtp"" style=""text-align:center; margin-top: 0px; margin-bottom: 0px; font-size: 40px"";>&ensp;</p>","-","viewing","0","3","12B,20B,23B,27C,29C","","","","","","","","","","","","","","","","","",""
"","","","","","html-slider-response","113","1142785","0.0-21.0-1.0","e98db0fa-cbd1-4415-ab8b-41b6226373b8","2029","
                  <p style=""text-align: center;"">₪4
                                                <br>75%</p>
                  <p id=""wtp"" style=""text-align:center; margin-top: 0px; margin-bottom: 0px; font-size: 40px"";>מוכנים לשלם: <span id=""c_p_y""></span></p>","2","evaluation","4","3","12B,20B,23B,27C,29C","75","4","2","","","","","","","","","","","","","","",""
"","","","","","html-keyboard-response","114","1144041","0.0-21.0-2.0","e98db0fa-cbd1-4415-ab8b-41b6226373b8","null","<p style=""text-align: center;"">+</p>","null","fixation","","","","","","","","","","","","","","","","","","","","",""
"","","","","","html-slider-response","115","1145055","0.0-21.0-0.1","e98db0fa-cbd1-4415-ab8b-41b6226373b8","1000","
                  <p style=""text-align: center;"">₪4
                                                <br>50%</p>
                  <p id=""wtp"" style=""text-align:center; margin-top: 0px; margin-bottom: 0px; font-size: 40px"";>&ensp;</p>","-","viewing","0","2","4C,17B","","","","","","","","","","","","","","","","","",""
"","","","","","html-slider-response","116","1146289","0.0-21.0-1.1","e98db0fa-cbd1-4415-ab8b-41b6226373b8","1233","
                  <p style=""text-align: center;"">₪4
                                                <br>50%</p>
                  <p id=""wtp"" style=""text-align:center; margin-top: 0px; margin-bottom: 0px; font-size: 40px"";>מוכנים לשלם: <span id=""c_p_y""></span></p>","1","evaluation","73","2","4C,17B","50","4","1","","","","","","","","","","","","","","",""
"","","","","","html-keyboard-response","117","1147358","0.0-21.0-2.1","e98db0fa-cbd1-4415-ab8b-41b6226373b8","null","<p style=""text-align: center;"">+</p>","null","fixation","","","","","","","","","","","","","","","","","","","","",""
"","","","","","html-slider-response","118","1148364","0.0-21.0-0.2","e98db0fa-cbd1-4415-ab8b-41b6226373b8","1000","
                  <p style=""text-align: center;"">₪71
                                                <br>75%</p>
                  <p id=""wtp"" style=""text-align:center; margin-top: 0px; margin-bottom: 0px; font-size: 40px"";>&ensp;</p>","-","viewing","0","28","8B","","","","","","","","","","","","","","","","","",""
"","","","","","html-slider-response","119","1152033","0.0-21.0-1.2","e98db0fa-cbd1-4415-ab8b-41b6226373b8","3669","
                  <p style=""text-align: center;"">₪71
                                                <br>75%</p>
                  <p id=""wtp"" style=""text-align:center; margin-top: 0px; margin-bottom: 0px; font-size: 40px"";>מוכנים לשלם: <span id=""c_p_y""></span></p>","66","evaluation","18","28","8B","75","71","66","","","","","","","","","","","","","","",""
"","","","","","html-keyboard-response","120","1152938","0.0-21.0-2.2","e98db0fa-cbd1-4415-ab8b-41b6226373b8","null","<p style=""text-align: center;"">+</p>","null","fixation","","","","","","","","","","","","","","","","","","","","",""
"","","","","","html-slider-response","121","1153945","0.0-21.0-0.3","e98db0fa-cbd1-4415-ab8b-41b6226373b8","1000","
                  <p style=""text-align: center;"">₪79
                                                <br>40%</p>
                  <p id=""wtp"" style=""text-align:center; margin-top: 0px; margin-bottom: 0px; font-size: 40px"";>&ensp;</p>","-","viewing","0","30","9B","","","","","","","","","","","","","","","","","",""
"","","","","","html-slider-response","122","1156745","0.0-21.0-1.3","e98db0fa-cbd1-4415-ab8b-41b6226373b8","2799","
                  <p style=""text-align: center;"">₪79
                                                <br>40%</p>
                  <p id=""wtp"" style=""text-align:center; margin-top: 0px; margin-bottom: 0px; font-size: 40px"";>מוכנים לשלם: <span id=""c_p_y""></span></p>","30","evaluation","54","30","9B","40","79","30","","","","","","","","","","","","","","",""
"","","","","","html-keyboard-response","123","1157772","0.0-21.0-2.3","e98db0fa-cbd1-4415-ab8b-41b6226373b8","null","<p style=""text-align: center;"">+</p>","null","fixation","","","","","","","","","","","","","","","","","","","","",""
"","","","","","html-slider-response","124","1158784","0.0-21.0-0.4","e98db0fa-cbd1-4415-ab8b-41b6226373b8","1000","
                  <p style=""text-align: center;"">₪11
                                                <br>20%</p>
                  <p id=""wtp"" style=""text-align:center; margin-top: 0px; margin-bottom: 0px; font-size: 40px"";>&ensp;</p>","-","viewing","0","4","12C,17C,23C,28C","","","","","","","","","","","","","","","","","",""
"","","","","","html-slider-response","125","1162321","0.0-21.0-1.4","e98db0fa-cbd1-4415-ab8b-41b6226373b8","3537","
                  <p style=""text-align: center;"">₪11
                                                <br>20%</p>
                  <p id=""wtp"" style=""text-align:center; margin-top: 0px; margin-bottom: 0px; font-size: 40px"";>מוכנים לשלם: <span id=""c_p_y""></span></p>","2","evaluation","43","4","12C,17C,23C,28C","20","11","2","","","","","","","","","","","","","","",""
"","","","","","html-keyboard-response","126","1163383","0.0-21.0-2.4","e98db0fa-cbd1-4415-ab8b-41b6226373b8","null","<p style=""text-align: center;"">+</p>","null","fixation","","","","","","","","","","","","","","","","","","","","",""
"","","","","","html-slider-response","127","1164395","0.0-21.0-0.5","e98db0fa-cbd1-4415-ab8b-41b6226373b8","1000","
                  <p style=""text-align: center;"">₪71
                                                <br>55%</p>
                  <p id=""wtp"" style=""text-align:center; margin-top: 0px; margin-bottom: 0px; font-size: 40px"";>&ensp;</p>","-","viewing","0","27","5B,18A","","","","","","","","","","","","","","","","","",""
"","","","","","html-slider-response","128","1166585","0.0-21.0-1.5","e98db0fa-cbd1-4415-ab8b-41b6226373b8","2189","
                  <p style=""text-align: center;"">₪71
                                                <br>55%</p>
                  <p id=""wtp"" style=""text-align:center; margin-top: 0px; margin-bottom: 0px; font-size: 40px"";>מוכנים לשלם: <span id=""c_p_y""></span></p>","40","evaluation","76","27","5B,18A","55","71","40","","","","","","","","","","","","","","",""
"","","","","","html-keyboard-response","129","1167541","0.0-21.0-2.5","e98db0fa-cbd1-4415-ab8b-41b6226373b8","null","<p style=""text-align: center;"">+</p>","null","fixation","","","","","","","","","","","","","","","","","","","","",""
"","","","","","html-slider-response","130","1168551","0.0-21.0-0.6","e98db0fa-cbd1-4415-ab8b-41b6226373b8","1000","
                  <p style=""text-align: center;"">₪79
                                                <br>65%</p>
                  <p id=""wtp"" style=""text-align:center; margin-top: 0px; margin-bottom: 0px; font-size: 40px"";>&ensp;</p>","-","viewing","0","31","8A","","","","","","","","","","","","","","","","","",""
"","","","","","html-slider-response","131","1171913","0.0-21.0-1.6","e98db0fa-cbd1-4415-ab8b-41b6226373b8","3362","
                  <p style=""text-align: center;"">₪79
                                                <br>65%</p>
                  <p id=""wtp"" style=""text-align:center; margin-top: 0px; margin-bottom: 0px; font-size: 40px"";>מוכנים לשלם: <span id=""c_p_y""></span></p>","65","evaluation","37","31","8A","65","79","65","","","","","","","","","","","","","","",""
"","","","","","html-keyboard-response","132","1173049","0.0-21.0-2.6","e98db0fa-cbd1-4415-ab8b-41b6226373b8","null","<p style=""text-align: center;"">+</p>","null","fixation","","","","","","","","","","","","","","","","","","","","",""
"","","","","","html-slider-response","133","1174056","0.0-21.0-0.7","e98db0fa-cbd1-4415-ab8b-41b6226373b8","1000","
                  <p style=""text-align: center;"">₪64
                                                <br>25%</p>
                  <p id=""wtp"" style=""text-align:center; margin-top: 0px; margin-bottom: 0px; font-size: 40px"";>&ensp;</p>","-","viewing","0","24","6A,21A","","","","","","","","","","","","","","","","","",""
"","","","","","html-slider-response","134","1177489","0.0-21.0-1.7","e98db0fa-cbd1-4415-ab8b-41b6226373b8","3432","
                  <p style=""text-align: center;"">₪64
                                                <br>25%</p>
                  <p id=""wtp"" style=""text-align:center; margin-top: 0px; margin-bottom: 0px; font-size: 40px"";>מוכנים לשלם: <span id=""c_p_y""></span></p>","20","evaluation","49","24","6A,21A","25","64","20","","","","","","","","","","","","","","",""
"","","","","","html-keyboard-response","135","1178792","0.0-21.0-2.7","e98db0fa-cbd1-4415-ab8b-41b6226373b8","null","<p style=""text-align: center;"">+</p>","null","fixation","","","","","","","","","","","","","","","","","","","","",""
"","","","","","html-slider-response","136","1179796","0.0-21.0-0.8","e98db0fa-cbd1-4415-ab8b-41b6226373b8","1000","
                  <p style=""text-align: center;"">₪64
                                                <br>50%</p>
                  <p id=""wtp"" style=""text-align:center; margin-top: 0px; margin-bottom: 0px; font-size: 40px"";>&ensp;</p>","-","viewing","0","25","1B,3B,4A","","","","","","","","","","","","","","","","","",""
"","","","","","html-slider-response","137","1183814","0.0-21.0-1.8","e98db0fa-cbd1-4415-ab8b-41b6226373b8","null","
                  <p style=""text-align: center;"">₪64
                                                <br>50%</p>
                  <p id=""wtp"" style=""text-align:center; margin-top: 0px; margin-bottom: 0px; font-size: 40px"";>מוכנים לשלם: <span id=""c_p_y""></span></p>","null","evaluation","1","25","1B,3B,4A","50","64","38","","","","","","","","","","","","","","",""
"","","","","","html-keyboard-response","138","1185182","0.0-21.0-2.8","e98db0fa-cbd1-4415-ab8b-41b6226373b8","null","<p style=""text-align: center;"">+</p>","null","fixation","","","","","","","","","","","","","","","","","","","","",""
"","","","","","html-slider-response","139","1186184","0.0-21.0-0.9","e98db0fa-cbd1-4415-ab8b-41b6226373b8","1000","
                  <p style=""text-align: center;"">₪58
                                                <br>30%</p>
                  <p id=""wtp"" style=""text-align:center; margin-top: 0px; margin-bottom: 0px; font-size: 40px"";>&ensp;</p>","-","viewing","0","19","13C,30A","","","","","","","","","","","","","","","","","",""
"","","","","","html-slider-response","140","1187936","0.0-21.0-1.9","e98db0fa-cbd1-4415-ab8b-41b6226373b8","1750","
                  <p style=""text-align: center;"">₪58
                                                <br>30%</p>
                  <p id=""wtp"" style=""text-align:center; margin-top: 0px; margin-bottom: 0px; font-size: 40px"";>מוכנים לשלם: <span id=""c_p_y""></span></p>","20","evaluation","78","19","13C,30A","30","58","20","","","","","","","","","","","","","","",""
"","","","","","html-keyboard-response","141","1188861","0.0-21.0-2.9","e98db0fa-cbd1-4415-ab8b-41b6226373b8","null","<p style=""text-align: center;"">+</p>","null","fixation","","","","","","","","","","","","","","","","","","","","",""
"","","","","","html-slider-response","142","1189867","0.0-21.0-0.10","e98db0fa-cbd1-4415-ab8b-41b6226373b8","1000","
                  <p style=""text-align: center;"">₪76
                                                <br>65%</p>
                  <p id=""wtp"" style=""text-align:center; margin-top: 0px; margin-bottom: 0px; font-size: 40px"";>&ensp;</p>","-","viewing","0","29","8C,19A,24B","","","","","","","","","","","","","","","","","",""
"","","","","","html-slider-response","143","1191776","0.0-21.0-1.10","e98db0fa-cbd1-4415-ab8b-41b6226373b8","1908","
                  <p style=""text-align: center;"">₪76
                                                <br>65%</p>
                  <p id=""wtp"" style=""text-align:center; margin-top: 0px; margin-bottom: 0px; font-size: 40px"";>מוכנים לשלם: <span id=""c_p_y""></span></p>","66","evaluation","59","29","8C,19A,24B","65","76","66","","","","","","","","","","","","","","",""
"","","","","","html-keyboard-response","144","1192444","0.0-21.0-2.10","e98db0fa-cbd1-4415-ab8b-41b6226373b8","null","<p style=""text-align: center;"">+</p>","null","fixation","","","","","","","","","","","","","","","","","","","","",""
"","","","","","html-slider-response","145","1193461","0.0-21.0-0.11","e98db0fa-cbd1-4415-ab8b-41b6226373b8","1000","
                  <p style=""text-align: center;"">₪61
                                                <br>45%</p>
                  <p id=""wtp"" style=""text-align:center; margin-top: 0px; margin-bottom: 0px; font-size: 40px"";>&ensp;</p>","-","viewing","0","22","10A,11A","","","","","","","","","","","","","","","","","",""
"","","","","","html-slider-response","146","1195511","0.0-21.0-1.11","e98db0fa-cbd1-4415-ab8b-41b6226373b8","2049","
                  <p style=""text-align: center;"">₪61
                                                <br>45%</p>
                  <p id=""wtp"" style=""text-align:center; margin-top: 0px; margin-bottom: 0px; font-size: 40px"";>מוכנים לשלם: <span id=""c_p_y""></span></p>","34","evaluation","46","22","10A,11A","45","61","34","","","","","","","","","","","","","","",""
"","","","","","html-keyboard-response","147","1196250","0.0-21.0-2.11","e98db0fa-cbd1-4415-ab8b-41b6226373b8","null","<p style=""text-align: center;"">+</p>","null","fixation","","","","","","","","","","","","","","","","","","","","",""
"","","","","","html-slider-response","148","1197264","0.0-21.0-0.12","e98db0fa-cbd1-4415-ab8b-41b6226373b8","1000","
                  <p style=""text-align: center;"">₪71
                                                <br>45%</p>
                  <p id=""wtp"" style=""text-align:center; margin-top: 0px; margin-bottom: 0px; font-size: 40px"";>&ensp;</p>","-","viewing","0","26","2B,16A","","","","","","","","","","","","","","","","","",""
"","","","","","html-slider-response","149","1200376","0.0-21.0-1.12","e98db0fa-cbd1-4415-ab8b-41b6226373b8","3111","
                  <p style=""text-align: center;"">₪71
                                                <br>45%</p>
                  <p id=""wtp"" style=""text-align:center; margin-top: 0px; margin-bottom: 0px; font-size: 40px"";>מוכנים לשלם: <span id=""c_p_y""></span></p>","31","evaluation","44","26","2B,16A","45","71","31","","","","","","","","","","","","","","",""
"","","","","","html-keyboard-response","150","1201023","0.0-21.0-2.12","e98db0fa-cbd1-4415-ab8b-41b6226373b8","null","<p style=""text-align: center;"">+</p>","null","fixation","","","","","","","","","","","","","","","","","","","","",""
"","","","","","html-slider-response","151","1202030","0.0-21.0-0.13","e98db0fa-cbd1-4415-ab8b-41b6226373b8","1000","
                  <p style=""text-align: center;"">₪36
                                                <br>75%</p>
                  <p id=""wtp"" style=""text-align:center; margin-top: 0px; margin-bottom: 0px; font-size: 40px"";>&ensp;</p>","-","viewing","0","14","4B,5A,13B,16B","","","","","","","","","","","","","","","","","",""
"","","","","","html-slider-response","152","1203448","0.0-21.0-1.13","e98db0fa-cbd1-4415-ab8b-41b6226373b8","1417","
                  <p style=""text-align: center;"">₪36
                                                <br>75%</p>
                  <p id=""wtp"" style=""text-align:center; margin-top: 0px; margin-bottom: 0px; font-size: 40px"";>מוכנים לשלם: <span id=""c_p_y""></span></p>","20","evaluation","57","14","4B,5A,13B,16B","75","36","20","","","","","","","","","","","","","","",""
"","","","","","html-keyboard-response","153","1204764","0.0-21.0-2.13","e98db0fa-cbd1-4415-ab8b-41b6226373b8","null","<p style=""text-align: center;"">+</p>","null","fixation","","","","","","","","","","","","","","","","","","","","",""
"","","","","","html-slider-response","154","1205771","0.0-21.0-0.14","e98db0fa-cbd1-4415-ab8b-41b6226373b8","1000","
                  <p style=""text-align: center;"">₪39
                                                <br>60%</p>
                  <p id=""wtp"" style=""text-align:center; margin-top: 0px; margin-bottom: 0px; font-size: 40px"";>&ensp;</p>","-","viewing","0","15","9C,25B","","","","","","","","","","","","","","","","","",""
"","","","","","html-slider-response","155","1207535","0.0-21.0-1.14","e98db0fa-cbd1-4415-ab8b-41b6226373b8","1763","
                  <p style=""text-align: center;"">₪39
                                                <br>60%</p>
                  <p id=""wtp"" style=""text-align:center; margin-top: 0px; margin-bottom: 0px; font-size: 40px"";>מוכנים לשלם: <span id=""c_p_y""></span></p>","14","evaluation","15","15","9C,25B","60","39","14","","","","","","","","","","","","","","",""
"","","","","","html-keyboard-response","156","1208573","0.0-21.0-2.14","e98db0fa-cbd1-4415-ab8b-41b6226373b8","null","<p style=""text-align: center;"">+</p>","null","fixation","","","","","","","","","","","","","","","","","","","","",""
"","","","","","html-slider-response","157","1209582","0.0-21.0-0.15","e98db0fa-cbd1-4415-ab8b-41b6226373b8","1000","
                  <p style=""text-align: center;"">₪4
                                                <br>25%</p>
                  <p id=""wtp"" style=""text-align:center; margin-top: 0px; margin-bottom: 0px; font-size: 40px"";>&ensp;</p>","-","viewing","0","1","6C,29B,30C","","","","","","","","","","","","","","","","","",""
"","","","","","html-slider-response","158","1210799","0.0-21.0-1.15","e98db0fa-cbd1-4415-ab8b-41b6226373b8","1216","
                  <p style=""text-align: center;"">₪4
                                                <br>25%</p>
                  <p id=""wtp"" style=""text-align:center; margin-top: 0px; margin-bottom: 0px; font-size: 40px"";>מוכנים לשלם: <span id=""c_p_y""></span></p>","1","evaluation","56","1","6C,29B,30C","25","4","2","","","","","","","","","","","","","","",""
"","","","","","html-keyboard-response","159","1211896","0.0-21.0-2.15","e98db0fa-cbd1-4415-ab8b-41b6226373b8","null","<p style=""text-align: center;"">+</p>","null","fixation","","","","","","","","","","","","","","","","","","","","",""
"","","","","","html-slider-response","160","1212909","0.0-21.0-0.16","e98db0fa-cbd1-4415-ab8b-41b6226373b8","1000","
                  <p style=""text-align: center;"">₪18
                                                <br>50%</p>
                  <p id=""wtp"" style=""text-align:center; margin-top: 0px; margin-bottom: 0px; font-size: 40px"";>&ensp;</p>","-","viewing","0","10","2C,16C,22B,28A","","","","","","","","","","","","","","","","","",""
"","","","","","html-slider-response","161","1215216","0.0-21.0-1.16","e98db0fa-cbd1-4415-ab8b-41b6226373b8","2306","
                  <p style=""text-align: center;"">₪18
                                                <br>50%</p>
                  <p id=""wtp"" style=""text-align:center; margin-top: 0px; margin-bottom: 0px; font-size: 40px"";>מוכנים לשלם: <span id=""c_p_y""></span></p>","7","evaluation","64","10","2C,16C,22B,28A","50","18","7","","","","","","","","","","","","","","",""
"","","","","","html-keyboard-response","162","1216119","0.0-21.0-2.16","e98db0fa-cbd1-4415-ab8b-41b6226373b8","null","<p style=""text-align: center;"">+</p>","null","fixation","","","","","","","","","","","","","","","","","","","","",""
"","","","","","html-slider-response","163","1217130","0.0-21.0-0.17","e98db0fa-cbd1-4415-ab8b-41b6226373b8","1000","
                  <p style=""text-align: center;"">₪36
                                                <br>60%</p>
                  <p id=""wtp"" style=""text-align:center; margin-top: 0px; margin-bottom: 0px; font-size: 40px"";>&ensp;</p>","-","viewing","0","12","1C,7C,15C","","","","","","","","","","","","","","","","","",""
"","","","","","html-slider-response","164","1220031","0.0-21.0-1.17","e98db0fa-cbd1-4415-ab8b-41b6226373b8","2900","
                  <p style=""text-align: center;"">₪36
                                                <br>60%</p>
                  <p id=""wtp"" style=""text-align:center; margin-top: 0px; margin-bottom: 0px; font-size: 40px"";>מוכנים לשלם: <span id=""c_p_y""></span></p>","17","evaluation","68","12","1C,7C,15C","60","36","17","","","","","","","","","","","","","","",""
"","","","","","html-keyboard-response","165","1220816","0.0-21.0-2.17","e98db0fa-cbd1-4415-ab8b-41b6226373b8","null","<p style=""text-align: center;"">+</p>","null","fixation","","","","","","","","","","","","","","","","","","","","",""
"","","","","","html-slider-response","166","1221819","0.0-21.0-0.18","e98db0fa-cbd1-4415-ab8b-41b6226373b8","1000","
                  <p style=""text-align: center;"">₪36
                                                <br>30%</p>
                  <p id=""wtp"" style=""text-align:center; margin-top: 0px; margin-bottom: 0px; font-size: 40px"";>&ensp;</p>","-","viewing","0","11","3C,20A,22A","","","","","","","","","","","","","","","","","",""
"","","","","","html-slider-response","167","1224576","0.0-21.0-1.18","e98db0fa-cbd1-4415-ab8b-41b6226373b8","2756","
                  <p style=""text-align: center;"">₪36
                                                <br>30%</p>
                  <p id=""wtp"" style=""text-align:center; margin-top: 0px; margin-bottom: 0px; font-size: 40px"";>מוכנים לשלם: <span id=""c_p_y""></span></p>","20","evaluation","60","11","3C,20A,22A","30","36","20","","","","","","","","","","","","","","",""
"","","","","","html-keyboard-response","168","1225401","0.0-21.0-2.18","e98db0fa-cbd1-4415-ab8b-41b6226373b8","null","<p style=""text-align: center;"">+</p>","null","fixation","","","","","","","","","","","","","","","","","","","","",""
"","","","","","html-slider-response","169","1226411","0.0-21.0-0.19","e98db0fa-cbd1-4415-ab8b-41b6226373b8","1000","
                  <p style=""text-align: center;"">₪36
                                                <br>70%</p>
                  <p id=""wtp"" style=""text-align:center; margin-top: 0px; margin-bottom: 0px; font-size: 40px"";>&ensp;</p>","-","viewing","0","13","3A,5C,10B","","","","","","","","","","","","","","","","","",""
"","","","","","html-slider-response","170","1228696","0.0-21.0-1.19","e98db0fa-cbd1-4415-ab8b-41b6226373b8","2284","
                  <p style=""text-align: center;"">₪36
                                                <br>70%</p>
                  <p id=""wtp"" style=""text-align:center; margin-top: 0px; margin-bottom: 0px; font-size: 40px"";>מוכנים לשלם: <span id=""c_p_y""></span></p>","18","evaluation","39","13","3A,5C,10B","70","36","19","","","","","","","","","","","","","","",""
"","","","","","html-keyboard-response","171","1229620","0.0-21.0-2.19","e98db0fa-cbd1-4415-ab8b-41b6226373b8","null","<p style=""text-align: center;"">+</p>","null","fixation","","","","","","","","","","","","","","","","","","","","",""
"","","","","","html-slider-response","172","1230628","0.0-21.0-0.20","e98db0fa-cbd1-4415-ab8b-41b6226373b8","1000","
                  <p style=""text-align: center;"">₪43
                                                <br>60%</p>
                  <p id=""wtp"" style=""text-align:center; margin-top: 0px; margin-bottom: 0px; font-size: 40px"";>&ensp;</p>","-","viewing","0","17","2A,7A,9A,15B","","","","","","","","","","","","","","","","","",""
"","","","","","html-slider-response","173","1232583","0.0-21.0-1.20","e98db0fa-cbd1-4415-ab8b-41b6226373b8","1955","
                  <p style=""text-align: center;"">₪43
                                                <br>60%</p>
                  <p id=""wtp"" style=""text-align:center; margin-top: 0px; margin-bottom: 0px; font-size: 40px"";>מוכנים לשלם: <span id=""c_p_y""></span></p>","24","evaluation","40","17","2A,7A,9A,15B","60","43","24","","","","","","","","","","","","","","",""
"","","","","","html-keyboard-response","174","1233837","0.0-21.0-2.20","e98db0fa-cbd1-4415-ab8b-41b6226373b8","null","<p style=""text-align: center;"">+</p>","null","fixation","","","","","","","","","","","","","","","","","","","","",""
"","","","","","html-slider-response","175","1234853","0.0-21.0-0.21","e98db0fa-cbd1-4415-ab8b-41b6226373b8","1000","
                  <p style=""text-align: center;"">₪61
                                                <br>55%</p>
                  <p id=""wtp"" style=""text-align:center; margin-top: 0px; margin-bottom: 0px; font-size: 40px"";>&ensp;</p>","-","viewing","0","23","7B,26B","","","","","","","","","","","","","","","","","",""
"","","","","","html-slider-response","176","1236584","0.0-21.0-1.21","e98db0fa-cbd1-4415-ab8b-41b6226373b8","1729","
                  <p style=""text-align: center;"">₪61
                                                <br>55%</p>
                  <p id=""wtp"" style=""text-align:center; margin-top: 0px; margin-bottom: 0px; font-size: 40px"";>מוכנים לשלם: <span id=""c_p_y""></span></p>","33","evaluation","23","23","7B,26B","55","61","33","","","","","","","","","","","","","","",""
"","","","","","html-keyboard-response","177","1237257","0.0-21.0-2.21","e98db0fa-cbd1-4415-ab8b-41b6226373b8","null","<p style=""text-align: center;"">+</p>","null","fixation","","","","","","","","","","","","","","","","","","","","",""
"","","","","","html-slider-response","178","1238263","0.0-21.0-0.22","e98db0fa-cbd1-4415-ab8b-41b6226373b8","1000","
                  <p style=""text-align: center;"">₪11
                                                <br>45%</p>
                  <p id=""wtp"" style=""text-align:center; margin-top: 0px; margin-bottom: 0px; font-size: 40px"";>&ensp;</p>","-","viewing","0","6","14B,21C,25C","","","","","","","","","","","","","","","","","",""
"","","","","","html-slider-response","179","1239887","0.0-21.0-1.22","e98db0fa-cbd1-4415-ab8b-41b6226373b8","1624","
                  <p style=""text-align: center;"">₪11
                                                <br>45%</p>
                  <p id=""wtp"" style=""text-align:center; margin-top: 0px; margin-bottom: 0px; font-size: 40px"";>מוכנים לשלם: <span id=""c_p_y""></span></p>","2","evaluation","77","6","14B,21C,25C","45","11","3","","","","","","","","","","","","","","",""
"","","","","","html-keyboard-response","180","1241082","0.0-21.0-2.22","e98db0fa-cbd1-4415-ab8b-41b6226373b8","null","<p style=""text-align: center;"">+</p>","null","fixation","","","","","","","","","","","","","","","","","","","","",""
"","","","","","html-slider-response","181","1242086","0.0-21.0-0.23","e98db0fa-cbd1-4415-ab8b-41b6226373b8","1000","
                  <p style=""text-align: center;"">₪18
                                                <br>25%</p>
                  <p id=""wtp"" style=""text-align:center; margin-top: 0px; margin-bottom: 0px; font-size: 40px"";>&ensp;</p>","-","viewing","0","9","14A,23A","","","","","","","","","","","","","","","","","",""
"","","","","","html-slider-response","182","1245367","0.0-21.0-1.23","e98db0fa-cbd1-4415-ab8b-41b6226373b8","3281","
                  <p style=""text-align: center;"">₪18
                                                <br>25%</p>
                  <p id=""wtp"" style=""text-align:center; margin-top: 0px; margin-bottom: 0px; font-size: 40px"";>מוכנים לשלם: <span id=""c_p_y""></span></p>","4","evaluation","60","9","14A,23A","25","18","4","","","","","","","","","","","","","","",""
"","","","","","html-keyboard-response","183","1246422","0.0-21.0-2.23","e98db0fa-cbd1-4415-ab8b-41b6226373b8","null","<p style=""text-align: center;"">+</p>","null","fixation","","","","","","","","","","","","","","","","","","","","",""
"","","","","","html-slider-response","184","1247429","0.0-21.0-0.24","e98db0fa-cbd1-4415-ab8b-41b6226373b8","1000","
                  <p style=""text-align: center;"">₪16
                                                <br>20%</p>
                  <p id=""wtp"" style=""text-align:center; margin-top: 0px; margin-bottom: 0px; font-size: 40px"";>&ensp;</p>","-","viewing","0","8","14C,17A,20C,27A","","","","","","","","","","","","","","","","","",""
"","","","","","html-slider-response","185","1248815","0.0-21.0-1.24","e98db0fa-cbd1-4415-ab8b-41b6226373b8","1385","
                  <p style=""text-align: center;"">₪16
                                                <br>20%</p>
                  <p id=""wtp"" style=""text-align:center; margin-top: 0px; margin-bottom: 0px; font-size: 40px"";>מוכנים לשלם: <span id=""c_p_y""></span></p>","3","evaluation","62","8","14C,17A,20C,27A","20","16","4","","","","","","","","","","","","","","",""
"","","","","","html-keyboard-response","186","1250309","0.0-21.0-2.24","e98db0fa-cbd1-4415-ab8b-41b6226373b8","null","<p style=""text-align: center;"">+</p>","null","fixation","","","","","","","","","","","","","","","","","","","","",""
"","","","","","html-slider-response","187","1251313","0.0-21.0-0.25","e98db0fa-cbd1-4415-ab8b-41b6226373b8","1000","
                  <p style=""text-align: center;"">₪11
                                                <br>25%</p>
                  <p id=""wtp"" style=""text-align:center; margin-top: 0px; margin-bottom: 0px; font-size: 40px"";>&ensp;</p>","-","viewing","0","5","12A,27B,28B,30B","","","","","","","","","","","","","","","","","",""
"","","","","","html-slider-response","188","1254319","0.0-21.0-1.25","e98db0fa-cbd1-4415-ab8b-41b6226373b8","3006","
                  <p style=""text-align: center;"">₪11
                                                <br>25%</p>
                  <p id=""wtp"" style=""text-align:center; margin-top: 0px; margin-bottom: 0px; font-size: 40px"";>מוכנים לשלם: <span id=""c_p_y""></span></p>","1","evaluation","0","5","12A,27B,28B,30B","25","11","2","","","","","","","","","","","","","","",""
"","","","","","html-keyboard-response","189","1254898","0.0-21.0-2.25","e98db0fa-cbd1-4415-ab8b-41b6226373b8","null","<p style=""text-align: center;"">+</p>","null","fixation","","","","","","","","","","","","","","","","","","","","",""
"","","","","","html-slider-response","190","1255901","0.0-21.0-0.26","e98db0fa-cbd1-4415-ab8b-41b6226373b8","1000","
                  <p style=""text-align: center;"">₪58
                                                <br>40%</p>
                  <p id=""wtp"" style=""text-align:center; margin-top: 0px; margin-bottom: 0px; font-size: 40px"";>&ensp;</p>","-","viewing","0","20","10C,13A,19C,21B","","","","","","","","","","","","","","","","","",""
"","","","","","html-slider-response","191","1259375","0.0-21.0-1.26","e98db0fa-cbd1-4415-ab8b-41b6226373b8","3473","
                  <p style=""text-align: center;"">₪58
                                                <br>40%</p>
                  <p id=""wtp"" style=""text-align:center; margin-top: 0px; margin-bottom: 0px; font-size: 40px"";>מוכנים לשלם: <span id=""c_p_y""></span></p>","18","evaluation","4","20","10C,13A,19C,21B","40","58","18","","","","","","","","","","","","","","",""
"","","","","","html-keyboard-response","192","1260609","0.0-21.0-2.26","e98db0fa-cbd1-4415-ab8b-41b6226373b8","null","<p style=""text-align: center;"">+</p>","null","fixation","","","","","","","","","","","","","","","","","","","","",""
"","","","","","html-slider-response","193","1261624","0.0-21.0-0.27","e98db0fa-cbd1-4415-ab8b-41b6226373b8","1000","
                  <p style=""text-align: center;"">₪39
                                                <br>65%</p>
                  <p id=""wtp"" style=""text-align:center; margin-top: 0px; margin-bottom: 0px; font-size: 40px"";>&ensp;</p>","-","viewing","0","16","1A,15A,26C","","","","","","","","","","","","","","","","","",""
"","","","","","html-slider-response","194","1263432","0.0-21.0-1.27","e98db0fa-cbd1-4415-ab8b-41b6226373b8","1806","
                  <p style=""text-align: center;"">₪39
                                                <br>65%</p>
                  <p id=""wtp"" style=""text-align:center; margin-top: 0px; margin-bottom: 0px; font-size: 40px"";>מוכנים לשלם: <span id=""c_p_y""></span></p>","22","evaluation","16","16","1A,15A,26C","65","39","22","","","","","","","","","","","","","","",""
"","","","","","html-keyboard-response","195","1264631","0.0-21.0-2.27","e98db0fa-cbd1-4415-ab8b-41b6226373b8","null","<p style=""text-align: center;"">+</p>","null","fixation","","","","","","","","","","","","","","","","","","","","",""
"","","","","","html-slider-response","196","1265645","0.0-21.0-0.28","e98db0fa-cbd1-4415-ab8b-41b6226373b8","1000","
                  <p style=""text-align: center;"">₪43
                                                <br>75%</p>
                  <p id=""wtp"" style=""text-align:center; margin-top: 0px; margin-bottom: 0px; font-size: 40px"";>&ensp;</p>","-","viewing","0","18","11B,19B,24A,26A","","","","","","","","","","","","","","","","","",""
"","","","","","html-slider-response","197","1268911","0.0-21.0-1.28","e98db0fa-cbd1-4415-ab8b-41b6226373b8","3265","
                  <p style=""text-align: center;"">₪43
                                                <br>75%</p>
                  <p id=""wtp"" style=""text-align:center; margin-top: 0px; margin-bottom: 0px; font-size: 40px"";>מוכנים לשלם: <span id=""c_p_y""></span></p>","17","evaluation","56","18","11B,19B,24A,26A","75","43","17","","","","","","","","","","","","","","",""
"","","","","","html-keyboard-response","198","1270373","0.0-21.0-2.28","e98db0fa-cbd1-4415-ab8b-41b6226373b8","null","<p style=""text-align: center;"">+</p>","null","fixation","","","","","","","","","","","","","","","","","","","","",""
"","","","","","html-slider-response","199","1271383","0.0-21.0-0.29","e98db0fa-cbd1-4415-ab8b-41b6226373b8","1000","
                  <p style=""text-align: center;"">₪11
                                                <br>75%</p>
                  <p id=""wtp"" style=""text-align:center; margin-top: 0px; margin-bottom: 0px; font-size: 40px"";>&ensp;</p>","-","viewing","0","7","6B,18B,22C,24C,29A","","","","","","","","","","","","","","","","","",""
"","","","","","html-slider-response","200","1274695","0.0-21.0-1.29","e98db0fa-cbd1-4415-ab8b-41b6226373b8","3311","
                  <p style=""text-align: center;"">₪11
                                                <br>75%</p>
                  <p id=""wtp"" style=""text-align:center; margin-top: 0px; margin-bottom: 0px; font-size: 40px"";>מוכנים לשלם: <span id=""c_p_y""></span></p>","2","evaluation","69","7","6B,18B,22C,24C,29A","75","11","2","","","","","","","","","","","","","","",""
"","","","","","html-keyboard-response","201","1275814","0.0-21.0-2.29","e98db0fa-cbd1-4415-ab8b-41b6226373b8","null","<p style=""text-align: center;"">+</p>","null","fixation","","","","","","","","","","","","","","","","","","","","",""
"","","","","","html-slider-response","202","1276823","0.0-21.0-0.30","e98db0fa-cbd1-4415-ab8b-41b6226373b8","1000","
                  <p style=""text-align: center;"">₪58
                                                <br>45%</p>
                  <p id=""wtp"" style=""text-align:center; margin-top: 0px; margin-bottom: 0px; font-size: 40px"";>&ensp;</p>","-","viewing","0","21","11C,18C,25A","","","","","","","","","","","","","","","","","",""
"","","","","","html-slider-response","203","1278887","0.0-21.0-1.30","e98db0fa-cbd1-4415-ab8b-41b6226373b8","2064","
                  <p style=""text-align: center;"">₪58
                                                <br>45%</p>
                  <p id=""wtp"" style=""text-align:center; margin-top: 0px; margin-bottom: 0px; font-size: 40px"";>מוכנים לשלם: <span id=""c_p_y""></span></p>","16","evaluation","16","21","11C,18C,25A","45","58","16","","","","","","","","","","","","","","",""
"","","","","","html-keyboard-response","204","1279503","0.0-21.0-2.30","e98db0fa-cbd1-4415-ab8b-41b6226373b8","null","<p style=""text-align: center;"">+</p>","null","fixation","","","","","","","","","","","","","","","","","","","","",""
"","","","","","html-keyboard-response","205","1280514","0.0-22.0","e98db0fa-cbd1-4415-ab8b-41b6226373b8","null","<p style=""text-align: center;"">+</p>","null","fixation","","","","","","","","","","","","","","","","","","","","",""
"","","","","","html-keyboard-response","206","1286927","0.0-23.0","e98db0fa-cbd1-4415-ab8b-41b6226373b8","null","<p>הפסקה.
          <br>לחצו כדי להמשיך.</p>","1","scan_wait","","","","","","","","","","","","","","","","","","","","",""
"","","","","","html-keyboard-response","207","1287934","0.0-24.0","e98db0fa-cbd1-4415-ab8b-41b6226373b8","null","<p style=""text-align: center;"">+</p>","null","fixation","","","","","","","","","","","","","","","","","","","","",""
"","","","","","html-slider-response","208","1288935","0.0-25.0-0.0","e98db0fa-cbd1-4415-ab8b-41b6226373b8","1000","
                  <p style=""text-align: center;"">₪11
                                                <br>20%</p>
                  <p id=""wtp"" style=""text-align:center; margin-top: 0px; margin-bottom: 0px; font-size: 40px"";>&ensp;</p>","-","viewing","0","4","12C,17C,23C,28C","","","","","","","","","","","","","","","","","",""
"","","","","","html-slider-response","209","1289831","0.0-25.0-1.0","e98db0fa-cbd1-4415-ab8b-41b6226373b8","896","
                  <p style=""text-align: center;"">₪11
                                                <br>20%</p>
                  <p id=""wtp"" style=""text-align:center; margin-top: 0px; margin-bottom: 0px; font-size: 40px"";>מוכנים לשלם: <span id=""c_p_y""></span></p>","1","evaluation","32","4","12C,17C,23C,28C","20","11","1","","","","","","","","","","","","","","",""
"","","","","","html-keyboard-response","210","1290665","0.0-25.0-2.0","e98db0fa-cbd1-4415-ab8b-41b6226373b8","null","<p style=""text-align: center;"">+</p>","null","fixation","","","","","","","","","","","","","","","","","","","","",""
"","","","","","html-slider-response","211","1291669","0.0-25.0-0.1","e98db0fa-cbd1-4415-ab8b-41b6226373b8","1000","
                  <p style=""text-align: center;"">₪18
                                                <br>25%</p>
                  <p id=""wtp"" style=""text-align:center; margin-top: 0px; margin-bottom: 0px; font-size: 40px"";>&ensp;</p>","-","viewing","0","9","14A,23A","","","","","","","","","","","","","","","","","",""
"","","","","","html-slider-response","212","1293335","0.0-25.0-1.1","e98db0fa-cbd1-4415-ab8b-41b6226373b8","1665","
                  <p style=""text-align: center;"">₪18
                                                <br>25%</p>
                  <p id=""wtp"" style=""text-align:center; margin-top: 0px; margin-bottom: 0px; font-size: 40px"";>מוכנים לשלם: <span id=""c_p_y""></span></p>","2","evaluation","36","9","14A,23A","25","18","2","","","","","","","","","","","","","","",""
"","","","","","html-keyboard-response","213","1293966","0.0-25.0-2.1","e98db0fa-cbd1-4415-ab8b-41b6226373b8","null","<p style=""text-align: center;"">+</p>","null","fixation","","","","","","","","","","","","","","","","","","","","",""
"","","","","","html-slider-response","214","1294978","0.0-25.0-0.2","e98db0fa-cbd1-4415-ab8b-41b6226373b8","1000","
                  <p style=""text-align: center;"">₪79
                                                <br>65%</p>
                  <p id=""wtp"" style=""text-align:center; margin-top: 0px; margin-bottom: 0px; font-size: 40px"";>&ensp;</p>","-","viewing","0","31","8A","","","","","","","","","","","","","","","","","",""
"","","","","","html-slider-response","215","1296399","0.0-25.0-1.2","e98db0fa-cbd1-4415-ab8b-41b6226373b8","1420","
                  <p style=""text-align: center;"">₪79
                                                <br>65%</p>
                  <p id=""wtp"" style=""text-align:center; margin-top: 0px; margin-bottom: 0px; font-size: 40px"";>מוכנים לשלם: <span id=""c_p_y""></span></p>","49","evaluation","34","31","8A","65","79","49","","","","","","","","","","","","","","",""
"","","","","","html-keyboard-response","216","1297347","0.0-25.0-2.2","e98db0fa-cbd1-4415-ab8b-41b6226373b8","null","<p style=""text-align: center;"">+</p>","null","fixation","","","","","","","","","","","","","","","","","","","","",""
"","","","","","html-slider-response","217","1298363","0.0-25.0-0.3","e98db0fa-cbd1-4415-ab8b-41b6226373b8","1000","
                  <p style=""text-align: center;"">₪43
                                                <br>75%</p>
                  <p id=""wtp"" style=""text-align:center; margin-top: 0px; margin-bottom: 0px; font-size: 40px"";>&ensp;</p>","-","viewing","0","18","11B,19B,24A,26A","","","","","","","","","","","","","","","","","",""
"","","","","","html-slider-response","218","1299407","0.0-25.0-1.3","e98db0fa-cbd1-4415-ab8b-41b6226373b8","1043","
                  <p style=""text-align: center;"">₪43
                                                <br>75%</p>
                  <p id=""wtp"" style=""text-align:center; margin-top: 0px; margin-bottom: 0px; font-size: 40px"";>מוכנים לשלם: <span id=""c_p_y""></span></p>","26","evaluation","51","18","11B,19B,24A,26A","75","43","26","","","","","","","","","","","","","","",""
"","","","","","html-keyboard-response","219","1300835","0.0-25.0-2.3","e98db0fa-cbd1-4415-ab8b-41b6226373b8","null","<p style=""text-align: center;"">+</p>","null","fixation","","","","","","","","","","","","","","","","","","","","",""
"","","","","","html-slider-response","220","1301848","0.0-25.0-0.4","e98db0fa-cbd1-4415-ab8b-41b6226373b8","1000","
                  <p style=""text-align: center;"">₪36
                                                <br>60%</p>
                  <p id=""wtp"" style=""text-align:center; margin-top: 0px; margin-bottom: 0px; font-size: 40px"";>&ensp;</p>","-","viewing","0","12","1C,7C,15C","","","","","","","","","","","","","","","","","",""
"","","","","","html-slider-response","221","1303967","0.0-25.0-1.4","e98db0fa-cbd1-4415-ab8b-41b6226373b8","2119","
                  <p style=""text-align: center;"">₪36
                                                <br>60%</p>
                  <p id=""wtp"" style=""text-align:center; margin-top: 0px; margin-bottom: 0px; font-size: 40px"";>מוכנים לשלם: <span id=""c_p_y""></span></p>","23","evaluation","59","12","1C,7C,15C","60","36","23","","","","","","","","","","","","","","",""
"","","","","","html-keyboard-response","222","1304688","0.0-25.0-2.4","e98db0fa-cbd1-4415-ab8b-41b6226373b8","null","<p style=""text-align: center;"">+</p>","null","fixation","","","","","","","","","","","","","","","","","","","","",""
"","","","","","html-slider-response","223","1305702","0.0-25.0-0.5","e98db0fa-cbd1-4415-ab8b-41b6226373b8","1000","
                  <p style=""text-align: center;"">₪11
                                                <br>75%</p>
                  <p id=""wtp"" style=""text-align:center; margin-top: 0px; margin-bottom: 0px; font-size: 40px"";>&ensp;</p>","-","viewing","0","7","6B,18B,22C,24C,29A","","","","","","","","","","","","","","","","","",""
"","","","","","html-slider-response","224","1308535","0.0-25.0-1.5","e98db0fa-cbd1-4415-ab8b-41b6226373b8","2832","
                  <p style=""text-align: center;"">₪11
                                                <br>75%</p>
                  <p id=""wtp"" style=""text-align:center; margin-top: 0px; margin-bottom: 0px; font-size: 40px"";>מוכנים לשלם: <span id=""c_p_y""></span></p>","3","evaluation","53","7","6B,18B,22C,24C,29A","75","11","3","","","","","","","","","","","","","","",""
"","","","","","html-keyboard-response","225","1309541","0.0-25.0-2.5","e98db0fa-cbd1-4415-ab8b-41b6226373b8","null","<p style=""text-align: center;"">+</p>","null","fixation","","","","","","","","","","","","","","","","","","","","",""
"","","","","","html-slider-response","226","1310557","0.0-25.0-0.6","e98db0fa-cbd1-4415-ab8b-41b6226373b8","1000","
                  <p style=""text-align: center;"">₪4
                                                <br>25%</p>
                  <p id=""wtp"" style=""text-align:center; margin-top: 0px; margin-bottom: 0px; font-size: 40px"";>&ensp;</p>","-","viewing","0","1","6C,29B,30C","","","","","","","","","","","","","","","","","",""
"","","","","","html-slider-response","227","1311512","0.0-25.0-1.6","e98db0fa-cbd1-4415-ab8b-41b6226373b8","954","
                  <p style=""text-align: center;"">₪4
                                                <br>25%</p>
                  <p id=""wtp"" style=""text-align:center; margin-top: 0px; margin-bottom: 0px; font-size: 40px"";>מוכנים לשלם: <span id=""c_p_y""></span></p>","0","evaluation","27","1","6C,29B,30C","25","4","0","","","","","","","","","","","","","","",""
"","","","","","html-keyboard-response","228","1312223","0.0-25.0-2.6","e98db0fa-cbd1-4415-ab8b-41b6226373b8","null","<p style=""text-align: center;"">+</p>","null","fixation","","","","","","","","","","","","","","","","","","","","",""
"","","","","","html-slider-response","229","1313227","0.0-25.0-0.7","e98db0fa-cbd1-4415-ab8b-41b6226373b8","1000","
                  <p style=""text-align: center;"">₪71
                                                <br>45%</p>
                  <p id=""wtp"" style=""text-align:center; margin-top: 0px; margin-bottom: 0px; font-size: 40px"";>&ensp;</p>","-","viewing","0","26","2B,16A","","","","","","","","","","","","","","","","","",""
"","","","","","html-slider-response","230","1317230","0.0-25.0-1.7","e98db0fa-cbd1-4415-ab8b-41b6226373b8","null","
                  <p style=""text-align: center;"">₪71
                                                <br>45%</p>
                  <p id=""wtp"" style=""text-align:center; margin-top: 0px; margin-bottom: 0px; font-size: 40px"";>מוכנים לשלם: <span id=""c_p_y""></span></p>","null","evaluation","58","26","2B,16A","45","71","31","","","","","","","","","","","","","","",""
"","","","","","html-keyboard-response","231","1318064","0.0-25.0-2.7","e98db0fa-cbd1-4415-ab8b-41b6226373b8","null","<p style=""text-align: center;"">+</p>","null","fixation","","","","","","","","","","","","","","","","","","","","",""
"","","","","","html-slider-response","232","1319079","0.0-25.0-0.8","e98db0fa-cbd1-4415-ab8b-41b6226373b8","1000","
                  <p style=""text-align: center;"">₪39
                                                <br>60%</p>
                  <p id=""wtp"" style=""text-align:center; margin-top: 0px; margin-bottom: 0px; font-size: 40px"";>&ensp;</p>","-","viewing","0","15","9C,25B","","","","","","","","","","","","","","","","","",""
"","","","","","html-slider-response","233","1320440","0.0-25.0-1.8","e98db0fa-cbd1-4415-ab8b-41b6226373b8","1359","
                  <p style=""text-align: center;"">₪39
                                                <br>60%</p>
                  <p id=""wtp"" style=""text-align:center; margin-top: 0px; margin-bottom: 0px; font-size: 40px"";>מוכנים לשלם: <span id=""c_p_y""></span></p>","19","evaluation","50","15","9C,25B","60","39","19","","","","","","","","","","","","","","",""
"","","","","","html-keyboard-response","234","1320982","0.0-25.0-2.8","e98db0fa-cbd1-4415-ab8b-41b6226373b8","null","<p style=""text-align: center;"">+</p>","null","fixation","","","","","","","","","","","","","","","","","","","","",""
"","","","","","html-slider-response","235","1321986","0.0-25.0-0.9","e98db0fa-cbd1-4415-ab8b-41b6226373b8","1000","
                  <p style=""text-align: center;"">₪18
                                                <br>50%</p>
                  <p id=""wtp"" style=""text-align:center; margin-top: 0px; margin-bottom: 0px; font-size: 40px"";>&ensp;</p>","-","viewing","0","10","2C,16C,22B,28A","","","","","","","","","","","","","","","","","",""
"","","","","","html-slider-response","236","1323023","0.0-25.0-1.9","e98db0fa-cbd1-4415-ab8b-41b6226373b8","1037","
                  <p style=""text-align: center;"">₪18
                                                <br>50%</p>
                  <p id=""wtp"" style=""text-align:center; margin-top: 0px; margin-bottom: 0px; font-size: 40px"";>מוכנים לשלם: <span id=""c_p_y""></span></p>","6","evaluation","49","10","2C,16C,22B,28A","50","18","6","","","","","","","","","","","","","","",""
"","","","","","html-keyboard-response","237","1324255","0.0-25.0-2.9","e98db0fa-cbd1-4415-ab8b-41b6226373b8","null","<p style=""text-align: center;"">+</p>","null","fixation","","","","","","","","","","","","","","","","","","","","",""
"","","","","","html-slider-response","238","1325266","0.0-25.0-0.10","e98db0fa-cbd1-4415-ab8b-41b6226373b8","1000","
                  <p style=""text-align: center;"">₪61
                                                <br>55%</p>
                  <p id=""wtp"" style=""text-align:center; margin-top: 0px; margin-bottom: 0px; font-size: 40px"";>&ensp;</p>","-","viewing","0","23","7B,26B","","","","","","","","","","","","","","","","","",""
"","","","","","html-slider-response","239","1327992","0.0-25.0-1.10","e98db0fa-cbd1-4415-ab8b-41b6226373b8","2725","
                  <p style=""text-align: center;"">₪61
                                                <br>55%</p>
                  <p id=""wtp"" style=""text-align:center; margin-top: 0px; margin-bottom: 0px; font-size: 40px"";>מוכנים לשלם: <span id=""c_p_y""></span></p>","39","evaluation","40","23","7B,26B","55","61","39","","","","","","","","","","","","","","",""
"","","","","","html-keyboard-response","240","1328926","0.0-25.0-2.10","e98db0fa-cbd1-4415-ab8b-41b6226373b8","null","<p style=""text-align: center;"">+</p>","null","fixation","","","","","","","","","","","","","","","","","","","","",""
"","","","","","html-slider-response","241","1329943","0.0-25.0-0.11","e98db0fa-cbd1-4415-ab8b-41b6226373b8","1000","
                  <p style=""text-align: center;"">₪16
                                                <br>20%</p>
                  <p id=""wtp"" style=""text-align:center; margin-top: 0px; margin-bottom: 0px; font-size: 40px"";>&ensp;</p>","-","viewing","0","8","14C,17A,20C,27A","","","","","","","","","","","","","","","","","",""
"","","","","","html-slider-response","242","1332880","0.0-25.0-1.11","e98db0fa-cbd1-4415-ab8b-41b6226373b8","2936","
                  <p style=""text-align: center;"">₪16
                                                <br>20%</p>
                  <p id=""wtp"" style=""text-align:center; margin-top: 0px; margin-bottom: 0px; font-size: 40px"";>מוכנים לשלם: <span id=""c_p_y""></span></p>","0","evaluation","10","8","14C,17A,20C,27A","20","16","0","","","","","","","","","","","","","","",""
"","","","","","html-keyboard-response","243","1333609","0.0-25.0-2.11","e98db0fa-cbd1-4415-ab8b-41b6226373b8","null","<p style=""text-align: center;"">+</p>","null","fixation","","","","","","","","","","","","","","","","","","","","",""
"","","","","","html-slider-response","244","1334614","0.0-25.0-0.12","e98db0fa-cbd1-4415-ab8b-41b6226373b8","1000","
                  <p style=""text-align: center;"">₪43
                                                <br>60%</p>
                  <p id=""wtp"" style=""text-align:center; margin-top: 0px; margin-bottom: 0px; font-size: 40px"";>&ensp;</p>","-","viewing","0","17","2A,7A,9A,15B","","","","","","","","","","","","","","","","","",""
"","","","","","html-slider-response","245","1337472","0.0-25.0-1.12","e98db0fa-cbd1-4415-ab8b-41b6226373b8","2856","
                  <p style=""text-align: center;"">₪43
                                                <br>60%</p>
                  <p id=""wtp"" style=""text-align:center; margin-top: 0px; margin-bottom: 0px; font-size: 40px"";>מוכנים לשלם: <span id=""c_p_y""></span></p>","13","evaluation","74","17","2A,7A,9A,15B","60","43","13","","","","","","","","","","","","","","",""
"","","","","","html-keyboard-response","246","1338406","0.0-25.0-2.12","e98db0fa-cbd1-4415-ab8b-41b6226373b8","null","<p style=""text-align: center;"">+</p>","null","fixation","","","","","","","","","","","","","","","","","","","","",""
"","","","","","html-slider-response","247","1339418","0.0-25.0-0.13","e98db0fa-cbd1-4415-ab8b-41b6226373b8","1000","
                  <p style=""text-align: center;"">₪11
                                                <br>45%</p>
                  <p id=""wtp"" style=""text-align:center; margin-top: 0px; margin-bottom: 0px; font-size: 40px"";>&ensp;</p>","-","viewing","0","6","14B,21C,25C","","","","","","","","","","","","","","","","","",""
"","","","","","html-slider-response","248","1340848","0.0-25.0-1.13","e98db0fa-cbd1-4415-ab8b-41b6226373b8","1428","
                  <p style=""text-align: center;"">₪11
                                                <br>45%</p>
                  <p id=""wtp"" style=""text-align:center; margin-top: 0px; margin-bottom: 0px; font-size: 40px"";>מוכנים לשלם: <span id=""c_p_y""></span></p>","0","evaluation","48","6","14B,21C,25C","45","11","1","","","","","","","","","","","","","","",""
"","","","","","html-keyboard-response","249","1342120","0.0-25.0-2.13","e98db0fa-cbd1-4415-ab8b-41b6226373b8","null","<p style=""text-align: center;"">+</p>","null","fixation","","","","","","","","","","","","","","","","","","","","",""
"","","","","","html-slider-response","250","1343123","0.0-25.0-0.14","e98db0fa-cbd1-4415-ab8b-41b6226373b8","1000","
                  <p style=""text-align: center;"">₪61
                                                <br>45%</p>
                  <p id=""wtp"" style=""text-align:center; margin-top: 0px; margin-bottom: 0px; font-size: 40px"";>&ensp;</p>","-","viewing","0","22","10A,11A","","","","","","","","","","","","","","","","","",""
"","","","","","html-slider-response","251","1345143","0.0-25.0-1.14","e98db0fa-cbd1-4415-ab8b-41b6226373b8","2019","
                  <p style=""text-align: center;"">₪61
                                                <br>45%</p>
                  <p id=""wtp"" style=""text-align:center; margin-top: 0px; margin-bottom: 0px; font-size: 40px"";>מוכנים לשלם: <span id=""c_p_y""></span></p>","29","evaluation","33","22","10A,11A","45","61","29","","","","","","","","","","","","","","",""
"","","","","","html-keyboard-response","252","1346633","0.0-25.0-2.14","e98db0fa-cbd1-4415-ab8b-41b6226373b8","null","<p style=""text-align: center;"">+</p>","null","fixation","","","","","","","","","","","","","","","","","","","","",""
"","","","","","html-slider-response","253","1347642","0.0-25.0-0.15","e98db0fa-cbd1-4415-ab8b-41b6226373b8","1000","
