"success","timeout","failed_images","failed_audio","failed_video","trial_type","trial_index","time_elapsed","internal_node_id","subject_id","rt","stimulus","response","part","slider_start","ID","set_ID","prob","amount","last_location","actual_choice","actual_EV","binary_id","trinary_id","catch","A_key","D_key","choice_prob","choice_amount","chosen_part","potential_prize_prob","potential_prize_amount","won_prize","total_prize","prize_cost","remaining_budget","accuracy"
"true","false","[]","[]","[]","preload","0","124","0.0-0.0","4b4fb6c0-3507-41fe-8d83-98d3a6c95618","","","","","","","","","","","","","","","","","","","","","","","","","","",""
"","","","","","html-keyboard-response","1","741927","0.0-1.0","4b4fb6c0-3507-41fe-8d83-98d3a6c95618","null","
          <h1>שלום וברוכים הבאים!</h1>
          <p>לפניכם ניסוי בקבלת החלטות עם שני חלקים.
          <br><br>לחצו על העכבר כדי להמשיך.</p>","0","example","","","","","","","","","","","","","","","","","","","","","","",""
"","","","","","html-keyboard-response","2","843238","0.0-2.0","4b4fb6c0-3507-41fe-8d83-98d3a6c95618","null","
        <h1>חלק 1</h1>
        <p>בקרוב יוצגו בפניכם הגרלות.
        <br>עליכם לבחור את המחיר המירבי שתהיו מוכנים לשלם כדי להשתתף בהגרלה שתוצג.
        <br>יש לכם תקציב של ₪80 לכל הגרלה. 
        <br>נסו להעריך כל הגרלה בנפרד ולחשוב כמה היא שווה עבורכם, ₪80 זמינים לכל הגרלה בנפרד.
        <br><br>לחצו על העכבר כדי להמשיך.</p>","1","instructions","","","","","","","","","","","","","","","","","","","","","","",""
"","","","","","html-keyboard-response","3","859814","0.0-3.0","4b4fb6c0-3507-41fe-8d83-98d3a6c95618","null","
        <p>בסוף הניסוי, המחשב יבחר את אחת ההגרלות ויקבע מחיר לכרטיס עבורה. 
        <br>במידה והמחיר שבחרתם נמוך מהמחיר שנבחר על ידי המחשב, לא תשתתפו בהגרלה ותשארו עם מלוא התקציב.
        <br>במידה והמחיר שבחרתם גבוה מהמחיר שנבחר על ידי המחשב, תשלמו את המחיר שנקבע ותשתתפו בהגרלה.
        <br><br>לחצו על העכבר כדי להמשיך.</p>","1","instructions","","","","","","","","","","","","","","","","","","","","","","",""
"","","","","","html-slider-response","4","882902","0.0-4.0","4b4fb6c0-3507-41fe-8d83-98d3a6c95618","22985","
        <p style=""font-size: 42px;"">נתחיל עם דוגמא: 
        <br>ההגרלה מטה מציעה 65% סיכוי לזכות ב-₪40 
        <br>&emsp;&emsp;&emsp;&emsp;&emsp;&emsp;&emsp;&emsp;&ensp;35% סיכוי לזכות ב-₪0.
        <br><br>מה המחיר המירבי שתהיו מוכנים לשלם על כרטיס להגרלה זו בין 0 ל-₪80?
        <br>הזיזו את העכבר על פני המלבן ולחצו כדי לבצע בחירה.</p>
        
        <p style=""text-align: center;"">₪40<br>65%</p>

        <p id=""wtp"" style=""text-align:center; margin-top: 0px; margin-bottom: 0px; font-size: 40px"";>מוכנים לשלם: <span id=""c_p_y""></span></p>","15","example","15","","","","","","","","","","","","","","","","","","","","","",""
"","","","","","html-keyboard-response","5","894526","0.0-5.0","4b4fb6c0-3507-41fe-8d83-98d3a6c95618","null","<p>יפה מאוד!
                <br> בחרתם שתהיו מוכנים לשלם ₪15 כדי להשתתף בהגרלה:
                <br><p style=""text-align: center;"">₪40<br>65%</p>
                <p>נשמע נכון?
                <br>נניח שהגרלה זו נבחרה בסוף הניסוי.
                <br>כעת המחשב יקבע מחיר עבורה באקראי.
                <br>לחצו על העכבר להמשך.</p>","1","example","","","","","","","","","","","","","","","","","","","","","","",""
"","","","","","html-keyboard-response","6","905710","0.0-6.0","4b4fb6c0-3507-41fe-8d83-98d3a6c95618","null","<p>המחשב קבע מחיר: ₪31
                <br>ואתם בחרתם לשלם לכל היותר: ₪15
                <br><br>מכיוון שהמחיר שבחרתם נמוך מהמחיר שנקבע, לא תתשתתפו בהגרלה.
                <br>במקרה כזה, בסוף הניסוי תקבלו את כל התקציב ההתחלתי של ₪80.
                <br><br>לחצו על העכבר להמשך.</p>","1","example","","","","","","","","","","","","","","","","","","","","","","",""
"","","","","","html-slider-response","7","919022","0.0-7.0","4b4fb6c0-3507-41fe-8d83-98d3a6c95618","13059","<p style=""font-size: 42px;"">הנה עוד דוגמא:
                <br>ההגרלה מטה מציעה 35% סיכוי לזכות ב-₪18 
                <br>&emsp;&emsp;&emsp;&emsp;&emsp;&emsp;&emsp;&emsp;&ensp;65% סיכוי לזכות ב-₪0.</p>
        
                <p style=""text-align: center;"">₪18<br>35%</p>
                <p id=""wtp"" style=""text-align:center; margin-top: 0px; margin-bottom: 0px; font-size: 40px"";>מוכנים לשלם: <span id=""c_p_y""></span></p>","13","example","71","","","","","","","","","","","","","","","","","","","","","",""
"","","","","","html-keyboard-response","8","922750","0.0-8.0","4b4fb6c0-3507-41fe-8d83-98d3a6c95618","null","<p>הייתם מוכנים לשלם  ₪13 כדי להשתתף בהגרלה:
                <p style=""text-align: center;"">₪18<br>35%</p>
                <p>כעת נניח שהמחשב בחר את ההגרלה הזו בסוף הניסוי, וקבע עבורה מחיר.
                <br><br>לחצו על העכבר כדי להמשיך.</p>","1","instructions","","","","","","","","","","","","","","","","","","","","","","",""
"","","","","","html-keyboard-response","9","935838","0.0-9.0","4b4fb6c0-3507-41fe-8d83-98d3a6c95618","null","<p>המחשב קבע מחיר להגרלה: ₪10<br>ואתם בחרתם לשלם לכל היותר: ₪13
                <br><br>כעת המחיר שנקבע נמוך מזה שבחרתם, אז תשלמו את המחיר שקבע המחשב (₪10) ותשתתפו בהגרלה.
                <br>במקרה כזה, תסיימו את הניסוי עם תקציב של ₪70 ועם סיכוי לזכות ב-₪18 נוספים מההגרלה.
                <br>כלומר, תוכלו לקבל ₪70 אם לא תזכו בהגרלה, או ₪88 אם תזכו בהגרלה.
                <br><br>לחצו על העכבר להמשך.</p>","1","example","","","","","","","","","","","","","","","","","","","","","","",""
"","","","","","html-keyboard-response","10","946382","0.0-10.0","4b4fb6c0-3507-41fe-8d83-98d3a6c95618","null","<p>במהלך הניסוי, קודם תראו את ההגרלה ורק לאחר מכן תוכלו לבחור.
                <p>כמו כן, יהיו לכם מספר שניות מוגבל להגיב.
                <p>בואו ננסה זאת עם ההגרלה הקודמת.
                <br>לחצו על העכבר כדי להמשיך.</p>","1","instructions","","","","","","","","","","","","","","","","","","","","","","",""
"","","","","","html-slider-response","11","947657","0.0-11.0","4b4fb6c0-3507-41fe-8d83-98d3a6c95618","1000","
                    <p style=""text-align: center;"">₪18<br>35%</p>
                    <p id=""wtp"" style=""text-align:center; margin-top: 0px; margin-bottom: 0px; font-size: 40px"";>&ensp;</p>","38","instructions","0","","","","","","","","","","","","","","","","","","","","","",""
"","","","","","html-slider-response","12","951927","0.0-12.0","4b4fb6c0-3507-41fe-8d83-98d3a6c95618","null","
                    <p style=""text-align: center;"">₪18<br>35%</p>
                    <p id=""wtp"" style=""text-align:center; margin-top: 0px; margin-bottom: 0px; font-size: 40px"";>מוכנים לשלם: <span id=""c_p_y""></span></p>","null","instructions","80","","","","","","","","","","","","","","","","","","","","","",""
"","","","","","html-keyboard-response","13","952358","0.0-13.0","4b4fb6c0-3507-41fe-8d83-98d3a6c95618","null","<p>לא הגבתם בזמן המוקצב לתגובה. 
                <br>נסו להגיב מהר יותר בפעם הבאה.
                <br><br>לחצו על העכבר כדי להמשיך.</p>","1","instructions","","","","","","","","","","","","","","","","","","","","","","",""
"","","","","","html-slider-response","14","954614","0.0-14.0-0.0","4b4fb6c0-3507-41fe-8d83-98d3a6c95618","2003","
                    <p style=""text-align: center;"">₪40<br>65%</p>
                    <p id=""wtp"" style=""text-align:center; margin-top: 0px; margin-bottom: 0px; font-size: 40px"";>מוכנים לשלם: <span id=""c_p_y""></span></p>","10","instructions","35","","","","","","","","","","","","","","","","","","","","","",""
"","","","","","html-keyboard-response","15","957678","0.0-14.0-1.0","4b4fb6c0-3507-41fe-8d83-98d3a6c95618","null","<p>יפה. הפעם בחרתם לשלם לכל היותר ₪10.
                <br><br>לחצו על העכבר כדי להמשיך.</p>","1","instructions","","","","","","","","","","","","","","","","","","","","","","",""
"","","","","","html-keyboard-response","16","969022","0.0-15.0","4b4fb6c0-3507-41fe-8d83-98d3a6c95618","null","<p>כעת נתחיל את הניסוי.
                <br><br>אתם תראו הגרלות ותתבקשו לבחור כמה תהיו מוכנים לשלם כדי להשתתף בהן.
                <br>יש לכם תקציב של ₪80 עבור כל הגרלה.
                <br>בסוף הניסוי הגרלה אחת תבחר באקראי ותשוחק.
                <br><br>לחצו על העכבר כדי להתחיל את הניסוי.</p>","1","instructions","","","","","","","","","","","","","","","","","","","","","","",""
"","","","","","html-keyboard-response","17","970278","0.0-16.0","4b4fb6c0-3507-41fe-8d83-98d3a6c95618","null","<p style=""text-align: center;"">+</p>","null","fixation","","","","","","","","","","","","","","","","","","","","","","",""
"","","","","","html-slider-response","18","971287","0.0-17.0-0.0","4b4fb6c0-3507-41fe-8d83-98d3a6c95618","1000","
                  <p style=""text-align: center;"">₪36
                                                <br>70%</p>
                  <p id=""wtp"" style=""text-align:center; margin-top: 0px; margin-bottom: 0px; font-size: 40px"";>&ensp;</p>","-","viewing","0","13","3A,5C,10B","","","","","","","","","","","","","","","","","","","",""
"","","","","","html-slider-response","19","974334","0.0-17.0-1.0","4b4fb6c0-3507-41fe-8d83-98d3a6c95618","3046","
                  <p style=""text-align: center;"">₪36
                                                <br>70%</p>
                  <p id=""wtp"" style=""text-align:center; margin-top: 0px; margin-bottom: 0px; font-size: 40px"";>מוכנים לשלם: <span id=""c_p_y""></span></p>","27","evaluation","34","13","3A,5C,10B","70","36","27","","","","","","","","","","","","","","","","",""
"","","","","","html-keyboard-response","20","975374","0.0-17.0-2.0","4b4fb6c0-3507-41fe-8d83-98d3a6c95618","null","<p style=""text-align: center;"">+</p>","null","fixation","","","","","","","","","","","","","","","","","","","","","","",""
"","","","","","html-slider-response","21","976389","0.0-17.0-0.1","4b4fb6c0-3507-41fe-8d83-98d3a6c95618","1000","
                  <p style=""text-align: center;"">₪64
                                                <br>50%</p>
                  <p id=""wtp"" style=""text-align:center; margin-top: 0px; margin-bottom: 0px; font-size: 40px"";>&ensp;</p>","-","viewing","0","25","1B,3B,4A","","","","","","","","","","","","","","","","","","","",""
"","","","","","html-slider-response","22","978558","0.0-17.0-1.1","4b4fb6c0-3507-41fe-8d83-98d3a6c95618","2167","
                  <p style=""text-align: center;"">₪64
                                                <br>50%</p>
                  <p id=""wtp"" style=""text-align:center; margin-top: 0px; margin-bottom: 0px; font-size: 40px"";>מוכנים לשלם: <span id=""c_p_y""></span></p>","33","evaluation","32","25","1B,3B,4A","50","64","33","","","","","","","","","","","","","","","","",""
"","","","","","html-keyboard-response","23","979644","0.0-17.0-2.1","4b4fb6c0-3507-41fe-8d83-98d3a6c95618","null","<p style=""text-align: center;"">+</p>","null","fixation","","","","","","","","","","","","","","","","","","","","","","",""
"","","","","","html-slider-response","24","980655","0.0-17.0-0.2","4b4fb6c0-3507-41fe-8d83-98d3a6c95618","1000","
                  <p style=""text-align: center;"">₪4
                                                <br>50%</p>
                  <p id=""wtp"" style=""text-align:center; margin-top: 0px; margin-bottom: 0px; font-size: 40px"";>&ensp;</p>","-","viewing","0","2","4C,17B","","","","","","","","","","","","","","","","","","","",""
"","","","","","html-slider-response","25","983430","0.0-17.0-1.2","4b4fb6c0-3507-41fe-8d83-98d3a6c95618","2774","
                  <p style=""text-align: center;"">₪4
                                                <br>50%</p>
                  <p id=""wtp"" style=""text-align:center; margin-top: 0px; margin-bottom: 0px; font-size: 40px"";>מוכנים לשלם: <span id=""c_p_y""></span></p>","4","evaluation","23","2","4C,17B","50","4","4","","","","","","","","","","","","","","","","",""
"","","","","","html-keyboard-response","26","984254","0.0-17.0-2.2","4b4fb6c0-3507-41fe-8d83-98d3a6c95618","null","<p style=""text-align: center;"">+</p>","null","fixation","","","","","","","","","","","","","","","","","","","","","","",""
"","","","","","html-slider-response","27","985262","0.0-17.0-0.3","4b4fb6c0-3507-41fe-8d83-98d3a6c95618","1000","
                  <p style=""text-align: center;"">₪71
                                                <br>55%</p>
                  <p id=""wtp"" style=""text-align:center; margin-top: 0px; margin-bottom: 0px; font-size: 40px"";>&ensp;</p>","-","viewing","0","27","5B,18A","","","","","","","","","","","","","","","","","","","",""
"","","","","","html-slider-response","28","989277","0.0-17.0-1.3","4b4fb6c0-3507-41fe-8d83-98d3a6c95618","null","
                  <p style=""text-align: center;"">₪71
                                                <br>55%</p>
                  <p id=""wtp"" style=""text-align:center; margin-top: 0px; margin-bottom: 0px; font-size: 40px"";>מוכנים לשלם: <span id=""c_p_y""></span></p>","null","evaluation","24","27","5B,18A","55","71","56","","","","","","","","","","","","","","","","",""
"","","","","","html-keyboard-response","29","990546","0.0-17.0-2.3","4b4fb6c0-3507-41fe-8d83-98d3a6c95618","null","<p style=""text-align: center;"">+</p>","null","fixation","","","","","","","","","","","","","","","","","","","","","","",""
"","","","","","html-slider-response","30","991548","0.0-17.0-0.4","4b4fb6c0-3507-41fe-8d83-98d3a6c95618","1000","
                  <p style=""text-align: center;"">₪11
                                                <br>45%</p>
                  <p id=""wtp"" style=""text-align:center; margin-top: 0px; margin-bottom: 0px; font-size: 40px"";>&ensp;</p>","-","viewing","0","6","14B,21C,25C","","","","","","","","","","","","","","","","","","","",""
"","","","","","html-slider-response","31","992222","0.0-17.0-1.4","4b4fb6c0-3507-41fe-8d83-98d3a6c95618","673","
                  <p style=""text-align: center;"">₪11
                                                <br>45%</p>
                  <p id=""wtp"" style=""text-align:center; margin-top: 0px; margin-bottom: 0px; font-size: 40px"";>מוכנים לשלם: <span id=""c_p_y""></span></p>","5","evaluation","66","6","14B,21C,25C","45","11","5","","","","","","","","","","","","","","","","",""
"","","","","","html-keyboard-response","32","993355","0.0-17.0-2.4","4b4fb6c0-3507-41fe-8d83-98d3a6c95618","null","<p style=""text-align: center;"">+</p>","null","fixation","","","","","","","","","","","","","","","","","","","","","","",""
"","","","","","html-slider-response","33","994366","0.0-17.0-0.5","4b4fb6c0-3507-41fe-8d83-98d3a6c95618","1000","
                  <p style=""text-align: center;"">₪76
                                                <br>65%</p>
                  <p id=""wtp"" style=""text-align:center; margin-top: 0px; margin-bottom: 0px; font-size: 40px"";>&ensp;</p>","-","viewing","0","29","8C,19A,24B","","","","","","","","","","","","","","","","","","","",""
"","","","","","html-slider-response","34","995454","0.0-17.0-1.5","4b4fb6c0-3507-41fe-8d83-98d3a6c95618","1087","
                  <p style=""text-align: center;"">₪76
                                                <br>65%</p>
                  <p id=""wtp"" style=""text-align:center; margin-top: 0px; margin-bottom: 0px; font-size: 40px"";>מוכנים לשלם: <span id=""c_p_y""></span></p>","43","evaluation","8","29","8C,19A,24B","65","76","43","","","","","","","","","","","","","","","","",""
"","","","","","html-keyboard-response","35","996752","0.0-17.0-2.5","4b4fb6c0-3507-41fe-8d83-98d3a6c95618","null","<p style=""text-align: center;"">+</p>","null","fixation","","","","","","","","","","","","","","","","","","","","","","",""
"","","","","","html-slider-response","36","997754","0.0-17.0-0.6","4b4fb6c0-3507-41fe-8d83-98d3a6c95618","1000","
                  <p style=""text-align: center;"">₪58
                                                <br>30%</p>
                  <p id=""wtp"" style=""text-align:center; margin-top: 0px; margin-bottom: 0px; font-size: 40px"";>&ensp;</p>","-","viewing","0","19","13C,30A","","","","","","","","","","","","","","","","","","","",""
"","","","","","html-slider-response","37","1000614","0.0-17.0-1.6","4b4fb6c0-3507-41fe-8d83-98d3a6c95618","2859","
                  <p style=""text-align: center;"">₪58
                                                <br>30%</p>
                  <p id=""wtp"" style=""text-align:center; margin-top: 0px; margin-bottom: 0px; font-size: 40px"";>מוכנים לשלם: <span id=""c_p_y""></span></p>","47","evaluation","76","19","13C,30A","30","58","47","","","","","","","","","","","","","","","","",""
"","","","","","html-keyboard-response","38","1001173","0.0-17.0-2.6","4b4fb6c0-3507-41fe-8d83-98d3a6c95618","null","<p style=""text-align: center;"">+</p>","null","fixation","","","","","","","","","","","","","","","","","","","","","","",""
"","","","","","html-slider-response","39","1002175","0.0-17.0-0.7","4b4fb6c0-3507-41fe-8d83-98d3a6c95618","1000","
                  <p style=""text-align: center;"">₪79
                                                <br>65%</p>
                  <p id=""wtp"" style=""text-align:center; margin-top: 0px; margin-bottom: 0px; font-size: 40px"";>&ensp;</p>","-","viewing","0","31","8A","","","","","","","","","","","","","","","","","","","",""
"","","","","","html-slider-response","40","1004446","0.0-17.0-1.7","4b4fb6c0-3507-41fe-8d83-98d3a6c95618","2269","
                  <p style=""text-align: center;"">₪79
                                                <br>65%</p>
                  <p id=""wtp"" style=""text-align:center; margin-top: 0px; margin-bottom: 0px; font-size: 40px"";>מוכנים לשלם: <span id=""c_p_y""></span></p>","51","evaluation","40","31","8A","65","79","51","","","","","","","","","","","","","","","","",""
"","","","","","html-keyboard-response","41","1005444","0.0-17.0-2.7","4b4fb6c0-3507-41fe-8d83-98d3a6c95618","null","<p style=""text-align: center;"">+</p>","null","fixation","","","","","","","","","","","","","","","","","","","","","","",""
"","","","","","html-slider-response","42","1006447","0.0-17.0-0.8","4b4fb6c0-3507-41fe-8d83-98d3a6c95618","1000","
                  <p style=""text-align: center;"">₪16
                                                <br>20%</p>
                  <p id=""wtp"" style=""text-align:center; margin-top: 0px; margin-bottom: 0px; font-size: 40px"";>&ensp;</p>","-","viewing","0","8","14C,17A,20C,27A","","","","","","","","","","","","","","","","","","","",""
"","","","","","html-slider-response","43","1007542","0.0-17.0-1.8","4b4fb6c0-3507-41fe-8d83-98d3a6c95618","1093","
                  <p style=""text-align: center;"">₪16
                                                <br>20%</p>
                  <p id=""wtp"" style=""text-align:center; margin-top: 0px; margin-bottom: 0px; font-size: 40px"";>מוכנים לשלם: <span id=""c_p_y""></span></p>","6","evaluation","15","8","14C,17A,20C,27A","20","16","6","","","","","","","","","","","","","","","","",""
"","","","","","html-keyboard-response","44","1008176","0.0-17.0-2.8","4b4fb6c0-3507-41fe-8d83-98d3a6c95618","null","<p style=""text-align: center;"">+</p>","null","fixation","","","","","","","","","","","","","","","","","","","","","","",""
"","","","","","html-slider-response","45","1009177","0.0-17.0-0.9","4b4fb6c0-3507-41fe-8d83-98d3a6c95618","1000","
                  <p style=""text-align: center;"">₪18
                                                <br>50%</p>
                  <p id=""wtp"" style=""text-align:center; margin-top: 0px; margin-bottom: 0px; font-size: 40px"";>&ensp;</p>","-","viewing","0","10","2C,16C,22B,28A","","","","","","","","","","","","","","","","","","","",""
"","","","","","html-slider-response","46","1011990","0.0-17.0-1.9","4b4fb6c0-3507-41fe-8d83-98d3a6c95618","2812","
                  <p style=""text-align: center;"">₪18
                                                <br>50%</p>
                  <p id=""wtp"" style=""text-align:center; margin-top: 0px; margin-bottom: 0px; font-size: 40px"";>מוכנים לשלם: <span id=""c_p_y""></span></p>","25","evaluation","15","10","2C,16C,22B,28A","50","18","25","","","","","","","","","","","","","","","","",""
"","","","","","html-keyboard-response","47","1012813","0.0-17.0-2.9","4b4fb6c0-3507-41fe-8d83-98d3a6c95618","null","<p style=""text-align: center;"">+</p>","null","fixation","","","","","","","","","","","","","","","","","","","","","","",""
"","","","","","html-slider-response","48","1013819","0.0-17.0-0.10","4b4fb6c0-3507-41fe-8d83-98d3a6c95618","1000","
                  <p style=""text-align: center;"">₪11
                                                <br>20%</p>
                  <p id=""wtp"" style=""text-align:center; margin-top: 0px; margin-bottom: 0px; font-size: 40px"";>&ensp;</p>","-","viewing","0","4","12C,17C,23C,28C","","","","","","","","","","","","","","","","","","","",""
"","","","","","html-slider-response","49","1015518","0.0-17.0-1.10","4b4fb6c0-3507-41fe-8d83-98d3a6c95618","1697","
                  <p style=""text-align: center;"">₪11
                                                <br>20%</p>
                  <p id=""wtp"" style=""text-align:center; margin-top: 0px; margin-bottom: 0px; font-size: 40px"";>מוכנים לשלם: <span id=""c_p_y""></span></p>","11","evaluation","49","4","12C,17C,23C,28C","20","11","11","","","","","","","","","","","","","","","","",""
"","","","","","html-keyboard-response","50","1016352","0.0-17.0-2.10","4b4fb6c0-3507-41fe-8d83-98d3a6c95618","null","<p style=""text-align: center;"">+</p>","null","fixation","","","","","","","","","","","","","","","","","","","","","","",""
"","","","","","html-slider-response","51","1017356","0.0-17.0-0.11","4b4fb6c0-3507-41fe-8d83-98d3a6c95618","1000","
                  <p style=""text-align: center;"">₪64
                                                <br>25%</p>
                  <p id=""wtp"" style=""text-align:center; margin-top: 0px; margin-bottom: 0px; font-size: 40px"";>&ensp;</p>","-","viewing","0","24","6A,21A","","","","","","","","","","","","","","","","","","","",""
"","","","","","html-slider-response","52","1019518","0.0-17.0-1.11","4b4fb6c0-3507-41fe-8d83-98d3a6c95618","2161","
                  <p style=""text-align: center;"">₪64
                                                <br>25%</p>
                  <p id=""wtp"" style=""text-align:center; margin-top: 0px; margin-bottom: 0px; font-size: 40px"";>מוכנים לשלם: <span id=""c_p_y""></span></p>","10","evaluation","80","24","6A,21A","25","64","10","","","","","","","","","","","","","","","","",""
"","","","","","html-keyboard-response","53","1020486","0.0-17.0-2.11","4b4fb6c0-3507-41fe-8d83-98d3a6c95618","null","<p style=""text-align: center;"">+</p>","null","fixation","","","","","","","","","","","","","","","","","","","","","","",""
"","","","","","html-slider-response","54","1021489","0.0-17.0-0.12","4b4fb6c0-3507-41fe-8d83-98d3a6c95618","1000","
                  <p style=""text-align: center;"">₪43
                                                <br>60%</p>
                  <p id=""wtp"" style=""text-align:center; margin-top: 0px; margin-bottom: 0px; font-size: 40px"";>&ensp;</p>","-","viewing","0","17","2A,7A,9A,15B","","","","","","","","","","","","","","","","","","","",""
"","","","","","html-slider-response","55","1023454","0.0-17.0-1.12","4b4fb6c0-3507-41fe-8d83-98d3a6c95618","1964","
                  <p style=""text-align: center;"">₪43
                                                <br>60%</p>
                  <p id=""wtp"" style=""text-align:center; margin-top: 0px; margin-bottom: 0px; font-size: 40px"";>מוכנים לשלם: <span id=""c_p_y""></span></p>","30","evaluation","73","17","2A,7A,9A,15B","60","43","30","","","","","","","","","","","","","","","","",""
"","","","","","html-keyboard-response","56","1024850","0.0-17.0-2.12","4b4fb6c0-3507-41fe-8d83-98d3a6c95618","null","<p style=""text-align: center;"">+</p>","null","fixation","","","","","","","","","","","","","","","","","","","","","","",""
"","","","","","html-slider-response","57","1025863","0.0-17.0-0.13","4b4fb6c0-3507-41fe-8d83-98d3a6c95618","1000","
                  <p style=""text-align: center;"">₪11
                                                <br>25%</p>
                  <p id=""wtp"" style=""text-align:center; margin-top: 0px; margin-bottom: 0px; font-size: 40px"";>&ensp;</p>","-","viewing","0","5","12A,27B,28B,30B","","","","","","","","","","","","","","","","","","","",""
"","","","","","html-slider-response","58","1026558","0.0-17.0-1.13","4b4fb6c0-3507-41fe-8d83-98d3a6c95618","693","
                  <p style=""text-align: center;"">₪11
                                                <br>25%</p>
                  <p id=""wtp"" style=""text-align:center; margin-top: 0px; margin-bottom: 0px; font-size: 40px"";>מוכנים לשלם: <span id=""c_p_y""></span></p>","6","evaluation","51","5","12A,27B,28B,30B","25","11","6","","","","","","","","","","","","","","","","",""
"","","","","","html-keyboard-response","59","1027633","0.0-17.0-2.13","4b4fb6c0-3507-41fe-8d83-98d3a6c95618","null","<p style=""text-align: center;"">+</p>","null","fixation","","","","","","","","","","","","","","","","","","","","","","",""
"","","","","","html-slider-response","60","1028647","0.0-17.0-0.14","4b4fb6c0-3507-41fe-8d83-98d3a6c95618","1000","
                  <p style=""text-align: center;"">₪58
                                                <br>40%</p>
                  <p id=""wtp"" style=""text-align:center; margin-top: 0px; margin-bottom: 0px; font-size: 40px"";>&ensp;</p>","-","viewing","0","20","10C,13A,19C,21B","","","","","","","","","","","","","","","","","","","",""
"","","","","","html-slider-response","61","1031046","0.0-17.0-1.14","4b4fb6c0-3507-41fe-8d83-98d3a6c95618","2398","
                  <p style=""text-align: center;"">₪58
                                                <br>40%</p>
                  <p id=""wtp"" style=""text-align:center; margin-top: 0px; margin-bottom: 0px; font-size: 40px"";>מוכנים לשלם: <span id=""c_p_y""></span></p>","28","evaluation","9","20","10C,13A,19C,21B","40","58","28","","","","","","","","","","","","","","","","",""
"","","","","","html-keyboard-response","62","1031773","0.0-17.0-2.14","4b4fb6c0-3507-41fe-8d83-98d3a6c95618","null","<p style=""text-align: center;"">+</p>","null","fixation","","","","","","","","","","","","","","","","","","","","","","",""
"","","","","","html-slider-response","63","1032788","0.0-17.0-0.15","4b4fb6c0-3507-41fe-8d83-98d3a6c95618","1000","
                  <p style=""text-align: center;"">₪4
                                                <br>75%</p>
                  <p id=""wtp"" style=""text-align:center; margin-top: 0px; margin-bottom: 0px; font-size: 40px"";>&ensp;</p>","-","viewing","0","3","12B,20B,23B,27C,29C","","","","","","","","","","","","","","","","","","","",""
"","","","","","html-slider-response","64","1035934","0.0-17.0-1.15","4b4fb6c0-3507-41fe-8d83-98d3a6c95618","3145","
                  <p style=""text-align: center;"">₪4
                                                <br>75%</p>
                  <p id=""wtp"" style=""text-align:center; margin-top: 0px; margin-bottom: 0px; font-size: 40px"";>מוכנים לשלם: <span id=""c_p_y""></span></p>","6","evaluation","49","3","12B,20B,23B,27C,29C","75","4","7","","","","","","","","","","","","","","","","",""
"","","","","","html-keyboard-response","65","1036747","0.0-17.0-2.15","4b4fb6c0-3507-41fe-8d83-98d3a6c95618","null","<p style=""text-align: center;"">+</p>","null","fixation","","","","","","","","","","","","","","","","","","","","","","",""
"","","","","","html-slider-response","66","1037750","0.0-17.0-0.16","4b4fb6c0-3507-41fe-8d83-98d3a6c95618","1000","
                  <p style=""text-align: center;"">₪58
                                                <br>45%</p>
                  <p id=""wtp"" style=""text-align:center; margin-top: 0px; margin-bottom: 0px; font-size: 40px"";>&ensp;</p>","-","viewing","0","21","11C,18C,25A","","","","","","","","","","","","","","","","","","","",""
"","","","","","html-slider-response","67","1040646","0.0-17.0-1.16","4b4fb6c0-3507-41fe-8d83-98d3a6c95618","2894","
                  <p style=""text-align: center;"">₪58
                                                <br>45%</p>
                  <p id=""wtp"" style=""text-align:center; margin-top: 0px; margin-bottom: 0px; font-size: 40px"";>מוכנים לשלם: <span id=""c_p_y""></span></p>","42","evaluation","62","21","11C,18C,25A","45","58","42","","","","","","","","","","","","","","","","",""
"","","","","","html-keyboard-response","68","1042047","0.0-17.0-2.16","4b4fb6c0-3507-41fe-8d83-98d3a6c95618","null","<p style=""text-align: center;"">+</p>","null","fixation","","","","","","","","","","","","","","","","","","","","","","",""
"","","","","","html-slider-response","69","1043063","0.0-17.0-0.17","4b4fb6c0-3507-41fe-8d83-98d3a6c95618","1000","
                  <p style=""text-align: center;"">₪4
                                                <br>25%</p>
                  <p id=""wtp"" style=""text-align:center; margin-top: 0px; margin-bottom: 0px; font-size: 40px"";>&ensp;</p>","-","viewing","0","1","6C,29B,30C","","","","","","","","","","","","","","","","","","","",""
"","","","","","html-slider-response","70","1045006","0.0-17.0-1.17","4b4fb6c0-3507-41fe-8d83-98d3a6c95618","1941","
                  <p style=""text-align: center;"">₪4
                                                <br>25%</p>
                  <p id=""wtp"" style=""text-align:center; margin-top: 0px; margin-bottom: 0px; font-size: 40px"";>מוכנים לשלם: <span id=""c_p_y""></span></p>","3","evaluation","39","1","6C,29B,30C","25","4","3","","","","","","","","","","","","","","","","",""
"","","","","","html-keyboard-response","71","1046500","0.0-17.0-2.17","4b4fb6c0-3507-41fe-8d83-98d3a6c95618","null","<p style=""text-align: center;"">+</p>","null","fixation","","","","","","","","","","","","","","","","","","","","","","",""
"","","","","","html-slider-response","72","1047505","0.0-17.0-0.18","4b4fb6c0-3507-41fe-8d83-98d3a6c95618","1000","
                  <p style=""text-align: center;"">₪11
                                                <br>75%</p>
                  <p id=""wtp"" style=""text-align:center; margin-top: 0px; margin-bottom: 0px; font-size: 40px"";>&ensp;</p>","-","viewing","0","7","6B,18B,22C,24C,29A","","","","","","","","","","","","","","","","","","","",""
"","","","","","html-slider-response","73","1049022","0.0-17.0-1.18","4b4fb6c0-3507-41fe-8d83-98d3a6c95618","1516","
                  <p style=""text-align: center;"">₪11
                                                <br>75%</p>
                  <p id=""wtp"" style=""text-align:center; margin-top: 0px; margin-bottom: 0px; font-size: 40px"";>מוכנים לשלם: <span id=""c_p_y""></span></p>","5","evaluation","35","7","6B,18B,22C,24C,29A","75","11","6","","","","","","","","","","","","","","","","",""
"","","","","","html-keyboard-response","74","1050002","0.0-17.0-2.18","4b4fb6c0-3507-41fe-8d83-98d3a6c95618","null","<p style=""text-align: center;"">+</p>","null","fixation","","","","","","","","","","","","","","","","","","","","","","",""
"","","","","","html-slider-response","75","1051015","0.0-17.0-0.19","4b4fb6c0-3507-41fe-8d83-98d3a6c95618","1000","
                  <p style=""text-align: center;"">₪61
                                                <br>45%</p>
                  <p id=""wtp"" style=""text-align:center; margin-top: 0px; margin-bottom: 0px; font-size: 40px"";>&ensp;</p>","-","viewing","0","22","10A,11A","","","","","","","","","","","","","","","","","","","",""
"","","","","","html-slider-response","76","1053750","0.0-17.0-1.19","4b4fb6c0-3507-41fe-8d83-98d3a6c95618","2734","
                  <p style=""text-align: center;"">₪61
                                                <br>45%</p>
                  <p id=""wtp"" style=""text-align:center; margin-top: 0px; margin-bottom: 0px; font-size: 40px"";>מוכנים לשלם: <span id=""c_p_y""></span></p>","34","evaluation","3","22","10A,11A","45","61","34","","","","","","","","","","","","","","","","",""
"","","","","","html-keyboard-response","77","1055153","0.0-17.0-2.19","4b4fb6c0-3507-41fe-8d83-98d3a6c95618","null","<p style=""text-align: center;"">+</p>","null","fixation","","","","","","","","","","","","","","","","","","","","","","",""
"","","","","","html-slider-response","78","1056155","0.0-17.0-0.20","4b4fb6c0-3507-41fe-8d83-98d3a6c95618","1000","
                  <p style=""text-align: center;"">₪36
                                                <br>30%</p>
                  <p id=""wtp"" style=""text-align:center; margin-top: 0px; margin-bottom: 0px; font-size: 40px"";>&ensp;</p>","-","viewing","0","11","3C,20A,22A","","","","","","","","","","","","","","","","","","","",""
"","","","","","html-slider-response","79","1058694","0.0-17.0-1.20","4b4fb6c0-3507-41fe-8d83-98d3a6c95618","2537","
                  <p style=""text-align: center;"">₪36
                                                <br>30%</p>
                  <p id=""wtp"" style=""text-align:center; margin-top: 0px; margin-bottom: 0px; font-size: 40px"";>מוכנים לשלם: <span id=""c_p_y""></span></p>","20","evaluation","7","11","3C,20A,22A","30","36","20","","","","","","","","","","","","","","","","",""
"","","","","","html-keyboard-response","80","1059697","0.0-17.0-2.20","4b4fb6c0-3507-41fe-8d83-98d3a6c95618","null","<p style=""text-align: center;"">+</p>","null","fixation","","","","","","","","","","","","","","","","","","","","","","",""
"","","","","","html-slider-response","81","1060714","0.0-17.0-0.21","4b4fb6c0-3507-41fe-8d83-98d3a6c95618","1000","
                  <p style=""text-align: center;"">₪71
                                                <br>45%</p>
                  <p id=""wtp"" style=""text-align:center; margin-top: 0px; margin-bottom: 0px; font-size: 40px"";>&ensp;</p>","-","viewing","0","26","2B,16A","","","","","","","","","","","","","","","","","","","",""
"","","","","","html-slider-response","82","1062934","0.0-17.0-1.21","4b4fb6c0-3507-41fe-8d83-98d3a6c95618","2220","
                  <p style=""text-align: center;"">₪71
                                                <br>45%</p>
                  <p id=""wtp"" style=""text-align:center; margin-top: 0px; margin-bottom: 0px; font-size: 40px"";>מוכנים לשלם: <span id=""c_p_y""></span></p>","40","evaluation","69","26","2B,16A","45","71","40","","","","","","","","","","","","","","","","",""
"","","","","","html-keyboard-response","83","1064273","0.0-17.0-2.21","4b4fb6c0-3507-41fe-8d83-98d3a6c95618","null","<p style=""text-align: center;"">+</p>","null","fixation","","","","","","","","","","","","","","","","","","","","","","",""
"","","","","","html-slider-response","84","1065289","0.0-17.0-0.22","4b4fb6c0-3507-41fe-8d83-98d3a6c95618","1000","
                  <p style=""text-align: center;"">₪79
                                                <br>40%</p>
                  <p id=""wtp"" style=""text-align:center; margin-top: 0px; margin-bottom: 0px; font-size: 40px"";>&ensp;</p>","-","viewing","0","30","9B","","","","","","","","","","","","","","","","","","","",""
"","","","","","html-slider-response","85","1069222","0.0-17.0-1.22","4b4fb6c0-3507-41fe-8d83-98d3a6c95618","3931","
                  <p style=""text-align: center;"">₪79
                                                <br>40%</p>
                  <p id=""wtp"" style=""text-align:center; margin-top: 0px; margin-bottom: 0px; font-size: 40px"";>מוכנים לשלם: <span id=""c_p_y""></span></p>","32","evaluation","11","30","9B","40","79","32","","","","","","","","","","","","","","","","",""
"","","","","","html-keyboard-response","86","1069783","0.0-17.0-2.22","4b4fb6c0-3507-41fe-8d83-98d3a6c95618","null","<p style=""text-align: center;"">+</p>","null","fixation","","","","","","","","","","","","","","","","","","","","","","",""
"","","","","","html-slider-response","87","1070794","0.0-17.0-0.23","4b4fb6c0-3507-41fe-8d83-98d3a6c95618","1000","
                  <p style=""text-align: center;"">₪71
                                                <br>75%</p>
                  <p id=""wtp"" style=""text-align:center; margin-top: 0px; margin-bottom: 0px; font-size: 40px"";>&ensp;</p>","-","viewing","0","28","8B","","","","","","","","","","","","","","","","","","","",""
"","","","","","html-slider-response","88","1073934","0.0-17.0-1.23","4b4fb6c0-3507-41fe-8d83-98d3a6c95618","3139","
                  <p style=""text-align: center;"">₪71
                                                <br>75%</p>
                  <p id=""wtp"" style=""text-align:center; margin-top: 0px; margin-bottom: 0px; font-size: 40px"";>מוכנים לשלם: <span id=""c_p_y""></span></p>","54","evaluation","4","28","8B","75","71","54","","","","","","","","","","","","","","","","",""
"","","","","","html-keyboard-response","89","1074665","0.0-17.0-2.23","4b4fb6c0-3507-41fe-8d83-98d3a6c95618","null","<p style=""text-align: center;"">+</p>","null","fixation","","","","","","","","","","","","","","","","","","","","","","",""
"","","","","","html-slider-response","90","1075673","0.0-17.0-0.24","4b4fb6c0-3507-41fe-8d83-98d3a6c95618","1000","
                  <p style=""text-align: center;"">₪36
                                                <br>75%</p>
                  <p id=""wtp"" style=""text-align:center; margin-top: 0px; margin-bottom: 0px; font-size: 40px"";>&ensp;</p>","-","viewing","0","14","4B,5A,13B,16B","","","","","","","","","","","","","","","","","","","",""
"","","","","","html-slider-response","91","1079678","0.0-17.0-1.24","4b4fb6c0-3507-41fe-8d83-98d3a6c95618","null","
                  <p style=""text-align: center;"">₪36
                                                <br>75%</p>
                  <p id=""wtp"" style=""text-align:center; margin-top: 0px; margin-bottom: 0px; font-size: 40px"";>מוכנים לשלם: <span id=""c_p_y""></span></p>","null","evaluation","14","14","4B,5A,13B,16B","75","36","14","","","","","","","","","","","","","","","","",""
"","","","","","html-keyboard-response","92","1081027","0.0-17.0-2.24","4b4fb6c0-3507-41fe-8d83-98d3a6c95618","null","<p style=""text-align: center;"">+</p>","null","fixation","","","","","","","","","","","","","","","","","","","","","","",""
"","","","","","html-slider-response","93","1082034","0.0-17.0-0.25","4b4fb6c0-3507-41fe-8d83-98d3a6c95618","1000","
                  <p style=""text-align: center;"">₪39
                                                <br>65%</p>
                  <p id=""wtp"" style=""text-align:center; margin-top: 0px; margin-bottom: 0px; font-size: 40px"";>&ensp;</p>","-","viewing","0","16","1A,15A,26C","","","","","","","","","","","","","","","","","","","",""
"","","","","","html-slider-response","94","1083510","0.0-17.0-1.25","4b4fb6c0-3507-41fe-8d83-98d3a6c95618","1474","
                  <p style=""text-align: center;"">₪39
                                                <br>65%</p>
                  <p id=""wtp"" style=""text-align:center; margin-top: 0px; margin-bottom: 0px; font-size: 40px"";>מוכנים לשלם: <span id=""c_p_y""></span></p>","25","evaluation","19","16","1A,15A,26C","65","39","25","","","","","","","","","","","","","","","","",""
"","","","","","html-keyboard-response","95","1084447","0.0-17.0-2.25","4b4fb6c0-3507-41fe-8d83-98d3a6c95618","null","<p style=""text-align: center;"">+</p>","null","fixation","","","","","","","","","","","","","","","","","","","","","","",""
"","","","","","html-slider-response","96","1085460","0.0-17.0-0.26","4b4fb6c0-3507-41fe-8d83-98d3a6c95618","1000","
                  <p style=""text-align: center;"">₪43
                                                <br>75%</p>
                  <p id=""wtp"" style=""text-align:center; margin-top: 0px; margin-bottom: 0px; font-size: 40px"";>&ensp;</p>","-","viewing","0","18","11B,19B,24A,26A","","","","","","","","","","","","","","","","","","","",""
"","","","","","html-slider-response","97","1089462","0.0-17.0-1.26","4b4fb6c0-3507-41fe-8d83-98d3a6c95618","null","
                  <p style=""text-align: center;"">₪43
                                                <br>75%</p>
                  <p id=""wtp"" style=""text-align:center; margin-top: 0px; margin-bottom: 0px; font-size: 40px"";>מוכנים לשלם: <span id=""c_p_y""></span></p>","null","evaluation","71","18","11B,19B,24A,26A","75","43","28","","","","","","","","","","","","","","","","",""
"","","","","","html-keyboard-response","98","1089998","0.0-17.0-2.26","4b4fb6c0-3507-41fe-8d83-98d3a6c95618","null","<p style=""text-align: center;"">+</p>","null","fixation","","","","","","","","","","","","","","","","","","","","","","",""
"","","","","","html-slider-response","99","1091000","0.0-17.0-0.27","4b4fb6c0-3507-41fe-8d83-98d3a6c95618","1000","
                  <p style=""text-align: center;"">₪39
                                                <br>60%</p>
                  <p id=""wtp"" style=""text-align:center; margin-top: 0px; margin-bottom: 0px; font-size: 40px"";>&ensp;</p>","-","viewing","0","15","9C,25B","","","","","","","","","","","","","","","","","","","",""
"","","","","","html-slider-response","100","1093630","0.0-17.0-1.27","4b4fb6c0-3507-41fe-8d83-98d3a6c95618","2629","
                  <p style=""text-align: center;"">₪39
                                                <br>60%</p>
                  <p id=""wtp"" style=""text-align:center; margin-top: 0px; margin-bottom: 0px; font-size: 40px"";>מוכנים לשלם: <span id=""c_p_y""></span></p>","29","evaluation","80","15","9C,25B","60","39","29","","","","","","","","","","","","","","","","",""
"","","","","","html-keyboard-response","101","1094301","0.0-17.0-2.27","4b4fb6c0-3507-41fe-8d83-98d3a6c95618","null","<p style=""text-align: center;"">+</p>","null","fixation","","","","","","","","","","","","","","","","","","","","","","",""
"","","","","","html-slider-response","102","1095315","0.0-17.0-0.28","4b4fb6c0-3507-41fe-8d83-98d3a6c95618","1000","
                  <p style=""text-align: center;"">₪36
                                                <br>60%</p>
                  <p id=""wtp"" style=""text-align:center; margin-top: 0px; margin-bottom: 0px; font-size: 40px"";>&ensp;</p>","-","viewing","0","12","1C,7C,15C","","","","","","","","","","","","","","","","","","","",""
"","","","","","html-slider-response","103","1098158","0.0-17.0-1.28","4b4fb6c0-3507-41fe-8d83-98d3a6c95618","2842","
                  <p style=""text-align: center;"">₪36
                                                <br>60%</p>
                  <p id=""wtp"" style=""text-align:center; margin-top: 0px; margin-bottom: 0px; font-size: 40px"";>מוכנים לשלם: <span id=""c_p_y""></span></p>","17","evaluation","79","12","1C,7C,15C","60","36","17","","","","","","","","","","","","","","","","",""
"","","","","","html-keyboard-response","104","1098813","0.0-17.0-2.28","4b4fb6c0-3507-41fe-8d83-98d3a6c95618","null","<p style=""text-align: center;"">+</p>","null","fixation","","","","","","","","","","","","","","","","","","","","","","",""
"","","","","","html-slider-response","105","1099822","0.0-17.0-0.29","4b4fb6c0-3507-41fe-8d83-98d3a6c95618","1000","
                  <p style=""text-align: center;"">₪61
                                                <br>55%</p>
                  <p id=""wtp"" style=""text-align:center; margin-top: 0px; margin-bottom: 0px; font-size: 40px"";>&ensp;</p>","-","viewing","0","23","7B,26B","","","","","","","","","","","","","","","","","","","",""
"","","","","","html-slider-response","106","1102070","0.0-17.0-1.29","4b4fb6c0-3507-41fe-8d83-98d3a6c95618","2248","
                  <p style=""text-align: center;"">₪61
                                                <br>55%</p>
                  <p id=""wtp"" style=""text-align:center; margin-top: 0px; margin-bottom: 0px; font-size: 40px"";>מוכנים לשלם: <span id=""c_p_y""></span></p>","31","evaluation","49","23","7B,26B","55","61","31","","","","","","","","","","","","","","","","",""
"","","","","","html-keyboard-response","107","1103385","0.0-17.0-2.29","4b4fb6c0-3507-41fe-8d83-98d3a6c95618","null","<p style=""text-align: center;"">+</p>","null","fixation","","","","","","","","","","","","","","","","","","","","","","",""
"","","","","","html-slider-response","108","1104399","0.0-17.0-0.30","4b4fb6c0-3507-41fe-8d83-98d3a6c95618","1000","
                  <p style=""text-align: center;"">₪18
                                                <br>25%</p>
                  <p id=""wtp"" style=""text-align:center; margin-top: 0px; margin-bottom: 0px; font-size: 40px"";>&ensp;</p>","-","viewing","0","9","14A,23A","","","","","","","","","","","","","","","","","","","",""
"","","","","","html-slider-response","109","1105214","0.0-17.0-1.30","4b4fb6c0-3507-41fe-8d83-98d3a6c95618","815","
                  <p style=""text-align: center;"">₪18
                                                <br>25%</p>
                  <p id=""wtp"" style=""text-align:center; margin-top: 0px; margin-bottom: 0px; font-size: 40px"";>מוכנים לשלם: <span id=""c_p_y""></span></p>","11","evaluation","4","9","14A,23A","25","18","11","","","","","","","","","","","","","","","","",""
"","","","","","html-keyboard-response","110","1105895","0.0-17.0-2.30","4b4fb6c0-3507-41fe-8d83-98d3a6c95618","null","<p style=""text-align: center;"">+</p>","null","fixation","","","","","","","","","","","","","","","","","","","","","","",""
"","","","","","html-keyboard-response","111","1106904","0.0-18.0","4b4fb6c0-3507-41fe-8d83-98d3a6c95618","null","<p style=""text-align: center;"">+</p>","null","fixation","","","","","","","","","","","","","","","","","","","","","","",""
"","","","","","html-keyboard-response","112","1108534","0.0-19.0","4b4fb6c0-3507-41fe-8d83-98d3a6c95618","null","<p>הפסקה.
          <br>לחצו כדי להמשיך.</p>","1","scan_wait","","","","","","","","","","","","","","","","","","","","","","",""
"","","","","","html-keyboard-response","113","1109548","0.0-20.0","4b4fb6c0-3507-41fe-8d83-98d3a6c95618","null","<p style=""text-align: center;"">+</p>","null","fixation","","","","","","","","","","","","","","","","","","","","","","",""
"","","","","","html-slider-response","114","1110551","0.0-21.0-0.0","4b4fb6c0-3507-41fe-8d83-98d3a6c95618","1000","
                  <p style=""text-align: center;"">₪39
                                                <br>60%</p>
                  <p id=""wtp"" style=""text-align:center; margin-top: 0px; margin-bottom: 0px; font-size: 40px"";>&ensp;</p>","-","viewing","0","15","9C,25B","","","","","","","","","","","","","","","","","","","",""
"","","","","","html-slider-response","115","1111638","0.0-21.0-1.0","4b4fb6c0-3507-41fe-8d83-98d3a6c95618","1086","
                  <p style=""text-align: center;"">₪39
                                                <br>60%</p>
                  <p id=""wtp"" style=""text-align:center; margin-top: 0px; margin-bottom: 0px; font-size: 40px"";>מוכנים לשלם: <span id=""c_p_y""></span></p>","16","evaluation","5","15","9C,25B","60","39","16","","","","","","","","","","","","","","","","",""
"","","","","","html-keyboard-response","116","1112804","0.0-21.0-2.0","4b4fb6c0-3507-41fe-8d83-98d3a6c95618","null","<p style=""text-align: center;"">+</p>","null","fixation","","","","","","","","","","","","","","","","","","","","","","",""
"","","","","","html-slider-response","117","1113820","0.0-21.0-0.1","4b4fb6c0-3507-41fe-8d83-98d3a6c95618","1000","
                  <p style=""text-align: center;"">₪11
                                                <br>45%</p>
                  <p id=""wtp"" style=""text-align:center; margin-top: 0px; margin-bottom: 0px; font-size: 40px"";>&ensp;</p>","-","viewing","0","6","14B,21C,25C","","","","","","","","","","","","","","","","","","","",""
"","","","","","html-slider-response","118","1115878","0.0-21.0-1.1","4b4fb6c0-3507-41fe-8d83-98d3a6c95618","2057","
                  <p style=""text-align: center;"">₪11
                                                <br>45%</p>
                  <p id=""wtp"" style=""text-align:center; margin-top: 0px; margin-bottom: 0px; font-size: 40px"";>מוכנים לשלם: <span id=""c_p_y""></span></p>","12","evaluation","65","6","14B,21C,25C","45","11","12","","","","","","","","","","","","","","","","",""
"","","","","","html-keyboard-response","119","1116564","0.0-21.0-2.1","4b4fb6c0-3507-41fe-8d83-98d3a6c95618","null","<p style=""text-align: center;"">+</p>","null","fixation","","","","","","","","","","","","","","","","","","","","","","",""
"","","","","","html-slider-response","120","1117576","0.0-21.0-0.2","4b4fb6c0-3507-41fe-8d83-98d3a6c95618","1000","
                  <p style=""text-align: center;"">₪43
                                                <br>60%</p>
                  <p id=""wtp"" style=""text-align:center; margin-top: 0px; margin-bottom: 0px; font-size: 40px"";>&ensp;</p>","-","viewing","0","17","2A,7A,9A,15B","","","","","","","","","","","","","","","","","","","",""
"","","","","","html-slider-response","121","1121590","0.0-21.0-1.2","4b4fb6c0-3507-41fe-8d83-98d3a6c95618","null","
                  <p style=""text-align: center;"">₪43
                                                <br>60%</p>
                  <p id=""wtp"" style=""text-align:center; margin-top: 0px; margin-bottom: 0px; font-size: 40px"";>מוכנים לשלם: <span id=""c_p_y""></span></p>","null","evaluation","43","17","2A,7A,9A,15B","60","43","13","","","","","","","","","","","","","","","","",""
"","","","","","html-keyboard-response","122","1122482","0.0-21.0-2.2","4b4fb6c0-3507-41fe-8d83-98d3a6c95618","null","<p style=""text-align: center;"">+</p>","null","fixation","","","","","","","","","","","","","","","","","","","","","","",""
"","","","","","html-slider-response","123","1123486","0.0-21.0-0.3","4b4fb6c0-3507-41fe-8d83-98d3a6c95618","1000","
                  <p style=""text-align: center;"">₪4
                                                <br>75%</p>
                  <p id=""wtp"" style=""text-align:center; margin-top: 0px; margin-bottom: 0px; font-size: 40px"";>&ensp;</p>","-","viewing","0","3","12B,20B,23B,27C,29C","","","","","","","","","","","","","","","","","","","",""
"","","","","","html-slider-response","124","1124614","0.0-21.0-1.3","4b4fb6c0-3507-41fe-8d83-98d3a6c95618","1128","
                  <p style=""text-align: center;"">₪4
                                                <br>75%</p>
                  <p id=""wtp"" style=""text-align:center; margin-top: 0px; margin-bottom: 0px; font-size: 40px"";>מוכנים לשלם: <span id=""c_p_y""></span></p>","4","evaluation","31","3","12B,20B,23B,27C,29C","75","4","4","","","","","","","","","","","","","","","","",""
"","","","","","html-keyboard-response","125","1126026","0.0-21.0-2.3","4b4fb6c0-3507-41fe-8d83-98d3a6c95618","null","<p style=""text-align: center;"">+</p>","null","fixation","","","","","","","","","","","","","","","","","","","","","","",""
"","","","","","html-slider-response","126","1127031","0.0-21.0-0.4","4b4fb6c0-3507-41fe-8d83-98d3a6c95618","1000","
                  <p style=""text-align: center;"">₪18
                                                <br>25%</p>
                  <p id=""wtp"" style=""text-align:center; margin-top: 0px; margin-bottom: 0px; font-size: 40px"";>&ensp;</p>","-","viewing","0","9","14A,23A","","","","","","","","","","","","","","","","","","","",""
"","","","","","html-slider-response","127","1128398","0.0-21.0-1.4","4b4fb6c0-3507-41fe-8d83-98d3a6c95618","1366","
                  <p style=""text-align: center;"">₪18
                                                <br>25%</p>
                  <p id=""wtp"" style=""text-align:center; margin-top: 0px; margin-bottom: 0px; font-size: 40px"";>מוכנים לשלם: <span id=""c_p_y""></span></p>","3","evaluation","22","9","14A,23A","25","18","4","","","","","","","","","","","","","","","","",""
"","","","","","html-keyboard-response","128","1129701","0.0-21.0-2.4","4b4fb6c0-3507-41fe-8d83-98d3a6c95618","null","<p style=""text-align: center;"">+</p>","null","fixation","","","","","","","","","","","","","","","","","","","","","","",""
"","","","","","html-slider-response","129","1130718","0.0-21.0-0.5","4b4fb6c0-3507-41fe-8d83-98d3a6c95618","1000","
                  <p style=""text-align: center;"">₪71
                                                <br>75%</p>
                  <p id=""wtp"" style=""text-align:center; margin-top: 0px; margin-bottom: 0px; font-size: 40px"";>&ensp;</p>","-","viewing","0","28","8B","","","","","","","","","","","","","","","","","","","",""
"","","","","","html-slider-response","130","1131686","0.0-21.0-1.5","4b4fb6c0-3507-41fe-8d83-98d3a6c95618","967","
                  <p style=""text-align: center;"">₪71
                                                <br>75%</p>
                  <p id=""wtp"" style=""text-align:center; margin-top: 0px; margin-bottom: 0px; font-size: 40px"";>מוכנים לשלם: <span id=""c_p_y""></span></p>","42","evaluation","68","28","8B","75","71","42","","","","","","","","","","","","","","","","",""
"","","","","","html-keyboard-response","131","1132828","0.0-21.0-2.5","4b4fb6c0-3507-41fe-8d83-98d3a6c95618","null","<p style=""text-align: center;"">+</p>","null","fixation","","","","","","","","","","","","","","","","","","","","","","",""
"","","","","","html-slider-response","132","1133837","0.0-21.0-0.6","4b4fb6c0-3507-41fe-8d83-98d3a6c95618","1000","
                  <p style=""text-align: center;"">₪4
                                                <br>25%</p>
                  <p id=""wtp"" style=""text-align:center; margin-top: 0px; margin-bottom: 0px; font-size: 40px"";>&ensp;</p>","-","viewing","0","1","6C,29B,30C","","","","","","","","","","","","","","","","","","","",""
"","","","","","html-slider-response","133","1134966","0.0-21.0-1.6","4b4fb6c0-3507-41fe-8d83-98d3a6c95618","1128","
                  <p style=""text-align: center;"">₪4
                                                <br>25%</p>
                  <p id=""wtp"" style=""text-align:center; margin-top: 0px; margin-bottom: 0px; font-size: 40px"";>מוכנים לשלם: <span id=""c_p_y""></span></p>","3","evaluation","61","1","6C,29B,30C","25","4","4","","","","","","","","","","","","","","","","",""
"","","","","","html-keyboard-response","134","1135586","0.0-21.0-2.6","4b4fb6c0-3507-41fe-8d83-98d3a6c95618","null","<p style=""text-align: center;"">+</p>","null","fixation","","","","","","","","","","","","","","","","","","","","","","",""
"","","","","","html-slider-response","135","1136591","0.0-21.0-0.7","4b4fb6c0-3507-41fe-8d83-98d3a6c95618","1000","
                  <p style=""text-align: center;"">₪18
                                                <br>50%</p>
                  <p id=""wtp"" style=""text-align:center; margin-top: 0px; margin-bottom: 0px; font-size: 40px"";>&ensp;</p>","-","viewing","0","10","2C,16C,22B,28A","","","","","","","","","","","","","","","","","","","",""
"","","","","","html-slider-response","136","1137862","0.0-21.0-1.7","4b4fb6c0-3507-41fe-8d83-98d3a6c95618","1270","
                  <p style=""text-align: center;"">₪18
                                                <br>50%</p>
                  <p id=""wtp"" style=""text-align:center; margin-top: 0px; margin-bottom: 0px; font-size: 40px"";>מוכנים לשלם: <span id=""c_p_y""></span></p>","18","evaluation","53","10","2C,16C,22B,28A","50","18","18","","","","","","","","","","","","","","","","",""
"","","","","","html-keyboard-response","137","1138458","0.0-21.0-2.7","4b4fb6c0-3507-41fe-8d83-98d3a6c95618","null","<p style=""text-align: center;"">+</p>","null","fixation","","","","","","","","","","","","","","","","","","","","","","",""
"","","","","","html-slider-response","138","1139460","0.0-21.0-0.8","4b4fb6c0-3507-41fe-8d83-98d3a6c95618","1000","
                  <p style=""text-align: center;"">₪79
                                                <br>40%</p>
                  <p id=""wtp"" style=""text-align:center; margin-top: 0px; margin-bottom: 0px; font-size: 40px"";>&ensp;</p>","-","viewing","0","30","9B","","","","","","","","","","","","","","","","","","","",""
"","","","","","html-slider-response","139","1142590","0.0-21.0-1.8","4b4fb6c0-3507-41fe-8d83-98d3a6c95618","3129","
                  <p style=""text-align: center;"">₪79
                                                <br>40%</p>
                  <p id=""wtp"" style=""text-align:center; margin-top: 0px; margin-bottom: 0px; font-size: 40px"";>מוכנים לשלם: <span id=""c_p_y""></span></p>","37","evaluation","11","30","9B","40","79","37","","","","","","","","","","","","","","","","",""
"","","","","","html-keyboard-response","140","1143211","0.0-21.0-2.8","4b4fb6c0-3507-41fe-8d83-98d3a6c95618","null","<p style=""text-align: center;"">+</p>","null","fixation","","","","","","","","","","","","","","","","","","","","","","",""
"","","","","","html-slider-response","141","1144217","0.0-21.0-0.9","4b4fb6c0-3507-41fe-8d83-98d3a6c95618","1000","
                  <p style=""text-align: center;"">₪39
                                                <br>65%</p>
                  <p id=""wtp"" style=""text-align:center; margin-top: 0px; margin-bottom: 0px; font-size: 40px"";>&ensp;</p>","-","viewing","0","16","1A,15A,26C","","","","","","","","","","","","","","","","","","","",""
"","","","","","html-slider-response","142","1147038","0.0-21.0-1.9","4b4fb6c0-3507-41fe-8d83-98d3a6c95618","2820","
                  <p style=""text-align: center;"">₪39
                                                <br>65%</p>
                  <p id=""wtp"" style=""text-align:center; margin-top: 0px; margin-bottom: 0px; font-size: 40px"";>מוכנים לשלם: <span id=""c_p_y""></span></p>","42","evaluation","40","16","1A,15A,26C","65","39","42","","","","","","","","","","","","","","","","",""
"","","","","","html-keyboard-response","143","1147728","0.0-21.0-2.9","4b4fb6c0-3507-41fe-8d83-98d3a6c95618","null","<p style=""text-align: center;"">+</p>","null","fixation","","","","","","","","","","","","","","","","","","","","","","",""
"","","","","","html-slider-response","144","1148734","0.0-21.0-0.10","4b4fb6c0-3507-41fe-8d83-98d3a6c95618","1000","
                  <p style=""text-align: center;"">₪11
                                                <br>75%</p>
                  <p id=""wtp"" style=""text-align:center; margin-top: 0px; margin-bottom: 0px; font-size: 40px"";>&ensp;</p>","-","viewing","0","7","6B,18B,22C,24C,29A","","","","","","","","","","","","","","","","","","","",""
"","","","","","html-slider-response","145","1152270","0.0-21.0-1.10","4b4fb6c0-3507-41fe-8d83-98d3a6c95618","3534","
                  <p style=""text-align: center;"">₪11
                                                <br>75%</p>
                  <p id=""wtp"" style=""text-align:center; margin-top: 0px; margin-bottom: 0px; font-size: 40px"";>מוכנים לשלם: <span id=""c_p_y""></span></p>","12","evaluation","37","7","6B,18B,22C,24C,29A","75","11","13","","","","","","","","","","","","","","","","",""
"","","","","","html-keyboard-response","146","1153527","0.0-21.0-2.10","4b4fb6c0-3507-41fe-8d83-98d3a6c95618","null","<p style=""text-align: center;"">+</p>","null","fixation","","","","","","","","","","","","","","","","","","","","","","",""
"","","","","","html-slider-response","147","1154532","0.0-21.0-0.11","4b4fb6c0-3507-41fe-8d83-98d3a6c95618","1000","
                  <p style=""text-align: center;"">₪4
                                                <br>50%</p>
                  <p id=""wtp"" style=""text-align:center; margin-top: 0px; margin-bottom: 0px; font-size: 40px"";>&ensp;</p>","-","viewing","0","2","4C,17B","","","","","","","","","","","","","","","","","","","",""
"","","","","","html-slider-response","148","1156646","0.0-21.0-1.11","4b4fb6c0-3507-41fe-8d83-98d3a6c95618","2112","
                  <p style=""text-align: center;"">₪4
                                                <br>50%</p>
                  <p id=""wtp"" style=""text-align:center; margin-top: 0px; margin-bottom: 0px; font-size: 40px"";>מוכנים לשלם: <span id=""c_p_y""></span></p>","6","evaluation","59","2","4C,17B","50","4","6","","","","","","","","","","","","","","","","",""
"","","","","","html-keyboard-response","149","1157391","0.0-21.0-2.11","4b4fb6c0-3507-41fe-8d83-98d3a6c95618","null","<p style=""text-align: center;"">+</p>","null","fixation","","","","","","","","","","","","","","","","","","","","","","",""
"","","","","","html-slider-response","150","1158406","0.0-21.0-0.12","4b4fb6c0-3507-41fe-8d83-98d3a6c95618","1000","
                  <p style=""text-align: center;"">₪61
                                                <br>45%</p>
                  <p id=""wtp"" style=""text-align:center; margin-top: 0px; margin-bottom: 0px; font-size: 40px"";>&ensp;</p>","-","viewing","0","22","10A,11A","","","","","","","","","","","","","","","","","","","",""
"","","","","","html-slider-response","151","1160814","0.0-21.0-1.12","4b4fb6c0-3507-41fe-8d83-98d3a6c95618","2407","
                  <p style=""text-align: center;"">₪61
                                                <br>45%</p>
                  <p id=""wtp"" style=""text-align:center; margin-top: 0px; margin-bottom: 0px; font-size: 40px"";>מוכנים לשלם: <span id=""c_p_y""></span></p>","33","evaluation","0","22","10A,11A","45","61","33","","","","","","","","","","","","","","","","",""
"","","","","","html-keyboard-response","152","1161897","0.0-21.0-2.12","4b4fb6c0-3507-41fe-8d83-98d3a6c95618","null","<p style=""text-align: center;"">+</p>","null","fixation","","","","","","","","","","","","","","","","","","","","","","",""
"","","","","","html-slider-response","153","1162913","0.0-21.0-0.13","4b4fb6c0-3507-41fe-8d83-98d3a6c95618","1000","
                  <p style=""text-align: center;"">₪58
                                                <br>30%</p>
                  <p id=""wtp"" style=""text-align:center; margin-top: 0px; margin-bottom: 0px; font-size: 40px"";>&ensp;</p>","-","viewing","0","19","13C,30A","","","","","","","","","","","","","","","","","","","",""
"","","","","","html-slider-response","154","1165150","0.0-21.0-1.13","4b4fb6c0-3507-41fe-8d83-98d3a6c95618","2236","
                  <p style=""text-align: center;"">₪58
                                                <br>30%</p>
                  <p id=""wtp"" style=""text-align:center; margin-top: 0px; margin-bottom: 0px; font-size: 40px"";>מוכנים לשלם: <span id=""c_p_y""></span></p>","21","evaluation","25","19","13C,30A","30","58","21","","","","","","","","","","","","","","","","",""
"","","","","","html-keyboard-response","155","1165907","0.0-21.0-2.13","4b4fb6c0-3507-41fe-8d83-98d3a6c95618","null","<p style=""text-align: center;"">+</p>","null","fixation","","","","","","","","","","","","","","","","","","","","","","",""
"","","","","","html-slider-response","156","1166925","0.0-21.0-0.14","4b4fb6c0-3507-41fe-8d83-98d3a6c95618","1000","
                  <p style=""text-align: center;"">₪71
                                                <br>55%</p>
                  <p id=""wtp"" style=""text-align:center; margin-top: 0px; margin-bottom: 0px; font-size: 40px"";>&ensp;</p>","-","viewing","0","27","5B,18A","","","","","","","","","","","","","","","","","","","",""
"","","","","","html-slider-response","157","1169486","0.0-21.0-1.14","4b4fb6c0-3507-41fe-8d83-98d3a6c95618","2560","
                  <p style=""text-align: center;"">₪71
                                                <br>55%</p>
                  <p id=""wtp"" style=""text-align:center; margin-top: 0px; margin-bottom: 0px; font-size: 40px"";>מוכנים לשלם: <span id=""c_p_y""></span></p>","43","evaluation","76","27","5B,18A","55","71","43","","","","","","","","","","","","","","","","",""
"","","","","","html-keyboard-response","158","1170386","0.0-21.0-2.14","4b4fb6c0-3507-41fe-8d83-98d3a6c95618","null","<p style=""text-align: center;"">+</p>","null","fixation","","","","","","","","","","","","","","","","","","","","","","",""
"","","","","","html-slider-response","159","1171396","0.0-21.0-0.15","4b4fb6c0-3507-41fe-8d83-98d3a6c95618","1000","
                  <p style=""text-align: center;"">₪64
                                                <br>25%</p>
                  <p id=""wtp"" style=""text-align:center; margin-top: 0px; margin-bottom: 0px; font-size: 40px"";>&ensp;</p>","-","viewing","0","24","6A,21A","","","","","","","","","","","","","","","","","","","",""
"","","","","","html-slider-response","160","1174949","0.0-21.0-1.15","4b4fb6c0-3507-41fe-8d83-98d3a6c95618","3552","
                  <p style=""text-align: center;"">₪64
                                                <br>25%</p>
                  <p id=""wtp"" style=""text-align:center; margin-top: 0px; margin-bottom: 0px; font-size: 40px"";>מוכנים לשלם: <span id=""c_p_y""></span></p>","18","evaluation","6","24","6A,21A","25","64","18","","","","","","","","","","","","","","","","",""
"","","","","","html-keyboard-response","161","1175793","0.0-21.0-2.15","4b4fb6c0-3507-41fe-8d83-98d3a6c95618","null","<p style=""text-align: center;"">+</p>","null","fixation","","","","","","","","","","","","","","","","","","","","","","",""
"","","","","","html-slider-response","162","1176802","0.0-21.0-0.16","4b4fb6c0-3507-41fe-8d83-98d3a6c95618","1000","
                  <p style=""text-align: center;"">₪64
                                                <br>50%</p>
                  <p id=""wtp"" style=""text-align:center; margin-top: 0px; margin-bottom: 0px; font-size: 40px"";>&ensp;</p>","-","viewing","0","25","1B,3B,4A","","","","","","","","","","","","","","","","","","","",""
"","","","","","html-slider-response","163","1178670","0.0-21.0-1.16","4b4fb6c0-3507-41fe-8d83-98d3a6c95618","1867","
                  <p style=""text-align: center;"">₪64
                                                <br>50%</p>
                  <p id=""wtp"" style=""text-align:center; margin-top: 0px; margin-bottom: 0px; font-size: 40px"";>מוכנים לשלם: <span id=""c_p_y""></span></p>","30","evaluation","22","25","1B,3B,4A","50","64","30","","","","","","","","","","","","","","","","",""
"","","","","","html-keyboard-response","164","1180077","0.0-21.0-2.16","4b4fb6c0-3507-41fe-8d83-98d3a6c95618","null","<p style=""text-align: center;"">+</p>","null","fixation","","","","","","","","","","","","","","","","","","","","","","",""
"","","","","","html-slider-response","165","1181078","0.0-21.0-0.17","4b4fb6c0-3507-41fe-8d83-98d3a6c95618","1000","
                  <p style=""text-align: center;"">₪61
                                                <br>55%</p>
                  <p id=""wtp"" style=""text-align:center; margin-top: 0px; margin-bottom: 0px; font-size: 40px"";>&ensp;</p>","-","viewing","0","23","7B,26B","","","","","","","","","","","","","","","","","","","",""
"","","","","","html-slider-response","166","1185087","0.0-21.0-1.17","4b4fb6c0-3507-41fe-8d83-98d3a6c95618","null","
                  <p style=""text-align: center;"">₪61
                                                <br>55%</p>
                  <p id=""wtp"" style=""text-align:center; margin-top: 0px; margin-bottom: 0px; font-size: 40px"";>מוכנים לשלם: <span id=""c_p_y""></span></p>","null","evaluation","0","23","7B,26B","55","61","25","","","","","","","","","","","","","","","","",""
"","","","","","html-keyboard-response","167","1186169","0.0-21.0-2.17","4b4fb6c0-3507-41fe-8d83-98d3a6c95618","null","<p style=""text-align: center;"">+</p>","null","fixation","","","","","","","","","","","","","","","","","","","","","","",""
"","","","","","html-slider-response","168","1187179","0.0-21.0-0.18","4b4fb6c0-3507-41fe-8d83-98d3a6c95618","1000","
                  <p style=""text-align: center;"">₪36
                                                <br>70%</p>
                  <p id=""wtp"" style=""text-align:center; margin-top: 0px; margin-bottom: 0px; font-size: 40px"";>&ensp;</p>","-","viewing","0","13","3A,5C,10B","","","","","","","","","","","","","","","","","","","",""
"","","","","","html-slider-response","169","1189286","0.0-21.0-1.18","4b4fb6c0-3507-41fe-8d83-98d3a6c95618","2106","
                  <p style=""text-align: center;"">₪36
                                                <br>70%</p>
                  <p id=""wtp"" style=""text-align:center; margin-top: 0px; margin-bottom: 0px; font-size: 40px"";>מוכנים לשלם: <span id=""c_p_y""></span></p>","22","evaluation","2","13","3A,5C,10B","70","36","22","","","","","","","","","","","","","","","","",""
"","","","","","html-keyboard-response","170","1189851","0.0-21.0-2.18","4b4fb6c0-3507-41fe-8d83-98d3a6c95618","null","<p style=""text-align: center;"">+</p>","null","fixation","","","","","","","","","","","","","","","","","","","","","","",""
"","","","","","html-slider-response","171","1190861","0.0-21.0-0.19","4b4fb6c0-3507-41fe-8d83-98d3a6c95618","1000","
                  <p style=""text-align: center;"">₪58
                                                <br>45%</p>
                  <p id=""wtp"" style=""text-align:center; margin-top: 0px; margin-bottom: 0px; font-size: 40px"";>&ensp;</p>","-","viewing","0","21","11C,18C,25A","","","","","","","","","","","","","","","","","","","",""
"","","","","","html-slider-response","172","1192950","0.0-21.0-1.19","4b4fb6c0-3507-41fe-8d83-98d3a6c95618","2088","
                  <p style=""text-align: center;"">₪58
                                                <br>45%</p>
                  <p id=""wtp"" style=""text-align:center; margin-top: 0px; margin-bottom: 0px; font-size: 40px"";>מוכנים לשלם: <span id=""c_p_y""></span></p>","16","evaluation","19","21","11C,18C,25A","45","58","16","","","","","","","","","","","","","","","","",""
"","","","","","html-keyboard-response","173","1193564","0.0-21.0-2.19","4b4fb6c0-3507-41fe-8d83-98d3a6c95618","null","<p style=""text-align: center;"">+</p>","null","fixation","","","","","","","","","","","","","","","","","","","","","","",""
"","","","","","html-slider-response","174","1194567","0.0-21.0-0.20","4b4fb6c0-3507-41fe-8d83-98d3a6c95618","1000","
                  <p style=""text-align: center;"">₪79
                                                <br>65%</p>
                  <p id=""wtp"" style=""text-align:center; margin-top: 0px; margin-bottom: 0px; font-size: 40px"";>&ensp;</p>","-","viewing","0","31","8A","","","","","","","","","","","","","","","","","","","",""
"","","","","","html-slider-response","175","1195758","0.0-21.0-1.20","4b4fb6c0-3507-41fe-8d83-98d3a6c95618","1190","
                  <p style=""text-align: center;"">₪79
                                                <br>65%</p>
                  <p id=""wtp"" style=""text-align:center; margin-top: 0px; margin-bottom: 0px; font-size: 40px"";>מוכנים לשלם: <span id=""c_p_y""></span></p>","42","evaluation","19","31","8A","65","79","42","","","","","","","","","","","","","","","","",""
"","","","","","html-keyboard-response","176","1196965","0.0-21.0-2.20","4b4fb6c0-3507-41fe-8d83-98d3a6c95618","null","<p style=""text-align: center;"">+</p>","null","fixation","","","","","","","","","","","","","","","","","","","","","","",""
"","","","","","html-slider-response","177","1197969","0.0-21.0-0.21","4b4fb6c0-3507-41fe-8d83-98d3a6c95618","1000","
                  <p style=""text-align: center;"">₪36
                                                <br>75%</p>
                  <p id=""wtp"" style=""text-align:center; margin-top: 0px; margin-bottom: 0px; font-size: 40px"";>&ensp;</p>","-","viewing","0","14","4B,5A,13B,16B","","","","","","","","","","","","","","","","","","","",""
"","","","","","html-slider-response","178","1200774","0.0-21.0-1.21","4b4fb6c0-3507-41fe-8d83-98d3a6c95618","2804","
                  <p style=""text-align: center;"">₪36
                                                <br>75%</p>
                  <p id=""wtp"" style=""text-align:center; margin-top: 0px; margin-bottom: 0px; font-size: 40px"";>מוכנים לשלם: <span id=""c_p_y""></span></p>","25","evaluation","55","14","4B,5A,13B,16B","75","36","25","","","","","","","","","","","","","","","","",""
"","","","","","html-keyboard-response","179","1201523","0.0-21.0-2.21","4b4fb6c0-3507-41fe-8d83-98d3a6c95618","null","<p style=""text-align: center;"">+</p>","null","fixation","","","","","","","","","","","","","","","","","","","","","","",""
"","","","","","html-slider-response","180","1202541","0.0-21.0-0.22","4b4fb6c0-3507-41fe-8d83-98d3a6c95618","1000","
                  <p style=""text-align: center;"">₪43
                                                <br>75%</p>
                  <p id=""wtp"" style=""text-align:center; margin-top: 0px; margin-bottom: 0px; font-size: 40px"";>&ensp;</p>","-","viewing","0","18","11B,19B,24A,26A","","","","","","","","","","","","","","","","","","","",""
"","","","","","html-slider-response","181","1203382","0.0-21.0-1.22","4b4fb6c0-3507-41fe-8d83-98d3a6c95618","840","
                  <p style=""text-align: center;"">₪43
                                                <br>75%</p>
                  <p id=""wtp"" style=""text-align:center; margin-top: 0px; margin-bottom: 0px; font-size: 40px"";>מוכנים לשלם: <span id=""c_p_y""></span></p>","18","evaluation","10","18","11B,19B,24A,26A","75","43","19","","","","","","","","","","","","","","","","",""
"","","","","","html-keyboard-response","182","1204762","0.0-21.0-2.22","4b4fb6c0-3507-41fe-8d83-98d3a6c95618","null","<p style=""text-align: center;"">+</p>","null","fixation","","","","","","","","","","","","","","","","","","","","","","",""
"","","","","","html-slider-response","183","1205773","0.0-21.0-0.23","4b4fb6c0-3507-41fe-8d83-98d3a6c95618","1000","
                  <p style=""text-align: center;"">₪16
                                                <br>20%</p>
                  <p id=""wtp"" style=""text-align:center; margin-top: 0px; margin-bottom: 0px; font-size: 40px"";>&ensp;</p>","-","viewing","0","8","14C,17A,20C,27A","","","","","","","","","","","","","","","","","","","",""
"","","","","","html-slider-response","184","1207662","0.0-21.0-1.23","4b4fb6c0-3507-41fe-8d83-98d3a6c95618","1887","
                  <p style=""text-align: center;"">₪16
                                                <br>20%</p>
                  <p id=""wtp"" style=""text-align:center; margin-top: 0px; margin-bottom: 0px; font-size: 40px"";>מוכנים לשלם: <span id=""c_p_y""></span></p>","7","evaluation","17","8","14C,17A,20C,27A","20","16","7","","","","","","","","","","","","","","","","",""
"","","","","","html-keyboard-response","185","1209063","0.0-21.0-2.23","4b4fb6c0-3507-41fe-8d83-98d3a6c95618","null","<p style=""text-align: center;"">+</p>","null","fixation","","","","","","","","","","","","","","","","","","","","","","",""
"","","","","","html-slider-response","186","1210068","0.0-21.0-0.24","4b4fb6c0-3507-41fe-8d83-98d3a6c95618","1000","
                  <p style=""text-align: center;"">₪11
                                                <br>25%</p>
                  <p id=""wtp"" style=""text-align:center; margin-top: 0px; margin-bottom: 0px; font-size: 40px"";>&ensp;</p>","-","viewing","0","5","12A,27B,28B,30B","","","","","","","","","","","","","","","","","","","",""
"","","","","","html-slider-response","187","1211958","0.0-21.0-1.24","4b4fb6c0-3507-41fe-8d83-98d3a6c95618","1888","
                  <p style=""text-align: center;"">₪11
                                                <br>25%</p>
                  <p id=""wtp"" style=""text-align:center; margin-top: 0px; margin-bottom: 0px; font-size: 40px"";>מוכנים לשלם: <span id=""c_p_y""></span></p>","10","evaluation","29","5","12A,27B,28B,30B","25","11","10","","","","","","","","","","","","","","","","",""
"","","","","","html-keyboard-response","188","1212783","0.0-21.0-2.24","4b4fb6c0-3507-41fe-8d83-98d3a6c95618","null","<p style=""text-align: center;"">+</p>","null","fixation","","","","","","","","","","","","","","","","","","","","","","",""
"","","","","","html-slider-response","189","1213785","0.0-21.0-0.25","4b4fb6c0-3507-41fe-8d83-98d3a6c95618","1000","
                  <p style=""text-align: center;"">₪76
                                                <br>65%</p>
                  <p id=""wtp"" style=""text-align:center; margin-top: 0px; margin-bottom: 0px; font-size: 40px"";>&ensp;</p>","-","viewing","0","29","8C,19A,24B","","","","","","","","","","","","","","","","","","","",""
"","","","","","html-slider-response","190","1215158","0.0-21.0-1.25","4b4fb6c0-3507-41fe-8d83-98d3a6c95618","1372","
                  <p style=""text-align: center;"">₪76
                                                <br>65%</p>
                  <p id=""wtp"" style=""text-align:center; margin-top: 0px; margin-bottom: 0px; font-size: 40px"";>מוכנים לשלם: <span id=""c_p_y""></span></p>","50","evaluation","38","29","8C,19A,24B","65","76","50","","","","","","","","","","","","","","","","",""
"","","","","","html-keyboard-response","191","1216146","0.0-21.0-2.25","4b4fb6c0-3507-41fe-8d83-98d3a6c95618","null","<p style=""text-align: center;"">+</p>","null","fixation","","","","","","","","","","","","","","","","","","","","","","",""
"","","","","","html-slider-response","192","1217158","0.0-21.0-0.26","4b4fb6c0-3507-41fe-8d83-98d3a6c95618","1000","
                  <p style=""text-align: center;"">₪71
                                                <br>45%</p>
                  <p id=""wtp"" style=""text-align:center; margin-top: 0px; margin-bottom: 0px; font-size: 40px"";>&ensp;</p>","-","viewing","0","26","2B,16A","","","","","","","","","","","","","","","","","","","",""
"","","","","","html-slider-response","193","1218918","0.0-21.0-1.26","4b4fb6c0-3507-41fe-8d83-98d3a6c95618","1759","
                  <p style=""text-align: center;"">₪71
                                                <br>45%</p>
                  <p id=""wtp"" style=""text-align:center; margin-top: 0px; margin-bottom: 0px; font-size: 40px"";>מוכנים לשלם: <span id=""c_p_y""></span></p>","42","evaluation","61","26","2B,16A","45","71","42","","","","","","","","","","","","","","","","",""
"","","","","","html-keyboard-response","194","1219699","0.0-21.0-2.26","4b4fb6c0-3507-41fe-8d83-98d3a6c95618","null","<p style=""text-align: center;"">+</p>","null","fixation","","","","","","","","","","","","","","","","","","","","","","",""
"","","","","","html-slider-response","195","1220711","0.0-21.0-0.27","4b4fb6c0-3507-41fe-8d83-98d3a6c95618","1000","
                  <p style=""text-align: center;"">₪58
                                                <br>40%</p>
                  <p id=""wtp"" style=""text-align:center; margin-top: 0px; margin-bottom: 0px; font-size: 40px"";>&ensp;</p>","-","viewing","0","20","10C,13A,19C,21B","","","","","","","","","","","","","","","","","","","",""
"","","","","","html-slider-response","196","1222638","0.0-21.0-1.27","4b4fb6c0-3507-41fe-8d83-98d3a6c95618","1926","
                  <p style=""text-align: center;"">₪58
                                                <br>40%</p>
                  <p id=""wtp"" style=""text-align:center; margin-top: 0px; margin-bottom: 0px; font-size: 40px"";>מוכנים לשלם: <span id=""c_p_y""></span></p>","31","evaluation","27","20","10C,13A,19C,21B","40","58","31","","","","","","","","","","","","","","","","",""
"","","","","","html-keyboard-response","197","1223273","0.0-21.0-2.27","4b4fb6c0-3507-41fe-8d83-98d3a6c95618","null","<p style=""text-align: center;"">+</p>","null","fixation","","","","","","","","","","","","","","","","","","","","","","",""
"","","","","","html-slider-response","198","1224288","0.0-21.0-0.28","4b4fb6c0-3507-41fe-8d83-98d3a6c95618","1000","
                  <p style=""text-align: center;"">₪11
                                                <br>20%</p>
                  <p id=""wtp"" style=""text-align:center; margin-top: 0px; margin-bottom: 0px; font-size: 40px"";>&ensp;</p>","-","viewing","0","4","12C,17C,23C,28C","","","","","","","","","","","","","","","","","","","",""
"","","","","","html-slider-response","199","1226622","0.0-21.0-1.28","4b4fb6c0-3507-41fe-8d83-98d3a6c95618","2332","
                  <p style=""text-align: center;"">₪11
                                                <br>20%</p>
                  <p id=""wtp"" style=""text-align:center; margin-top: 0px; margin-bottom: 0px; font-size: 40px"";>מוכנים לשלם: <span id=""c_p_y""></span></p>","9","evaluation","21","4","12C,17C,23C,28C","20","11","9","","","","","","","","","","","","","","","","",""
"","","","","","html-keyboard-response","200","1227358","0.0-21.0-2.28","4b4fb6c0-3507-41fe-8d83-98d3a6c95618","null","<p style=""text-align: center;"">+</p>","null","fixation","","","","","","","","","","","","","","","","","","","","","","",""
"","","","","","html-slider-response","201","1228369","0.0-21.0-0.29","4b4fb6c0-3507-41fe-8d83-98d3a6c95618","1000","
                  <p style=""text-align: center;"">₪36
                                                <br>30%</p>
                  <p id=""wtp"" style=""text-align:center; margin-top: 0px; margin-bottom: 0px; font-size: 40px"";>&ensp;</p>","-","viewing","0","11","3C,20A,22A","","","","","","","","","","","","","","","","","","","",""
"","","","","","html-slider-response","202","1231006","0.0-21.0-1.29","4b4fb6c0-3507-41fe-8d83-98d3a6c95618","2635","
                  <p style=""text-align: center;"">₪36
                                                <br>30%</p>
                  <p id=""wtp"" style=""text-align:center; margin-top: 0px; margin-bottom: 0px; font-size: 40px"";>מוכנים לשלם: <span id=""c_p_y""></span></p>","13","evaluation","5","11","3C,20A,22A","30","36","14","","","","","","","","","","","","","","","","",""
"","","","","","html-keyboard-response","203","1232429","0.0-21.0-2.29","4b4fb6c0-3507-41fe-8d83-98d3a6c95618","null","<p style=""text-align: center;"">+</p>","null","fixation","","","","","","","","","","","","","","","","","","","","","","",""
"","","","","","html-slider-response","204","1233441","0.0-21.0-0.30","4b4fb6c0-3507-41fe-8d83-98d3a6c95618","1000","
                  <p style=""text-align: center;"">₪36
                                                <br>60%</p>
                  <p id=""wtp"" style=""text-align:center; margin-top: 0px; margin-bottom: 0px; font-size: 40px"";>&ensp;</p>","-","viewing","0","12","1C,7C,15C","","","","","","","","","","","","","","","","","","","",""
"","","","","","html-slider-response","205","1236406","0.0-21.0-1.30","4b4fb6c0-3507-41fe-8d83-98d3a6c95618","2964","
                  <p style=""text-align: center;"">₪36
                                                <br>60%</p>
                  <p id=""wtp"" style=""text-align:center; margin-top: 0px; margin-bottom: 0px; font-size: 40px"";>מוכנים לשלם: <span id=""c_p_y""></span></p>","14","evaluation","54","12","1C,7C,15C","60","36","15","","","","","","","","","","","","","","","","",""
"","","","","","html-keyboard-response","206","1237880","0.0-21.0-2.30","4b4fb6c0-3507-41fe-8d83-98d3a6c95618","null","<p style=""text-align: center;"">+</p>","null","fixation","","","","","","","","","","","","","","","","","","","","","","",""
"","","","","","html-keyboard-response","207","1238896","0.0-22.0","4b4fb6c0-3507-41fe-8d83-98d3a6c95618","null","<p style=""text-align: center;"">+</p>","null","fixation","","","","","","","","","","","","","","","","","","","","","","",""
"","","","","","html-keyboard-response","208","1239798","0.0-23.0","4b4fb6c0-3507-41fe-8d83-98d3a6c95618","null","<p>הפסקה.
          <br>לחצו כדי להמשיך.</p>","1","scan_wait","","","","","","","","","","","","","","","","","","","","","","",""
"","","","","","html-keyboard-response","209","1240799","0.0-24.0","4b4fb6c0-3507-41fe-8d83-98d3a6c95618","null","<p style=""text-align: center;"">+</p>","null","fixation","","","","","","","","","","","","","","","","","","","","","","",""
"","","","","","html-slider-response","210","1241815","0.0-25.0-0.0","4b4fb6c0-3507-41fe-8d83-98d3a6c95618","1000","
                  <p style=""text-align: center;"">₪39
                                                <br>60%</p>
                  <p id=""wtp"" style=""text-align:center; margin-top: 0px; margin-bottom: 0px; font-size: 40px"";>&ensp;</p>","-","viewing","0","15","9C,25B","","","","","","","","","","","","","","","","","","","",""
"","","","","","html-slider-response","211","1244614","0.0-25.0-1.0","4b4fb6c0-3507-41fe-8d83-98d3a6c95618","2798","
                  <p style=""text-align: center;"">₪39
                                                <br>60%</p>
                  <p id=""wtp"" style=""text-align:center; margin-top: 0px; margin-bottom: 0px; font-size: 40px"";>מוכנים לשלם: <span id=""c_p_y""></span></p>","19","evaluation","36","15","9C,25B","60","39","19","","","","","","","","","","","","","","","","",""
"","","","","","html-keyboard-response","212","1245135","0.0-25.0-2.0","4b4fb6c0-3507-41fe-8d83-98d3a6c95618","null","<p style=""text-align: center;"">+</p>","null","fixation","","","","","","","","","","","","","","","","","","","","","","",""
"","","","","","html-slider-response","213","1246138","0.0-25.0-0.1","4b4fb6c0-3507-41fe-8d83-98d3a6c95618","1000","
                  <p style=""text-align: center;"">₪11
                                                <br>20%</p>
                  <p id=""wtp"" style=""text-align:center; margin-top: 0px; margin-bottom: 0px; font-size: 40px"";>&ensp;</p>","-","viewing","0","4","12C,17C,23C,28C","","","","","","","","","","","","","","","","","","","",""
"","","","","","html-slider-response","214","1246870","0.0-25.0-1.1","4b4fb6c0-3507-41fe-8d83-98d3a6c95618","731","
                  <p style=""text-align: center;"">₪11
                                                <br>20%</p>
                  <p id=""wtp"" style=""text-align:center; margin-top: 0px; margin-bottom: 0px; font-size: 40px"";>מוכנים לשלם: <span id=""c_p_y""></span></p>","3","evaluation","17","4","12C,17C,23C,28C","20","11","3","","","","","","","","","","","","","","","","",""
"","","","","","html-keyboard-response","215","1248185","0.0-25.0-2.1","4b4fb6c0-3507-41fe-8d83-98d3a6c95618","null","<p style=""text-align: center;"">+</p>","null","fixation","","","","","","","","","","","","","","","","","","","","","","",""
"","","","","","html-slider-response","216","1249188","0.0-25.0-0.2","4b4fb6c0-3507-41fe-8d83-98d3a6c95618","1000","
                  <p style=""text-align: center;"">₪39
                                                <br>65%</p>
                  <p id=""wtp"" style=""text-align:center; margin-top: 0px; margin-bottom: 0px; font-size: 40px"";>&ensp;</p>","-","viewing","0","16","1A,15A,26C","","","","","","","","","","","","","","","","","","","",""
"","","","","","html-slider-response","217","1251485","0.0-25.0-1.2","4b4fb6c0-3507-41fe-8d83-98d3a6c95618","2297","
                  <p style=""text-align: center;"">₪39
                                                <br>65%</p>
                  <p id=""wtp"" style=""text-align:center; margin-top: 0px; margin-bottom: 0px; font-size: 40px"";>מוכנים לשלם: <span id=""c_p_y""></span></p>","29","evaluation","68","16","1A,15A,26C","65","39","29","","","","","","","","","","","","","","","","",""
"","","","","","html-keyboard-response","218","1252825","0.0-25.0-2.2","4b4fb6c0-3507-41fe-8d83-98d3a6c95618","null","<p style=""text-align: center;"">+</p>","null","fixation","","","","","","","","","","","","","","","","","","","","","","",""
"","","","","","html-slider-response","219","1253836","0.0-25.0-0.3","4b4fb6c0-3507-41fe-8d83-98d3a6c95618","1000","
                  <p style=""text-align: center;"">₪79
                                                <br>40%</p>
                  <p id=""wtp"" style=""text-align:center; margin-top: 0px; margin-bottom: 0px; font-size: 40px"";>&ensp;</p>","-","viewing","0","30","9B","","","","","","","","","","","","","","","","","","","",""
"","","","","","html-slider-response","220","1256294","0.0-25.0-1.3","4b4fb6c0-3507-41fe-8d83-98d3a6c95618","2456","
                  <p style=""text-align: center;"">₪79
                                                <br>40%</p>
                  <p id=""wtp"" style=""text-align:center; margin-top: 0px; margin-bottom: 0px; font-size: 40px"";>מוכנים לשלם: <span id=""c_p_y""></span></p>","34","evaluation","68","30","9B","40","79","34","","","","","","","","","","","","","","","","",""
"","","","","","html-keyboard-response","221","1257362","0.0-25.0-2.3","4b4fb6c0-3507-41fe-8d83-98d3a6c95618","null","<p style=""text-align: center;"">+</p>","null","fixation","","","","","","","","","","","","","","","","","","","","","","",""
"","","","","","html-slider-response","222","1258364","0.0-25.0-0.4","4b4fb6c0-3507-41fe-8d83-98d3a6c95618","1000","
                  <p style=""text-align: center;"">₪43
                                                <br>60%</p>
                  <p id=""wtp"" style=""text-align:center; margin-top: 0px; margin-bottom: 0px; font-size: 40px"";>&ensp;</p>","-","viewing","0","17","2A,7A,9A,15B","","","","","","","","","","","","","","","","","","","",""
"","","","","","html-slider-response","223","1259838","0.0-25.0-1.4","4b4fb6c0-3507-41fe-8d83-98d3a6c95618","1473","
                  <p style=""text-align: center;"">₪43
                                                <br>60%</p>
                  <p id=""wtp"" style=""text-align:center; margin-top: 0px; margin-bottom: 0px; font-size: 40px"";>מוכנים לשלם: <span id=""c_p_y""></span></p>","40","evaluation","44","17","2A,7A,9A,15B","60","43","40","","","","","","","","","","","","","","","","",""
"","","","","","html-keyboard-response","224","1261124","0.0-25.0-2.4","4b4fb6c0-3507-41fe-8d83-98d3a6c95618","null","<p style=""text-align: center;"">+</p>","null","fixation","","","","","","","","","","","","","","","","","","","","","","",""
"","","","","","html-slider-response","225","1262136","0.0-25.0-0.5","4b4fb6c0-3507-41fe-8d83-98d3a6c95618","1000","
                  <p style=""text-align: center;"">₪58
                                                <br>30%</p>
                  <p id=""wtp"" style=""text-align:center; margin-top: 0px; margin-bottom: 0px; font-size: 40px"";>&ensp;</p>","-","viewing","0","19","13C,30A","","","","","","","","","","","","","","","","","","","",""
"","","","","","html-slider-response","226","1266137","0.0-25.0-1.5","4b4fb6c0-3507-41fe-8d83-98d3a6c95618","null","
                  <p style=""text-align: center;"">₪58
                                                <br>30%</p>
                  <p id=""wtp"" style=""text-align:center; margin-top: 0px; margin-bottom: 0px; font-size: 40px"";>מוכנים לשלם: <span id=""c_p_y""></span></p>","null","evaluation","36","19","13C,30A","30","58","30","","","","","","","","","","","","","","","","",""
"","","","","","html-keyboard-response","227","1266692","0.0-25.0-2.5","4b4fb6c0-3507-41fe-8d83-98d3a6c95618","null","<p style=""text-align: center;"">+</p>","null","fixation","","","","","","","","","","","","","","","","","","","","","","",""
"","","","","","html-slider-response","228","1267708","0.0-25.0-0.6","4b4fb6c0-3507-41fe-8d83-98d3a6c95618","1000","
                  <p style=""text-align: center;"">₪61
                                                <br>55%</p>
                  <p id=""wtp"" style=""text-align:center; margin-top: 0px; margin-bottom: 0px; font-size: 40px"";>&ensp;</p>","-","viewing","0","23","7B,26B","","","","","","","","","","","","","","","","","","","",""
"","","","","","html-slider-response","229","1269134","0.0-25.0-1.6","4b4fb6c0-3507-41fe-8d83-98d3a6c95618","1426","
                  <p style=""text-align: center;"">₪61
                                                <br>55%</p>
                  <p id=""wtp"" style=""text-align:center; margin-top: 0px; margin-bottom: 0px; font-size: 40px"";>מוכנים לשלם: <span id=""c_p_y""></span></p>","31","evaluation","64","23","7B,26B","55","61","31","","","","","","","","","","","","","","","","",""
"","","","","","html-keyboard-response","230","1269801","0.0-25.0-2.6","4b4fb6c0-3507-41fe-8d83-98d3a6c95618","null","<p style=""text-align: center;"">+</p>","null","fixation","","","","","","","","","","","","","","","","","","","","","","",""
"","","","","","html-slider-response","231","1270802","0.0-25.0-0.7","4b4fb6c0-3507-41fe-8d83-98d3a6c95618","1000","
                  <p style=""text-align: center;"">₪71
                                                <br>55%</p>
                  <p id=""wtp"" style=""text-align:center; margin-top: 0px; margin-bottom: 0px; font-size: 40px"";>&ensp;</p>","-","viewing","0","27","5B,18A","","","","","","","","","","","","","","","","","","","",""
"","","","","","html-slider-response","232","1272734","0.0-25.0-1.7","4b4fb6c0-3507-41fe-8d83-98d3a6c95618","1930","
                  <p style=""text-align: center;"">₪71
                                                <br>55%</p>
                  <p id=""wtp"" style=""text-align:center; margin-top: 0px; margin-bottom: 0px; font-size: 40px"";>מוכנים לשלם: <span id=""c_p_y""></span></p>","38","evaluation","38","27","5B,18A","55","71","38","","","","","","","","","","","","","","","","",""
"","","","","","html-keyboard-response","233","1273560","0.0-25.0-2.7","4b4fb6c0-3507-41fe-8d83-98d3a6c95618","null","<p style=""text-align: center;"">+</p>","null","fixation","","","","","","","","","","","","","","","","","","","","","","",""
"","","","","","html-slider-response","234","1274564","0.0-25.0-0.8","4b4fb6c0-3507-41fe-8d83-98d3a6c95618","1000","
                  <p style=""text-align: center;"">₪11
                                                <br>45%</p>
                  <p id=""wtp"" style=""text-align:center; margin-top: 0px; margin-bottom: 0px; font-size: 40px"";>&ensp;</p>","-","viewing","0","6","14B,21C,25C","","","","","","","","","","","","","","","","","","","",""
"","","","","","html-slider-response","235","1275566","0.0-25.0-1.8","4b4fb6c0-3507-41fe-8d83-98d3a6c95618","1000","
                  <p style=""text-align: center;"">₪11
                                                <br>45%</p>
                  <p id=""wtp"" style=""text-align:center; margin-top: 0px; margin-bottom: 0px; font-size: 40px"";>מוכנים לשלם: <span id=""c_p_y""></span></p>","6","evaluation","40","6","14B,21C,25C","45","11","7","","","","","","","","","","","","","","","","",""
"","","","","","html-keyboard-response","236","1276853","0.0-25.0-2.8","4b4fb6c0-3507-41fe-8d83-98d3a6c95618","null","<p style=""text-align: center;"">+</p>","null","fixation","","","","","","","","","","","","","","","","","","","","","","",""
"","","","","","html-slider-response","237","1277865","0.0-25.0-0.9","4b4fb6c0-3507-41fe-8d83-98d3a6c95618","1000","
                  <p style=""text-align: center;"">₪4
                                                <br>25%</p>
                  <p id=""wtp"" style=""text-align:center; margin-top: 0px; margin-bottom: 0px; font-size: 40px"";>&ensp;</p>","-","viewing","0","1","6C,29B,30C","","","","","","","","","","","","","","","","","","","",""
"","","","","","html-slider-response","238","1279134","0.0-25.0-1.9","4b4fb6c0-3507-41fe-8d83-98d3a6c95618","1267","
                  <p style=""text-align: center;"">₪4
                                                <br>25%</p>
                  <p id=""wtp"" style=""text-align:center; margin-top: 0px; margin-bottom: 0px; font-size: 40px"";>מוכנים לשלם: <span id=""c_p_y""></span></p>","3","evaluation","58","1","6C,29B,30C","25","4","4","","","","","","","","","","","","","","","","",""
"","","","","","html-keyboard-response","239","1280479","0.0-25.0-2.9","4b4fb6c0-3507-41fe-8d83-98d3a6c95618","null","<p style=""text-align: center;"">+</p>","null","fixation","","","","","","","","","","","","","","","","","","","","","","",""
"","","","","","html-slider-response","240","1281492","0.0-25.0-0.10","4b4fb6c0-3507-41fe-8d83-98d3a6c95618","1000","
                  <p style=""text-align: center;"">₪36
                                                <br>30%</p>
                  <p id=""wtp"" style=""text-align:center; margin-top: 0px; margin-bottom: 0px; font-size: 40px"";>&ensp;</p>","-","viewing","0","11","3C,20A,22A","","","","","","","","","","","","","","","","","","","",""
"","","","","","html-slider-response","241","1284710","0.0-25.0-1.10","4b4fb6c0-3507-41fe-8d83-98d3a6c95618","3216","
                  <p style=""text-align: center;"">₪36
                                                <br>30%</p>
                  <p id=""wtp"" style=""text-align:center; margin-top: 0px; margin-bottom: 0px; font-size: 40px"";>מוכנים לשלם: <span id=""c_p_y""></span></p>","10","evaluation","53","11","3C,20A,22A","30","36","10","","","","","","","","","","","","","","","","",""
"","","","","","html-keyboard-response","242","1286081","0.0-25.0-2.10","4b4fb6c0-3507-41fe-8d83-98d3a6c95618","null","<p style=""text-align: center;"">+</p>","null","fixation","","","","","","","","","","","","","","","","","","","","","","",""
"","","","","","html-slider-response","243","1287087","0.0-25.0-0.11","4b4fb6c0-3507-41fe-8d83-98d3a6c95618","1000","
                  <p style=""text-align: center;"">₪36
                                                <br>75%</p>
                  <p id=""wtp"" style=""text-align:center; margin-top: 0px; margin-bottom: 0px; font-size: 40px"";>&ensp;</p>","-","viewing","0","14","4B,5A,13B,16B","","","","","","","","","","","","","","","","","","","",""
"","","","","","html-slider-response","244","1289342","0.0-25.0-1.11","4b4fb6c0-3507-41fe-8d83-98d3a6c95618","2253","
                  <p style=""text-align: center;"">₪36
                                                <br>75%</p>
                  <p id=""wtp"" style=""text-align:center; margin-top: 0px; margin-bottom: 0px; font-size: 40px"";>מוכנים לשלם: <span id=""c_p_y""></span></p>","22","evaluation","1","14","4B,5A,13B,16B","75","36","22","","","","","","","","","","","","","","","","",""
"","","","","","html-keyboard-response","245","1290514","0.0-25.0-2.11","4b4fb6c0-3507-41fe-8d83-98d3a6c95618","null","<p style=""text-align: center;"">+</p>","null","fixation","","","","","","","","","","","","","","","","","","","","","","",""
"","","","","","html-slider-response","246","1291518","0.0-25.0-0.12","4b4fb6c0-3507-41fe-8d83-98d3a6c95618","1000","
                  <p style=""text-align: center;"">₪58
                                                <br>45%</p>
                  <p id=""wtp"" style=""text-align:center; margin-top: 0px; margin-bottom: 0px; font-size: 40px"";>&ensp;</p>","-","viewing","0","21","11C,18C,25A","","","","","","","","","","","","","","","","","","","",""
"","","","","","html-slider-response","247","1294622","0.0-25.0-1.12","4b4fb6c0-3507-41fe-8d83-98d3a6c95618","3104","
                  <p style=""text-align: center;"">₪58
                                                <br>45%</p>
                  <p id=""wtp"" style=""text-align:center; margin-top: 0px; margin-bottom: 0px; font-size: 40px"";>מוכנים לשלם: <span id=""c_p_y""></span></p>","19","evaluation","71","21","11C,18C,25A","45","58","19","","","","","","","","","","","","","","","","",""
"","","","","","html-keyboard-response","248","1295639","0.0-25.0-2.12","4b4fb6c0-3507-41fe-8d83-98d3a6c95618","null","<p style=""text-align: center;"">+</p>","null","fixation","","","","","","","","","","","","","","","","","","","","","","",""
"","","","","","html-slider-response","249","1296642","0.0-25.0-0.13","4b4fb6c0-3507-41fe-8d83-98d3a6c95618","1000","
                  <p style=""text-align: center;"">₪64
