"success","timeout","failed_images","failed_audio","failed_video","trial_type","trial_index","time_elapsed","internal_node_id","subject_id","rt","stimulus","response","part","slider_start","ID","set_ID","prob","amount","last_location","actual_choice","actual_EV","binary_id","trinary_id","catch","A_key","D_key","choice_prob","choice_amount","potential_prize_prob","potential_prize_amount","won_prize","total_prize","remaining_budget","accuracy"
"true","false","[]","[]","[]","preload","0","4","0.0-0.0","283a4d7f-410c-4f66-9939-cf61ea2d4b95","","","","","","","","","","","","","","","","","","","","","","","","",""
"","","","","","html-keyboard-response","1","16355","0.0-1.0","283a4d7f-410c-4f66-9939-cf61ea2d4b95","null","
          <h1>שלום וברוכים הבאים!</h1>
          <p>לפניכם ניסוי בקבלת החלטות עם שני חלקים.
          <br><br>לחצו על העכבר כדי להמשיך.</p>","0","example","","","","","","","","","","","","","","","","","","","","",""
"","","","","","html-keyboard-response","2","29155","0.0-2.0","283a4d7f-410c-4f66-9939-cf61ea2d4b95","null","
        <h1>חלק 1</h1>
        <p>בקרוב יוצגו בפניכם הגרלות.
        <br>עליכם לבחור את המחיר המירבי שתהיו מוכנים לשלם כדי להשתתף בהגרלה שתוצג.
        <br>יש לכם תקציב של ₪80 לכל הגרלה. 
        <br>נסו להעריך כל הגרלה בנפרד ולחשוב כמה היא שווה עבורכם, ₪80 זמינים לכל הגרלה בנפרד.
        <br><br>לחצו על העכבר כדי להמשיך.</p>","1","instructions","","","","","","","","","","","","","","","","","","","","",""
"","","","","","html-keyboard-response","3","32106","0.0-3.0","283a4d7f-410c-4f66-9939-cf61ea2d4b95","null","
        <p>בסוף הניסוי, המחשב יבחר את אחת ההגרלות ויקבע מחיר לכרטיס עבורה. 
        <br>במידה והמחיר שבחרתם נמוך מהמחיר שנבחר על ידי המחשב, לא תשתתפו בהגרלה ותשארו עם מלוא התקציב.
        <br>במידה והמחיר שבחרתם גבוה מהמחיר שנבחר על ידי המחשב, תשלמו את המחיר שנקבע ותשתתפו בהגרלה.
        <br><br>לחצו על העכבר כדי להמשיך.</p>","1","instructions","","","","","","","","","","","","","","","","","","","","",""
"","","","","","html-slider-response","4","42971","0.0-4.0","283a4d7f-410c-4f66-9939-cf61ea2d4b95","10761","
        <p style=""font-size: 42px;"">נתחיל עם דוגמא: 
        <br>ההגרלה מטה מציעה 65% סיכוי לזכות ב-₪40 
        <br>&emsp;&emsp;&emsp;&emsp;&emsp;&emsp;&emsp;&emsp;&ensp;35% סיכוי לזכות ב-₪0.
        <br><br>מה המחיר המירבי שתהיו מוכנים לשלם על כרטיס להגרלה זו בין 0 ל-₪80?
        <br>הזיזו את העכבר על פני המלבן ולחצו כדי לבצע בחירה.</p>
        
        <p style=""text-align: center;"">₪40<br>65%</p>

        <p id=""wtp"" style=""text-align:center; margin-top: 0px; margin-bottom: 0px; font-size: 40px"";>מוכנים לשלם: <span id=""c_p_y""></span></p>","30","example","29","","","","","","","","","","","","","","","","","","","",""
"","","","","","html-keyboard-response","5","54242","0.0-5.0","283a4d7f-410c-4f66-9939-cf61ea2d4b95","null","<p>יפה מאוד!
                <br> בחרתם שתהיו מוכנים לשלם ₪30 כדי להשתתף בהגרלה:
                <br><p style=""text-align: center;"">₪40<br>65%</p>
                <p>נשמע נכון?
                <br>נניח שהגרלה זו נבחרה בסוף הניסוי.
                <br>כעת המחשב יקבע מחיר עבורה באקראי.
                <br>לחצו על העכבר להמשך.</p>","1","example","","","","","","","","","","","","","","","","","","","","",""
"","","","","","html-keyboard-response","6","62778","0.0-6.0","283a4d7f-410c-4f66-9939-cf61ea2d4b95","null","<p>המחשב קבע מחיר: ₪74
                <br>ואתם בחרתם לשלם לכל היותר: ₪30
                <br><br>מכיוון שהמחיר שבחרתם נמוך מהמחיר שנקבע, לא תתשתתפו בהגרלה.
                <br>במקרה כזה, בסוף הניסוי תקבלו את כל התקציב ההתחלתי של ₪80.
                <br><br>לחצו על העכבר להמשך.</p>","1","example","","","","","","","","","","","","","","","","","","","","",""
"","","","","","html-slider-response","7","72427","0.0-7.0","283a4d7f-410c-4f66-9939-cf61ea2d4b95","9394","<p style=""font-size: 42px;"">הנה עוד דוגמא:
                <br>ההגרלה מטה מציעה 35% סיכוי לזכות ב-₪18 
                <br>&emsp;&emsp;&emsp;&emsp;&emsp;&emsp;&emsp;&emsp;&ensp;65% סיכוי לזכות ב-₪0.</p>
        
                <p style=""text-align: center;"">₪18<br>35%</p>
                <p id=""wtp"" style=""text-align:center; margin-top: 0px; margin-bottom: 0px; font-size: 40px"";>מוכנים לשלם: <span id=""c_p_y""></span></p>","20","example","49","","","","","","","","","","","","","","","","","","","",""
"","","","","","html-keyboard-response","8","74130","0.0-8.0","283a4d7f-410c-4f66-9939-cf61ea2d4b95","null","<p>הייתם מוכנים לשלם  ₪20 כדי להשתתף בהגרלה:
                <p style=""text-align: center;"">₪18<br>35%</p>
                <p>כעת נניח שהמחשב בחר את ההגרלה הזו בסוף הניסוי, וקבע עבורה מחיר.
                <br><br>לחצו על העכבר כדי להמשיך.</p>","1","instructions","","","","","","","","","","","","","","","","","","","","",""
"","","","","","html-keyboard-response","9","91002","0.0-9.0","283a4d7f-410c-4f66-9939-cf61ea2d4b95","null","<p>המחשב קבע מחיר להגרלה: ₪1<br>ואתם בחרתם לשלם לכל היותר: ₪20
                <br><br>כעת המחיר שנקבע נמוך מזה שבחרתם, אז תשלמו את המחיר שקבע המחשב (₪1) ותשתתפו בהגרלה.
                <br>במקרה כזה, תסיימו את הניסוי עם תקציב של ₪79 ועם סיכוי לזכות ב-₪18 נוספים מההגרלה.
                <br>כלומר, תוכלו לקבל ₪79 אם לא תזכו בהגרלה, או ₪97 אם תזכו בהגרלה.
                <br><br>לחצו על העכבר להמשך.</p>","1","example","","","","","","","","","","","","","","","","","","","","",""
"","","","","","html-keyboard-response","10","99770","0.0-10.0","283a4d7f-410c-4f66-9939-cf61ea2d4b95","null","<p>במהלך הניסוי, קודם תראו את ההגרלה ורק לאחר מכן תוכלו לבחור.
                <p>כמו כן, יהיו לכם מספר שניות מוגבל להגיב.
                <p>בואו ננסה זאת עם ההגרלה הקודמת.
                <br>לחצו על העכבר כדי להמשיך.</p>","1","instructions","","","","","","","","","","","","","","","","","","","","",""
"","","","","","html-slider-response","11","101040","0.0-11.0","283a4d7f-410c-4f66-9939-cf61ea2d4b95","1000","
                    <p style=""text-align: center;"">₪18<br>35%</p>
                    <p id=""wtp"" style=""text-align:center; margin-top: 0px; margin-bottom: 0px; font-size: 40px"";>&ensp;</p>","45","instructions","0","","","","","","","","","","","","","","","","","","","",""
"","","","","","html-slider-response","12","105310","0.0-12.0","283a4d7f-410c-4f66-9939-cf61ea2d4b95","null","
                    <p style=""text-align: center;"">₪18<br>35%</p>
                    <p id=""wtp"" style=""text-align:center; margin-top: 0px; margin-bottom: 0px; font-size: 40px"";>מוכנים לשלם: <span id=""c_p_y""></span></p>","null","instructions","47","","","","","","","","","","","","","","","","","","","",""
"","","","","","html-keyboard-response","13","106098","0.0-13.0","283a4d7f-410c-4f66-9939-cf61ea2d4b95","null","<p>לא הגבתם בזמן המוקצב לתגובה. 
                <br>נסו להגיב מהר יותר בפעם הבאה.
                <br><br>לחצו על העכבר כדי להמשיך.</p>","1","instructions","","","","","","","","","","","","","","","","","","","","",""
"","","","","","html-slider-response","14","108474","0.0-14.0-0.0","283a4d7f-410c-4f66-9939-cf61ea2d4b95","2109","
                    <p style=""text-align: center;"">₪40<br>65%</p>
                    <p id=""wtp"" style=""text-align:center; margin-top: 0px; margin-bottom: 0px; font-size: 40px"";>מוכנים לשלם: <span id=""c_p_y""></span></p>","31","instructions","80","","","","","","","","","","","","","","","","","","","",""
"","","","","","html-keyboard-response","15","110962","0.0-14.0-1.0","283a4d7f-410c-4f66-9939-cf61ea2d4b95","null","<p>יפה. הפעם בחרתם לשלם לכל היותר ₪31.
                <br><br>לחצו על העכבר כדי להמשיך.</p>","1","instructions","","","","","","","","","","","","","","","","","","","","",""
"","","","","","html-keyboard-response","16","114802","0.0-15.0","283a4d7f-410c-4f66-9939-cf61ea2d4b95","null","<p>כעת נתחיל את הניסוי.
                <br><br>אתם תראו הגרלות ותתבקשו לבחור כמה תהיו מוכנים לשלם כדי להשתתף בהן.
                <br>יש לכם תקציב של ₪80 עבור כל הגרלה.
                <br>בסוף הניסוי הגרלה אחת תבחר באקראי ותשוחק.
                <br><br>לחצו על העכבר כדי להתחיל את הניסוי.</p>","1","instructions","","","","","","","","","","","","","","","","","","","","",""
"","","","","","html-keyboard-response","17","116071","0.0-16.0","283a4d7f-410c-4f66-9939-cf61ea2d4b95","null","<p style=""text-align: center;"">+</p>","null","fixation","","","","","","","","","","","","","","","","","","","","",""
"","","","","","html-slider-response","18","117074","0.0-17.0-0.0","283a4d7f-410c-4f66-9939-cf61ea2d4b95","1000","
                  <p style=""text-align: center;"">₪11
                                                <br>25%</p>
                  <p id=""wtp"" style=""text-align:center; margin-top: 0px; margin-bottom: 0px; font-size: 40px"";>&ensp;</p>","-","viewing","0","5","12A,27B,28B,30B","","","","","","","","","","","","","","","","","",""
"","","","","","html-slider-response","19","119690","0.0-17.0-1.0","283a4d7f-410c-4f66-9939-cf61ea2d4b95","2614","
                  <p style=""text-align: center;"">₪11
                                                <br>25%</p>
                  <p id=""wtp"" style=""text-align:center; margin-top: 0px; margin-bottom: 0px; font-size: 40px"";>מוכנים לשלם: <span id=""c_p_y""></span></p>","14","evaluation","20","5","12A,27B,28B,30B","25","11","15","","","","","","","","","","","","","","",""
"","","","","","html-keyboard-response","20","121021","0.0-17.0-2.0","283a4d7f-410c-4f66-9939-cf61ea2d4b95","null","<p style=""text-align: center;"">+</p>","null","fixation","","","","","","","","","","","","","","","","","","","","",""
"","","","","","html-slider-response","21","122023","0.0-17.0-0.1","283a4d7f-410c-4f66-9939-cf61ea2d4b95","1000","
                  <p style=""text-align: center;"">₪11
                                                <br>75%</p>
                  <p id=""wtp"" style=""text-align:center; margin-top: 0px; margin-bottom: 0px; font-size: 40px"";>&ensp;</p>","-","viewing","0","7","6B,18B,22C,24C,29A","","","","","","","","","","","","","","","","","",""
"","","","","","html-slider-response","22","126040","0.0-17.0-1.1","283a4d7f-410c-4f66-9939-cf61ea2d4b95","null","
                  <p style=""text-align: center;"">₪11
                                                <br>75%</p>
                  <p id=""wtp"" style=""text-align:center; margin-top: 0px; margin-bottom: 0px; font-size: 40px"";>מוכנים לשלם: <span id=""c_p_y""></span></p>","null","evaluation","20","7","6B,18B,22C,24C,29A","75","11","24","","","","","","","","","","","","","","",""
"","","","","","html-keyboard-response","23","127487","0.0-17.0-2.1","283a4d7f-410c-4f66-9939-cf61ea2d4b95","null","<p style=""text-align: center;"">+</p>","null","fixation","","","","","","","","","","","","","","","","","","","","",""
"","","","","","html-slider-response","24","128489","0.0-17.0-0.2","283a4d7f-410c-4f66-9939-cf61ea2d4b95","1000","
                  <p style=""text-align: center;"">₪36
                                                <br>60%</p>
                  <p id=""wtp"" style=""text-align:center; margin-top: 0px; margin-bottom: 0px; font-size: 40px"";>&ensp;</p>","-","viewing","0","12","1C,7C,15C","","","","","","","","","","","","","","","","","",""
"","","","","","html-slider-response","25","131042","0.0-17.0-1.2","283a4d7f-410c-4f66-9939-cf61ea2d4b95","2551","
                  <p style=""text-align: center;"">₪36
                                                <br>60%</p>
                  <p id=""wtp"" style=""text-align:center; margin-top: 0px; margin-bottom: 0px; font-size: 40px"";>מוכנים לשלם: <span id=""c_p_y""></span></p>","35","evaluation","19","12","1C,7C,15C","60","36","35","","","","","","","","","","","","","","",""
"","","","","","html-keyboard-response","26","131728","0.0-17.0-2.2","283a4d7f-410c-4f66-9939-cf61ea2d4b95","null","<p style=""text-align: center;"">+</p>","null","fixation","","","","","","","","","","","","","","","","","","","","",""
"","","","","","html-slider-response","27","132739","0.0-17.0-0.3","283a4d7f-410c-4f66-9939-cf61ea2d4b95","1000","
                  <p style=""text-align: center;"">₪64
                                                <br>25%</p>
                  <p id=""wtp"" style=""text-align:center; margin-top: 0px; margin-bottom: 0px; font-size: 40px"";>&ensp;</p>","-","viewing","0","24","6A,21A","","","","","","","","","","","","","","","","","",""
"","","","","","html-slider-response","28","136058","0.0-17.0-1.3","283a4d7f-410c-4f66-9939-cf61ea2d4b95","3317","
                  <p style=""text-align: center;"">₪64
                                                <br>25%</p>
                  <p id=""wtp"" style=""text-align:center; margin-top: 0px; margin-bottom: 0px; font-size: 40px"";>מוכנים לשלם: <span id=""c_p_y""></span></p>","58","evaluation","30","24","6A,21A","25","64","57","","","","","","","","","","","","","","",""
"","","","","","html-keyboard-response","29","136577","0.0-17.0-2.3","283a4d7f-410c-4f66-9939-cf61ea2d4b95","null","<p style=""text-align: center;"">+</p>","null","fixation","","","","","","","","","","","","","","","","","","","","",""
"","","","","","html-slider-response","30","137579","0.0-17.0-0.4","283a4d7f-410c-4f66-9939-cf61ea2d4b95","1000","
                  <p style=""text-align: center;"">₪11
                                                <br>20%</p>
                  <p id=""wtp"" style=""text-align:center; margin-top: 0px; margin-bottom: 0px; font-size: 40px"";>&ensp;</p>","-","viewing","0","4","12C,17C,23C,28C","","","","","","","","","","","","","","","","","",""
"","","","","","html-slider-response","31","138722","0.0-17.0-1.4","283a4d7f-410c-4f66-9939-cf61ea2d4b95","1141","
                  <p style=""text-align: center;"">₪11
                                                <br>20%</p>
                  <p id=""wtp"" style=""text-align:center; margin-top: 0px; margin-bottom: 0px; font-size: 40px"";>מוכנים לשלם: <span id=""c_p_y""></span></p>","18","evaluation","61","4","12C,17C,23C,28C","20","11","19","","","","","","","","","","","","","","",""
"","","","","","html-keyboard-response","32","139310","0.0-17.0-2.4","283a4d7f-410c-4f66-9939-cf61ea2d4b95","null","<p style=""text-align: center;"">+</p>","null","fixation","","","","","","","","","","","","","","","","","","","","",""
"","","","","","html-slider-response","33","140312","0.0-17.0-0.5","283a4d7f-410c-4f66-9939-cf61ea2d4b95","1000","
                  <p style=""text-align: center;"">₪36
                                                <br>70%</p>
                  <p id=""wtp"" style=""text-align:center; margin-top: 0px; margin-bottom: 0px; font-size: 40px"";>&ensp;</p>","-","viewing","0","13","3A,5C,10B","","","","","","","","","","","","","","","","","",""
"","","","","","html-slider-response","34","142906","0.0-17.0-1.5","283a4d7f-410c-4f66-9939-cf61ea2d4b95","2593","
                  <p style=""text-align: center;"">₪36
                                                <br>70%</p>
                  <p id=""wtp"" style=""text-align:center; margin-top: 0px; margin-bottom: 0px; font-size: 40px"";>מוכנים לשלם: <span id=""c_p_y""></span></p>","35","evaluation","24","13","3A,5C,10B","70","36","35","","","","","","","","","","","","","","",""
"","","","","","html-keyboard-response","35","144113","0.0-17.0-2.5","283a4d7f-410c-4f66-9939-cf61ea2d4b95","null","<p style=""text-align: center;"">+</p>","null","fixation","","","","","","","","","","","","","","","","","","","","",""
"","","","","","html-slider-response","36","145115","0.0-17.0-0.6","283a4d7f-410c-4f66-9939-cf61ea2d4b95","1000","
                  <p style=""text-align: center;"">₪71
                                                <br>75%</p>
                  <p id=""wtp"" style=""text-align:center; margin-top: 0px; margin-bottom: 0px; font-size: 40px"";>&ensp;</p>","-","viewing","0","28","8B","","","","","","","","","","","","","","","","","",""
"","","","","","html-slider-response","37","146786","0.0-17.0-1.6","283a4d7f-410c-4f66-9939-cf61ea2d4b95","1670","
                  <p style=""text-align: center;"">₪71
                                                <br>75%</p>
                  <p id=""wtp"" style=""text-align:center; margin-top: 0px; margin-bottom: 0px; font-size: 40px"";>מוכנים לשלם: <span id=""c_p_y""></span></p>","78","evaluation","58","28","8B","75","71","78","","","","","","","","","","","","","","",""
"","","","","","html-keyboard-response","38","148168","0.0-17.0-2.6","283a4d7f-410c-4f66-9939-cf61ea2d4b95","null","<p style=""text-align: center;"">+</p>","null","fixation","","","","","","","","","","","","","","","","","","","","",""
"","","","","","html-slider-response","39","149185","0.0-17.0-0.7","283a4d7f-410c-4f66-9939-cf61ea2d4b95","1000","
                  <p style=""text-align: center;"">₪79
                                                <br>65%</p>
                  <p id=""wtp"" style=""text-align:center; margin-top: 0px; margin-bottom: 0px; font-size: 40px"";>&ensp;</p>","-","viewing","0","31","8A","","","","","","","","","","","","","","","","","",""
"","","","","","html-slider-response","40","151154","0.0-17.0-1.7","283a4d7f-410c-4f66-9939-cf61ea2d4b95","1968","
                  <p style=""text-align: center;"">₪79
                                                <br>65%</p>
                  <p id=""wtp"" style=""text-align:center; margin-top: 0px; margin-bottom: 0px; font-size: 40px"";>מוכנים לשלם: <span id=""c_p_y""></span></p>","62","evaluation","49","31","8A","65","79","62","","","","","","","","","","","","","","",""
"","","","","","html-keyboard-response","41","151980","0.0-17.0-2.7","283a4d7f-410c-4f66-9939-cf61ea2d4b95","null","<p style=""text-align: center;"">+</p>","null","fixation","","","","","","","","","","","","","","","","","","","","",""
"","","","","","html-slider-response","42","152988","0.0-17.0-0.8","283a4d7f-410c-4f66-9939-cf61ea2d4b95","1000","
                  <p style=""text-align: center;"">₪61
                                                <br>55%</p>
                  <p id=""wtp"" style=""text-align:center; margin-top: 0px; margin-bottom: 0px; font-size: 40px"";>&ensp;</p>","-","viewing","0","23","7B,26B","","","","","","","","","","","","","","","","","",""
"","","","","","html-slider-response","43","156770","0.0-17.0-1.8","283a4d7f-410c-4f66-9939-cf61ea2d4b95","3780","
                  <p style=""text-align: center;"">₪61
                                                <br>55%</p>
                  <p id=""wtp"" style=""text-align:center; margin-top: 0px; margin-bottom: 0px; font-size: 40px"";>מוכנים לשלם: <span id=""c_p_y""></span></p>","59","evaluation","59","23","7B,26B","55","61","59","","","","","","","","","","","","","","",""
"","","","","","html-keyboard-response","44","158063","0.0-17.0-2.8","283a4d7f-410c-4f66-9939-cf61ea2d4b95","null","<p style=""text-align: center;"">+</p>","null","fixation","","","","","","","","","","","","","","","","","","","","",""
"","","","","","html-slider-response","45","159076","0.0-17.0-0.9","283a4d7f-410c-4f66-9939-cf61ea2d4b95","1000","
                  <p style=""text-align: center;"">₪71
                                                <br>55%</p>
                  <p id=""wtp"" style=""text-align:center; margin-top: 0px; margin-bottom: 0px; font-size: 40px"";>&ensp;</p>","-","viewing","0","27","5B,18A","","","","","","","","","","","","","","","","","",""
"","","","","","html-slider-response","46","161842","0.0-17.0-1.9","283a4d7f-410c-4f66-9939-cf61ea2d4b95","2764","
                  <p style=""text-align: center;"">₪71
                                                <br>55%</p>
                  <p id=""wtp"" style=""text-align:center; margin-top: 0px; margin-bottom: 0px; font-size: 40px"";>מוכנים לשלם: <span id=""c_p_y""></span></p>","72","evaluation","31","27","5B,18A","55","71","72","","","","","","","","","","","","","","",""
"","","","","","html-keyboard-response","47","162491","0.0-17.0-2.9","283a4d7f-410c-4f66-9939-cf61ea2d4b95","null","<p style=""text-align: center;"">+</p>","null","fixation","","","","","","","","","","","","","","","","","","","","",""
"","","","","","html-slider-response","48","163495","0.0-17.0-0.10","283a4d7f-410c-4f66-9939-cf61ea2d4b95","1000","
                  <p style=""text-align: center;"">₪18
                                                <br>50%</p>
                  <p id=""wtp"" style=""text-align:center; margin-top: 0px; margin-bottom: 0px; font-size: 40px"";>&ensp;</p>","-","viewing","0","10","2C,16C,22B,28A","","","","","","","","","","","","","","","","","",""
"","","","","","html-slider-response","49","167146","0.0-17.0-1.10","283a4d7f-410c-4f66-9939-cf61ea2d4b95","3650","
                  <p style=""text-align: center;"">₪18
                                                <br>50%</p>
                  <p id=""wtp"" style=""text-align:center; margin-top: 0px; margin-bottom: 0px; font-size: 40px"";>מוכנים לשלם: <span id=""c_p_y""></span></p>","27","evaluation","11","10","2C,16C,22B,28A","50","18","27","","","","","","","","","","","","","","",""
"","","","","","html-keyboard-response","50","168140","0.0-17.0-2.10","283a4d7f-410c-4f66-9939-cf61ea2d4b95","null","<p style=""text-align: center;"">+</p>","null","fixation","","","","","","","","","","","","","","","","","","","","",""
"","","","","","html-slider-response","51","169146","0.0-17.0-0.11","283a4d7f-410c-4f66-9939-cf61ea2d4b95","1000","
                  <p style=""text-align: center;"">₪4
                                                <br>75%</p>
                  <p id=""wtp"" style=""text-align:center; margin-top: 0px; margin-bottom: 0px; font-size: 40px"";>&ensp;</p>","-","viewing","0","3","12B,20B,23B,27C,29C","","","","","","","","","","","","","","","","","",""
"","","","","","html-slider-response","52","172010","0.0-17.0-1.11","283a4d7f-410c-4f66-9939-cf61ea2d4b95","2864","
                  <p style=""text-align: center;"">₪4
                                                <br>75%</p>
                  <p id=""wtp"" style=""text-align:center; margin-top: 0px; margin-bottom: 0px; font-size: 40px"";>מוכנים לשלם: <span id=""c_p_y""></span></p>","25","evaluation","4","3","12B,20B,23B,27C,29C","75","4","25","","","","","","","","","","","","","","",""
"","","","","","html-keyboard-response","53","173505","0.0-17.0-2.11","283a4d7f-410c-4f66-9939-cf61ea2d4b95","null","<p style=""text-align: center;"">+</p>","null","fixation","","","","","","","","","","","","","","","","","","","","",""
"","","","","","html-slider-response","54","174507","0.0-17.0-0.12","283a4d7f-410c-4f66-9939-cf61ea2d4b95","1000","
                  <p style=""text-align: center;"">₪39
                                                <br>60%</p>
                  <p id=""wtp"" style=""text-align:center; margin-top: 0px; margin-bottom: 0px; font-size: 40px"";>&ensp;</p>","-","viewing","0","15","9C,25B","","","","","","","","","","","","","","","","","",""
"","","","","","html-slider-response","55","176354","0.0-17.0-1.12","283a4d7f-410c-4f66-9939-cf61ea2d4b95","1846","
                  <p style=""text-align: center;"">₪39
                                                <br>60%</p>
                  <p id=""wtp"" style=""text-align:center; margin-top: 0px; margin-bottom: 0px; font-size: 40px"";>מוכנים לשלם: <span id=""c_p_y""></span></p>","40","evaluation","50","15","9C,25B","60","39","40","","","","","","","","","","","","","","",""
"","","","","","html-keyboard-response","56","176925","0.0-17.0-2.12","283a4d7f-410c-4f66-9939-cf61ea2d4b95","null","<p style=""text-align: center;"">+</p>","null","fixation","","","","","","","","","","","","","","","","","","","","",""
"","","","","","html-slider-response","57","177940","0.0-17.0-0.13","283a4d7f-410c-4f66-9939-cf61ea2d4b95","1000","
                  <p style=""text-align: center;"">₪76
                                                <br>65%</p>
                  <p id=""wtp"" style=""text-align:center; margin-top: 0px; margin-bottom: 0px; font-size: 40px"";>&ensp;</p>","-","viewing","0","29","8C,19A,24B","","","","","","","","","","","","","","","","","",""
"","","","","","html-slider-response","58","179746","0.0-17.0-1.13","283a4d7f-410c-4f66-9939-cf61ea2d4b95","1805","
                  <p style=""text-align: center;"">₪76
                                                <br>65%</p>
                  <p id=""wtp"" style=""text-align:center; margin-top: 0px; margin-bottom: 0px; font-size: 40px"";>מוכנים לשלם: <span id=""c_p_y""></span></p>","66","evaluation","74","29","8C,19A,24B","65","76","66","","","","","","","","","","","","","","",""
"","","","","","html-keyboard-response","59","180835","0.0-17.0-2.13","283a4d7f-410c-4f66-9939-cf61ea2d4b95","null","<p style=""text-align: center;"">+</p>","null","fixation","","","","","","","","","","","","","","","","","","","","",""
"","","","","","html-slider-response","60","181852","0.0-17.0-0.14","283a4d7f-410c-4f66-9939-cf61ea2d4b95","1000","
                  <p style=""text-align: center;"">₪36
                                                <br>75%</p>
                  <p id=""wtp"" style=""text-align:center; margin-top: 0px; margin-bottom: 0px; font-size: 40px"";>&ensp;</p>","-","viewing","0","14","4B,5A,13B,16B","","","","","","","","","","","","","","","","","",""
"","","","","","html-slider-response","61","185226","0.0-17.0-1.14","283a4d7f-410c-4f66-9939-cf61ea2d4b95","3373","
                  <p style=""text-align: center;"">₪36
                                                <br>75%</p>
                  <p id=""wtp"" style=""text-align:center; margin-top: 0px; margin-bottom: 0px; font-size: 40px"";>מוכנים לשלם: <span id=""c_p_y""></span></p>","37","evaluation","9","14","4B,5A,13B,16B","75","36","37","","","","","","","","","","","","","","",""
"","","","","","html-keyboard-response","62","185779","0.0-17.0-2.14","283a4d7f-410c-4f66-9939-cf61ea2d4b95","null","<p style=""text-align: center;"">+</p>","null","fixation","","","","","","","","","","","","","","","","","","","","",""
"","","","","","html-slider-response","63","186793","0.0-17.0-0.15","283a4d7f-410c-4f66-9939-cf61ea2d4b95","1000","
                  <p style=""text-align: center;"">₪4
                                                <br>25%</p>
                  <p id=""wtp"" style=""text-align:center; margin-top: 0px; margin-bottom: 0px; font-size: 40px"";>&ensp;</p>","-","viewing","0","1","6C,29B,30C","","","","","","","","","","","","","","","","","",""
"","","","","","html-slider-response","64","188858","0.0-17.0-1.15","283a4d7f-410c-4f66-9939-cf61ea2d4b95","2064","
                  <p style=""text-align: center;"">₪4
                                                <br>25%</p>
                  <p id=""wtp"" style=""text-align:center; margin-top: 0px; margin-bottom: 0px; font-size: 40px"";>מוכנים לשלם: <span id=""c_p_y""></span></p>","19","evaluation","36","1","6C,29B,30C","25","4","19","","","","","","","","","","","","","","",""
"","","","","","html-keyboard-response","65","189556","0.0-17.0-2.15","283a4d7f-410c-4f66-9939-cf61ea2d4b95","null","<p style=""text-align: center;"">+</p>","null","fixation","","","","","","","","","","","","","","","","","","","","",""
"","","","","","html-slider-response","66","190567","0.0-17.0-0.16","283a4d7f-410c-4f66-9939-cf61ea2d4b95","1000","
                  <p style=""text-align: center;"">₪43
                                                <br>60%</p>
                  <p id=""wtp"" style=""text-align:center; margin-top: 0px; margin-bottom: 0px; font-size: 40px"";>&ensp;</p>","-","viewing","0","17","2A,7A,9A,15B","","","","","","","","","","","","","","","","","",""
"","","","","","html-slider-response","67","193499","0.0-17.0-1.16","283a4d7f-410c-4f66-9939-cf61ea2d4b95","2930","
                  <p style=""text-align: center;"">₪43
                                                <br>60%</p>
                  <p id=""wtp"" style=""text-align:center; margin-top: 0px; margin-bottom: 0px; font-size: 40px"";>מוכנים לשלם: <span id=""c_p_y""></span></p>","47","evaluation","1","17","2A,7A,9A,15B","60","43","47","","","","","","","","","","","","","","",""
"","","","","","html-keyboard-response","68","194866","0.0-17.0-2.16","283a4d7f-410c-4f66-9939-cf61ea2d4b95","null","<p style=""text-align: center;"">+</p>","null","fixation","","","","","","","","","","","","","","","","","","","","",""
"","","","","","html-slider-response","69","195880","0.0-17.0-0.17","283a4d7f-410c-4f66-9939-cf61ea2d4b95","1000","
                  <p style=""text-align: center;"">₪39
                                                <br>65%</p>
                  <p id=""wtp"" style=""text-align:center; margin-top: 0px; margin-bottom: 0px; font-size: 40px"";>&ensp;</p>","-","viewing","0","16","1A,15A,26C","","","","","","","","","","","","","","","","","",""
"","","","","","html-slider-response","70","198290","0.0-17.0-1.17","283a4d7f-410c-4f66-9939-cf61ea2d4b95","2409","
                  <p style=""text-align: center;"">₪39
                                                <br>65%</p>
                  <p id=""wtp"" style=""text-align:center; margin-top: 0px; margin-bottom: 0px; font-size: 40px"";>מוכנים לשלם: <span id=""c_p_y""></span></p>","38","evaluation","17","16","1A,15A,26C","65","39","38","","","","","","","","","","","","","","",""
"","","","","","html-keyboard-response","71","199186","0.0-17.0-2.17","283a4d7f-410c-4f66-9939-cf61ea2d4b95","null","<p style=""text-align: center;"">+</p>","null","fixation","","","","","","","","","","","","","","","","","","","","",""
"","","","","","html-slider-response","72","200199","0.0-17.0-0.18","283a4d7f-410c-4f66-9939-cf61ea2d4b95","1000","
                  <p style=""text-align: center;"">₪61
                                                <br>45%</p>
                  <p id=""wtp"" style=""text-align:center; margin-top: 0px; margin-bottom: 0px; font-size: 40px"";>&ensp;</p>","-","viewing","0","22","10A,11A","","","","","","","","","","","","","","","","","",""
"","","","","","html-slider-response","73","203202","0.0-17.0-1.18","283a4d7f-410c-4f66-9939-cf61ea2d4b95","3003","
                  <p style=""text-align: center;"">₪61
                                                <br>45%</p>
                  <p id=""wtp"" style=""text-align:center; margin-top: 0px; margin-bottom: 0px; font-size: 40px"";>מוכנים לשלם: <span id=""c_p_y""></span></p>","61","evaluation","77","22","10A,11A","45","61","61","","","","","","","","","","","","","","",""
"","","","","","html-keyboard-response","74","204527","0.0-17.0-2.18","283a4d7f-410c-4f66-9939-cf61ea2d4b95","null","<p style=""text-align: center;"">+</p>","null","fixation","","","","","","","","","","","","","","","","","","","","",""
"","","","","","html-slider-response","75","205543","0.0-17.0-0.19","283a4d7f-410c-4f66-9939-cf61ea2d4b95","1000","
                  <p style=""text-align: center;"">₪58
                                                <br>40%</p>
                  <p id=""wtp"" style=""text-align:center; margin-top: 0px; margin-bottom: 0px; font-size: 40px"";>&ensp;</p>","-","viewing","0","20","10C,13A,19C,21B","","","","","","","","","","","","","","","","","",""
"","","","","","html-slider-response","76","209559","0.0-17.0-1.19","283a4d7f-410c-4f66-9939-cf61ea2d4b95","null","
                  <p style=""text-align: center;"">₪58
                                                <br>40%</p>
                  <p id=""wtp"" style=""text-align:center; margin-top: 0px; margin-bottom: 0px; font-size: 40px"";>מוכנים לשלם: <span id=""c_p_y""></span></p>","null","evaluation","54","20","10C,13A,19C,21B","40","58","44","","","","","","","","","","","","","","",""
"","","","","","html-keyboard-response","77","211043","0.0-17.0-2.19","283a4d7f-410c-4f66-9939-cf61ea2d4b95","null","<p style=""text-align: center;"">+</p>","null","fixation","","","","","","","","","","","","","","","","","","","","",""
"","","","","","html-slider-response","78","212046","0.0-17.0-0.20","283a4d7f-410c-4f66-9939-cf61ea2d4b95","1000","
                  <p style=""text-align: center;"">₪36
                                                <br>30%</p>
                  <p id=""wtp"" style=""text-align:center; margin-top: 0px; margin-bottom: 0px; font-size: 40px"";>&ensp;</p>","-","viewing","0","11","3C,20A,22A","","","","","","","","","","","","","","","","","",""
"","","","","","html-slider-response","79","213907","0.0-17.0-1.20","283a4d7f-410c-4f66-9939-cf61ea2d4b95","1859","
                  <p style=""text-align: center;"">₪36
                                                <br>30%</p>
                  <p id=""wtp"" style=""text-align:center; margin-top: 0px; margin-bottom: 0px; font-size: 40px"";>מוכנים לשלם: <span id=""c_p_y""></span></p>","42","evaluation","3","11","3C,20A,22A","30","36","41","","","","","","","","","","","","","","",""
"","","","","","html-keyboard-response","80","214768","0.0-17.0-2.20","283a4d7f-410c-4f66-9939-cf61ea2d4b95","null","<p style=""text-align: center;"">+</p>","null","fixation","","","","","","","","","","","","","","","","","","","","",""
"","","","","","html-slider-response","81","215774","0.0-17.0-0.21","283a4d7f-410c-4f66-9939-cf61ea2d4b95","1000","
                  <p style=""text-align: center;"">₪64
                                                <br>50%</p>
                  <p id=""wtp"" style=""text-align:center; margin-top: 0px; margin-bottom: 0px; font-size: 40px"";>&ensp;</p>","-","viewing","0","25","1B,3B,4A","","","","","","","","","","","","","","","","","",""
"","","","","","html-slider-response","82","217682","0.0-17.0-1.21","283a4d7f-410c-4f66-9939-cf61ea2d4b95","1907","
                  <p style=""text-align: center;"">₪64
                                                <br>50%</p>
                  <p id=""wtp"" style=""text-align:center; margin-top: 0px; margin-bottom: 0px; font-size: 40px"";>מוכנים לשלם: <span id=""c_p_y""></span></p>","65","evaluation","20","25","1B,3B,4A","50","64","65","","","","","","","","","","","","","","",""
"","","","","","html-keyboard-response","83","219153","0.0-17.0-2.21","283a4d7f-410c-4f66-9939-cf61ea2d4b95","null","<p style=""text-align: center;"">+</p>","null","fixation","","","","","","","","","","","","","","","","","","","","",""
"","","","","","html-slider-response","84","220156","0.0-17.0-0.22","283a4d7f-410c-4f66-9939-cf61ea2d4b95","1000","
                  <p style=""text-align: center;"">₪58
                                                <br>30%</p>
                  <p id=""wtp"" style=""text-align:center; margin-top: 0px; margin-bottom: 0px; font-size: 40px"";>&ensp;</p>","-","viewing","0","19","13C,30A","","","","","","","","","","","","","","","","","",""
"","","","","","html-slider-response","85","222530","0.0-17.0-1.22","283a4d7f-410c-4f66-9939-cf61ea2d4b95","2373","
                  <p style=""text-align: center;"">₪58
                                                <br>30%</p>
                  <p id=""wtp"" style=""text-align:center; margin-top: 0px; margin-bottom: 0px; font-size: 40px"";>מוכנים לשלם: <span id=""c_p_y""></span></p>","38","evaluation","73","19","13C,30A","30","58","38","","","","","","","","","","","","","","",""
"","","","","","html-keyboard-response","86","223462","0.0-17.0-2.22","283a4d7f-410c-4f66-9939-cf61ea2d4b95","null","<p style=""text-align: center;"">+</p>","null","fixation","","","","","","","","","","","","","","","","","","","","",""
"","","","","","html-slider-response","87","224466","0.0-17.0-0.23","283a4d7f-410c-4f66-9939-cf61ea2d4b95","1000","
                  <p style=""text-align: center;"">₪43
                                                <br>75%</p>
                  <p id=""wtp"" style=""text-align:center; margin-top: 0px; margin-bottom: 0px; font-size: 40px"";>&ensp;</p>","-","viewing","0","18","11B,19B,24A,26A","","","","","","","","","","","","","","","","","",""
"","","","","","html-slider-response","88","226242","0.0-17.0-1.23","283a4d7f-410c-4f66-9939-cf61ea2d4b95","1775","
                  <p style=""text-align: center;"">₪43
                                                <br>75%</p>
                  <p id=""wtp"" style=""text-align:center; margin-top: 0px; margin-bottom: 0px; font-size: 40px"";>מוכנים לשלם: <span id=""c_p_y""></span></p>","69","evaluation","38","18","11B,19B,24A,26A","75","43","69","","","","","","","","","","","","","","",""
"","","","","","html-keyboard-response","89","227524","0.0-17.0-2.23","283a4d7f-410c-4f66-9939-cf61ea2d4b95","null","<p style=""text-align: center;"">+</p>","null","fixation","","","","","","","","","","","","","","","","","","","","",""
"","","","","","html-slider-response","90","228530","0.0-17.0-0.24","283a4d7f-410c-4f66-9939-cf61ea2d4b95","1000","
                  <p style=""text-align: center;"">₪18
                                                <br>25%</p>
                  <p id=""wtp"" style=""text-align:center; margin-top: 0px; margin-bottom: 0px; font-size: 40px"";>&ensp;</p>","-","viewing","0","9","14A,23A","","","","","","","","","","","","","","","","","",""
"","","","","","html-slider-response","91","230634","0.0-17.0-1.24","283a4d7f-410c-4f66-9939-cf61ea2d4b95","2104","
                  <p style=""text-align: center;"">₪18
                                                <br>25%</p>
                  <p id=""wtp"" style=""text-align:center; margin-top: 0px; margin-bottom: 0px; font-size: 40px"";>מוכנים לשלם: <span id=""c_p_y""></span></p>","26","evaluation","70","9","14A,23A","25","18","26","","","","","","","","","","","","","","",""
"","","","","","html-keyboard-response","92","232121","0.0-17.0-2.24","283a4d7f-410c-4f66-9939-cf61ea2d4b95","null","<p style=""text-align: center;"">+</p>","null","fixation","","","","","","","","","","","","","","","","","","","","",""
"","","","","","html-slider-response","93","233135","0.0-17.0-0.25","283a4d7f-410c-4f66-9939-cf61ea2d4b95","1000","
                  <p style=""text-align: center;"">₪79
                                                <br>40%</p>
                  <p id=""wtp"" style=""text-align:center; margin-top: 0px; margin-bottom: 0px; font-size: 40px"";>&ensp;</p>","-","viewing","0","30","9B","","","","","","","","","","","","","","","","","",""
"","","","","","html-slider-response","94","235634","0.0-17.0-1.25","283a4d7f-410c-4f66-9939-cf61ea2d4b95","2498","
                  <p style=""text-align: center;"">₪79
                                                <br>40%</p>
                  <p id=""wtp"" style=""text-align:center; margin-top: 0px; margin-bottom: 0px; font-size: 40px"";>מוכנים לשלם: <span id=""c_p_y""></span></p>","42","evaluation","33","30","9B","40","79","42","","","","","","","","","","","","","","",""
"","","","","","html-keyboard-response","95","236834","0.0-17.0-2.25","283a4d7f-410c-4f66-9939-cf61ea2d4b95","null","<p style=""text-align: center;"">+</p>","null","fixation","","","","","","","","","","","","","","","","","","","","",""
"","","","","","html-slider-response","96","237846","0.0-17.0-0.26","283a4d7f-410c-4f66-9939-cf61ea2d4b95","1000","
                  <p style=""text-align: center;"">₪11
                                                <br>45%</p>
                  <p id=""wtp"" style=""text-align:center; margin-top: 0px; margin-bottom: 0px; font-size: 40px"";>&ensp;</p>","-","viewing","0","6","14B,21C,25C","","","","","","","","","","","","","","","","","",""
"","","","","","html-slider-response","97","239227","0.0-17.0-1.26","283a4d7f-410c-4f66-9939-cf61ea2d4b95","1379","
                  <p style=""text-align: center;"">₪11
                                                <br>45%</p>
                  <p id=""wtp"" style=""text-align:center; margin-top: 0px; margin-bottom: 0px; font-size: 40px"";>מוכנים לשלם: <span id=""c_p_y""></span></p>","21","evaluation","16","6","14B,21C,25C","45","11","21","","","","","","","","","","","","","","",""
"","","","","","html-keyboard-response","98","239916","0.0-17.0-2.26","283a4d7f-410c-4f66-9939-cf61ea2d4b95","null","<p style=""text-align: center;"">+</p>","null","fixation","","","","","","","","","","","","","","","","","","","","",""
"","","","","","html-slider-response","99","240930","0.0-17.0-0.27","283a4d7f-410c-4f66-9939-cf61ea2d4b95","1000","
                  <p style=""text-align: center;"">₪71
                                                <br>45%</p>
                  <p id=""wtp"" style=""text-align:center; margin-top: 0px; margin-bottom: 0px; font-size: 40px"";>&ensp;</p>","-","viewing","0","26","2B,16A","","","","","","","","","","","","","","","","","",""
"","","","","","html-slider-response","100","242275","0.0-17.0-1.27","283a4d7f-410c-4f66-9939-cf61ea2d4b95","1343","
                  <p style=""text-align: center;"">₪71
                                                <br>45%</p>
                  <p id=""wtp"" style=""text-align:center; margin-top: 0px; margin-bottom: 0px; font-size: 40px"";>מוכנים לשלם: <span id=""c_p_y""></span></p>","50","evaluation","1","26","2B,16A","45","71","50","","","","","","","","","","","","","","",""
"","","","","","html-keyboard-response","101","242976","0.0-17.0-2.27","283a4d7f-410c-4f66-9939-cf61ea2d4b95","null","<p style=""text-align: center;"">+</p>","null","fixation","","","","","","","","","","","","","","","","","","","","",""
"","","","","","html-slider-response","102","243981","0.0-17.0-0.28","283a4d7f-410c-4f66-9939-cf61ea2d4b95","1000","
                  <p style=""text-align: center;"">₪4
                                                <br>50%</p>
                  <p id=""wtp"" style=""text-align:center; margin-top: 0px; margin-bottom: 0px; font-size: 40px"";>&ensp;</p>","-","viewing","0","2","4C,17B","","","","","","","","","","","","","","","","","",""
"","","","","","html-slider-response","103","246395","0.0-17.0-1.28","283a4d7f-410c-4f66-9939-cf61ea2d4b95","2412","
                  <p style=""text-align: center;"">₪4
                                                <br>50%</p>
                  <p id=""wtp"" style=""text-align:center; margin-top: 0px; margin-bottom: 0px; font-size: 40px"";>מוכנים לשלם: <span id=""c_p_y""></span></p>","22","evaluation","32","2","4C,17B","50","4","22","","","","","","","","","","","","","","",""
"","","","","","html-keyboard-response","104","247241","0.0-17.0-2.28","283a4d7f-410c-4f66-9939-cf61ea2d4b95","null","<p style=""text-align: center;"">+</p>","null","fixation","","","","","","","","","","","","","","","","","","","","",""
"","","","","","html-slider-response","105","248244","0.0-17.0-0.29","283a4d7f-410c-4f66-9939-cf61ea2d4b95","1000","
                  <p style=""text-align: center;"">₪58
                                                <br>45%</p>
                  <p id=""wtp"" style=""text-align:center; margin-top: 0px; margin-bottom: 0px; font-size: 40px"";>&ensp;</p>","-","viewing","0","21","11C,18C,25A","","","","","","","","","","","","","","","","","",""
"","","","","","html-slider-response","106","250067","0.0-17.0-1.29","283a4d7f-410c-4f66-9939-cf61ea2d4b95","1821","
                  <p style=""text-align: center;"">₪58
                                                <br>45%</p>
                  <p id=""wtp"" style=""text-align:center; margin-top: 0px; margin-bottom: 0px; font-size: 40px"";>מוכנים לשלם: <span id=""c_p_y""></span></p>","63","evaluation","45","21","11C,18C,25A","45","58","62","","","","","","","","","","","","","","",""
"","","","","","html-keyboard-response","107","251576","0.0-17.0-2.29","283a4d7f-410c-4f66-9939-cf61ea2d4b95","null","<p style=""text-align: center;"">+</p>","null","fixation","","","","","","","","","","","","","","","","","","","","",""
"","","","","","html-slider-response","108","252579","0.0-17.0-0.30","283a4d7f-410c-4f66-9939-cf61ea2d4b95","1000","
                  <p style=""text-align: center;"">₪16
                                                <br>20%</p>
                  <p id=""wtp"" style=""text-align:center; margin-top: 0px; margin-bottom: 0px; font-size: 40px"";>&ensp;</p>","-","viewing","0","8","14C,17A,20C,27A","","","","","","","","","","","","","","","","","",""
"","","","","","html-slider-response","109","255403","0.0-17.0-1.30","283a4d7f-410c-4f66-9939-cf61ea2d4b95","2822","
                  <p style=""text-align: center;"">₪16
                                                <br>20%</p>
                  <p id=""wtp"" style=""text-align:center; margin-top: 0px; margin-bottom: 0px; font-size: 40px"";>מוכנים לשלם: <span id=""c_p_y""></span></p>","15","evaluation","42","8","14C,17A,20C,27A","20","16","15","","","","","","","","","","","","","","",""
"","","","","","html-keyboard-response","110","256794","0.0-17.0-2.30","283a4d7f-410c-4f66-9939-cf61ea2d4b95","null","<p style=""text-align: center;"">+</p>","null","fixation","","","","","","","","","","","","","","","","","","","","",""
"","","","","","html-keyboard-response","111","257809","0.0-18.0","283a4d7f-410c-4f66-9939-cf61ea2d4b95","null","<p style=""text-align: center;"">+</p>","null","fixation","","","","","","","","","","","","","","","","","","","","",""
"","","","","","html-keyboard-response","112","259498","0.0-19.0","283a4d7f-410c-4f66-9939-cf61ea2d4b95","null","<p>הפסקה.
          <br>לחצו כדי להמשיך.</p>","1","scan_wait","","","","","","","","","","","","","","","","","","","","",""
"","","","","","html-keyboard-response","113","260504","0.0-20.0","283a4d7f-410c-4f66-9939-cf61ea2d4b95","null","<p style=""text-align: center;"">+</p>","null","fixation","","","","","","","","","","","","","","","","","","","","",""
"","","","","","html-slider-response","114","261506","0.0-21.0-0.0","283a4d7f-410c-4f66-9939-cf61ea2d4b95","1000","
                  <p style=""text-align: center;"">₪11
                                                <br>45%</p>
                  <p id=""wtp"" style=""text-align:center; margin-top: 0px; margin-bottom: 0px; font-size: 40px"";>&ensp;</p>","-","viewing","0","6","14B,21C,25C","","","","","","","","","","","","","","","","","",""
"","","","","","html-slider-response","115","264243","0.0-21.0-1.0","283a4d7f-410c-4f66-9939-cf61ea2d4b95","2735","
                  <p style=""text-align: center;"">₪11
                                                <br>45%</p>
                  <p id=""wtp"" style=""text-align:center; margin-top: 0px; margin-bottom: 0px; font-size: 40px"";>מוכנים לשלם: <span id=""c_p_y""></span></p>","21","evaluation","23","6","14B,21C,25C","45","11","22","","","","","","","","","","","","","","",""
"","","","","","html-keyboard-response","116","265136","0.0-21.0-2.0","283a4d7f-410c-4f66-9939-cf61ea2d4b95","null","<p style=""text-align: center;"">+</p>","null","fixation","","","","","","","","","","","","","","","","","","","","",""
"","","","","","html-slider-response","117","266138","0.0-21.0-0.1","283a4d7f-410c-4f66-9939-cf61ea2d4b95","1000","
                  <p style=""text-align: center;"">₪4
                                                <br>25%</p>
                  <p id=""wtp"" style=""text-align:center; margin-top: 0px; margin-bottom: 0px; font-size: 40px"";>&ensp;</p>","-","viewing","0","1","6C,29B,30C","","","","","","","","","","","","","","","","","",""
"","","","","","html-slider-response","118","267715","0.0-21.0-1.1","283a4d7f-410c-4f66-9939-cf61ea2d4b95","1575","
                  <p style=""text-align: center;"">₪4
                                                <br>25%</p>
                  <p id=""wtp"" style=""text-align:center; margin-top: 0px; margin-bottom: 0px; font-size: 40px"";>מוכנים לשלם: <span id=""c_p_y""></span></p>","16","evaluation","12","1","6C,29B,30C","25","4","17","","","","","","","","","","","","","","",""
"","","","","","html-keyboard-response","119","268646","0.0-21.0-2.1","283a4d7f-410c-4f66-9939-cf61ea2d4b95","null","<p style=""text-align: center;"">+</p>","null","fixation","","","","","","","","","","","","","","","","","","","","",""
"","","","","","html-slider-response","120","269654","0.0-21.0-0.2","283a4d7f-410c-4f66-9939-cf61ea2d4b95","1000","
                  <p style=""text-align: center;"">₪18
                                                <br>50%</p>
                  <p id=""wtp"" style=""text-align:center; margin-top: 0px; margin-bottom: 0px; font-size: 40px"";>&ensp;</p>","-","viewing","0","10","2C,16C,22B,28A","","","","","","","","","","","","","","","","","",""
"","","","","","html-slider-response","121","271315","0.0-21.0-1.2","283a4d7f-410c-4f66-9939-cf61ea2d4b95","1659","
                  <p style=""text-align: center;"">₪18
                                                <br>50%</p>
                  <p id=""wtp"" style=""text-align:center; margin-top: 0px; margin-bottom: 0px; font-size: 40px"";>מוכנים לשלם: <span id=""c_p_y""></span></p>","21","evaluation","78","10","2C,16C,22B,28A","50","18","21","","","","","","","","","","","","","","",""
"","","","","","html-keyboard-response","122","272522","0.0-21.0-2.2","283a4d7f-410c-4f66-9939-cf61ea2d4b95","null","<p style=""text-align: center;"">+</p>","null","fixation","","","","","","","","","","","","","","","","","","","","",""
"","","","","","html-slider-response","123","273525","0.0-21.0-0.3","283a4d7f-410c-4f66-9939-cf61ea2d4b95","1000","
                  <p style=""text-align: center;"">₪43
                                                <br>75%</p>
                  <p id=""wtp"" style=""text-align:center; margin-top: 0px; margin-bottom: 0px; font-size: 40px"";>&ensp;</p>","-","viewing","0","18","11B,19B,24A,26A","","","","","","","","","","","","","","","","","",""
"","","","","","html-slider-response","124","274995","0.0-21.0-1.3","283a4d7f-410c-4f66-9939-cf61ea2d4b95","1469","
                  <p style=""text-align: center;"">₪43
                                                <br>75%</p>
                  <p id=""wtp"" style=""text-align:center; margin-top: 0px; margin-bottom: 0px; font-size: 40px"";>מוכנים לשלם: <span id=""c_p_y""></span></p>","51","evaluation","27","18","11B,19B,24A,26A","75","43","50","","","","","","","","","","","","","","",""
"","","","","","html-keyboard-response","125","275611","0.0-21.0-2.3","283a4d7f-410c-4f66-9939-cf61ea2d4b95","null","<p style=""text-align: center;"">+</p>","null","fixation","","","","","","","","","","","","","","","","","","","","",""
"","","","","","html-slider-response","126","276626","0.0-21.0-0.4","283a4d7f-410c-4f66-9939-cf61ea2d4b95","1000","
                  <p style=""text-align: center;"">₪58
                                                <br>45%</p>
                  <p id=""wtp"" style=""text-align:center; margin-top: 0px; margin-bottom: 0px; font-size: 40px"";>&ensp;</p>","-","viewing","0","21","11C,18C,25A","","","","","","","","","","","","","","","","","",""
"","","","","","html-slider-response","127","278147","0.0-21.0-1.4","283a4d7f-410c-4f66-9939-cf61ea2d4b95","1519","
                  <p style=""text-align: center;"">₪58
                                                <br>45%</p>
                  <p id=""wtp"" style=""text-align:center; margin-top: 0px; margin-bottom: 0px; font-size: 40px"";>מוכנים לשלם: <span id=""c_p_y""></span></p>","47","evaluation","51","21","11C,18C,25A","45","58","47","","","","","","","","","","","","","","",""
"","","","","","html-keyboard-response","128","279463","0.0-21.0-2.4","283a4d7f-410c-4f66-9939-cf61ea2d4b95","null","<p style=""text-align: center;"">+</p>","null","fixation","","","","","","","","","","","","","","","","","","","","",""
"","","","","","html-slider-response","129","280473","0.0-21.0-0.5","283a4d7f-410c-4f66-9939-cf61ea2d4b95","1000","
                  <p style=""text-align: center;"">₪36
                                                <br>60%</p>
                  <p id=""wtp"" style=""text-align:center; margin-top: 0px; margin-bottom: 0px; font-size: 40px"";>&ensp;</p>","-","viewing","0","12","1C,7C,15C","","","","","","","","","","","","","","","","","",""
"","","","","","html-slider-response","130","282451","0.0-21.0-1.5","283a4d7f-410c-4f66-9939-cf61ea2d4b95","1976","
                  <p style=""text-align: center;"">₪36
                                                <br>60%</p>
                  <p id=""wtp"" style=""text-align:center; margin-top: 0px; margin-bottom: 0px; font-size: 40px"";>מוכנים לשלם: <span id=""c_p_y""></span></p>","51","evaluation","43","12","1C,7C,15C","60","36","50","","","","","","","","","","","","","","",""
"","","","","","html-keyboard-response","131","283762","0.0-21.0-2.5","283a4d7f-410c-4f66-9939-cf61ea2d4b95","null","<p style=""text-align: center;"">+</p>","null","fixation","","","","","","","","","","","","","","","","","","","","",""
"","","","","","html-slider-response","132","284780","0.0-21.0-0.6","283a4d7f-410c-4f66-9939-cf61ea2d4b95","1000","
                  <p style=""text-align: center;"">₪36
                                                <br>70%</p>
                  <p id=""wtp"" style=""text-align:center; margin-top: 0px; margin-bottom: 0px; font-size: 40px"";>&ensp;</p>","-","viewing","0","13","3A,5C,10B","","","","","","","","","","","","","","","","","",""
"","","","","","html-slider-response","133","286954","0.0-21.0-1.6","283a4d7f-410c-4f66-9939-cf61ea2d4b95","2173","
                  <p style=""text-align: center;"">₪36
                                                <br>70%</p>
                  <p id=""wtp"" style=""text-align:center; margin-top: 0px; margin-bottom: 0px; font-size: 40px"";>מוכנים לשלם: <span id=""c_p_y""></span></p>","72","evaluation","64","13","3A,5C,10B","70","36","72","","","","","","","","","","","","","","",""
"","","","","","html-keyboard-response","134","288295","0.0-21.0-2.6","283a4d7f-410c-4f66-9939-cf61ea2d4b95","null","<p style=""text-align: center;"">+</p>","null","fixation","","","","","","","","","","","","","","","","","","","","",""
"","","","","","html-slider-response","135","289297","0.0-21.0-0.7","283a4d7f-410c-4f66-9939-cf61ea2d4b95","1000","
                  <p style=""text-align: center;"">₪71
                                                <br>55%</p>
                  <p id=""wtp"" style=""text-align:center; margin-top: 0px; margin-bottom: 0px; font-size: 40px"";>&ensp;</p>","-","viewing","0","27","5B,18A","","","","","","","","","","","","","","","","","",""
"","","","","","html-slider-response","136","290186","0.0-21.0-1.7","283a4d7f-410c-4f66-9939-cf61ea2d4b95","889","
                  <p style=""text-align: center;"">₪71
                                                <br>55%</p>
                  <p id=""wtp"" style=""text-align:center; margin-top: 0px; margin-bottom: 0px; font-size: 40px"";>מוכנים לשלם: <span id=""c_p_y""></span></p>","72","evaluation","55","27","5B,18A","55","71","72","","","","","","","","","","","","","","",""
"","","","","","html-keyboard-response","137","291589","0.0-21.0-2.7","283a4d7f-410c-4f66-9939-cf61ea2d4b95","null","<p style=""text-align: center;"">+</p>","null","fixation","","","","","","","","","","","","","","","","","","","","",""
"","","","","","html-slider-response","138","292601","0.0-21.0-0.8","283a4d7f-410c-4f66-9939-cf61ea2d4b95","1000","
                  <p style=""text-align: center;"">₪71
                                                <br>75%</p>
                  <p id=""wtp"" style=""text-align:center; margin-top: 0px; margin-bottom: 0px; font-size: 40px"";>&ensp;</p>","-","viewing","0","28","8B","","","","","","","","","","","","","","","","","",""
"","","","","","html-slider-response","139","293506","0.0-21.0-1.8","283a4d7f-410c-4f66-9939-cf61ea2d4b95","904","
                  <p style=""text-align: center;"">₪71
                                                <br>75%</p>
                  <p id=""wtp"" style=""text-align:center; margin-top: 0px; margin-bottom: 0px; font-size: 40px"";>מוכנים לשלם: <span id=""c_p_y""></span></p>","80","evaluation","32","28","8B","75","71","80","","","","","","","","","","","","","","",""
"","","","","","html-keyboard-response","140","294200","0.0-21.0-2.8","283a4d7f-410c-4f66-9939-cf61ea2d4b95","null","<p style=""text-align: center;"">+</p>","null","fixation","","","","","","","","","","","","","","","","","","","","",""
"","","","","","html-slider-response","141","295210","0.0-21.0-0.9","283a4d7f-410c-4f66-9939-cf61ea2d4b95","1000","
                  <p style=""text-align: center;"">₪61
                                                <br>55%</p>
                  <p id=""wtp"" style=""text-align:center; margin-top: 0px; margin-bottom: 0px; font-size: 40px"";>&ensp;</p>","-","viewing","0","23","7B,26B","","","","","","","","","","","","","","","","","",""
"","","","","","html-slider-response","142","297434","0.0-21.0-1.9","283a4d7f-410c-4f66-9939-cf61ea2d4b95","2224","
                  <p style=""text-align: center;"">₪61
                                                <br>55%</p>
                  <p id=""wtp"" style=""text-align:center; margin-top: 0px; margin-bottom: 0px; font-size: 40px"";>מוכנים לשלם: <span id=""c_p_y""></span></p>","68","evaluation","51","23","7B,26B","55","61","68","","","","","","","","","","","","","","",""
"","","","","","html-keyboard-response","143","298630","0.0-21.0-2.9","283a4d7f-410c-4f66-9939-cf61ea2d4b95","null","<p style=""text-align: center;"">+</p>","null","fixation","","","","","","","","","","","","","","","","","","","","",""
"","","","","","html-slider-response","144","299636","0.0-21.0-0.10","283a4d7f-410c-4f66-9939-cf61ea2d4b95","1000","
                  <p style=""text-align: center;"">₪64
                                                <br>25%</p>
                  <p id=""wtp"" style=""text-align:center; margin-top: 0px; margin-bottom: 0px; font-size: 40px"";>&ensp;</p>","-","viewing","0","24","6A,21A","","","","","","","","","","","","","","","","","",""
"","","","","","html-slider-response","145","301587","0.0-21.0-1.10","283a4d7f-410c-4f66-9939-cf61ea2d4b95","1950","
                  <p style=""text-align: center;"">₪64
                                                <br>25%</p>
                  <p id=""wtp"" style=""text-align:center; margin-top: 0px; margin-bottom: 0px; font-size: 40px"";>מוכנים לשלם: <span id=""c_p_y""></span></p>","32","evaluation","25","24","6A,21A","25","64","32","","","","","","","","","","","","","","",""
"","","","","","html-keyboard-response","146","302792","0.0-21.0-2.10","283a4d7f-410c-4f66-9939-cf61ea2d4b95","null","<p style=""text-align: center;"">+</p>","null","fixation","","","","","","","","","","","","","","","","","","","","",""
"","","","","","html-slider-response","147","303794","0.0-21.0-0.11","283a4d7f-410c-4f66-9939-cf61ea2d4b95","1000","
                  <p style=""text-align: center;"">₪18
                                                <br>25%</p>
                  <p id=""wtp"" style=""text-align:center; margin-top: 0px; margin-bottom: 0px; font-size: 40px"";>&ensp;</p>","-","viewing","0","9","14A,23A","","","","","","","","","","","","","","","","","",""
"","","","","","html-slider-response","148","305123","0.0-21.0-1.11","283a4d7f-410c-4f66-9939-cf61ea2d4b95","1328","
                  <p style=""text-align: center;"">₪18
                                                <br>25%</p>
                  <p id=""wtp"" style=""text-align:center; margin-top: 0px; margin-bottom: 0px; font-size: 40px"";>מוכנים לשלם: <span id=""c_p_y""></span></p>","21","evaluation","32","9","14A,23A","25","18","21","","","","","","","","","","","","","","",""
"","","","","","html-keyboard-response","149","306341","0.0-21.0-2.11","283a4d7f-410c-4f66-9939-cf61ea2d4b95","null","<p style=""text-align: center;"">+</p>","null","fixation","","","","","","","","","","","","","","","","","","","","",""
"","","","","","html-slider-response","150","307348","0.0-21.0-0.12","283a4d7f-410c-4f66-9939-cf61ea2d4b95","1000","
                  <p style=""text-align: center;"">₪61
                                                <br>45%</p>
                  <p id=""wtp"" style=""text-align:center; margin-top: 0px; margin-bottom: 0px; font-size: 40px"";>&ensp;</p>","-","viewing","0","22","10A,11A","","","","","","","","","","","","","","","","","",""
"","","","","","html-slider-response","151","308443","0.0-21.0-1.12","283a4d7f-410c-4f66-9939-cf61ea2d4b95","1094","
                  <p style=""text-align: center;"">₪61
                                                <br>45%</p>
                  <p id=""wtp"" style=""text-align:center; margin-top: 0px; margin-bottom: 0px; font-size: 40px"";>מוכנים לשלם: <span id=""c_p_y""></span></p>","41","evaluation","73","22","10A,11A","45","61","41","","","","","","","","","","","","","","",""
"","","","","","html-keyboard-response","152","309804","0.0-21.0-2.12","283a4d7f-410c-4f66-9939-cf61ea2d4b95","null","<p style=""text-align: center;"">+</p>","null","fixation","","","","","","","","","","","","","","","","","","","","",""
"","","","","","html-slider-response","153","310819","0.0-21.0-0.13","283a4d7f-410c-4f66-9939-cf61ea2d4b95","1000","
                  <p style=""text-align: center;"">₪79
                                                <br>65%</p>
                  <p id=""wtp"" style=""text-align:center; margin-top: 0px; margin-bottom: 0px; font-size: 40px"";>&ensp;</p>","-","viewing","0","31","8A","","","","","","","","","","","","","","","","","",""
"","","","","","html-slider-response","154","312875","0.0-21.0-1.13","283a4d7f-410c-4f66-9939-cf61ea2d4b95","2055","
                  <p style=""text-align: center;"">₪79
                                                <br>65%</p>
                  <p id=""wtp"" style=""text-align:center; margin-top: 0px; margin-bottom: 0px; font-size: 40px"";>מוכנים לשלם: <span id=""c_p_y""></span></p>","62","evaluation","36","31","8A","65","79","62","","","","","","","","","","","","","","",""
"","","","","","html-keyboard-response","155","313860","0.0-21.0-2.13","283a4d7f-410c-4f66-9939-cf61ea2d4b95","null","<p style=""text-align: center;"">+</p>","null","fixation","","","","","","","","","","","","","","","","","","","","",""
"","","","","","html-slider-response","156","314876","0.0-21.0-0.14","283a4d7f-410c-4f66-9939-cf61ea2d4b95","1000","
                  <p style=""text-align: center;"">₪64
                                                <br>50%</p>
                  <p id=""wtp"" style=""text-align:center; margin-top: 0px; margin-bottom: 0px; font-size: 40px"";>&ensp;</p>","-","viewing","0","25","1B,3B,4A","","","","","","","","","","","","","","","","","",""
"","","","","","html-slider-response","157","316659","0.0-21.0-1.14","283a4d7f-410c-4f66-9939-cf61ea2d4b95","1781","
                  <p style=""text-align: center;"">₪64
                                                <br>50%</p>
                  <p id=""wtp"" style=""text-align:center; margin-top: 0px; margin-bottom: 0px; font-size: 40px"";>מוכנים לשלם: <span id=""c_p_y""></span></p>","60","evaluation","41","25","1B,3B,4A","50","64","59","","","","","","","","","","","","","","",""
"","","","","","html-keyboard-response","158","318128","0.0-21.0-2.14","283a4d7f-410c-4f66-9939-cf61ea2d4b95","null","<p style=""text-align: center;"">+</p>","null","fixation","","","","","","","","","","","","","","","","","","","","",""
"","","","","","html-slider-response","159","319130","0.0-21.0-0.15","283a4d7f-410c-4f66-9939-cf61ea2d4b95","1000","
                  <p style=""text-align: center;"">₪39
                                                <br>60%</p>
                  <p id=""wtp"" style=""text-align:center; margin-top: 0px; margin-bottom: 0px; font-size: 40px"";>&ensp;</p>","-","viewing","0","15","9C,25B","","","","","","","","","","","","","","","","","",""
"","","","","","html-slider-response","160","321675","0.0-21.0-1.15","283a4d7f-410c-4f66-9939-cf61ea2d4b95","2543","
                  <p style=""text-align: center;"">₪39
                                                <br>60%</p>
                  <p id=""wtp"" style=""text-align:center; margin-top: 0px; margin-bottom: 0px; font-size: 40px"";>מוכנים לשלם: <span id=""c_p_y""></span></p>","43","evaluation","10","15","9C,25B","60","39","43","","","","","","","","","","","","","","",""
"","","","","","html-keyboard-response","161","322894","0.0-21.0-2.15","283a4d7f-410c-4f66-9939-cf61ea2d4b95","null","<p style=""text-align: center;"">+</p>","null","fixation","","","","","","","","","","","","","","","","","","","","",""
"","","","","","html-slider-response","162","323904","0.0-21.0-0.16","283a4d7f-410c-4f66-9939-cf61ea2d4b95","1000","
                  <p style=""text-align: center;"">₪58
                                                <br>30%</p>
                  <p id=""wtp"" style=""text-align:center; margin-top: 0px; margin-bottom: 0px; font-size: 40px"";>&ensp;</p>","-","viewing","0","19","13C,30A","","","","","","","","","","","","","","","","","",""
"","","","","","html-slider-response","163","325731","0.0-21.0-1.16","283a4d7f-410c-4f66-9939-cf61ea2d4b95","1825","
                  <p style=""text-align: center;"">₪58
                                                <br>30%</p>
                  <p id=""wtp"" style=""text-align:center; margin-top: 0px; margin-bottom: 0px; font-size: 40px"";>מוכנים לשלם: <span id=""c_p_y""></span></p>","30","evaluation","55","19","13C,30A","30","58","30","","","","","","","","","","","","","","",""
"","","","","","html-keyboard-response","164","326921","0.0-21.0-2.16","283a4d7f-410c-4f66-9939-cf61ea2d4b95","null","<p style=""text-align: center;"">+</p>","null","fixation","","","","","","","","","","","","","","","","","","","","",""
"","","","","","html-slider-response","165","327930","0.0-21.0-0.17","283a4d7f-410c-4f66-9939-cf61ea2d4b95","1000","
                  <p style=""text-align: center;"">₪79
                                                <br>40%</p>
                  <p id=""wtp"" style=""text-align:center; margin-top: 0px; margin-bottom: 0px; font-size: 40px"";>&ensp;</p>","-","viewing","0","30","9B","","","","","","","","","","","","","","","","","",""
"","","","","","html-slider-response","166","328971","0.0-21.0-1.17","283a4d7f-410c-4f66-9939-cf61ea2d4b95","1039","
                  <p style=""text-align: center;"">₪79
                                                <br>40%</p>
                  <p id=""wtp"" style=""text-align:center; margin-top: 0px; margin-bottom: 0px; font-size: 40px"";>מוכנים לשלם: <span id=""c_p_y""></span></p>","39","evaluation","69","30","9B","40","79","39","","","","","","","","","","","","","","",""
"","","","","","html-keyboard-response","167","329795","0.0-21.0-2.17","283a4d7f-410c-4f66-9939-cf61ea2d4b95","null","<p style=""text-align: center;"">+</p>","null","fixation","","","","","","","","","","","","","","","","","","","","",""
"","","","","","html-slider-response","168","330800","0.0-21.0-0.18","283a4d7f-410c-4f66-9939-cf61ea2d4b95","1000","
                  <p style=""text-align: center;"">₪43
                                                <br>60%</p>
                  <p id=""wtp"" style=""text-align:center; margin-top: 0px; margin-bottom: 0px; font-size: 40px"";>&ensp;</p>","-","viewing","0","17","2A,7A,9A,15B","","","","","","","","","","","","","","","","","",""
"","","","","","html-slider-response","169","332155","0.0-21.0-1.18","283a4d7f-410c-4f66-9939-cf61ea2d4b95","1354","
                  <p style=""text-align: center;"">₪43
                                                <br>60%</p>
                  <p id=""wtp"" style=""text-align:center; margin-top: 0px; margin-bottom: 0px; font-size: 40px"";>מוכנים לשלם: <span id=""c_p_y""></span></p>","47","evaluation","10","17","2A,7A,9A,15B","60","43","47","","","","","","","","","","","","","","",""
"","","","","","html-keyboard-response","170","332938","0.0-21.0-2.18","283a4d7f-410c-4f66-9939-cf61ea2d4b95","null","<p style=""text-align: center;"">+</p>","null","fixation","","","","","","","","","","","","","","","","","","","","",""
"","","","","","html-slider-response","171","333941","0.0-21.0-0.19","283a4d7f-410c-4f66-9939-cf61ea2d4b95","1000","
                  <p style=""text-align: center;"">₪36
                                                <br>75%</p>
                  <p id=""wtp"" style=""text-align:center; margin-top: 0px; margin-bottom: 0px; font-size: 40px"";>&ensp;</p>","-","viewing","0","14","4B,5A,13B,16B","","","","","","","","","","","","","","","","","",""
"","","","","","html-slider-response","172","335443","0.0-21.0-1.19","283a4d7f-410c-4f66-9939-cf61ea2d4b95","1501","
                  <p style=""text-align: center;"">₪36
                                                <br>75%</p>
                  <p id=""wtp"" style=""text-align:center; margin-top: 0px; margin-bottom: 0px; font-size: 40px"";>מוכנים לשלם: <span id=""c_p_y""></span></p>","70","evaluation","47","14","4B,5A,13B,16B","75","36","69","","","","","","","","","","","","","","",""
"","","","","","html-keyboard-response","173","336814","0.0-21.0-2.19","283a4d7f-410c-4f66-9939-cf61ea2d4b95","null","<p style=""text-align: center;"">+</p>","null","fixation","","","","","","","","","","","","","","","","","","","","",""
"","","","","","html-slider-response","174","337822","0.0-21.0-0.20","283a4d7f-410c-4f66-9939-cf61ea2d4b95","1000","
                  <p style=""text-align: center;"">₪39
                                                <br>65%</p>
                  <p id=""wtp"" style=""text-align:center; margin-top: 0px; margin-bottom: 0px; font-size: 40px"";>&ensp;</p>","-","viewing","0","16","1A,15A,26C","","","","","","","","","","","","","","","","","",""
"","","","","","html-slider-response","175","339883","0.0-21.0-1.20","283a4d7f-410c-4f66-9939-cf61ea2d4b95","2061","
                  <p style=""text-align: center;"">₪39
                                                <br>65%</p>
                  <p id=""wtp"" style=""text-align:center; margin-top: 0px; margin-bottom: 0px; font-size: 40px"";>מוכנים לשלם: <span id=""c_p_y""></span></p>","72","evaluation","51","16","1A,15A,26C","65","39","72","","","","","","","","","","","","","","",""
"","","","","","html-keyboard-response","176","340902","0.0-21.0-2.20","283a4d7f-410c-4f66-9939-cf61ea2d4b95","null","<p style=""text-align: center;"">+</p>","null","fixation","","","","","","","","","","","","","","","","","","","","",""
"","","","","","html-slider-response","177","341912","0.0-21.0-0.21","283a4d7f-410c-4f66-9939-cf61ea2d4b95","1000","
                  <p style=""text-align: center;"">₪16
                                                <br>20%</p>
                  <p id=""wtp"" style=""text-align:center; margin-top: 0px; margin-bottom: 0px; font-size: 40px"";>&ensp;</p>","-","viewing","0","8","14C,17A,20C,27A","","","","","","","","","","","","","","","","","",""
"","","","","","html-slider-response","178","344235","0.0-21.0-1.21","283a4d7f-410c-4f66-9939-cf61ea2d4b95","2322","
                  <p style=""text-align: center;"">₪16
                                                <br>20%</p>
                  <p id=""wtp"" style=""text-align:center; margin-top: 0px; margin-bottom: 0px; font-size: 40px"";>מוכנים לשלם: <span id=""c_p_y""></span></p>","14","evaluation","0","8","14C,17A,20C,27A","20","16","15","","","","","","","","","","","","","","",""
"","","","","","html-keyboard-response","179","345455","0.0-21.0-2.21","283a4d7f-410c-4f66-9939-cf61ea2d4b95","null","<p style=""text-align: center;"">+</p>","null","fixation","","","","","","","","","","","","","","","","","","","","",""
"","","","","","html-slider-response","180","346465","0.0-21.0-0.22","283a4d7f-410c-4f66-9939-cf61ea2d4b95","1000","
                  <p style=""text-align: center;"">₪36
                                                <br>30%</p>
                  <p id=""wtp"" style=""text-align:center; margin-top: 0px; margin-bottom: 0px; font-size: 40px"";>&ensp;</p>","-","viewing","0","11","3C,20A,22A","","","","","","","","","","","","","","","","","",""
"","","","","","html-slider-response","181","347362","0.0-21.0-1.22","283a4d7f-410c-4f66-9939-cf61ea2d4b95","897","
                  <p style=""text-align: center;"">₪36
                                                <br>30%</p>
                  <p id=""wtp"" style=""text-align:center; margin-top: 0px; margin-bottom: 0px; font-size: 40px"";>מוכנים לשלם: <span id=""c_p_y""></span></p>","19","evaluation","7","11","3C,20A,22A","30","36","19","","","","","","","","","","","","","","",""
"","","","","","html-keyboard-response","182","348381","0.0-21.0-2.22","283a4d7f-410c-4f66-9939-cf61ea2d4b95","null","<p style=""text-align: center;"">+</p>","null","fixation","","","","","","","","","","","","","","","","","","","","",""
"","","","","","html-slider-response","183","349397","0.0-21.0-0.23","283a4d7f-410c-4f66-9939-cf61ea2d4b95","1000","
                  <p style=""text-align: center;"">₪58
                                                <br>40%</p>
                  <p id=""wtp"" style=""text-align:center; margin-top: 0px; margin-bottom: 0px; font-size: 40px"";>&ensp;</p>","-","viewing","0","20","10C,13A,19C,21B","","","","","","","","","","","","","","","","","",""
"","","","","","html-slider-response","184","351651","0.0-21.0-1.23","283a4d7f-410c-4f66-9939-cf61ea2d4b95","2253","
                  <p style=""text-align: center;"">₪58
                                                <br>40%</p>
                  <p id=""wtp"" style=""text-align:center; margin-top: 0px; margin-bottom: 0px; font-size: 40px"";>מוכנים לשלם: <span id=""c_p_y""></span></p>","22","evaluation","64","20","10C,13A,19C,21B","40","58","22","","","","","","","","","","","","","","",""
"","","","","","html-keyboard-response","185","352744","0.0-21.0-2.23","283a4d7f-410c-4f66-9939-cf61ea2d4b95","null","<p style=""text-align: center;"">+</p>","null","fixation","","","","","","","","","","","","","","","","","","","","",""
"","","","","","html-slider-response","186","353749","0.0-21.0-0.24","283a4d7f-410c-4f66-9939-cf61ea2d4b95","1000","
                  <p style=""text-align: center;"">₪11
                                                <br>75%</p>
                  <p id=""wtp"" style=""text-align:center; margin-top: 0px; margin-bottom: 0px; font-size: 40px"";>&ensp;</p>","-","viewing","0","7","6B,18B,22C,24C,29A","","","","","","","","","","","","","","","","","",""
"","","","","","html-slider-response","187","355075","0.0-21.0-1.24","283a4d7f-410c-4f66-9939-cf61ea2d4b95","1325","
                  <p style=""text-align: center;"">₪11
                                                <br>75%</p>
                  <p id=""wtp"" style=""text-align:center; margin-top: 0px; margin-bottom: 0px; font-size: 40px"";>מוכנים לשלם: <span id=""c_p_y""></span></p>","74","evaluation","34","7","6B,18B,22C,24C,29A","75","11","74","","","","","","","","","","","","","","",""
"","","","","","html-keyboard-response","188","356353","0.0-21.0-2.24","283a4d7f-410c-4f66-9939-cf61ea2d4b95","null","<p style=""text-align: center;"">+</p>","null","fixation","","","","","","","","","","","","","","","","","","","","",""
"","","","","","html-slider-response","189","357356","0.0-21.0-0.25","283a4d7f-410c-4f66-9939-cf61ea2d4b95","1000","
                  <p style=""text-align: center;"">₪11
                                                <br>25%</p>
                  <p id=""wtp"" style=""text-align:center; margin-top: 0px; margin-bottom: 0px; font-size: 40px"";>&ensp;</p>","-","viewing","0","5","12A,27B,28B,30B","","","","","","","","","","","","","","","","","",""
"","","","","","html-slider-response","190","358235","0.0-21.0-1.25","283a4d7f-410c-4f66-9939-cf61ea2d4b95","877","
                  <p style=""text-align: center;"">₪11
                                                <br>25%</p>
                  <p id=""wtp"" style=""text-align:center; margin-top: 0px; margin-bottom: 0px; font-size: 40px"";>מוכנים לשלם: <span id=""c_p_y""></span></p>","23","evaluation","63","5","12A,27B,28B,30B","25","11","23","","","","","","","","","","","","","","",""
"","","","","","html-keyboard-response","191","359640","0.0-21.0-2.25","283a4d7f-410c-4f66-9939-cf61ea2d4b95","null","<p style=""text-align: center;"">+</p>","null","fixation","","","","","","","","","","","","","","","","","","","","",""
"","","","","","html-slider-response","192","360644","0.0-21.0-0.26","283a4d7f-410c-4f66-9939-cf61ea2d4b95","1000","
                  <p style=""text-align: center;"">₪71
                                                <br>45%</p>
                  <p id=""wtp"" style=""text-align:center; margin-top: 0px; margin-bottom: 0px; font-size: 40px"";>&ensp;</p>","-","viewing","0","26","2B,16A","","","","","","","","","","","","","","","","","",""
"","","","","","html-slider-response","193","361099","0.0-21.0-1.26","283a4d7f-410c-4f66-9939-cf61ea2d4b95","453","
                  <p style=""text-align: center;"">₪71
                                                <br>45%</p>
                  <p id=""wtp"" style=""text-align:center; margin-top: 0px; margin-bottom: 0px; font-size: 40px"";>מוכנים לשלם: <span id=""c_p_y""></span></p>","34","evaluation","72","26","2B,16A","45","71","34","","","","","","","","","","","","","","",""
"","","","","","html-keyboard-response","194","362065","0.0-21.0-2.26","283a4d7f-410c-4f66-9939-cf61ea2d4b95","null","<p style=""text-align: center;"">+</p>","null","fixation","","","","","","","","","","","","","","","","","","","","",""
"","","","","","html-slider-response","195","363074","0.0-21.0-0.27","283a4d7f-410c-4f66-9939-cf61ea2d4b95","1000","
                  <p style=""text-align: center;"">₪4
                                                <br>50%</p>
                  <p id=""wtp"" style=""text-align:center; margin-top: 0px; margin-bottom: 0px; font-size: 40px"";>&ensp;</p>","-","viewing","0","2","4C,17B","","","","","","","","","","","","","","","","","",""
"","","","","","html-slider-response","196","364867","0.0-21.0-1.27","283a4d7f-410c-4f66-9939-cf61ea2d4b95","1791","
                  <p style=""text-align: center;"">₪4
                                                <br>50%</p>
                  <p id=""wtp"" style=""text-align:center; margin-top: 0px; margin-bottom: 0px; font-size: 40px"";>מוכנים לשלם: <span id=""c_p_y""></span></p>","21","evaluation","59","2","4C,17B","50","4","22","","","","","","","","","","","","","","",""
"","","","","","html-keyboard-response","197","366371","0.0-21.0-2.27","283a4d7f-410c-4f66-9939-cf61ea2d4b95","null","<p style=""text-align: center;"">+</p>","null","fixation","","","","","","","","","","","","","","","","","","","","",""
"","","","","","html-slider-response","198","367384","0.0-21.0-0.28","283a4d7f-410c-4f66-9939-cf61ea2d4b95","1000","
                  <p style=""text-align: center;"">₪4
                                                <br>75%</p>
                  <p id=""wtp"" style=""text-align:center; margin-top: 0px; margin-bottom: 0px; font-size: 40px"";>&ensp;</p>","-","viewing","0","3","12B,20B,23B,27C,29C","","","","","","","","","","","","","","","","","",""
"","","","","","html-slider-response","199","370275","0.0-21.0-1.28","283a4d7f-410c-4f66-9939-cf61ea2d4b95","2889","
                  <p style=""text-align: center;"">₪4
                                                <br>75%</p>
                  <p id=""wtp"" style=""text-align:center; margin-top: 0px; margin-bottom: 0px; font-size: 40px"";>מוכנים לשלם: <span id=""c_p_y""></span></p>","62","evaluation","65","3","12B,20B,23B,27C,29C","75","4","61","","","","","","","","","","","","","","",""
"","","","","","html-keyboard-response","200","371581","0.0-21.0-2.28","283a4d7f-410c-4f66-9939-cf61ea2d4b95","null","<p style=""text-align: center;"">+</p>","null","fixation","","","","","","","","","","","","","","","","","","","","",""
"","","","","","html-slider-response","201","372592","0.0-21.0-0.29","283a4d7f-410c-4f66-9939-cf61ea2d4b95","1000","
                  <p style=""text-align: center;"">₪76
                                                <br>65%</p>
                  <p id=""wtp"" style=""text-align:center; margin-top: 0px; margin-bottom: 0px; font-size: 40px"";>&ensp;</p>","-","viewing","0","29","8C,19A,24B","","","","","","","","","","","","","","","","","",""
"","","","","","html-slider-response","202","374747","0.0-21.0-1.29","283a4d7f-410c-4f66-9939-cf61ea2d4b95","2153","
                  <p style=""text-align: center;"">₪76
                                                <br>65%</p>
                  <p id=""wtp"" style=""text-align:center; margin-top: 0px; margin-bottom: 0px; font-size: 40px"";>מוכנים לשלם: <span id=""c_p_y""></span></p>","75","evaluation","45","29","8C,19A,24B","65","76","75","","","","","","","","","","","","","","",""
"","","","","","html-keyboard-response","203","375956","0.0-21.0-2.29","283a4d7f-410c-4f66-9939-cf61ea2d4b95","null","<p style=""text-align: center;"">+</p>","null","fixation","","","","","","","","","","","","","","","","","","","","",""
"","","","","","html-slider-response","204","376965","0.0-21.0-0.30","283a4d7f-410c-4f66-9939-cf61ea2d4b95","1000","
                  <p style=""text-align: center;"">₪11
                                                <br>20%</p>
                  <p id=""wtp"" style=""text-align:center; margin-top: 0px; margin-bottom: 0px; font-size: 40px"";>&ensp;</p>","-","viewing","0","4","12C,17C,23C,28C","","","","","","","","","","","","","","","","","",""
"","","","","","html-slider-response","205","377515","0.0-21.0-1.30","283a4d7f-410c-4f66-9939-cf61ea2d4b95","548","
                  <p style=""text-align: center;"">₪11
                                                <br>20%</p>
                  <p id=""wtp"" style=""text-align:center; margin-top: 0px; margin-bottom: 0px; font-size: 40px"";>מוכנים לשלם: <span id=""c_p_y""></span></p>","23","evaluation","29","4","12C,17C,23C,28C","20","11","23","","","","","","","","","","","","","","",""
"","","","","","html-keyboard-response","206","378487","0.0-21.0-2.30","283a4d7f-410c-4f66-9939-cf61ea2d4b95","null","<p style=""text-align: center;"">+</p>","null","fixation","","","","","","","","","","","","","","","","","","","","",""
"","","","","","html-keyboard-response","207","379493","0.0-22.0","283a4d7f-410c-4f66-9939-cf61ea2d4b95","null","<p style=""text-align: center;"">+</p>","null","fixation","","","","","","","","","","","","","","","","","","","","",""
"","","","","","html-keyboard-response","208","383251","0.0-23.0","283a4d7f-410c-4f66-9939-cf61ea2d4b95","null","<p>הפסקה.
          <br>לחצו כדי להמשיך.</p>","1","scan_wait","","","","","","","","","","","","","","","","","","","","",""
"","","","","","html-keyboard-response","209","384265","0.0-24.0","283a4d7f-410c-4f66-9939-cf61ea2d4b95","null","<p style=""text-align: center;"">+</p>","null","fixation","","","","","","","","","","","","","","","","","","","","",""
"","","","","","html-slider-response","210","385282","0.0-25.0-0.0","283a4d7f-410c-4f66-9939-cf61ea2d4b95","1000","
                  <p style=""text-align: center;"">₪76
                                                <br>65%</p>
                  <p id=""wtp"" style=""text-align:center; margin-top: 0px; margin-bottom: 0px; font-size: 40px"";>&ensp;</p>","-","viewing","0","29","8C,19A,24B","","","","","","","","","","","","","","","","","",""
"","","","","","html-slider-response","211","388355","0.0-25.0-1.0","283a4d7f-410c-4f66-9939-cf61ea2d4b95","3072","
                  <p style=""text-align: center;"">₪76
                                                <br>65%</p>
                  <p id=""wtp"" style=""text-align:center; margin-top: 0px; margin-bottom: 0px; font-size: 40px"";>מוכנים לשלם: <span id=""c_p_y""></span></p>","61","evaluation","61","29","8C,19A,24B","65","76","60","","","","","","","","","","","","","","",""
"","","","","","html-keyboard-response","212","389190","0.0-25.0-2.0","283a4d7f-410c-4f66-9939-cf61ea2d4b95","null","<p style=""text-align: center;"">+</p>","null","fixation","","","","","","","","","","","","","","","","","","","","",""
"","","","","","html-slider-response","213","390198","0.0-25.0-0.1","283a4d7f-410c-4f66-9939-cf61ea2d4b95","1000","
                  <p style=""text-align: center;"">₪43
                                                <br>60%</p>
                  <p id=""wtp"" style=""text-align:center; margin-top: 0px; margin-bottom: 0px; font-size: 40px"";>&ensp;</p>","-","viewing","0","17","2A,7A,9A,15B","","","","","","","","","","","","","","","","","",""
"","","","","","html-slider-response","214","391819","0.0-25.0-1.1","283a4d7f-410c-4f66-9939-cf61ea2d4b95","1619","
                  <p style=""text-align: center;"">₪43
                                                <br>60%</p>
                  <p id=""wtp"" style=""text-align:center; margin-top: 0px; margin-bottom: 0px; font-size: 40px"";>מוכנים לשלם: <span id=""c_p_y""></span></p>","49","evaluation","62","17","2A,7A,9A,15B","60","43","48","","","","","","","","","","","","","","",""
"","","","","","html-keyboard-response","215","392828","0.0-25.0-2.1","283a4d7f-410c-4f66-9939-cf61ea2d4b95","null","<p style=""text-align: center;"">+</p>","null","fixation","","","","","","","","","","","","","","","","","","","","",""
"","","","","","html-slider-response","216","393831","0.0-25.0-0.2","283a4d7f-410c-4f66-9939-cf61ea2d4b95","1000","
                  <p style=""text-align: center;"">₪36
                                                <br>30%</p>
                  <p id=""wtp"" style=""text-align:center; margin-top: 0px; margin-bottom: 0px; font-size: 40px"";>&ensp;</p>","-","viewing","0","11","3C,20A,22A","","","","","","","","","","","","","","","","","",""
"","","","","","html-slider-response","217","394403","0.0-25.0-1.2","283a4d7f-410c-4f66-9939-cf61ea2d4b95","570","
                  <p style=""text-align: center;"">₪36
                                                <br>30%</p>
                  <p id=""wtp"" style=""text-align:center; margin-top: 0px; margin-bottom: 0px; font-size: 40px"";>מוכנים לשלם: <span id=""c_p_y""></span></p>","18","evaluation","12","11","3C,20A,22A","30","36","19","","","","","","","","","","","","","","",""
"","","","","","html-keyboard-response","218","395405","0.0-25.0-2.2","283a4d7f-410c-4f66-9939-cf61ea2d4b95","null","<p style=""text-align: center;"">+</p>","null","fixation","","","","","","","","","","","","","","","","","","","","",""
"","","","","","html-slider-response","219","396420","0.0-25.0-0.3","283a4d7f-410c-4f66-9939-cf61ea2d4b95","1000","
                  <p style=""text-align: center;"">₪79
                                                <br>40%</p>
                  <p id=""wtp"" style=""text-align:center; margin-top: 0px; margin-bottom: 0px; font-size: 40px"";>&ensp;</p>","-","viewing","0","30","9B","","","","","","","","","","","","","","","","","",""
"","","","","","html-slider-response","220","398011","0.0-25.0-1.3","283a4d7f-410c-4f66-9939-cf61ea2d4b95","1590","
                  <p style=""text-align: center;"">₪79
                                                <br>40%</p>
                  <p id=""wtp"" style=""text-align:center; margin-top: 0px; margin-bottom: 0px; font-size: 40px"";>מוכנים לשלם: <span id=""c_p_y""></span></p>","34","evaluation","21","30","9B","40","79","34","","","","","","","","","","","","","","",""
"","","","","","html-keyboard-response","221","399038","0.0-25.0-2.3","283a4d7f-410c-4f66-9939-cf61ea2d4b95","null","<p style=""text-align: center;"">+</p>","null","fixation","","","","","","","","","","","","","","","","","","","","",""
"","","","","","html-slider-response","222","400040","0.0-25.0-0.4","283a4d7f-410c-4f66-9939-cf61ea2d4b95","1000","
                  <p style=""text-align: center;"">₪36
                                                <br>70%</p>
                  <p id=""wtp"" style=""text-align:center; margin-top: 0px; margin-bottom: 0px; font-size: 40px"";>&ensp;</p>","-","viewing","0","13","3A,5C,10B","","","","","","","","","","","","","","","","","",""
"","","","","","html-slider-response","223","402003","0.0-25.0-1.4","283a4d7f-410c-4f66-9939-cf61ea2d4b95","1962","
                  <p style=""text-align: center;"">₪36
                                                <br>70%</p>
                  <p id=""wtp"" style=""text-align:center; margin-top: 0px; margin-bottom: 0px; font-size: 40px"";>מוכנים לשלם: <span id=""c_p_y""></span></p>","60","evaluation","7","13","3A,5C,10B","70","36","59","","","","","","","","","","","","","","",""
"","","","","","html-keyboard-response","224","403481","0.0-25.0-2.4","283a4d7f-410c-4f66-9939-cf61ea2d4b95","null","<p style=""text-align: center;"">+</p>","null","fixation","","","","","","","","","","","","","","","","","","","","",""
"","","","","","html-slider-response","225","404494","0.0-25.0-0.5","283a4d7f-410c-4f66-9939-cf61ea2d4b95","1000","
                  <p style=""text-align: center;"">₪16
                                                <br>20%</p>
                  <p id=""wtp"" style=""text-align:center; margin-top: 0px; margin-bottom: 0px; font-size: 40px"";>&ensp;</p>","-","viewing","0","8","14C,17A,20C,27A","","","","","","","","","","","","","","","","","",""
"","","","","","html-slider-response","226","404971","0.0-25.0-1.5","283a4d7f-410c-4f66-9939-cf61ea2d4b95","475","
                  <p style=""text-align: center;"">₪16
                                                <br>20%</p>
                  <p id=""wtp"" style=""text-align:center; margin-top: 0px; margin-bottom: 0px; font-size: 40px"";>מוכנים לשלם: <span id=""c_p_y""></span></p>","8","evaluation","22","8","14C,17A,20C,27A","20","16","9","","","","","","","","","","","","","","",""
"","","","","","html-keyboard-response","227","405836","0.0-25.0-2.5","283a4d7f-410c-4f66-9939-cf61ea2d4b95","null","<p style=""text-align: center;"">+</p>","null","fixation","","","","","","","","","","","","","","","","","","","","",""
"","","","","","html-slider-response","228","406848","0.0-25.0-0.6","283a4d7f-410c-4f66-9939-cf61ea2d4b95","1000","
                  <p style=""text-align: center;"">₪58
                                                <br>30%</p>
                  <p id=""wtp"" style=""text-align:center; margin-top: 0px; margin-bottom: 0px; font-size: 40px"";>&ensp;</p>","-","viewing","0","19","13C,30A","","","","","","","","","","","","","","","","","",""
"","","","","","html-slider-response","229","407803","0.0-25.0-1.6","283a4d7f-410c-4f66-9939-cf61ea2d4b95","954","
                  <p style=""text-align: center;"">₪58
                                                <br>30%</p>
                  <p id=""wtp"" style=""text-align:center; margin-top: 0px; margin-bottom: 0px; font-size: 40px"";>מוכנים לשלם: <span id=""c_p_y""></span></p>","23","evaluation","80","19","13C,30A","30","58","23","","","","","","","","","","","","","","",""
"","","","","","html-keyboard-response","230","408727","0.0-25.0-2.6","283a4d7f-410c-4f66-9939-cf61ea2d4b95","null","<p style=""text-align: center;"">+</p>","null","fixation","","","","","","","","","","","","","","","","","","","","",""
"","","","","","html-slider-response","231","409741","0.0-25.0-0.7","283a4d7f-410c-4f66-9939-cf61ea2d4b95","1000","
                  <p style=""text-align: center;"">₪71
                                                <br>45%</p>
                  <p id=""wtp"" style=""text-align:center; margin-top: 0px; margin-bottom: 0px; font-size: 40px"";>&ensp;</p>","-","viewing","0","26","2B,16A","","","","","","","","","","","","","","","","","",""
"","","","","","html-slider-response","232","410819","0.0-25.0-1.7","283a4d7f-410c-4f66-9939-cf61ea2d4b95","1077","
                  <p style=""text-align: center;"">₪71
                                                <br>45%</p>
                  <p id=""wtp"" style=""text-align:center; margin-top: 0px; margin-bottom: 0px; font-size: 40px"";>מוכנים לשלם: <span id=""c_p_y""></span></p>","33","evaluation","27","26","2B,16A","45","71","33","","","","","","","","","","","","","","",""
"","","","","","html-keyboard-response","233","411620","0.0-25.0-2.7","283a4d7f-410c-4f66-9939-cf61ea2d4b95","null","<p style=""text-align: center;"">+</p>","null","fixation","","","","","","","","","","","","","","","","","","","","",""
"","","","","","html-slider-response","234","412625","0.0-25.0-0.8","283a4d7f-410c-4f66-9939-cf61ea2d4b95","1000","
                  <p style=""text-align: center;"">₪11
                                                <br>75%</p>
                  <p id=""wtp"" style=""text-align:center; margin-top: 0px; margin-bottom: 0px; font-size: 40px"";>&ensp;</p>","-","viewing","0","7","6B,18B,22C,24C,29A","","","","","","","","","","","","","","","","","",""
"","","","","","html-slider-response","235","414531","0.0-25.0-1.8","283a4d7f-410c-4f66-9939-cf61ea2d4b95","1905","
                  <p style=""text-align: center;"">₪11
                                                <br>75%</p>
                  <p id=""wtp"" style=""text-align:center; margin-top: 0px; margin-bottom: 0px; font-size: 40px"";>מוכנים לשלם: <span id=""c_p_y""></span></p>","44","evaluation","51","7","6B,18B,22C,24C,29A","75","11","44","","","","","","","","","","","","","","",""
"","","","","","html-keyboard-response","236","415865","0.0-25.0-2.8","283a4d7f-410c-4f66-9939-cf61ea2d4b95","null","<p style=""text-align: center;"">+</p>","null","fixation","","","","","","","","","","","","","","","","","","","","",""
"","","","","","html-slider-response","237","416868","0.0-25.0-0.9","283a4d7f-410c-4f66-9939-cf61ea2d4b95","1000","
                  <p style=""text-align: center;"">₪18
                                                <br>50%</p>
                  <p id=""wtp"" style=""text-align:center; margin-top: 0px; margin-bottom: 0px; font-size: 40px"";>&ensp;</p>","-","viewing","0","10","2C,16C,22B,28A","","","","","","","","","","","","","","","","","",""
"","","","","","html-slider-response","238","418019","0.0-25.0-1.9","283a4d7f-410c-4f66-9939-cf61ea2d4b95","1150","
                  <p style=""text-align: center;"">₪18
                                                <br>50%</p>
                  <p id=""wtp"" style=""text-align:center; margin-top: 0px; margin-bottom: 0px; font-size: 40px"";>מוכנים לשלם: <span id=""c_p_y""></span></p>","23","evaluation","35","10","2C,16C,22B,28A","50","18","23","","","","","","","","","","","","","","",""
"","","","","","html-keyboard-response","239","418839","0.0-25.0-2.9","283a4d7f-410c-4f66-9939-cf61ea2d4b95","null","<p style=""text-align: center;"">+</p>","null","fixation","","","","","","","","","","","","","","","","","","","","",""
"","","","","","html-slider-response","240","419855","0.0-25.0-0.10","283a4d7f-410c-4f66-9939-cf61ea2d4b95","1000","
                  <p style=""text-align: center;"">₪58
                                                <br>45%</p>
                  <p id=""wtp"" style=""text-align:center; margin-top: 0px; margin-bottom: 0px; font-size: 40px"";>&ensp;</p>","-","viewing","0","21","11C,18C,25A","","","","","","","","","","","","","","","","","",""
"","","","","","html-slider-response","241","420355","0.0-25.0-1.10","283a4d7f-410c-4f66-9939-cf61ea2d4b95","498","
                  <p style=""text-align: center;"">₪58
                                                <br>45%</p>
                  <p id=""wtp"" style=""text-align:center; margin-top: 0px; margin-bottom: 0px; font-size: 40px"";>מוכנים לשלם: <span id=""c_p_y""></span></p>","27","evaluation","45","21","11C,18C,25A","45","58","27","","","","","","","","","","","","","","",""
"","","","","","html-keyboard-response","242","421560","0.0-25.0-2.10","283a4d7f-410c-4f66-9939-cf61ea2d4b95","null","<p style=""text-align: center;"">+</p>","null","fixation","","","","","","","","","","","","","","","","","","","","",""
"","","","","","html-slider-response","243","422564","0.0-25.0-0.11","283a4d7f-410c-4f66-9939-cf61ea2d4b95","1000","
                  <p style=""text-align: center;"">₪58
                                                <br>40%</p>
                  <p id=""wtp"" style=""text-align:center; margin-top: 0px; margin-bottom: 0px; font-size: 40px"";>&ensp;</p>","-","viewing","0","20","10C,13A,19C,21B","","","","","","","","","","","","","","","","","",""
"","","","","","html-slider-response","244","424019","0.0-25.0-1.11","283a4d7f-410c-4f66-9939-cf61ea2d4b95","1453","
                  <p style=""text-align: center;"">₪58
                                                <br>40%</p>
                  <p id=""wtp"" style=""text-align:center; margin-top: 0px; margin-bottom: 0px; font-size: 40px"";>מוכנים לשלם: <span id=""c_p_y""></span></p>","22","evaluation","9","20","10C,13A,19C,21B","40","58","22","","","","","","","","","","","","","","",""
"","","","","","html-keyboard-response","245","424758","0.0-25.0-2.11","283a4d7f-410c-4f66-9939-cf61ea2d4b95","null","<p style=""text-align: center;"">+</p>","null","fixation","","","","","","","","","","","","","","","","","","","","",""
"","","","","","html-slider-response","246","425766","0.0-25.0-0.12","283a4d7f-410c-4f66-9939-cf61ea2d4b95","1000","
                  <p style=""text-align: center;"">₪36
                                                <br>75%</p>
                  <p id=""wtp"" style=""text-align:center; margin-top: 0px; margin-bottom: 0px; font-size: 40px"";>&ensp;</p>","-","viewing","0","14","4B,5A,13B,16B","","","","","","","","","","","","","","","","","",""
"","","","","","html-slider-response","247","427115","0.0-25.0-1.12","283a4d7f-410c-4f66-9939-cf61ea2d4b95","1348","
                  <p style=""text-align: center;"">₪36
                                                <br>75%</p>
                  <p id=""wtp"" style=""text-align:center; margin-top: 0px; margin-bottom: 0px; font-size: 40px"";>מוכנים לשלם: <span id=""c_p_y""></span></p>","59","evaluation","13","14","4B,5A,13B,16B","75","36","59","","","","","","","","","","","","","","",""
"","","","","","html-keyboard-response","248","428282","0.0-25.0-2.12","283a4d7f-410c-4f66-9939-cf61ea2d4b95","null","<p style=""text-align: center;"">+</p>","null","fixation","","","","","","","","","","","","","","","","","","","","",""
"","","","","","html-slider-response","249","429289","0.0-25.0-0.13","283a4d7f-410c-4f66-9939-cf61ea2d4b95","1000","
                  <p style=""text-align: center;"">₪79
                                                <br>65%</p>
                  <p id=""wtp"" style=""text-align:center; margin-top: 0px; margin-bottom: 0px; font-size: 40px"";>&ensp;</p>","-","viewing","0","31","8A","","","","","","","","","","","","","","","","","",""
"","","","","","html-slider-response","250","429947","0.0-25.0-1.13","283a4d7f-410c-4f66-9939-cf61ea2d4b95","657","
                  <p style=""text-align: center;"">₪79
                                                <br>65%</p>
                  <p id=""wtp"" style=""text-align:center; margin-top: 0px; margin-bottom: 0px; font-size: 40px"";>מוכנים לשלם: <span id=""c_p_y""></span></p>","60","evaluation","61","31","8A","65","79","59","","","","","","","","","","","","","","",""
"","","","","","html-keyboard-response","251","430666","0.0-25.0-2.13","283a4d7f-410c-4f66-9939-cf61ea2d4b95","null","<p style=""text-align: center;"">+</p>","null","fixation","","","","","","","","","","","","","","","","","","","","",""
"","","","","","html-slider-response","252","431675","0.0-25.0-0.14","283a4d7f-410c-4f66-9939-cf61ea2d4b95","1000","
                  <p style=""text-align: center;"">₪64
                                                <br>50%</p>
                  <p id=""wtp"" style=""text-align:center; margin-top: 0px; margin-bottom: 0px; font-size: 40px"";>&ensp;</p>","-","viewing","0","25","1B,3B,4A","","","","","","","","","","","","","","","","","",""
