"success","timeout","failed_images","failed_audio","failed_video","trial_type","trial_index","time_elapsed","internal_node_id","subject_id","rt","stimulus","response","part","slider_start","ID","set_ID","prob","amount","last_location","actual_choice","actual_EV","binary_id","trinary_id","catch","direction","A_key","S_key","D_key","choice_prob","choice_amount","chosen_part","won_prize","potential_prize_amount","potential_prize_prob","total_prize","accuracy"
"true","false","[]","[]","[]","preload","0","58","0.0-0.0","1dd81ced-dc40-4d4f-9d15-e360bfe4bdce","","","","","","","","","","","","","","","","","","","","","","","","","","",""
"","","","","","html-keyboard-response","1","3157079","0.0-1.0","1dd81ced-dc40-4d4f-9d15-e360bfe4bdce","null","
          <h1>שלום וברוכים הבאים!</h1>
          <p>לפניכם ניסוי בקבלת החלטות עם שני חלקים.
          <br><br>לחצו על העכבר כדי להמשיך.</p>","0","example","","","","","","","","","","","","","","","","","","","","","","",""
"","","","","","html-keyboard-response","2","3166102","0.0-2.0","1dd81ced-dc40-4d4f-9d15-e360bfe4bdce","null","
        <h1>חלק 1</h1>
        <p>בקרוב יוצגו בפניכם הגרלות.
        <br>עליכם לבחור את המחיר המירבי שתהיו מוכנים לשלם כדי להשתתף בהגרלה שתוצג.
        <br>יש לכם תקציב של ₪80 לכל הגרלה. 
        <br>נסו להעריך כל הגרלה בנפרד ולחשוב כמה היא שווה עבורכם, ₪80 זמינים לכל הגרלה בנפרד.
        <br><br>לחצו על העכבר כדי להמשיך.</p>","1","instructions","","","","","","","","","","","","","","","","","","","","","","",""
"","","","","","html-keyboard-response","3","3192550","0.0-3.0","1dd81ced-dc40-4d4f-9d15-e360bfe4bdce","null","
        <p>בסוף הניסוי, המחשב יבחר את אחת ההגרלות ויקבע מחיר לכרטיס עבורה. 
        <br>במידה והמחיר שבחרתם נמוך מהמחיר שנבחר על ידי המחשב, לא תשתתפו בהגרלה ותשארו עם מלוא התקציב.
        <br>במידה והמחיר שבחרתם גבוה מהמחיר שנבחר על ידי המחשב, תשלמו את המחיר שנקבע ותשתתפו בהגרלה.
        <br><br>לחצו על העכבר כדי להמשיך.</p>","1","instructions","","","","","","","","","","","","","","","","","","","","","","",""
"","","","","","html-slider-response","4","3224854","0.0-4.0","1dd81ced-dc40-4d4f-9d15-e360bfe4bdce","32191","
        <p style=""font-size: 42px;"">נתחיל עם דוגמא: 
        <br>ההגרלה מטה מציעה 65% סיכוי לזכות ב-₪40 
        <br>&emsp;&emsp;&emsp;&emsp;&emsp;&emsp;&emsp;&emsp;&ensp;35% סיכוי לזכות ב-₪0.
        <br><br>מה המחיר המירבי שתהיו מוכנים לשלם על כרטיס להגרלה זו בין 0 ל-₪80?
        <br>הזיזו את העכבר על פני המלבן ולחצו כדי לבצע בחירה.</p>
        
        <p style=""text-align: center;"">₪40<br>65%</p>

        <p id=""wtp"" style=""text-align:center; margin-top: 0px; margin-bottom: 0px; font-size: 40px"";>מוכנים לשלם: <span id=""c_p_y""></span></p>","35","example","65","","","","","","","","","","","","","","","","","","","","","",""
"","","","","","html-keyboard-response","5","3233678","0.0-5.0","1dd81ced-dc40-4d4f-9d15-e360bfe4bdce","null","<p>יפה מאוד!
                <br> בחרתם שתהיו מוכנים לשלם ₪35 כדי להשתתף בהגרלה:
                <br><p style=""text-align: center;"">₪40<br>65%</p>
                <p>נשמע נכון?
                <br>נניח שהגרלה זו נבחרה בסוף הניסוי.
                <br>כעת המחשב יקבע מחיר עבורה באקראי.
                <br>לחצו על העכבר להמשך.</p>","1","example","","","","","","","","","","","","","","","","","","","","","","",""
"","","","","","html-keyboard-response","6","3247262","0.0-6.0","1dd81ced-dc40-4d4f-9d15-e360bfe4bdce","null","<p>המחשב קבע מחיר: ₪80
                <br>ואתם בחרתם לשלם לכל היותר: ₪35
                <br><br>מכיוון שהמחיר שבחרתם נמוך מהמחיר שנקבע, לא תתשתתפו בהגרלה.
                <br>במקרה כזה, בסוף הניסוי תקבלו את כל התקציב ההתחלתי של ₪80.
                <br><br>לחצו על העכבר להמשך.</p>","1","example","","","","","","","","","","","","","","","","","","","","","","",""
"","","","","","html-slider-response","7","3258014","0.0-7.0","1dd81ced-dc40-4d4f-9d15-e360bfe4bdce","10490","<p style=""font-size: 42px;"">הנה עוד דוגמא:
                <br>ההגרלה מטה מציעה 35% סיכוי לזכות ב-₪18 
                <br>&emsp;&emsp;&emsp;&emsp;&emsp;&emsp;&emsp;&emsp;&ensp;65% סיכוי לזכות ב-₪0.</p>
        
                <p style=""text-align: center;"">₪18<br>35%</p>
                <p id=""wtp"" style=""text-align:center; margin-top: 0px; margin-bottom: 0px; font-size: 40px"";>מוכנים לשלם: <span id=""c_p_y""></span></p>","20","example","63","","","","","","","","","","","","","","","","","","","","","",""
"","","","","","html-keyboard-response","8","3260094","0.0-8.0","1dd81ced-dc40-4d4f-9d15-e360bfe4bdce","null","<p>הייתם מוכנים לשלם  ₪20 כדי להשתתף בהגרלה:
                <p style=""text-align: center;"">₪18<br>35%</p>
                <p>כעת נניח שהמחשב בחר את ההגרלה הזו בסוף הניסוי, וקבע עבורה מחיר.
                <br><br>לחצו על העכבר כדי להמשיך.</p>","1","instructions","","","","","","","","","","","","","","","","","","","","","","",""
"","","","","","html-keyboard-response","9","3286718","0.0-9.0","1dd81ced-dc40-4d4f-9d15-e360bfe4bdce","null","<p>המחשב קבע מחיר להגרלה: ₪10<br>ואתם בחרתם לשלם לכל היותר: ₪20
                <br><br>כעת המחיר שנקבע נמוך מזה שבחרתם, אז תשלמו את המחיר שקבע המחשב (₪10) ותשתתפו בהגרלה.
                <br>במקרה כזה, תסיימו את הניסוי עם תקציב של ₪70 ועם סיכוי לזכות ב-₪18 נוספים מההגרלה.
                <br>כלומר, תוכלו לקבל ₪70 אם לא תזכו בהגרלה, או ₪88 אם תזכו בהגרלה.
                <br><br>לחצו על העכבר להמשך.</p>","1","example","","","","","","","","","","","","","","","","","","","","","","",""
"","","","","","html-keyboard-response","10","3296366","0.0-10.0","1dd81ced-dc40-4d4f-9d15-e360bfe4bdce","null","<p>במהלך הניסוי, קודם תראו את ההגרלה ורק לאחר מכן תוכלו לבחור.
                <p>כמו כן, יהיו לכם מספר שניות מוגבל להגיב.
                <p>בואו ננסה זאת עם ההגרלה הקודמת.
                <br>לחצו על העכבר כדי להמשיך.</p>","1","instructions","","","","","","","","","","","","","","","","","","","","","","",""
"","","","","","html-slider-response","11","3297624","0.0-11.0","1dd81ced-dc40-4d4f-9d15-e360bfe4bdce","1000","
                    <p style=""text-align: center;"">₪18<br>35%</p>
                    <p id=""wtp"" style=""text-align:center; margin-top: 0px; margin-bottom: 0px; font-size: 40px"";>&ensp;</p>","41","instructions","0","","","","","","","","","","","","","","","","","","","","","",""
"","","","","","html-slider-response","12","3301889","0.0-12.0","1dd81ced-dc40-4d4f-9d15-e360bfe4bdce","null","
                    <p style=""text-align: center;"">₪18<br>35%</p>
                    <p id=""wtp"" style=""text-align:center; margin-top: 0px; margin-bottom: 0px; font-size: 40px"";>מוכנים לשלם: <span id=""c_p_y""></span></p>","null","instructions","51","","","","","","","","","","","","","","","","","","","","","",""
"","","","","","html-keyboard-response","13","3306470","0.0-13.0","1dd81ced-dc40-4d4f-9d15-e360bfe4bdce","null","<p>לא הגבתם בזמן המוקצב לתגובה. 
                <br>נסו להגיב מהר יותר בפעם הבאה.
                <br><br>לחצו על העכבר כדי להמשיך.</p>","1","instructions","","","","","","","","","","","","","","","","","","","","","","",""
"","","","","","html-slider-response","14","3308414","0.0-14.0-0.0","1dd81ced-dc40-4d4f-9d15-e360bfe4bdce","1682","
                    <p style=""text-align: center;"">₪40<br>65%</p>
                    <p id=""wtp"" style=""text-align:center; margin-top: 0px; margin-bottom: 0px; font-size: 40px"";>מוכנים לשלם: <span id=""c_p_y""></span></p>","36","instructions","48","","","","","","","","","","","","","","","","","","","","","",""
"","","","","","html-keyboard-response","15","3310262","0.0-14.0-1.0","1dd81ced-dc40-4d4f-9d15-e360bfe4bdce","null","<p>יפה. הפעם בחרתם לשלם לכל היותר ₪36.
                <br><br>לחצו על העכבר כדי להמשיך.</p>","1","instructions","","","","","","","","","","","","","","","","","","","","","","",""
"","","","","","html-keyboard-response","16","3317646","0.0-15.0","1dd81ced-dc40-4d4f-9d15-e360bfe4bdce","null","<p>כעת נתחיל את הניסוי.
                <br><br>אתם תראו הגרלות ותתבקשו לבחור כמה תהיו מוכנים לשלם כדי להשתתף בהן.
                <br>יש לכם תקציב של ₪80 עבור כל הגרלה.
                <br>בסוף הניסוי הגרלה אחת תבחר באקראי ותשוחק.
                <br><br>לחצו על העכבר כדי להתחיל את הניסוי.</p>","1","instructions","","","","","","","","","","","","","","","","","","","","","","",""
"","","","","","html-keyboard-response","17","3318922","0.0-16.0","1dd81ced-dc40-4d4f-9d15-e360bfe4bdce","null","<p style=""text-align: center;"">+</p>","null","fixation","","","","","","","","","","","","","","","","","","","","","","",""
"","","","","","html-slider-response","18","3319923","0.0-17.0-0.0","1dd81ced-dc40-4d4f-9d15-e360bfe4bdce","1000","
                  <p style=""text-align: center;"">₪18
                                                <br>25%</p>
                  <p id=""wtp"" style=""text-align:center; margin-top: 0px; margin-bottom: 0px; font-size: 40px"";>&ensp;</p>","-","viewing","0","9","14A,23A","","","","","","","","","","","","","","","","","","","",""
"","","","","","html-slider-response","19","3322030","0.0-17.0-1.0","1dd81ced-dc40-4d4f-9d15-e360bfe4bdce","2105","
                  <p style=""text-align: center;"">₪18
                                                <br>25%</p>
                  <p id=""wtp"" style=""text-align:center; margin-top: 0px; margin-bottom: 0px; font-size: 40px"";>מוכנים לשלם: <span id=""c_p_y""></span></p>","19","evaluation","64","9","14A,23A","25","18","19","","","","","","","","","","","","","","","","",""
"","","","","","html-keyboard-response","20","3322844","0.0-17.0-2.0","1dd81ced-dc40-4d4f-9d15-e360bfe4bdce","null","<p style=""text-align: center;"">+</p>","null","fixation","","","","","","","","","","","","","","","","","","","","","","",""
"","","","","","html-slider-response","21","3323847","0.0-17.0-0.1","1dd81ced-dc40-4d4f-9d15-e360bfe4bdce","1000","
                  <p style=""text-align: center;"">₪71
                                                <br>45%</p>
                  <p id=""wtp"" style=""text-align:center; margin-top: 0px; margin-bottom: 0px; font-size: 40px"";>&ensp;</p>","-","viewing","0","26","2B,16A","","","","","","","","","","","","","","","","","","","",""
"","","","","","html-slider-response","22","3325790","0.0-17.0-1.1","1dd81ced-dc40-4d4f-9d15-e360bfe4bdce","1941","
                  <p style=""text-align: center;"">₪71
                                                <br>45%</p>
                  <p id=""wtp"" style=""text-align:center; margin-top: 0px; margin-bottom: 0px; font-size: 40px"";>מוכנים לשלם: <span id=""c_p_y""></span></p>","33","evaluation","48","26","2B,16A","45","71","33","","","","","","","","","","","","","","","","",""
"","","","","","html-keyboard-response","23","3326920","0.0-17.0-2.1","1dd81ced-dc40-4d4f-9d15-e360bfe4bdce","null","<p style=""text-align: center;"">+</p>","null","fixation","","","","","","","","","","","","","","","","","","","","","","",""
"","","","","","html-slider-response","24","3327926","0.0-17.0-0.2","1dd81ced-dc40-4d4f-9d15-e360bfe4bdce","1000","
                  <p style=""text-align: center;"">₪61
                                                <br>45%</p>
                  <p id=""wtp"" style=""text-align:center; margin-top: 0px; margin-bottom: 0px; font-size: 40px"";>&ensp;</p>","-","viewing","0","22","10A,11A","","","","","","","","","","","","","","","","","","","",""
"","","","","","html-slider-response","25","3329422","0.0-17.0-1.2","1dd81ced-dc40-4d4f-9d15-e360bfe4bdce","1496","
                  <p style=""text-align: center;"">₪61
                                                <br>45%</p>
                  <p id=""wtp"" style=""text-align:center; margin-top: 0px; margin-bottom: 0px; font-size: 40px"";>מוכנים לשלם: <span id=""c_p_y""></span></p>","44","evaluation","9","22","10A,11A","45","61","44","","","","","","","","","","","","","","","","",""
"","","","","","html-keyboard-response","26","3330402","0.0-17.0-2.2","1dd81ced-dc40-4d4f-9d15-e360bfe4bdce","null","<p style=""text-align: center;"">+</p>","null","fixation","","","","","","","","","","","","","","","","","","","","","","",""
"","","","","","html-slider-response","27","3331417","0.0-17.0-0.3","1dd81ced-dc40-4d4f-9d15-e360bfe4bdce","1000","
                  <p style=""text-align: center;"">₪71
                                                <br>75%</p>
                  <p id=""wtp"" style=""text-align:center; margin-top: 0px; margin-bottom: 0px; font-size: 40px"";>&ensp;</p>","-","viewing","0","28","8B","","","","","","","","","","","","","","","","","","","",""
"","","","","","html-slider-response","28","3332470","0.0-17.0-1.3","1dd81ced-dc40-4d4f-9d15-e360bfe4bdce","1053","
                  <p style=""text-align: center;"">₪71
                                                <br>75%</p>
                  <p id=""wtp"" style=""text-align:center; margin-top: 0px; margin-bottom: 0px; font-size: 40px"";>מוכנים לשלם: <span id=""c_p_y""></span></p>","67","evaluation","41","28","8B","75","71","67","","","","","","","","","","","","","","","","",""
"","","","","","html-keyboard-response","29","3333424","0.0-17.0-2.3","1dd81ced-dc40-4d4f-9d15-e360bfe4bdce","null","<p style=""text-align: center;"">+</p>","null","fixation","","","","","","","","","","","","","","","","","","","","","","",""
"","","","","","html-slider-response","30","3334441","0.0-17.0-0.4","1dd81ced-dc40-4d4f-9d15-e360bfe4bdce","1000","
                  <p style=""text-align: center;"">₪39
                                                <br>65%</p>
                  <p id=""wtp"" style=""text-align:center; margin-top: 0px; margin-bottom: 0px; font-size: 40px"";>&ensp;</p>","-","viewing","0","16","1A,15A,26C","","","","","","","","","","","","","","","","","","","",""
"","","","","","html-slider-response","31","3336758","0.0-17.0-1.4","1dd81ced-dc40-4d4f-9d15-e360bfe4bdce","2316","
                  <p style=""text-align: center;"">₪39
                                                <br>65%</p>
                  <p id=""wtp"" style=""text-align:center; margin-top: 0px; margin-bottom: 0px; font-size: 40px"";>מוכנים לשלם: <span id=""c_p_y""></span></p>","70","evaluation","67","16","1A,15A,26C","65","39","70","","","","","","","","","","","","","","","","",""
"","","","","","html-keyboard-response","32","3338137","0.0-17.0-2.4","1dd81ced-dc40-4d4f-9d15-e360bfe4bdce","null","<p style=""text-align: center;"">+</p>","null","fixation","","","","","","","","","","","","","","","","","","","","","","",""
"","","","","","html-slider-response","33","3339143","0.0-17.0-0.5","1dd81ced-dc40-4d4f-9d15-e360bfe4bdce","1000","
                  <p style=""text-align: center;"">₪36
                                                <br>75%</p>
                  <p id=""wtp"" style=""text-align:center; margin-top: 0px; margin-bottom: 0px; font-size: 40px"";>&ensp;</p>","-","viewing","0","14","4B,5A,13B,16B","","","","","","","","","","","","","","","","","","","",""
"","","","","","html-slider-response","34","3341150","0.0-17.0-1.5","1dd81ced-dc40-4d4f-9d15-e360bfe4bdce","2006","
                  <p style=""text-align: center;"">₪36
                                                <br>75%</p>
                  <p id=""wtp"" style=""text-align:center; margin-top: 0px; margin-bottom: 0px; font-size: 40px"";>מוכנים לשלם: <span id=""c_p_y""></span></p>","75","evaluation","27","14","4B,5A,13B,16B","75","36","75","","","","","","","","","","","","","","","","",""
"","","","","","html-keyboard-response","35","3342095","0.0-17.0-2.5","1dd81ced-dc40-4d4f-9d15-e360bfe4bdce","null","<p style=""text-align: center;"">+</p>","null","fixation","","","","","","","","","","","","","","","","","","","","","","",""
"","","","","","html-slider-response","36","3343098","0.0-17.0-0.6","1dd81ced-dc40-4d4f-9d15-e360bfe4bdce","1000","
                  <p style=""text-align: center;"">₪18
                                                <br>50%</p>
                  <p id=""wtp"" style=""text-align:center; margin-top: 0px; margin-bottom: 0px; font-size: 40px"";>&ensp;</p>","-","viewing","0","10","2C,16C,22B,28A","","","","","","","","","","","","","","","","","","","",""
"","","","","","html-slider-response","37","3345142","0.0-17.0-1.6","1dd81ced-dc40-4d4f-9d15-e360bfe4bdce","2043","
                  <p style=""text-align: center;"">₪18
                                                <br>50%</p>
                  <p id=""wtp"" style=""text-align:center; margin-top: 0px; margin-bottom: 0px; font-size: 40px"";>מוכנים לשלם: <span id=""c_p_y""></span></p>","35","evaluation","4","10","2C,16C,22B,28A","50","18","35","","","","","","","","","","","","","","","","",""
"","","","","","html-keyboard-response","38","3345685","0.0-17.0-2.6","1dd81ced-dc40-4d4f-9d15-e360bfe4bdce","null","<p style=""text-align: center;"">+</p>","null","fixation","","","","","","","","","","","","","","","","","","","","","","",""
"","","","","","html-slider-response","39","3346701","0.0-17.0-0.7","1dd81ced-dc40-4d4f-9d15-e360bfe4bdce","1000","
                  <p style=""text-align: center;"">₪36
                                                <br>70%</p>
                  <p id=""wtp"" style=""text-align:center; margin-top: 0px; margin-bottom: 0px; font-size: 40px"";>&ensp;</p>","-","viewing","0","13","3A,5C,10B","","","","","","","","","","","","","","","","","","","",""
"","","","","","html-slider-response","40","3348086","0.0-17.0-1.7","1dd81ced-dc40-4d4f-9d15-e360bfe4bdce","1384","
                  <p style=""text-align: center;"">₪36
                                                <br>70%</p>
                  <p id=""wtp"" style=""text-align:center; margin-top: 0px; margin-bottom: 0px; font-size: 40px"";>מוכנים לשלם: <span id=""c_p_y""></span></p>","55","evaluation","54","13","3A,5C,10B","70","36","55","","","","","","","","","","","","","","","","",""
"","","","","","html-keyboard-response","41","3348886","0.0-17.0-2.7","1dd81ced-dc40-4d4f-9d15-e360bfe4bdce","null","<p style=""text-align: center;"">+</p>","null","fixation","","","","","","","","","","","","","","","","","","","","","","",""
"","","","","","html-slider-response","42","3349894","0.0-17.0-0.8","1dd81ced-dc40-4d4f-9d15-e360bfe4bdce","1000","
                  <p style=""text-align: center;"">₪16
                                                <br>20%</p>
                  <p id=""wtp"" style=""text-align:center; margin-top: 0px; margin-bottom: 0px; font-size: 40px"";>&ensp;</p>","-","viewing","0","8","14C,17A,20C,27A","","","","","","","","","","","","","","","","","","","",""
"","","","","","html-slider-response","43","3351438","0.0-17.0-1.8","1dd81ced-dc40-4d4f-9d15-e360bfe4bdce","1544","
                  <p style=""text-align: center;"">₪16
                                                <br>20%</p>
                  <p id=""wtp"" style=""text-align:center; margin-top: 0px; margin-bottom: 0px; font-size: 40px"";>מוכנים לשלם: <span id=""c_p_y""></span></p>","26","evaluation","48","8","14C,17A,20C,27A","20","16","26","","","","","","","","","","","","","","","","",""
"","","","","","html-keyboard-response","44","3352583","0.0-17.0-2.8","1dd81ced-dc40-4d4f-9d15-e360bfe4bdce","null","<p style=""text-align: center;"">+</p>","null","fixation","","","","","","","","","","","","","","","","","","","","","","",""
"","","","","","html-slider-response","45","3353597","0.0-17.0-0.9","1dd81ced-dc40-4d4f-9d15-e360bfe4bdce","1000","
                  <p style=""text-align: center;"">₪58
                                                <br>30%</p>
                  <p id=""wtp"" style=""text-align:center; margin-top: 0px; margin-bottom: 0px; font-size: 40px"";>&ensp;</p>","-","viewing","0","19","13C,30A","","","","","","","","","","","","","","","","","","","",""
"","","","","","html-slider-response","46","3355286","0.0-17.0-1.9","1dd81ced-dc40-4d4f-9d15-e360bfe4bdce","1687","
                  <p style=""text-align: center;"">₪58
                                                <br>30%</p>
                  <p id=""wtp"" style=""text-align:center; margin-top: 0px; margin-bottom: 0px; font-size: 40px"";>מוכנים לשלם: <span id=""c_p_y""></span></p>","24","evaluation","71","19","13C,30A","30","58","24","","","","","","","","","","","","","","","","",""
"","","","","","html-keyboard-response","47","3356259","0.0-17.0-2.9","1dd81ced-dc40-4d4f-9d15-e360bfe4bdce","null","<p style=""text-align: center;"">+</p>","null","fixation","","","","","","","","","","","","","","","","","","","","","","",""
"","","","","","html-slider-response","48","3357274","0.0-17.0-0.10","1dd81ced-dc40-4d4f-9d15-e360bfe4bdce","1000","
                  <p style=""text-align: center;"">₪79
                                                <br>40%</p>
                  <p id=""wtp"" style=""text-align:center; margin-top: 0px; margin-bottom: 0px; font-size: 40px"";>&ensp;</p>","-","viewing","0","30","9B","","","","","","","","","","","","","","","","","","","",""
"","","","","","html-slider-response","49","3358742","0.0-17.0-1.10","1dd81ced-dc40-4d4f-9d15-e360bfe4bdce","1468","
                  <p style=""text-align: center;"">₪79
                                                <br>40%</p>
                  <p id=""wtp"" style=""text-align:center; margin-top: 0px; margin-bottom: 0px; font-size: 40px"";>מוכנים לשלם: <span id=""c_p_y""></span></p>","57","evaluation","2","30","9B","40","79","57","","","","","","","","","","","","","","","","",""
"","","","","","html-keyboard-response","50","3359993","0.0-17.0-2.10","1dd81ced-dc40-4d4f-9d15-e360bfe4bdce","null","<p style=""text-align: center;"">+</p>","null","fixation","","","","","","","","","","","","","","","","","","","","","","",""
"","","","","","html-slider-response","51","3361007","0.0-17.0-0.11","1dd81ced-dc40-4d4f-9d15-e360bfe4bdce","1000","
                  <p style=""text-align: center;"">₪11
                                                <br>20%</p>
                  <p id=""wtp"" style=""text-align:center; margin-top: 0px; margin-bottom: 0px; font-size: 40px"";>&ensp;</p>","-","viewing","0","4","12C,17C,23C,28C","","","","","","","","","","","","","","","","","","","",""
"","","","","","html-slider-response","52","3362558","0.0-17.0-1.11","1dd81ced-dc40-4d4f-9d15-e360bfe4bdce","1550","
                  <p style=""text-align: center;"">₪11
                                                <br>20%</p>
                  <p id=""wtp"" style=""text-align:center; margin-top: 0px; margin-bottom: 0px; font-size: 40px"";>מוכנים לשלם: <span id=""c_p_y""></span></p>","13","evaluation","3","4","12C,17C,23C,28C","20","11","14","","","","","","","","","","","","","","","","",""
"","","","","","html-keyboard-response","53","3363446","0.0-17.0-2.11","1dd81ced-dc40-4d4f-9d15-e360bfe4bdce","null","<p style=""text-align: center;"">+</p>","null","fixation","","","","","","","","","","","","","","","","","","","","","","",""
"","","","","","html-slider-response","54","3364460","0.0-17.0-0.12","1dd81ced-dc40-4d4f-9d15-e360bfe4bdce","1000","
                  <p style=""text-align: center;"">₪4
                                                <br>75%</p>
                  <p id=""wtp"" style=""text-align:center; margin-top: 0px; margin-bottom: 0px; font-size: 40px"";>&ensp;</p>","-","viewing","0","3","12B,20B,23B,27C,29C","","","","","","","","","","","","","","","","","","","",""
"","","","","","html-slider-response","55","3366766","0.0-17.0-1.12","1dd81ced-dc40-4d4f-9d15-e360bfe4bdce","2304","
                  <p style=""text-align: center;"">₪4
                                                <br>75%</p>
                  <p id=""wtp"" style=""text-align:center; margin-top: 0px; margin-bottom: 0px; font-size: 40px"";>מוכנים לשלם: <span id=""c_p_y""></span></p>","52","evaluation","63","3","12B,20B,23B,27C,29C","75","4","52","","","","","","","","","","","","","","","","",""
"","","","","","html-keyboard-response","56","3367288","0.0-17.0-2.12","1dd81ced-dc40-4d4f-9d15-e360bfe4bdce","null","<p style=""text-align: center;"">+</p>","null","fixation","","","","","","","","","","","","","","","","","","","","","","",""
"","","","","","html-slider-response","57","3368294","0.0-17.0-0.13","1dd81ced-dc40-4d4f-9d15-e360bfe4bdce","1000","
                  <p style=""text-align: center;"">₪4
                                                <br>50%</p>
                  <p id=""wtp"" style=""text-align:center; margin-top: 0px; margin-bottom: 0px; font-size: 40px"";>&ensp;</p>","-","viewing","0","2","4C,17B","","","","","","","","","","","","","","","","","","","",""
"","","","","","html-slider-response","58","3372310","0.0-17.0-1.13","1dd81ced-dc40-4d4f-9d15-e360bfe4bdce","null","
                  <p style=""text-align: center;"">₪4
                                                <br>50%</p>
                  <p id=""wtp"" style=""text-align:center; margin-top: 0px; margin-bottom: 0px; font-size: 40px"";>מוכנים לשלם: <span id=""c_p_y""></span></p>","null","evaluation","20","2","4C,17B","50","4","12","","","","","","","","","","","","","","","","",""
"","","","","","html-keyboard-response","59","3373760","0.0-17.0-2.13","1dd81ced-dc40-4d4f-9d15-e360bfe4bdce","null","<p style=""text-align: center;"">+</p>","null","fixation","","","","","","","","","","","","","","","","","","","","","","",""
"","","","","","html-slider-response","60","3374769","0.0-17.0-0.14","1dd81ced-dc40-4d4f-9d15-e360bfe4bdce","1000","
                  <p style=""text-align: center;"">₪64
                                                <br>25%</p>
                  <p id=""wtp"" style=""text-align:center; margin-top: 0px; margin-bottom: 0px; font-size: 40px"";>&ensp;</p>","-","viewing","0","24","6A,21A","","","","","","","","","","","","","","","","","","","",""
"","","","","","html-slider-response","61","3376134","0.0-17.0-1.14","1dd81ced-dc40-4d4f-9d15-e360bfe4bdce","1364","
                  <p style=""text-align: center;"">₪64
                                                <br>25%</p>
                  <p id=""wtp"" style=""text-align:center; margin-top: 0px; margin-bottom: 0px; font-size: 40px"";>מוכנים לשלם: <span id=""c_p_y""></span></p>","27","evaluation","68","24","6A,21A","25","64","27","","","","","","","","","","","","","","","","",""
"","","","","","html-keyboard-response","62","3376698","0.0-17.0-2.14","1dd81ced-dc40-4d4f-9d15-e360bfe4bdce","null","<p style=""text-align: center;"">+</p>","null","fixation","","","","","","","","","","","","","","","","","","","","","","",""
"","","","","","html-slider-response","63","3377702","0.0-17.0-0.15","1dd81ced-dc40-4d4f-9d15-e360bfe4bdce","1000","
                  <p style=""text-align: center;"">₪11
                                                <br>75%</p>
                  <p id=""wtp"" style=""text-align:center; margin-top: 0px; margin-bottom: 0px; font-size: 40px"";>&ensp;</p>","-","viewing","0","7","6B,18B,22C,24C,29A","","","","","","","","","","","","","","","","","","","",""
"","","","","","html-slider-response","64","3378830","0.0-17.0-1.15","1dd81ced-dc40-4d4f-9d15-e360bfe4bdce","1127","
                  <p style=""text-align: center;"">₪11
                                                <br>75%</p>
                  <p id=""wtp"" style=""text-align:center; margin-top: 0px; margin-bottom: 0px; font-size: 40px"";>מוכנים לשלם: <span id=""c_p_y""></span></p>","45","evaluation","77","7","6B,18B,22C,24C,29A","75","11","45","","","","","","","","","","","","","","","","",""
"","","","","","html-keyboard-response","65","3379697","0.0-17.0-2.15","1dd81ced-dc40-4d4f-9d15-e360bfe4bdce","null","<p style=""text-align: center;"">+</p>","null","fixation","","","","","","","","","","","","","","","","","","","","","","",""
"","","","","","html-slider-response","66","3380703","0.0-17.0-0.16","1dd81ced-dc40-4d4f-9d15-e360bfe4bdce","1000","
                  <p style=""text-align: center;"">₪76
                                                <br>65%</p>
                  <p id=""wtp"" style=""text-align:center; margin-top: 0px; margin-bottom: 0px; font-size: 40px"";>&ensp;</p>","-","viewing","0","29","8C,19A,24B","","","","","","","","","","","","","","","","","","","",""
"","","","","","html-slider-response","67","3382246","0.0-17.0-1.16","1dd81ced-dc40-4d4f-9d15-e360bfe4bdce","1542","
                  <p style=""text-align: center;"">₪76
                                                <br>65%</p>
                  <p id=""wtp"" style=""text-align:center; margin-top: 0px; margin-bottom: 0px; font-size: 40px"";>מוכנים לשלם: <span id=""c_p_y""></span></p>","72","evaluation","77","29","8C,19A,24B","65","76","72","","","","","","","","","","","","","","","","",""
"","","","","","html-keyboard-response","68","3383723","0.0-17.0-2.16","1dd81ced-dc40-4d4f-9d15-e360bfe4bdce","null","<p style=""text-align: center;"">+</p>","null","fixation","","","","","","","","","","","","","","","","","","","","","","",""
"","","","","","html-slider-response","69","3384726","0.0-17.0-0.17","1dd81ced-dc40-4d4f-9d15-e360bfe4bdce","1000","
                  <p style=""text-align: center;"">₪11
                                                <br>25%</p>
                  <p id=""wtp"" style=""text-align:center; margin-top: 0px; margin-bottom: 0px; font-size: 40px"";>&ensp;</p>","-","viewing","0","5","12A,27B,28B,30B","","","","","","","","","","","","","","","","","","","",""
"","","","","","html-slider-response","70","3386478","0.0-17.0-1.17","1dd81ced-dc40-4d4f-9d15-e360bfe4bdce","1750","
                  <p style=""text-align: center;"">₪11
                                                <br>25%</p>
                  <p id=""wtp"" style=""text-align:center; margin-top: 0px; margin-bottom: 0px; font-size: 40px"";>מוכנים לשלם: <span id=""c_p_y""></span></p>","10","evaluation","50","5","12A,27B,28B,30B","25","11","10","","","","","","","","","","","","","","","","",""
"","","","","","html-keyboard-response","71","3386995","0.0-17.0-2.17","1dd81ced-dc40-4d4f-9d15-e360bfe4bdce","null","<p style=""text-align: center;"">+</p>","null","fixation","","","","","","","","","","","","","","","","","","","","","","",""
"","","","","","html-slider-response","72","3388011","0.0-17.0-0.18","1dd81ced-dc40-4d4f-9d15-e360bfe4bdce","1000","
                  <p style=""text-align: center;"">₪36
                                                <br>30%</p>
                  <p id=""wtp"" style=""text-align:center; margin-top: 0px; margin-bottom: 0px; font-size: 40px"";>&ensp;</p>","-","viewing","0","11","3C,20A,22A","","","","","","","","","","","","","","","","","","","",""
"","","","","","html-slider-response","73","3388574","0.0-17.0-1.18","1dd81ced-dc40-4d4f-9d15-e360bfe4bdce","562","
                  <p style=""text-align: center;"">₪36
                                                <br>30%</p>
                  <p id=""wtp"" style=""text-align:center; margin-top: 0px; margin-bottom: 0px; font-size: 40px"";>מוכנים לשלם: <span id=""c_p_y""></span></p>","22","evaluation","8","11","3C,20A,22A","30","36","22","","","","","","","","","","","","","","","","",""
"","","","","","html-keyboard-response","74","3389410","0.0-17.0-2.18","1dd81ced-dc40-4d4f-9d15-e360bfe4bdce","null","<p style=""text-align: center;"">+</p>","null","fixation","","","","","","","","","","","","","","","","","","","","","","",""
"","","","","","html-slider-response","75","3390412","0.0-17.0-0.19","1dd81ced-dc40-4d4f-9d15-e360bfe4bdce","1000","
                  <p style=""text-align: center;"">₪43
                                                <br>60%</p>
                  <p id=""wtp"" style=""text-align:center; margin-top: 0px; margin-bottom: 0px; font-size: 40px"";>&ensp;</p>","-","viewing","0","17","2A,7A,9A,15B","","","","","","","","","","","","","","","","","","","",""
"","","","","","html-slider-response","76","3391606","0.0-17.0-1.19","1dd81ced-dc40-4d4f-9d15-e360bfe4bdce","1193","
                  <p style=""text-align: center;"">₪43
                                                <br>60%</p>
                  <p id=""wtp"" style=""text-align:center; margin-top: 0px; margin-bottom: 0px; font-size: 40px"";>מוכנים לשלם: <span id=""c_p_y""></span></p>","71","evaluation","58","17","2A,7A,9A,15B","60","43","71","","","","","","","","","","","","","","","","",""
"","","","","","html-keyboard-response","77","3392489","0.0-17.0-2.19","1dd81ced-dc40-4d4f-9d15-e360bfe4bdce","null","<p style=""text-align: center;"">+</p>","null","fixation","","","","","","","","","","","","","","","","","","","","","","",""
"","","","","","html-slider-response","78","3393492","0.0-17.0-0.20","1dd81ced-dc40-4d4f-9d15-e360bfe4bdce","1000","
                  <p style=""text-align: center;"">₪39
                                                <br>60%</p>
                  <p id=""wtp"" style=""text-align:center; margin-top: 0px; margin-bottom: 0px; font-size: 40px"";>&ensp;</p>","-","viewing","0","15","9C,25B","","","","","","","","","","","","","","","","","","","",""
"","","","","","html-slider-response","79","3394822","0.0-17.0-1.20","1dd81ced-dc40-4d4f-9d15-e360bfe4bdce","1329","
                  <p style=""text-align: center;"">₪39
                                                <br>60%</p>
                  <p id=""wtp"" style=""text-align:center; margin-top: 0px; margin-bottom: 0px; font-size: 40px"";>מוכנים לשלם: <span id=""c_p_y""></span></p>","66","evaluation","35","15","9C,25B","60","39","65","","","","","","","","","","","","","","","","",""
"","","","","","html-keyboard-response","80","3395368","0.0-17.0-2.20","1dd81ced-dc40-4d4f-9d15-e360bfe4bdce","null","<p style=""text-align: center;"">+</p>","null","fixation","","","","","","","","","","","","","","","","","","","","","","",""
"","","","","","html-slider-response","81","3396370","0.0-17.0-0.21","1dd81ced-dc40-4d4f-9d15-e360bfe4bdce","1000","
                  <p style=""text-align: center;"">₪64
                                                <br>50%</p>
                  <p id=""wtp"" style=""text-align:center; margin-top: 0px; margin-bottom: 0px; font-size: 40px"";>&ensp;</p>","-","viewing","0","25","1B,3B,4A","","","","","","","","","","","","","","","","","","","",""
"","","","","","html-slider-response","82","3397302","0.0-17.0-1.21","1dd81ced-dc40-4d4f-9d15-e360bfe4bdce","931","
                  <p style=""text-align: center;"">₪64
                                                <br>50%</p>
                  <p id=""wtp"" style=""text-align:center; margin-top: 0px; margin-bottom: 0px; font-size: 40px"";>מוכנים לשלם: <span id=""c_p_y""></span></p>","24","evaluation","2","25","1B,3B,4A","50","64","24","","","","","","","","","","","","","","","","",""
"","","","","","html-keyboard-response","83","3397948","0.0-17.0-2.21","1dd81ced-dc40-4d4f-9d15-e360bfe4bdce","null","<p style=""text-align: center;"">+</p>","null","fixation","","","","","","","","","","","","","","","","","","","","","","",""
"","","","","","html-slider-response","84","3398960","0.0-17.0-0.22","1dd81ced-dc40-4d4f-9d15-e360bfe4bdce","1000","
                  <p style=""text-align: center;"">₪4
                                                <br>25%</p>
                  <p id=""wtp"" style=""text-align:center; margin-top: 0px; margin-bottom: 0px; font-size: 40px"";>&ensp;</p>","-","viewing","0","1","6C,29B,30C","","","","","","","","","","","","","","","","","","","",""
"","","","","","html-slider-response","85","3400902","0.0-17.0-1.22","1dd81ced-dc40-4d4f-9d15-e360bfe4bdce","1940","
                  <p style=""text-align: center;"">₪4
                                                <br>25%</p>
                  <p id=""wtp"" style=""text-align:center; margin-top: 0px; margin-bottom: 0px; font-size: 40px"";>מוכנים לשלם: <span id=""c_p_y""></span></p>","18","evaluation","75","1","6C,29B,30C","25","4","18","","","","","","","","","","","","","","","","",""
"","","","","","html-keyboard-response","86","3401930","0.0-17.0-2.22","1dd81ced-dc40-4d4f-9d15-e360bfe4bdce","null","<p style=""text-align: center;"">+</p>","null","fixation","","","","","","","","","","","","","","","","","","","","","","",""
"","","","","","html-slider-response","87","3402936","0.0-17.0-0.23","1dd81ced-dc40-4d4f-9d15-e360bfe4bdce","1000","
                  <p style=""text-align: center;"">₪36
                                                <br>60%</p>
                  <p id=""wtp"" style=""text-align:center; margin-top: 0px; margin-bottom: 0px; font-size: 40px"";>&ensp;</p>","-","viewing","0","12","1C,7C,15C","","","","","","","","","","","","","","","","","","","",""
"","","","","","html-slider-response","88","3403966","0.0-17.0-1.23","1dd81ced-dc40-4d4f-9d15-e360bfe4bdce","1029","
                  <p style=""text-align: center;"">₪36
                                                <br>60%</p>
                  <p id=""wtp"" style=""text-align:center; margin-top: 0px; margin-bottom: 0px; font-size: 40px"";>מוכנים לשלם: <span id=""c_p_y""></span></p>","58","evaluation","38","12","1C,7C,15C","60","36","58","","","","","","","","","","","","","","","","",""
"","","","","","html-keyboard-response","89","3405150","0.0-17.0-2.23","1dd81ced-dc40-4d4f-9d15-e360bfe4bdce","null","<p style=""text-align: center;"">+</p>","null","fixation","","","","","","","","","","","","","","","","","","","","","","",""
"","","","","","html-slider-response","90","3406157","0.0-17.0-0.24","1dd81ced-dc40-4d4f-9d15-e360bfe4bdce","1000","
                  <p style=""text-align: center;"">₪71
                                                <br>55%</p>
                  <p id=""wtp"" style=""text-align:center; margin-top: 0px; margin-bottom: 0px; font-size: 40px"";>&ensp;</p>","-","viewing","0","27","5B,18A","","","","","","","","","","","","","","","","","","","",""
"","","","","","html-slider-response","91","3407670","0.0-17.0-1.24","1dd81ced-dc40-4d4f-9d15-e360bfe4bdce","1512","
                  <p style=""text-align: center;"">₪71
                                                <br>55%</p>
                  <p id=""wtp"" style=""text-align:center; margin-top: 0px; margin-bottom: 0px; font-size: 40px"";>מוכנים לשלם: <span id=""c_p_y""></span></p>","48","evaluation","32","27","5B,18A","55","71","48","","","","","","","","","","","","","","","","",""
"","","","","","html-keyboard-response","92","3408323","0.0-17.0-2.24","1dd81ced-dc40-4d4f-9d15-e360bfe4bdce","null","<p style=""text-align: center;"">+</p>","null","fixation","","","","","","","","","","","","","","","","","","","","","","",""
"","","","","","html-slider-response","93","3409328","0.0-17.0-0.25","1dd81ced-dc40-4d4f-9d15-e360bfe4bdce","1000","
                  <p style=""text-align: center;"">₪58
                                                <br>45%</p>
                  <p id=""wtp"" style=""text-align:center; margin-top: 0px; margin-bottom: 0px; font-size: 40px"";>&ensp;</p>","-","viewing","0","21","11C,18C,25A","","","","","","","","","","","","","","","","","","","",""
"","","","","","html-slider-response","94","3409934","0.0-17.0-1.25","1dd81ced-dc40-4d4f-9d15-e360bfe4bdce","605","
                  <p style=""text-align: center;"">₪58
                                                <br>45%</p>
                  <p id=""wtp"" style=""text-align:center; margin-top: 0px; margin-bottom: 0px; font-size: 40px"";>מוכנים לשלם: <span id=""c_p_y""></span></p>","29","evaluation","10","21","11C,18C,25A","45","58","29","","","","","","","","","","","","","","","","",""
"","","","","","html-keyboard-response","95","3410728","0.0-17.0-2.25","1dd81ced-dc40-4d4f-9d15-e360bfe4bdce","null","<p style=""text-align: center;"">+</p>","null","fixation","","","","","","","","","","","","","","","","","","","","","","",""
"","","","","","html-slider-response","96","3411731","0.0-17.0-0.26","1dd81ced-dc40-4d4f-9d15-e360bfe4bdce","1000","
                  <p style=""text-align: center;"">₪58
                                                <br>40%</p>
                  <p id=""wtp"" style=""text-align:center; margin-top: 0px; margin-bottom: 0px; font-size: 40px"";>&ensp;</p>","-","viewing","0","20","10C,13A,19C,21B","","","","","","","","","","","","","","","","","","","",""
"","","","","","html-slider-response","97","3412542","0.0-17.0-1.26","1dd81ced-dc40-4d4f-9d15-e360bfe4bdce","809","
                  <p style=""text-align: center;"">₪58
                                                <br>40%</p>
                  <p id=""wtp"" style=""text-align:center; margin-top: 0px; margin-bottom: 0px; font-size: 40px"";>מוכנים לשלם: <span id=""c_p_y""></span></p>","33","evaluation","66","20","10C,13A,19C,21B","40","58","33","","","","","","","","","","","","","","","","",""
"","","","","","html-keyboard-response","98","3413983","0.0-17.0-2.26","1dd81ced-dc40-4d4f-9d15-e360bfe4bdce","null","<p style=""text-align: center;"">+</p>","null","fixation","","","","","","","","","","","","","","","","","","","","","","",""
"","","","","","html-slider-response","99","3414986","0.0-17.0-0.27","1dd81ced-dc40-4d4f-9d15-e360bfe4bdce","1000","
                  <p style=""text-align: center;"">₪79
                                                <br>65%</p>
                  <p id=""wtp"" style=""text-align:center; margin-top: 0px; margin-bottom: 0px; font-size: 40px"";>&ensp;</p>","-","viewing","0","31","8A","","","","","","","","","","","","","","","","","","","",""
"","","","","","html-slider-response","100","3415878","0.0-17.0-1.27","1dd81ced-dc40-4d4f-9d15-e360bfe4bdce","890","
                  <p style=""text-align: center;"">₪79
                                                <br>65%</p>
                  <p id=""wtp"" style=""text-align:center; margin-top: 0px; margin-bottom: 0px; font-size: 40px"";>מוכנים לשלם: <span id=""c_p_y""></span></p>","61","evaluation","28","31","8A","65","79","61","","","","","","","","","","","","","","","","",""
"","","","","","html-keyboard-response","101","3417140","0.0-17.0-2.27","1dd81ced-dc40-4d4f-9d15-e360bfe4bdce","null","<p style=""text-align: center;"">+</p>","null","fixation","","","","","","","","","","","","","","","","","","","","","","",""
"","","","","","html-slider-response","102","3418156","0.0-17.0-0.28","1dd81ced-dc40-4d4f-9d15-e360bfe4bdce","1000","
                  <p style=""text-align: center;"">₪43
                                                <br>75%</p>
                  <p id=""wtp"" style=""text-align:center; margin-top: 0px; margin-bottom: 0px; font-size: 40px"";>&ensp;</p>","-","viewing","0","18","11B,19B,24A,26A","","","","","","","","","","","","","","","","","","","",""
"","","","","","html-slider-response","103","3419054","0.0-17.0-1.28","1dd81ced-dc40-4d4f-9d15-e360bfe4bdce","897","
                  <p style=""text-align: center;"">₪43
                                                <br>75%</p>
                  <p id=""wtp"" style=""text-align:center; margin-top: 0px; margin-bottom: 0px; font-size: 40px"";>מוכנים לשלם: <span id=""c_p_y""></span></p>","78","evaluation","34","18","11B,19B,24A,26A","75","43","77","","","","","","","","","","","","","","","","",""
"","","","","","html-keyboard-response","104","3420544","0.0-17.0-2.28","1dd81ced-dc40-4d4f-9d15-e360bfe4bdce","null","<p style=""text-align: center;"">+</p>","null","fixation","","","","","","","","","","","","","","","","","","","","","","",""
"","","","","","html-slider-response","105","3421546","0.0-17.0-0.29","1dd81ced-dc40-4d4f-9d15-e360bfe4bdce","1000","
                  <p style=""text-align: center;"">₪61
                                                <br>55%</p>
                  <p id=""wtp"" style=""text-align:center; margin-top: 0px; margin-bottom: 0px; font-size: 40px"";>&ensp;</p>","-","viewing","0","23","7B,26B","","","","","","","","","","","","","","","","","","","",""
"","","","","","html-slider-response","106","3422814","0.0-17.0-1.29","1dd81ced-dc40-4d4f-9d15-e360bfe4bdce","1267","
                  <p style=""text-align: center;"">₪61
                                                <br>55%</p>
                  <p id=""wtp"" style=""text-align:center; margin-top: 0px; margin-bottom: 0px; font-size: 40px"";>מוכנים לשלם: <span id=""c_p_y""></span></p>","45","evaluation","41","23","7B,26B","55","61","45","","","","","","","","","","","","","","","","",""
"","","","","","html-keyboard-response","107","3423831","0.0-17.0-2.29","1dd81ced-dc40-4d4f-9d15-e360bfe4bdce","null","<p style=""text-align: center;"">+</p>","null","fixation","","","","","","","","","","","","","","","","","","","","","","",""
"","","","","","html-slider-response","108","3424843","0.0-17.0-0.30","1dd81ced-dc40-4d4f-9d15-e360bfe4bdce","1000","
                  <p style=""text-align: center;"">₪11
                                                <br>45%</p>
                  <p id=""wtp"" style=""text-align:center; margin-top: 0px; margin-bottom: 0px; font-size: 40px"";>&ensp;</p>","-","viewing","0","6","14B,21C,25C","","","","","","","","","","","","","","","","","","","",""
"","","","","","html-slider-response","109","3426285","0.0-17.0-1.30","1dd81ced-dc40-4d4f-9d15-e360bfe4bdce","1442","
                  <p style=""text-align: center;"">₪11
                                                <br>45%</p>
                  <p id=""wtp"" style=""text-align:center; margin-top: 0px; margin-bottom: 0px; font-size: 40px"";>מוכנים לשלם: <span id=""c_p_y""></span></p>","53","evaluation","58","6","14B,21C,25C","45","11","53","","","","","","","","","","","","","","","","",""
"","","","","","html-keyboard-response","110","3427426","0.0-17.0-2.30","1dd81ced-dc40-4d4f-9d15-e360bfe4bdce","null","<p style=""text-align: center;"">+</p>","null","fixation","","","","","","","","","","","","","","","","","","","","","","",""
"","","","","","html-keyboard-response","111","3428436","0.0-18.0","1dd81ced-dc40-4d4f-9d15-e360bfe4bdce","null","<p style=""text-align: center;"">+</p>","null","fixation","","","","","","","","","","","","","","","","","","","","","","",""
"","","","","","html-keyboard-response","112","3431053","0.0-19.0","1dd81ced-dc40-4d4f-9d15-e360bfe4bdce","null","<p>הפסקה.
          <br>לחצו כדי להמשיך.</p>","1","scan_wait","","","","","","","","","","","","","","","","","","","","","","",""
"","","","","","html-keyboard-response","113","3432057","0.0-20.0","1dd81ced-dc40-4d4f-9d15-e360bfe4bdce","null","<p style=""text-align: center;"">+</p>","null","fixation","","","","","","","","","","","","","","","","","","","","","","",""
"","","","","","html-slider-response","114","3433065","0.0-21.0-0.0","1dd81ced-dc40-4d4f-9d15-e360bfe4bdce","1000","
                  <p style=""text-align: center;"">₪39
                                                <br>60%</p>
                  <p id=""wtp"" style=""text-align:center; margin-top: 0px; margin-bottom: 0px; font-size: 40px"";>&ensp;</p>","-","viewing","0","15","9C,25B","","","","","","","","","","","","","","","","","","","",""
"","","","","","html-slider-response","115","3434358","0.0-21.0-1.0","1dd81ced-dc40-4d4f-9d15-e360bfe4bdce","1292","
                  <p style=""text-align: center;"">₪39
                                                <br>60%</p>
                  <p id=""wtp"" style=""text-align:center; margin-top: 0px; margin-bottom: 0px; font-size: 40px"";>מוכנים לשלם: <span id=""c_p_y""></span></p>","54","evaluation","19","15","9C,25B","60","39","54","","","","","","","","","","","","","","","","",""
"","","","","","html-keyboard-response","116","3435282","0.0-21.0-2.0","1dd81ced-dc40-4d4f-9d15-e360bfe4bdce","null","<p style=""text-align: center;"">+</p>","null","fixation","","","","","","","","","","","","","","","","","","","","","","",""
"","","","","","html-slider-response","117","3436290","0.0-21.0-0.1","1dd81ced-dc40-4d4f-9d15-e360bfe4bdce","1000","
                  <p style=""text-align: center;"">₪43
                                                <br>60%</p>
                  <p id=""wtp"" style=""text-align:center; margin-top: 0px; margin-bottom: 0px; font-size: 40px"";>&ensp;</p>","-","viewing","0","17","2A,7A,9A,15B","","","","","","","","","","","","","","","","","","","",""
"","","","","","html-slider-response","118","3437014","0.0-21.0-1.1","1dd81ced-dc40-4d4f-9d15-e360bfe4bdce","722","
                  <p style=""text-align: center;"">₪43
                                                <br>60%</p>
                  <p id=""wtp"" style=""text-align:center; margin-top: 0px; margin-bottom: 0px; font-size: 40px"";>מוכנים לשלם: <span id=""c_p_y""></span></p>","68","evaluation","50","17","2A,7A,9A,15B","60","43","68","","","","","","","","","","","","","","","","",""
"","","","","","html-keyboard-response","119","3438160","0.0-21.0-2.1","1dd81ced-dc40-4d4f-9d15-e360bfe4bdce","null","<p style=""text-align: center;"">+</p>","null","fixation","","","","","","","","","","","","","","","","","","","","","","",""
"","","","","","html-slider-response","120","3439164","0.0-21.0-0.2","1dd81ced-dc40-4d4f-9d15-e360bfe4bdce","1000","
                  <p style=""text-align: center;"">₪58
                                                <br>40%</p>
                  <p id=""wtp"" style=""text-align:center; margin-top: 0px; margin-bottom: 0px; font-size: 40px"";>&ensp;</p>","-","viewing","0","20","10C,13A,19C,21B","","","","","","","","","","","","","","","","","","","",""
"","","","","","html-slider-response","121","3440326","0.0-21.0-1.2","1dd81ced-dc40-4d4f-9d15-e360bfe4bdce","1161","
                  <p style=""text-align: center;"">₪58
                                                <br>40%</p>
                  <p id=""wtp"" style=""text-align:center; margin-top: 0px; margin-bottom: 0px; font-size: 40px"";>מוכנים לשלם: <span id=""c_p_y""></span></p>","42","evaluation","61","20","10C,13A,19C,21B","40","58","42","","","","","","","","","","","","","","","","",""
"","","","","","html-keyboard-response","122","3441597","0.0-21.0-2.2","1dd81ced-dc40-4d4f-9d15-e360bfe4bdce","null","<p style=""text-align: center;"">+</p>","null","fixation","","","","","","","","","","","","","","","","","","","","","","",""
"","","","","","html-slider-response","123","3442600","0.0-21.0-0.3","1dd81ced-dc40-4d4f-9d15-e360bfe4bdce","1000","
                  <p style=""text-align: center;"">₪11
                                                <br>75%</p>
                  <p id=""wtp"" style=""text-align:center; margin-top: 0px; margin-bottom: 0px; font-size: 40px"";>&ensp;</p>","-","viewing","0","7","6B,18B,22C,24C,29A","","","","","","","","","","","","","","","","","","","",""
"","","","","","html-slider-response","124","3443782","0.0-21.0-1.3","1dd81ced-dc40-4d4f-9d15-e360bfe4bdce","1181","
                  <p style=""text-align: center;"">₪11
                                                <br>75%</p>
                  <p id=""wtp"" style=""text-align:center; margin-top: 0px; margin-bottom: 0px; font-size: 40px"";>מוכנים לשלם: <span id=""c_p_y""></span></p>","71","evaluation","19","7","6B,18B,22C,24C,29A","75","11","71","","","","","","","","","","","","","","","","",""
"","","","","","html-keyboard-response","125","3444694","0.0-21.0-2.3","1dd81ced-dc40-4d4f-9d15-e360bfe4bdce","null","<p style=""text-align: center;"">+</p>","null","fixation","","","","","","","","","","","","","","","","","","","","","","",""
"","","","","","html-slider-response","126","3445700","0.0-21.0-0.4","1dd81ced-dc40-4d4f-9d15-e360bfe4bdce","1000","
                  <p style=""text-align: center;"">₪4
                                                <br>75%</p>
                  <p id=""wtp"" style=""text-align:center; margin-top: 0px; margin-bottom: 0px; font-size: 40px"";>&ensp;</p>","-","viewing","0","3","12B,20B,23B,27C,29C","","","","","","","","","","","","","","","","","","","",""
"","","","","","html-slider-response","127","3447726","0.0-21.0-1.4","1dd81ced-dc40-4d4f-9d15-e360bfe4bdce","2025","
                  <p style=""text-align: center;"">₪4
                                                <br>75%</p>
                  <p id=""wtp"" style=""text-align:center; margin-top: 0px; margin-bottom: 0px; font-size: 40px"";>מוכנים לשלם: <span id=""c_p_y""></span></p>","51","evaluation","59","3","12B,20B,23B,27C,29C","75","4","51","","","","","","","","","","","","","","","","",""
"","","","","","html-keyboard-response","128","3449098","0.0-21.0-2.4","1dd81ced-dc40-4d4f-9d15-e360bfe4bdce","null","<p style=""text-align: center;"">+</p>","null","fixation","","","","","","","","","","","","","","","","","","","","","","",""
"","","","","","html-slider-response","129","3450100","0.0-21.0-0.5","1dd81ced-dc40-4d4f-9d15-e360bfe4bdce","1000","
                  <p style=""text-align: center;"">₪18
                                                <br>50%</p>
                  <p id=""wtp"" style=""text-align:center; margin-top: 0px; margin-bottom: 0px; font-size: 40px"";>&ensp;</p>","-","viewing","0","10","2C,16C,22B,28A","","","","","","","","","","","","","","","","","","","",""
"","","","","","html-slider-response","130","3451286","0.0-21.0-1.5","1dd81ced-dc40-4d4f-9d15-e360bfe4bdce","1185","
                  <p style=""text-align: center;"">₪18
                                                <br>50%</p>
                  <p id=""wtp"" style=""text-align:center; margin-top: 0px; margin-bottom: 0px; font-size: 40px"";>מוכנים לשלם: <span id=""c_p_y""></span></p>","66","evaluation","76","10","2C,16C,22B,28A","50","18","66","","","","","","","","","","","","","","","","",""
"","","","","","html-keyboard-response","131","3452706","0.0-21.0-2.5","1dd81ced-dc40-4d4f-9d15-e360bfe4bdce","null","<p style=""text-align: center;"">+</p>","null","fixation","","","","","","","","","","","","","","","","","","","","","","",""
"","","","","","html-slider-response","132","3453718","0.0-21.0-0.6","1dd81ced-dc40-4d4f-9d15-e360bfe4bdce","1000","
                  <p style=""text-align: center;"">₪36
                                                <br>70%</p>
                  <p id=""wtp"" style=""text-align:center; margin-top: 0px; margin-bottom: 0px; font-size: 40px"";>&ensp;</p>","-","viewing","0","13","3A,5C,10B","","","","","","","","","","","","","","","","","","","",""
"","","","","","html-slider-response","133","3454734","0.0-21.0-1.6","1dd81ced-dc40-4d4f-9d15-e360bfe4bdce","1014","
                  <p style=""text-align: center;"">₪36
                                                <br>70%</p>
                  <p id=""wtp"" style=""text-align:center; margin-top: 0px; margin-bottom: 0px; font-size: 40px"";>מוכנים לשלם: <span id=""c_p_y""></span></p>","69","evaluation","77","13","3A,5C,10B","70","36","69","","","","","","","","","","","","","","","","",""
"","","","","","html-keyboard-response","134","3455402","0.0-21.0-2.6","1dd81ced-dc40-4d4f-9d15-e360bfe4bdce","null","<p style=""text-align: center;"">+</p>","null","fixation","","","","","","","","","","","","","","","","","","","","","","",""
"","","","","","html-slider-response","135","3456408","0.0-21.0-0.7","1dd81ced-dc40-4d4f-9d15-e360bfe4bdce","1000","
                  <p style=""text-align: center;"">₪79
                                                <br>40%</p>
                  <p id=""wtp"" style=""text-align:center; margin-top: 0px; margin-bottom: 0px; font-size: 40px"";>&ensp;</p>","-","viewing","0","30","9B","","","","","","","","","","","","","","","","","","","",""
"","","","","","html-slider-response","136","3457909","0.0-21.0-1.7","1dd81ced-dc40-4d4f-9d15-e360bfe4bdce","1500","
                  <p style=""text-align: center;"">₪79
                                                <br>40%</p>
                  <p id=""wtp"" style=""text-align:center; margin-top: 0px; margin-bottom: 0px; font-size: 40px"";>מוכנים לשלם: <span id=""c_p_y""></span></p>","57","evaluation","38","30","9B","40","79","57","","","","","","","","","","","","","","","","",""
"","","","","","html-keyboard-response","137","3459275","0.0-21.0-2.7","1dd81ced-dc40-4d4f-9d15-e360bfe4bdce","null","<p style=""text-align: center;"">+</p>","null","fixation","","","","","","","","","","","","","","","","","","","","","","",""
"","","","","","html-slider-response","138","3460284","0.0-21.0-0.8","1dd81ced-dc40-4d4f-9d15-e360bfe4bdce","1000","
                  <p style=""text-align: center;"">₪4
                                                <br>50%</p>
                  <p id=""wtp"" style=""text-align:center; margin-top: 0px; margin-bottom: 0px; font-size: 40px"";>&ensp;</p>","-","viewing","0","2","4C,17B","","","","","","","","","","","","","","","","","","","",""
"","","","","","html-slider-response","139","3461309","0.0-21.0-1.8","1dd81ced-dc40-4d4f-9d15-e360bfe4bdce","1024","
                  <p style=""text-align: center;"">₪4
                                                <br>50%</p>
                  <p id=""wtp"" style=""text-align:center; margin-top: 0px; margin-bottom: 0px; font-size: 40px"";>מוכנים לשלם: <span id=""c_p_y""></span></p>","29","evaluation","50","2","4C,17B","50","4","29","","","","","","","","","","","","","","","","",""
"","","","","","html-keyboard-response","140","3462554","0.0-21.0-2.8","1dd81ced-dc40-4d4f-9d15-e360bfe4bdce","null","<p style=""text-align: center;"">+</p>","null","fixation","","","","","","","","","","","","","","","","","","","","","","",""
"","","","","","html-slider-response","141","3463570","0.0-21.0-0.9","1dd81ced-dc40-4d4f-9d15-e360bfe4bdce","1000","
                  <p style=""text-align: center;"">₪79
                                                <br>65%</p>
                  <p id=""wtp"" style=""text-align:center; margin-top: 0px; margin-bottom: 0px; font-size: 40px"";>&ensp;</p>","-","viewing","0","31","8A","","","","","","","","","","","","","","","","","","","",""
"","","","","","html-slider-response","142","3464542","0.0-21.0-1.9","1dd81ced-dc40-4d4f-9d15-e360bfe4bdce","970","
                  <p style=""text-align: center;"">₪79
                                                <br>65%</p>
                  <p id=""wtp"" style=""text-align:center; margin-top: 0px; margin-bottom: 0px; font-size: 40px"";>מוכנים לשלם: <span id=""c_p_y""></span></p>","70","evaluation","35","31","8A","65","79","70","","","","","","","","","","","","","","","","",""
"","","","","","html-keyboard-response","143","3465939","0.0-21.0-2.9","1dd81ced-dc40-4d4f-9d15-e360bfe4bdce","null","<p style=""text-align: center;"">+</p>","null","fixation","","","","","","","","","","","","","","","","","","","","","","",""
"","","","","","html-slider-response","144","3466941","0.0-21.0-0.10","1dd81ced-dc40-4d4f-9d15-e360bfe4bdce","1000","
                  <p style=""text-align: center;"">₪36
                                                <br>30%</p>
                  <p id=""wtp"" style=""text-align:center; margin-top: 0px; margin-bottom: 0px; font-size: 40px"";>&ensp;</p>","-","viewing","0","11","3C,20A,22A","","","","","","","","","","","","","","","","","","","",""
"","","","","","html-slider-response","145","3467710","0.0-21.0-1.10","1dd81ced-dc40-4d4f-9d15-e360bfe4bdce","767","
                  <p style=""text-align: center;"">₪36
                                                <br>30%</p>
                  <p id=""wtp"" style=""text-align:center; margin-top: 0px; margin-bottom: 0px; font-size: 40px"";>מוכנים לשלם: <span id=""c_p_y""></span></p>","37","evaluation","49","11","3C,20A,22A","30","36","37","","","","","","","","","","","","","","","","",""
"","","","","","html-keyboard-response","146","3468319","0.0-21.0-2.10","1dd81ced-dc40-4d4f-9d15-e360bfe4bdce","null","<p style=""text-align: center;"">+</p>","null","fixation","","","","","","","","","","","","","","","","","","","","","","",""
"","","","","","html-slider-response","147","3469327","0.0-21.0-0.11","1dd81ced-dc40-4d4f-9d15-e360bfe4bdce","1000","
                  <p style=""text-align: center;"">₪58
                                                <br>45%</p>
                  <p id=""wtp"" style=""text-align:center; margin-top: 0px; margin-bottom: 0px; font-size: 40px"";>&ensp;</p>","-","viewing","0","21","11C,18C,25A","","","","","","","","","","","","","","","","","","","",""
"","","","","","html-slider-response","148","3470198","0.0-21.0-1.11","1dd81ced-dc40-4d4f-9d15-e360bfe4bdce","869","
                  <p style=""text-align: center;"">₪58
                                                <br>45%</p>
                  <p id=""wtp"" style=""text-align:center; margin-top: 0px; margin-bottom: 0px; font-size: 40px"";>מוכנים לשלם: <span id=""c_p_y""></span></p>","42","evaluation","40","21","11C,18C,25A","45","58","42","","","","","","","","","","","","","","","","",""
"","","","","","html-keyboard-response","149","3471165","0.0-21.0-2.11","1dd81ced-dc40-4d4f-9d15-e360bfe4bdce","null","<p style=""text-align: center;"">+</p>","null","fixation","","","","","","","","","","","","","","","","","","","","","","",""
"","","","","","html-slider-response","150","3472166","0.0-21.0-0.12","1dd81ced-dc40-4d4f-9d15-e360bfe4bdce","1000","
                  <p style=""text-align: center;"">₪71
                                                <br>55%</p>
                  <p id=""wtp"" style=""text-align:center; margin-top: 0px; margin-bottom: 0px; font-size: 40px"";>&ensp;</p>","-","viewing","0","27","5B,18A","","","","","","","","","","","","","","","","","","","",""
"","","","","","html-slider-response","151","3472646","0.0-21.0-1.12","1dd81ced-dc40-4d4f-9d15-e360bfe4bdce","478","
                  <p style=""text-align: center;"">₪71
                                                <br>55%</p>
                  <p id=""wtp"" style=""text-align:center; margin-top: 0px; margin-bottom: 0px; font-size: 40px"";>מוכנים לשלם: <span id=""c_p_y""></span></p>","56","evaluation","28","27","5B,18A","55","71","56","","","","","","","","","","","","","","","","",""
"","","","","","html-keyboard-response","152","3474002","0.0-21.0-2.12","1dd81ced-dc40-4d4f-9d15-e360bfe4bdce","null","<p style=""text-align: center;"">+</p>","null","fixation","","","","","","","","","","","","","","","","","","","","","","",""
"","","","","","html-slider-response","153","3475019","0.0-21.0-0.13","1dd81ced-dc40-4d4f-9d15-e360bfe4bdce","1000","
                  <p style=""text-align: center;"">₪43
                                                <br>75%</p>
                  <p id=""wtp"" style=""text-align:center; margin-top: 0px; margin-bottom: 0px; font-size: 40px"";>&ensp;</p>","-","viewing","0","18","11B,19B,24A,26A","","","","","","","","","","","","","","","","","","","",""
"","","","","","html-slider-response","154","3475894","0.0-21.0-1.13","1dd81ced-dc40-4d4f-9d15-e360bfe4bdce","873","
                  <p style=""text-align: center;"">₪43
                                                <br>75%</p>
                  <p id=""wtp"" style=""text-align:center; margin-top: 0px; margin-bottom: 0px; font-size: 40px"";>מוכנים לשלם: <span id=""c_p_y""></span></p>","73","evaluation","41","18","11B,19B,24A,26A","75","43","72","","","","","","","","","","","","","","","","",""
"","","","","","html-keyboard-response","155","3477258","0.0-21.0-2.13","1dd81ced-dc40-4d4f-9d15-e360bfe4bdce","null","<p style=""text-align: center;"">+</p>","null","fixation","","","","","","","","","","","","","","","","","","","","","","",""
"","","","","","html-slider-response","156","3478261","0.0-21.0-0.14","1dd81ced-dc40-4d4f-9d15-e360bfe4bdce","1000","
                  <p style=""text-align: center;"">₪61
                                                <br>55%</p>
                  <p id=""wtp"" style=""text-align:center; margin-top: 0px; margin-bottom: 0px; font-size: 40px"";>&ensp;</p>","-","viewing","0","23","7B,26B","","","","","","","","","","","","","","","","","","","",""
"","","","","","html-slider-response","157","3478686","0.0-21.0-1.14","1dd81ced-dc40-4d4f-9d15-e360bfe4bdce","424","
                  <p style=""text-align: center;"">₪61
                                                <br>55%</p>
                  <p id=""wtp"" style=""text-align:center; margin-top: 0px; margin-bottom: 0px; font-size: 40px"";>מוכנים לשלם: <span id=""c_p_y""></span></p>","71","evaluation","40","23","7B,26B","55","61","70","","","","","","","","","","","","","","","","",""
"","","","","","html-keyboard-response","158","3479547","0.0-21.0-2.14","1dd81ced-dc40-4d4f-9d15-e360bfe4bdce","null","<p style=""text-align: center;"">+</p>","null","fixation","","","","","","","","","","","","","","","","","","","","","","",""
"","","","","","html-slider-response","159","3480551","0.0-21.0-0.15","1dd81ced-dc40-4d4f-9d15-e360bfe4bdce","1000","
                  <p style=""text-align: center;"">₪39
                                                <br>65%</p>
                  <p id=""wtp"" style=""text-align:center; margin-top: 0px; margin-bottom: 0px; font-size: 40px"";>&ensp;</p>","-","viewing","0","16","1A,15A,26C","","","","","","","","","","","","","","","","","","","",""
"","","","","","html-slider-response","160","3480974","0.0-21.0-1.15","1dd81ced-dc40-4d4f-9d15-e360bfe4bdce","422","
                  <p style=""text-align: center;"">₪39
                                                <br>65%</p>
                  <p id=""wtp"" style=""text-align:center; margin-top: 0px; margin-bottom: 0px; font-size: 40px"";>מוכנים לשלם: <span id=""c_p_y""></span></p>","69","evaluation","26","16","1A,15A,26C","65","39","68","","","","","","","","","","","","","","","","",""
"","","","","","html-keyboard-response","161","3482485","0.0-21.0-2.15","1dd81ced-dc40-4d4f-9d15-e360bfe4bdce","null","<p style=""text-align: center;"">+</p>","null","fixation","","","","","","","","","","","","","","","","","","","","","","",""
"","","","","","html-slider-response","162","3483488","0.0-21.0-0.16","1dd81ced-dc40-4d4f-9d15-e360bfe4bdce","1000","
                  <p style=""text-align: center;"">₪36
                                                <br>60%</p>
                  <p id=""wtp"" style=""text-align:center; margin-top: 0px; margin-bottom: 0px; font-size: 40px"";>&ensp;</p>","-","viewing","0","12","1C,7C,15C","","","","","","","","","","","","","","","","","","","",""
"","","","","","html-slider-response","163","3483942","0.0-21.0-1.16","1dd81ced-dc40-4d4f-9d15-e360bfe4bdce","452","
                  <p style=""text-align: center;"">₪36
                                                <br>60%</p>
                  <p id=""wtp"" style=""text-align:center; margin-top: 0px; margin-bottom: 0px; font-size: 40px"";>מוכנים לשלם: <span id=""c_p_y""></span></p>","67","evaluation","12","12","1C,7C,15C","60","36","67","","","","","","","","","","","","","","","","",""
"","","","","","html-keyboard-response","164","3484990","0.0-21.0-2.16","1dd81ced-dc40-4d4f-9d15-e360bfe4bdce","null","<p style=""text-align: center;"">+</p>","null","fixation","","","","","","","","","","","","","","","","","","","","","","",""
"","","","","","html-slider-response","165","3485993","0.0-21.0-0.17","1dd81ced-dc40-4d4f-9d15-e360bfe4bdce","1000","
                  <p style=""text-align: center;"">₪64
                                                <br>25%</p>
                  <p id=""wtp"" style=""text-align:center; margin-top: 0px; margin-bottom: 0px; font-size: 40px"";>&ensp;</p>","-","viewing","0","24","6A,21A","","","","","","","","","","","","","","","","","","","",""
"","","","","","html-slider-response","166","3486630","0.0-21.0-1.17","1dd81ced-dc40-4d4f-9d15-e360bfe4bdce","636","
                  <p style=""text-align: center;"">₪64
                                                <br>25%</p>
                  <p id=""wtp"" style=""text-align:center; margin-top: 0px; margin-bottom: 0px; font-size: 40px"";>מוכנים לשלם: <span id=""c_p_y""></span></p>","64","evaluation","43","24","6A,21A","25","64","64","","","","","","","","","","","","","","","","",""
"","","","","","html-keyboard-response","167","3487551","0.0-21.0-2.17","1dd81ced-dc40-4d4f-9d15-e360bfe4bdce","null","<p style=""text-align: center;"">+</p>","null","fixation","","","","","","","","","","","","","","","","","","","","","","",""
"","","","","","html-slider-response","168","3488553","0.0-21.0-0.18","1dd81ced-dc40-4d4f-9d15-e360bfe4bdce","1000","
                  <p style=""text-align: center;"">₪71
                                                <br>75%</p>
                  <p id=""wtp"" style=""text-align:center; margin-top: 0px; margin-bottom: 0px; font-size: 40px"";>&ensp;</p>","-","viewing","0","28","8B","","","","","","","","","","","","","","","","","","","",""
"","","","","","html-slider-response","169","3489014","0.0-21.0-1.18","1dd81ced-dc40-4d4f-9d15-e360bfe4bdce","460","
                  <p style=""text-align: center;"">₪71
                                                <br>75%</p>
                  <p id=""wtp"" style=""text-align:center; margin-top: 0px; margin-bottom: 0px; font-size: 40px"";>מוכנים לשלם: <span id=""c_p_y""></span></p>","76","evaluation","48","28","8B","75","71","76","","","","","","","","","","","","","","","","",""
"","","","","","html-keyboard-response","170","3490360","0.0-21.0-2.18","1dd81ced-dc40-4d4f-9d15-e360bfe4bdce","null","<p style=""text-align: center;"">+</p>","null","fixation","","","","","","","","","","","","","","","","","","","","","","",""
"","","","","","html-slider-response","171","3491370","0.0-21.0-0.19","1dd81ced-dc40-4d4f-9d15-e360bfe4bdce","1000","
                  <p style=""text-align: center;"">₪4
                                                <br>25%</p>
                  <p id=""wtp"" style=""text-align:center; margin-top: 0px; margin-bottom: 0px; font-size: 40px"";>&ensp;</p>","-","viewing","0","1","6C,29B,30C","","","","","","","","","","","","","","","","","","","",""
"","","","","","html-slider-response","172","3492046","0.0-21.0-1.19","1dd81ced-dc40-4d4f-9d15-e360bfe4bdce","674","
                  <p style=""text-align: center;"">₪4
                                                <br>25%</p>
                  <p id=""wtp"" style=""text-align:center; margin-top: 0px; margin-bottom: 0px; font-size: 40px"";>מוכנים לשלם: <span id=""c_p_y""></span></p>","30","evaluation","18","1","6C,29B,30C","25","4","30","","","","","","","","","","","","","","","","",""
"","","","","","html-keyboard-response","173","3492636","0.0-21.0-2.19","1dd81ced-dc40-4d4f-9d15-e360bfe4bdce","null","<p style=""text-align: center;"">+</p>","null","fixation","","","","","","","","","","","","","","","","","","","","","","",""
"","","","","","html-slider-response","174","3493645","0.0-21.0-0.20","1dd81ced-dc40-4d4f-9d15-e360bfe4bdce","1000","
                  <p style=""text-align: center;"">₪64
                                                <br>50%</p>
                  <p id=""wtp"" style=""text-align:center; margin-top: 0px; margin-bottom: 0px; font-size: 40px"";>&ensp;</p>","-","viewing","0","25","1B,3B,4A","","","","","","","","","","","","","","","","","","","",""
"","","","","","html-slider-response","175","3494158","0.0-21.0-1.20","1dd81ced-dc40-4d4f-9d15-e360bfe4bdce","512","
                  <p style=""text-align: center;"">₪64
                                                <br>50%</p>
                  <p id=""wtp"" style=""text-align:center; margin-top: 0px; margin-bottom: 0px; font-size: 40px"";>מוכנים לשלם: <span id=""c_p_y""></span></p>","49","evaluation","12","25","1B,3B,4A","50","64","49","","","","","","","","","","","","","","","","",""
"","","","","","html-keyboard-response","176","3494762","0.0-21.0-2.20","1dd81ced-dc40-4d4f-9d15-e360bfe4bdce","null","<p style=""text-align: center;"">+</p>","null","fixation","","","","","","","","","","","","","","","","","","","","","","",""
"","","","","","html-slider-response","177","3495764","0.0-21.0-0.21","1dd81ced-dc40-4d4f-9d15-e360bfe4bdce","1000","
                  <p style=""text-align: center;"">₪11
                                                <br>45%</p>
                  <p id=""wtp"" style=""text-align:center; margin-top: 0px; margin-bottom: 0px; font-size: 40px"";>&ensp;</p>","-","viewing","0","6","14B,21C,25C","","","","","","","","","","","","","","","","","","","",""
"","","","","","html-slider-response","178","3496214","0.0-21.0-1.21","1dd81ced-dc40-4d4f-9d15-e360bfe4bdce","449","
                  <p style=""text-align: center;"">₪11
                                                <br>45%</p>
                  <p id=""wtp"" style=""text-align:center; margin-top: 0px; margin-bottom: 0px; font-size: 40px"";>מוכנים לשלם: <span id=""c_p_y""></span></p>","39","evaluation","57","6","14B,21C,25C","45","11","39","","","","","","","","","","","","","","","","",""
"","","","","","html-keyboard-response","179","3497236","0.0-21.0-2.21","1dd81ced-dc40-4d4f-9d15-e360bfe4bdce","null","<p style=""text-align: center;"">+</p>","null","fixation","","","","","","","","","","","","","","","","","","","","","","",""
"","","","","","html-slider-response","180","3498238","0.0-21.0-0.22","1dd81ced-dc40-4d4f-9d15-e360bfe4bdce","1000","
                  <p style=""text-align: center;"">₪16
                                                <br>20%</p>
                  <p id=""wtp"" style=""text-align:center; margin-top: 0px; margin-bottom: 0px; font-size: 40px"";>&ensp;</p>","-","viewing","0","8","14C,17A,20C,27A","","","","","","","","","","","","","","","","","","","",""
"","","","","","html-slider-response","181","3499262","0.0-21.0-1.22","1dd81ced-dc40-4d4f-9d15-e360bfe4bdce","1022","
                  <p style=""text-align: center;"">₪16
                                                <br>20%</p>
                  <p id=""wtp"" style=""text-align:center; margin-top: 0px; margin-bottom: 0px; font-size: 40px"";>מוכנים לשלם: <span id=""c_p_y""></span></p>","10","evaluation","52","8","14C,17A,20C,27A","20","16","10","","","","","","","","","","","","","","","","",""
"","","","","","html-keyboard-response","182","3500195","0.0-21.0-2.22","1dd81ced-dc40-4d4f-9d15-e360bfe4bdce","null","<p style=""text-align: center;"">+</p>","null","fixation","","","","","","","","","","","","","","","","","","","","","","",""
"","","","","","html-slider-response","183","3501209","0.0-21.0-0.23","1dd81ced-dc40-4d4f-9d15-e360bfe4bdce","1000","
                  <p style=""text-align: center;"">₪76
                                                <br>65%</p>
                  <p id=""wtp"" style=""text-align:center; margin-top: 0px; margin-bottom: 0px; font-size: 40px"";>&ensp;</p>","-","viewing","0","29","8C,19A,24B","","","","","","","","","","","","","","","","","","","",""
"","","","","","html-slider-response","184","3502318","0.0-21.0-1.23","1dd81ced-dc40-4d4f-9d15-e360bfe4bdce","1108","
                  <p style=""text-align: center;"">₪76
                                                <br>65%</p>
                  <p id=""wtp"" style=""text-align:center; margin-top: 0px; margin-bottom: 0px; font-size: 40px"";>מוכנים לשלם: <span id=""c_p_y""></span></p>","47","evaluation","76","29","8C,19A,24B","65","76","47","","","","","","","","","","","","","","","","",""
"","","","","","html-keyboard-response","185","3503046","0.0-21.0-2.23","1dd81ced-dc40-4d4f-9d15-e360bfe4bdce","null","<p style=""text-align: center;"">+</p>","null","fixation","","","","","","","","","","","","","","","","","","","","","","",""
"","","","","","html-slider-response","186","3504054","0.0-21.0-0.24","1dd81ced-dc40-4d4f-9d15-e360bfe4bdce","1000","
                  <p style=""text-align: center;"">₪11
                                                <br>25%</p>
                  <p id=""wtp"" style=""text-align:center; margin-top: 0px; margin-bottom: 0px; font-size: 40px"";>&ensp;</p>","-","viewing","0","5","12A,27B,28B,30B","","","","","","","","","","","","","","","","","","","",""
"","","","","","html-slider-response","187","3504542","0.0-21.0-1.24","1dd81ced-dc40-4d4f-9d15-e360bfe4bdce","487","
                  <p style=""text-align: center;"">₪11
                                                <br>25%</p>
                  <p id=""wtp"" style=""text-align:center; margin-top: 0px; margin-bottom: 0px; font-size: 40px"";>מוכנים לשלם: <span id=""c_p_y""></span></p>","18","evaluation","47","5","12A,27B,28B,30B","25","11","18","","","","","","","","","","","","","","","","",""
"","","","","","html-keyboard-response","188","3505810","0.0-21.0-2.24","1dd81ced-dc40-4d4f-9d15-e360bfe4bdce","null","<p style=""text-align: center;"">+</p>","null","fixation","","","","","","","","","","","","","","","","","","","","","","",""
"","","","","","html-slider-response","189","3506826","0.0-21.0-0.25","1dd81ced-dc40-4d4f-9d15-e360bfe4bdce","1000","
                  <p style=""text-align: center;"">₪58
                                                <br>30%</p>
                  <p id=""wtp"" style=""text-align:center; margin-top: 0px; margin-bottom: 0px; font-size: 40px"";>&ensp;</p>","-","viewing","0","19","13C,30A","","","","","","","","","","","","","","","","","","","",""
"","","","","","html-slider-response","190","3507869","0.0-21.0-1.25","1dd81ced-dc40-4d4f-9d15-e360bfe4bdce","1042","
                  <p style=""text-align: center;"">₪58
                                                <br>30%</p>
                  <p id=""wtp"" style=""text-align:center; margin-top: 0px; margin-bottom: 0px; font-size: 40px"";>מוכנים לשלם: <span id=""c_p_y""></span></p>","31","evaluation","19","19","13C,30A","30","58","31","","","","","","","","","","","","","","","","",""
"","","","","","html-keyboard-response","191","3508414","0.0-21.0-2.25","1dd81ced-dc40-4d4f-9d15-e360bfe4bdce","null","<p style=""text-align: center;"">+</p>","null","fixation","","","","","","","","","","","","","","","","","","","","","","",""
"","","","","","html-slider-response","192","3509422","0.0-21.0-0.26","1dd81ced-dc40-4d4f-9d15-e360bfe4bdce","1000","
                  <p style=""text-align: center;"">₪61
                                                <br>45%</p>
                  <p id=""wtp"" style=""text-align:center; margin-top: 0px; margin-bottom: 0px; font-size: 40px"";>&ensp;</p>","-","viewing","0","22","10A,11A","","","","","","","","","","","","","","","","","","","",""
"","","","","","html-slider-response","193","3509966","0.0-21.0-1.26","1dd81ced-dc40-4d4f-9d15-e360bfe4bdce","543","
                  <p style=""text-align: center;"">₪61
                                                <br>45%</p>
                  <p id=""wtp"" style=""text-align:center; margin-top: 0px; margin-bottom: 0px; font-size: 40px"";>מוכנים לשלם: <span id=""c_p_y""></span></p>","43","evaluation","57","22","10A,11A","45","61","43","","","","","","","","","","","","","","","","",""
"","","","","","html-keyboard-response","194","3511047","0.0-21.0-2.26","1dd81ced-dc40-4d4f-9d15-e360bfe4bdce","null","<p style=""text-align: center;"">+</p>","null","fixation","","","","","","","","","","","","","","","","","","","","","","",""
"","","","","","html-slider-response","195","3512049","0.0-21.0-0.27","1dd81ced-dc40-4d4f-9d15-e360bfe4bdce","1000","
                  <p style=""text-align: center;"">₪11
                                                <br>20%</p>
                  <p id=""wtp"" style=""text-align:center; margin-top: 0px; margin-bottom: 0px; font-size: 40px"";>&ensp;</p>","-","viewing","0","4","12C,17C,23C,28C","","","","","","","","","","","","","","","","","","","",""
"","","","","","html-slider-response","196","3512758","0.0-21.0-1.27","1dd81ced-dc40-4d4f-9d15-e360bfe4bdce","707","
                  <p style=""text-align: center;"">₪11
                                                <br>20%</p>
                  <p id=""wtp"" style=""text-align:center; margin-top: 0px; margin-bottom: 0px; font-size: 40px"";>מוכנים לשלם: <span id=""c_p_y""></span></p>","8","evaluation","21","4","12C,17C,23C,28C","20","11","8","","","","","","","","","","","","","","","","",""
"","","","","","html-keyboard-response","197","3514145","0.0-21.0-2.27","1dd81ced-dc40-4d4f-9d15-e360bfe4bdce","null","<p style=""text-align: center;"">+</p>","null","fixation","","","","","","","","","","","","","","","","","","","","","","",""
"","","","","","html-slider-response","198","3515149","0.0-21.0-0.28","1dd81ced-dc40-4d4f-9d15-e360bfe4bdce","1000","
                  <p style=""text-align: center;"">₪18
                                                <br>25%</p>
                  <p id=""wtp"" style=""text-align:center; margin-top: 0px; margin-bottom: 0px; font-size: 40px"";>&ensp;</p>","-","viewing","0","9","14A,23A","","","","","","","","","","","","","","","","","","","",""
"","","","","","html-slider-response","199","3515870","0.0-21.0-1.28","1dd81ced-dc40-4d4f-9d15-e360bfe4bdce","720","
                  <p style=""text-align: center;"">₪18
                                                <br>25%</p>
                  <p id=""wtp"" style=""text-align:center; margin-top: 0px; margin-bottom: 0px; font-size: 40px"";>מוכנים לשלם: <span id=""c_p_y""></span></p>","23","evaluation","3","9","14A,23A","25","18","23","","","","","","","","","","","","","","","","",""
"","","","","","html-keyboard-response","200","3516962","0.0-21.0-2.28","1dd81ced-dc40-4d4f-9d15-e360bfe4bdce","null","<p style=""text-align: center;"">+</p>","null","fixation","","","","","","","","","","","","","","","","","","","","","","",""
"","","","","","html-slider-response","201","3517966","0.0-21.0-0.29","1dd81ced-dc40-4d4f-9d15-e360bfe4bdce","1000","
                  <p style=""text-align: center;"">₪36
                                                <br>75%</p>
                  <p id=""wtp"" style=""text-align:center; margin-top: 0px; margin-bottom: 0px; font-size: 40px"";>&ensp;</p>","-","viewing","0","14","4B,5A,13B,16B","","","","","","","","","","","","","","","","","","","",""
"","","","","","html-slider-response","202","3519166","0.0-21.0-1.29","1dd81ced-dc40-4d4f-9d15-e360bfe4bdce","1198","
                  <p style=""text-align: center;"">₪36
                                                <br>75%</p>
                  <p id=""wtp"" style=""text-align:center; margin-top: 0px; margin-bottom: 0px; font-size: 40px"";>מוכנים לשלם: <span id=""c_p_y""></span></p>","70","evaluation","75","14","4B,5A,13B,16B","75","36","70","","","","","","","","","","","","","","","","",""
"","","","","","html-keyboard-response","203","3519862","0.0-21.0-2.29","1dd81ced-dc40-4d4f-9d15-e360bfe4bdce","null","<p style=""text-align: center;"">+</p>","null","fixation","","","","","","","","","","","","","","","","","","","","","","",""
"","","","","","html-slider-response","204","3520875","0.0-21.0-0.30","1dd81ced-dc40-4d4f-9d15-e360bfe4bdce","1000","
                  <p style=""text-align: center;"">₪71
                                                <br>45%</p>
                  <p id=""wtp"" style=""text-align:center; margin-top: 0px; margin-bottom: 0px; font-size: 40px"";>&ensp;</p>","-","viewing","0","26","2B,16A","","","","","","","","","","","","","","","","","","","",""
"","","","","","html-slider-response","205","3521398","0.0-21.0-1.30","1dd81ced-dc40-4d4f-9d15-e360bfe4bdce","522","
                  <p style=""text-align: center;"">₪71
                                                <br>45%</p>
                  <p id=""wtp"" style=""text-align:center; margin-top: 0px; margin-bottom: 0px; font-size: 40px"";>מוכנים לשלם: <span id=""c_p_y""></span></p>","55","evaluation","5","26","2B,16A","45","71","55","","","","","","","","","","","","","","","","",""
"","","","","","html-keyboard-response","206","3522256","0.0-21.0-2.30","1dd81ced-dc40-4d4f-9d15-e360bfe4bdce","null","<p style=""text-align: center;"">+</p>","null","fixation","","","","","","","","","","","","","","","","","","","","","","",""
"","","","","","html-keyboard-response","207","3523258","0.0-22.0","1dd81ced-dc40-4d4f-9d15-e360bfe4bdce","null","<p style=""text-align: center;"">+</p>","null","fixation","","","","","","","","","","","","","","","","","","","","","","",""
"","","","","","html-keyboard-response","208","3524926","0.0-23.0","1dd81ced-dc40-4d4f-9d15-e360bfe4bdce","null","<p>הפסקה.
          <br>לחצו כדי להמשיך.</p>","1","scan_wait","","","","","","","","","","","","","","","","","","","","","","",""
"","","","","","html-keyboard-response","209","3525926","0.0-24.0","1dd81ced-dc40-4d4f-9d15-e360bfe4bdce","null","<p style=""text-align: center;"">+</p>","null","fixation","","","","","","","","","","","","","","","","","","","","","","",""
"","","","","","html-slider-response","210","3526932","0.0-25.0-0.0","1dd81ced-dc40-4d4f-9d15-e360bfe4bdce","1000","
                  <p style=""text-align: center;"">₪43
                                                <br>60%</p>
                  <p id=""wtp"" style=""text-align:center; margin-top: 0px; margin-bottom: 0px; font-size: 40px"";>&ensp;</p>","-","viewing","0","17","2A,7A,9A,15B","","","","","","","","","","","","","","","","","","","",""
"","","","","","html-slider-response","211","3527486","0.0-25.0-1.0","1dd81ced-dc40-4d4f-9d15-e360bfe4bdce","553","
                  <p style=""text-align: center;"">₪43
                                                <br>60%</p>
                  <p id=""wtp"" style=""text-align:center; margin-top: 0px; margin-bottom: 0px; font-size: 40px"";>מוכנים לשלם: <span id=""c_p_y""></span></p>","57","evaluation","18","17","2A,7A,9A,15B","60","43","57","","","","","","","","","","","","","","","","",""
"","","","","","html-keyboard-response","212","3528165","0.0-25.0-2.0","1dd81ced-dc40-4d4f-9d15-e360bfe4bdce","null","<p style=""text-align: center;"">+</p>","null","fixation","","","","","","","","","","","","","","","","","","","","","","",""
"","","","","","html-slider-response","213","3529167","0.0-25.0-0.1","1dd81ced-dc40-4d4f-9d15-e360bfe4bdce","1000","
                  <p style=""text-align: center;"">₪36
                                                <br>70%</p>
                  <p id=""wtp"" style=""text-align:center; margin-top: 0px; margin-bottom: 0px; font-size: 40px"";>&ensp;</p>","-","viewing","0","13","3A,5C,10B","","","","","","","","","","","","","","","","","","","",""
"","","","","","html-slider-response","214","3529846","0.0-25.0-1.1","1dd81ced-dc40-4d4f-9d15-e360bfe4bdce","678","
                  <p style=""text-align: center;"">₪36
                                                <br>70%</p>
                  <p id=""wtp"" style=""text-align:center; margin-top: 0px; margin-bottom: 0px; font-size: 40px"";>מוכנים לשלם: <span id=""c_p_y""></span></p>","73","evaluation","40","13","3A,5C,10B","70","36","73","","","","","","","","","","","","","","","","",""
"","","","","","html-keyboard-response","215","3531260","0.0-25.0-2.1","1dd81ced-dc40-4d4f-9d15-e360bfe4bdce","null","<p style=""text-align: center;"">+</p>","null","fixation","","","","","","","","","","","","","","","","","","","","","","",""
"","","","","","html-slider-response","216","3532269","0.0-25.0-0.2","1dd81ced-dc40-4d4f-9d15-e360bfe4bdce","1000","
                  <p style=""text-align: center;"">₪11
                                                <br>45%</p>
                  <p id=""wtp"" style=""text-align:center; margin-top: 0px; margin-bottom: 0px; font-size: 40px"";>&ensp;</p>","-","viewing","0","6","14B,21C,25C","","","","","","","","","","","","","","","","","","","",""
"","","","","","html-slider-response","217","3533118","0.0-25.0-1.2","1dd81ced-dc40-4d4f-9d15-e360bfe4bdce","848","
                  <p style=""text-align: center;"">₪11
                                                <br>45%</p>
                  <p id=""wtp"" style=""text-align:center; margin-top: 0px; margin-bottom: 0px; font-size: 40px"";>מוכנים לשלם: <span id=""c_p_y""></span></p>","52","evaluation","38","6","14B,21C,25C","45","11","52","","","","","","","","","","","","","","","","",""
"","","","","","html-keyboard-response","218","3533622","0.0-25.0-2.2","1dd81ced-dc40-4d4f-9d15-e360bfe4bdce","null","<p style=""text-align: center;"">+</p>","null","fixation","","","","","","","","","","","","","","","","","","","","","","",""
"","","","","","html-slider-response","219","3534625","0.0-25.0-0.3","1dd81ced-dc40-4d4f-9d15-e360bfe4bdce","1000","
                  <p style=""text-align: center;"">₪4
                                                <br>25%</p>
                  <p id=""wtp"" style=""text-align:center; margin-top: 0px; margin-bottom: 0px; font-size: 40px"";>&ensp;</p>","-","viewing","0","1","6C,29B,30C","","","","","","","","","","","","","","","","","","","",""
"","","","","","html-slider-response","220","3535014","0.0-25.0-1.3","1dd81ced-dc40-4d4f-9d15-e360bfe4bdce","388","
                  <p style=""text-align: center;"">₪4
                                                <br>25%</p>
                  <p id=""wtp"" style=""text-align:center; margin-top: 0px; margin-bottom: 0px; font-size: 40px"";>מוכנים לשלם: <span id=""c_p_y""></span></p>","22","evaluation","75","1","6C,29B,30C","25","4","22","","","","","","","","","","","","","","","","",""
"","","","","","html-keyboard-response","221","3536447","0.0-25.0-2.3","1dd81ced-dc40-4d4f-9d15-e360bfe4bdce","null","<p style=""text-align: center;"">+</p>","null","fixation","","","","","","","","","","","","","","","","","","","","","","",""
"","","","","","html-slider-response","222","3537455","0.0-25.0-0.4","1dd81ced-dc40-4d4f-9d15-e360bfe4bdce","1000","
                  <p style=""text-align: center;"">₪71
                                                <br>55%</p>
                  <p id=""wtp"" style=""text-align:center; margin-top: 0px; margin-bottom: 0px; font-size: 40px"";>&ensp;</p>","-","viewing","0","27","5B,18A","","","","","","","","","","","","","","","","","","","",""
"","","","","","html-slider-response","223","3537894","0.0-25.0-1.4","1dd81ced-dc40-4d4f-9d15-e360bfe4bdce","438","
                  <p style=""text-align: center;"">₪71
                                                <br>55%</p>
                  <p id=""wtp"" style=""text-align:center; margin-top: 0px; margin-bottom: 0px; font-size: 40px"";>מוכנים לשלם: <span id=""c_p_y""></span></p>","30","evaluation","0","27","5B,18A","55","71","30","","","","","","","","","","","","","","","","",""
"","","","","","html-keyboard-response","224","3539116","0.0-25.0-2.4","1dd81ced-dc40-4d4f-9d15-e360bfe4bdce","null","<p style=""text-align: center;"">+</p>","null","fixation","","","","","","","","","","","","","","","","","","","","","","",""
"","","","","","html-slider-response","225","3540131","0.0-25.0-0.5","1dd81ced-dc40-4d4f-9d15-e360bfe4bdce","1000","
                  <p style=""text-align: center;"">₪64
                                                <br>25%</p>
                  <p id=""wtp"" style=""text-align:center; margin-top: 0px; margin-bottom: 0px; font-size: 40px"";>&ensp;</p>","-","viewing","0","24","6A,21A","","","","","","","","","","","","","","","","","","","",""
"","","","","","html-slider-response","226","3540974","0.0-25.0-1.5","1dd81ced-dc40-4d4f-9d15-e360bfe4bdce","842","
                  <p style=""text-align: center;"">₪64
                                                <br>25%</p>
                  <p id=""wtp"" style=""text-align:center; margin-top: 0px; margin-bottom: 0px; font-size: 40px"";>מוכנים לשלם: <span id=""c_p_y""></span></p>","23","evaluation","21","24","6A,21A","25","64","23","","","","","","","","","","","","","","","","",""
"","","","","","html-keyboard-response","227","3542185","0.0-25.0-2.5","1dd81ced-dc40-4d4f-9d15-e360bfe4bdce","null","<p style=""text-align: center;"">+</p>","null","fixation","","","","","","","","","","","","","","","","","","","","","","",""
"","","","","","html-slider-response","228","3543201","0.0-25.0-0.6","1dd81ced-dc40-4d4f-9d15-e360bfe4bdce","1000","
                  <p style=""text-align: center;"">₪61
                                                <br>55%</p>
                  <p id=""wtp"" style=""text-align:center; margin-top: 0px; margin-bottom: 0px; font-size: 40px"";>&ensp;</p>","-","viewing","0","23","7B,26B","","","","","","","","","","","","","","","","","","","",""
"","","","","","html-slider-response","229","3543758","0.0-25.0-1.6","1dd81ced-dc40-4d4f-9d15-e360bfe4bdce","556","
                  <p style=""text-align: center;"">₪61
                                                <br>55%</p>
                  <p id=""wtp"" style=""text-align:center; margin-top: 0px; margin-bottom: 0px; font-size: 40px"";>מוכנים לשלם: <span id=""c_p_y""></span></p>","66","evaluation","49","23","7B,26B","55","61","66","","","","","","","","","","","","","","","","",""
"","","","","","html-keyboard-response","230","3544924","0.0-25.0-2.6","1dd81ced-dc40-4d4f-9d15-e360bfe4bdce","null","<p style=""text-align: center;"">+</p>","null","fixation","","","","","","","","","","","","","","","","","","","","","","",""
"","","","","","html-slider-response","231","3545926","0.0-25.0-0.7","1dd81ced-dc40-4d4f-9d15-e360bfe4bdce","1000","
                  <p style=""text-align: center;"">₪79
                                                <br>65%</p>
                  <p id=""wtp"" style=""text-align:center; margin-top: 0px; margin-bottom: 0px; font-size: 40px"";>&ensp;</p>","-","viewing","0","31","8A","","","","","","","","","","","","","","","","","","","",""
"","","","","","html-slider-response","232","3546350","0.0-25.0-1.7","1dd81ced-dc40-4d4f-9d15-e360bfe4bdce","424","
                  <p style=""text-align: center;"">₪79
                                                <br>65%</p>
                  <p id=""wtp"" style=""text-align:center; margin-top: 0px; margin-bottom: 0px; font-size: 40px"";>מוכנים לשלם: <span id=""c_p_y""></span></p>","69","evaluation","52","31","8A","65","79","69","","","","","","","","","","","","","","","","",""
"","","","","","html-keyboard-response","233","3547499","0.0-25.0-2.7","1dd81ced-dc40-4d4f-9d15-e360bfe4bdce","null","<p style=""text-align: center;"">+</p>","null","fixation","","","","","","","","","","","","","","","","","","","","","","",""
"","","","","","html-slider-response","234","3548506","0.0-25.0-0.8","1dd81ced-dc40-4d4f-9d15-e360bfe4bdce","1000","
                  <p style=""text-align: center;"">₪4
                                                <br>50%</p>
                  <p id=""wtp"" style=""text-align:center; margin-top: 0px; margin-bottom: 0px; font-size: 40px"";>&ensp;</p>","-","viewing","0","2","4C,17B","","","","","","","","","","","","","","","","","","","",""
"","","","","","html-slider-response","235","3548998","0.0-25.0-1.8","1dd81ced-dc40-4d4f-9d15-e360bfe4bdce","490","
                  <p style=""text-align: center;"">₪4
                                                <br>50%</p>
                  <p id=""wtp"" style=""text-align:center; margin-top: 0px; margin-bottom: 0px; font-size: 40px"";>מוכנים לשלם: <span id=""c_p_y""></span></p>","12","evaluation","32","2","4C,17B","50","4","12","","","","","","","","","","","","","","","","",""
"","","","","","html-keyboard-response","236","3549622","0.0-25.0-2.8","1dd81ced-dc40-4d4f-9d15-e360bfe4bdce","null","<p style=""text-align: center;"">+</p>","null","fixation","","","","","","","","","","","","","","","","","","","","","","",""
"","","","","","html-slider-response","237","3550638","0.0-25.0-0.9","1dd81ced-dc40-4d4f-9d15-e360bfe4bdce","1000","
                  <p style=""text-align: center;"">₪4
                                                <br>75%</p>
                  <p id=""wtp"" style=""text-align:center; margin-top: 0px; margin-bottom: 0px; font-size: 40px"";>&ensp;</p>","-","viewing","0","3","12B,20B,23B,27C,29C","","","","","","","","","","","","","","","","","","","",""
"","","","","","html-slider-response","238","3552022","0.0-25.0-1.9","1dd81ced-dc40-4d4f-9d15-e360bfe4bdce","1383","
                  <p style=""text-align: center;"">₪4
                                                <br>75%</p>
                  <p id=""wtp"" style=""text-align:center; margin-top: 0px; margin-bottom: 0px; font-size: 40px"";>מוכנים לשלם: <span id=""c_p_y""></span></p>","51","evaluation","48","3","12B,20B,23B,27C,29C","75","4","51","","","","","","","","","","","","","","","","",""
"","","","","","html-keyboard-response","239","3552969","0.0-25.0-2.9","1dd81ced-dc40-4d4f-9d15-e360bfe4bdce","null","<p style=""text-align: center;"">+</p>","null","fixation","","","","","","","","","","","","","","","","","","","","","","",""
"","","","","","html-slider-response","240","3553975","0.0-25.0-0.10","1dd81ced-dc40-4d4f-9d15-e360bfe4bdce","1000","
                  <p style=""text-align: center;"">₪39
                                                <br>65%</p>
                  <p id=""wtp"" style=""text-align:center; margin-top: 0px; margin-bottom: 0px; font-size: 40px"";>&ensp;</p>","-","viewing","0","16","1A,15A,26C","","","","","","","","","","","","","","","","","","","",""
"","","","","","html-slider-response","241","3554774","0.0-25.0-1.10","1dd81ced-dc40-4d4f-9d15-e360bfe4bdce","797","
                  <p style=""text-align: center;"">₪39
                                                <br>65%</p>
                  <p id=""wtp"" style=""text-align:center; margin-top: 0px; margin-bottom: 0px; font-size: 40px"";>מוכנים לשלם: <span id=""c_p_y""></span></p>","66","evaluation","23","16","1A,15A,26C","65","39","66","","","","","","","","","","","","","","","","",""
"","","","","","html-keyboard-response","242","3555716","0.0-25.0-2.10","1dd81ced-dc40-4d4f-9d15-e360bfe4bdce","null","<p style=""text-align: center;"">+</p>","null","fixation","","","","","","","","","","","","","","","","","","","","","","",""
"","","","","","html-slider-response","243","3556725","0.0-25.0-0.11","1dd81ced-dc40-4d4f-9d15-e360bfe4bdce","1000","
                  <p style=""text-align: center;"">₪58
                                                <br>30%</p>
                  <p id=""wtp"" style=""text-align:center; margin-top: 0px; margin-bottom: 0px; font-size: 40px"";>&ensp;</p>","-","viewing","0","19","13C,30A","","","","","","","","","","","","","","","","","","","",""
"","","","","","html-slider-response","244","3557662","0.0-25.0-1.11","1dd81ced-dc40-4d4f-9d15-e360bfe4bdce","935","
                  <p style=""text-align: center;"">₪58
                                                <br>30%</p>
                  <p id=""wtp"" style=""text-align:center; margin-top: 0px; margin-bottom: 0px; font-size: 40px"";>מוכנים לשלם: <span id=""c_p_y""></span></p>","51","evaluation","73","19","13C,30A","30","58","51","","","","","","","","","","","","","","","","",""
"","","","","","html-keyboard-response","245","3558386","0.0-25.0-2.11","1dd81ced-dc40-4d4f-9d15-e360bfe4bdce","null","<p style=""text-align: center;"">+</p>","null","fixation","","","","","","","","","","","","","","","","","","","","","","",""
"","","","","","html-slider-response","246","3559401","0.0-25.0-0.12","1dd81ced-dc40-4d4f-9d15-e360bfe4bdce","1000","
                  <p style=""text-align: center;"">₪39
                                                <br>60%</p>
                  <p id=""wtp"" style=""text-align:center; margin-top: 0px; margin-bottom: 0px; font-size: 40px"";>&ensp;</p>","-","viewing","0","15","9C,25B","","","","","","","","","","","","","","","","","","","",""
"","","","","","html-slider-response","247","3559926","0.0-25.0-1.12","1dd81ced-dc40-4d4f-9d15-e360bfe4bdce","524","
                  <p style=""text-align: center;"">₪39
                                                <br>60%</p>
                  <p id=""wtp"" style=""text-align:center; margin-top: 0px; margin-bottom: 0px; font-size: 40px"";>מוכנים לשלם: <span id=""c_p_y""></span></p>","65","evaluation","56","15","9C,25B","60","39","65","","","","","","","","","","","","","","","","",""
"","","","","","html-keyboard-response","248","3561315","0.0-25.0-2.12","1dd81ced-dc40-4d4f-9d15-e360bfe4bdce","null","<p style=""text-align: center;"">+</p>","null","fixation","","","","","","","","","","","","","","","","","","","","","","",""
"","","","","","html-slider-response","249","3562327","0.0-25.0-0.13","1dd81ced-dc40-4d4f-9d15-e360bfe4bdce","1000","
                  <p style=""text-align: center;"">₪36
