"success","timeout","failed_images","failed_audio","failed_video","trial_type","trial_index","time_elapsed","internal_node_id","subject_id","rt","stimulus","response","part","slider_start","ID","set_ID","prob","amount","last_location","actual_choice","actual_EV","binary_id","trinary_id","catch","A_key","D_key","choice_prob","choice_amount","chosen_part","potential_prize_prob","potential_prize_amount","won_prize","total_prize","prize_cost","remaining_budget","accuracy"
"true","false","[]","[]","[]","preload","0","69","0.0-0.0","f5d392d1-8c81-4f36-881c-68ec593c2fca","","","","","","","","","","","","","","","","","","","","","","","","","","",""
"","","","","","html-keyboard-response","1","675894","0.0-1.0","f5d392d1-8c81-4f36-881c-68ec593c2fca","null","
          <h1>שלום וברוכים הבאים!</h1>
          <p>לפניכם ניסוי בקבלת החלטות עם שני חלקים.
          <br><br>לחצו על העכבר כדי להמשיך.</p>","0","example","","","","","","","","","","","","","","","","","","","","","","",""
"","","","","","html-keyboard-response","2","689022","0.0-2.0","f5d392d1-8c81-4f36-881c-68ec593c2fca","null","
        <h1>חלק 1</h1>
        <p>בקרוב יוצגו בפניכם הגרלות.
        <br>עליכם לבחור את המחיר המירבי שתהיו מוכנים לשלם כדי להשתתף בהגרלה שתוצג.
        <br>יש לכם תקציב של ₪80 לכל הגרלה. 
        <br>נסו להעריך כל הגרלה בנפרד ולחשוב כמה היא שווה עבורכם, ₪80 זמינים לכל הגרלה בנפרד.
        <br><br>לחצו על העכבר כדי להמשיך.</p>","1","instructions","","","","","","","","","","","","","","","","","","","","","","",""
"","","","","","html-keyboard-response","3","703350","0.0-3.0","f5d392d1-8c81-4f36-881c-68ec593c2fca","null","
        <p>בסוף הניסוי, המחשב יבחר את אחת ההגרלות ויקבע מחיר לכרטיס עבורה. 
        <br>במידה והמחיר שבחרתם נמוך מהמחיר שנבחר על ידי המחשב, לא תשתתפו בהגרלה ותשארו עם מלוא התקציב.
        <br>במידה והמחיר שבחרתם גבוה מהמחיר שנבחר על ידי המחשב, תשלמו את המחיר שנקבע ותשתתפו בהגרלה.
        <br><br>לחצו על העכבר כדי להמשיך.</p>","1","instructions","","","","","","","","","","","","","","","","","","","","","","",""
"","","","","","html-slider-response","4","723086","0.0-4.0","f5d392d1-8c81-4f36-881c-68ec593c2fca","19629","
        <p style=""font-size: 42px;"">נתחיל עם דוגמא: 
        <br>ההגרלה מטה מציעה 65% סיכוי לזכות ב-₪40 
        <br>&emsp;&emsp;&emsp;&emsp;&emsp;&emsp;&emsp;&emsp;&ensp;35% סיכוי לזכות ב-₪0.
        <br><br>מה המחיר המירבי שתהיו מוכנים לשלם על כרטיס להגרלה זו בין 0 ל-₪80?
        <br>הזיזו את העכבר על פני המלבן ולחצו כדי לבצע בחירה.</p>
        
        <p style=""text-align: center;"">₪40<br>65%</p>

        <p id=""wtp"" style=""text-align:center; margin-top: 0px; margin-bottom: 0px; font-size: 40px"";>מוכנים לשלם: <span id=""c_p_y""></span></p>","33","example","61","","","","","","","","","","","","","","","","","","","","","",""
"","","","","","html-keyboard-response","5","733942","0.0-5.0","f5d392d1-8c81-4f36-881c-68ec593c2fca","null","<p>יפה מאוד!
                <br> בחרתם שתהיו מוכנים לשלם ₪33 כדי להשתתף בהגרלה:
                <br><p style=""text-align: center;"">₪40<br>65%</p>
                <p>נשמע נכון?
                <br>נניח שהגרלה זו נבחרה בסוף הניסוי.
                <br>כעת המחשב יקבע מחיר עבורה באקראי.
                <br>לחצו על העכבר להמשך.</p>","1","example","","","","","","","","","","","","","","","","","","","","","","",""
"","","","","","html-keyboard-response","6","746276","0.0-6.0","f5d392d1-8c81-4f36-881c-68ec593c2fca","null","<p>המחשב קבע מחיר: ₪57
                <br>ואתם בחרתם לשלם לכל היותר: ₪33
                <br><br>מכיוון שהמחיר שבחרתם נמוך מהמחיר שנקבע, לא תתשתתפו בהגרלה.
                <br>במקרה כזה, בסוף הניסוי תקבלו את כל התקציב ההתחלתי של ₪80.
                <br><br>לחצו על העכבר להמשך.</p>","1","example","","","","","","","","","","","","","","","","","","","","","","",""
"","","","","","html-slider-response","7","761076","0.0-7.0","f5d392d1-8c81-4f36-881c-68ec593c2fca","14540","<p style=""font-size: 42px;"">הנה עוד דוגמא:
                <br>ההגרלה מטה מציעה 35% סיכוי לזכות ב-₪18 
                <br>&emsp;&emsp;&emsp;&emsp;&emsp;&emsp;&emsp;&emsp;&ensp;65% סיכוי לזכות ב-₪0.</p>
        
                <p style=""text-align: center;"">₪18<br>35%</p>
                <p id=""wtp"" style=""text-align:center; margin-top: 0px; margin-bottom: 0px; font-size: 40px"";>מוכנים לשלם: <span id=""c_p_y""></span></p>","25","example","54","","","","","","","","","","","","","","","","","","","","","",""
"","","","","","html-keyboard-response","8","764916","0.0-8.0","f5d392d1-8c81-4f36-881c-68ec593c2fca","null","<p>הייתם מוכנים לשלם  ₪25 כדי להשתתף בהגרלה:
                <p style=""text-align: center;"">₪18<br>35%</p>
                <p>כעת נניח שהמחשב בחר את ההגרלה הזו בסוף הניסוי, וקבע עבורה מחיר.
                <br><br>לחצו על העכבר כדי להמשיך.</p>","1","instructions","","","","","","","","","","","","","","","","","","","","","","",""
"","","","","","html-keyboard-response","9","781532","0.0-9.0","f5d392d1-8c81-4f36-881c-68ec593c2fca","null","<p>המחשב קבע מחיר להגרלה: ₪6<br>ואתם בחרתם לשלם לכל היותר: ₪25
                <br><br>כעת המחיר שנקבע נמוך מזה שבחרתם, אז תשלמו את המחיר שקבע המחשב (₪6) ותשתתפו בהגרלה.
                <br>במקרה כזה, תסיימו את הניסוי עם תקציב של ₪74 ועם סיכוי לזכות ב-₪18 נוספים מההגרלה.
                <br>כלומר, תוכלו לקבל ₪74 אם לא תזכו בהגרלה, או ₪92 אם תזכו בהגרלה.
                <br><br>לחצו על העכבר להמשך.</p>","1","example","","","","","","","","","","","","","","","","","","","","","","",""
"","","","","","html-keyboard-response","10","790036","0.0-10.0","f5d392d1-8c81-4f36-881c-68ec593c2fca","null","<p>במהלך הניסוי, קודם תראו את ההגרלה ורק לאחר מכן תוכלו לבחור.
                <p>כמו כן, יהיו לכם מספר שניות מוגבל להגיב.
                <p>בואו ננסה זאת עם ההגרלה הקודמת.
                <br>לחצו על העכבר כדי להמשיך.</p>","1","instructions","","","","","","","","","","","","","","","","","","","","","","",""
"","","","","","html-slider-response","11","791312","0.0-11.0","f5d392d1-8c81-4f36-881c-68ec593c2fca","1000","
                    <p style=""text-align: center;"">₪18<br>35%</p>
                    <p id=""wtp"" style=""text-align:center; margin-top: 0px; margin-bottom: 0px; font-size: 40px"";>&ensp;</p>","25","instructions","0","","","","","","","","","","","","","","","","","","","","","",""
"","","","","","html-slider-response","12","795579","0.0-12.0","f5d392d1-8c81-4f36-881c-68ec593c2fca","null","
                    <p style=""text-align: center;"">₪18<br>35%</p>
                    <p id=""wtp"" style=""text-align:center; margin-top: 0px; margin-bottom: 0px; font-size: 40px"";>מוכנים לשלם: <span id=""c_p_y""></span></p>","null","instructions","63","","","","","","","","","","","","","","","","","","","","","",""
"","","","","","html-keyboard-response","13","796268","0.0-13.0","f5d392d1-8c81-4f36-881c-68ec593c2fca","null","<p>לא הגבתם בזמן המוקצב לתגובה. 
                <br>נסו להגיב מהר יותר בפעם הבאה.
                <br><br>לחצו על העכבר כדי להמשיך.</p>","1","instructions","","","","","","","","","","","","","","","","","","","","","","",""
"","","","","","html-slider-response","14","798514","0.0-14.0-0.0","f5d392d1-8c81-4f36-881c-68ec593c2fca","1981","
                    <p style=""text-align: center;"">₪40<br>65%</p>
                    <p id=""wtp"" style=""text-align:center; margin-top: 0px; margin-bottom: 0px; font-size: 40px"";>מוכנים לשלם: <span id=""c_p_y""></span></p>","29","instructions","17","","","","","","","","","","","","","","","","","","","","","",""
"","","","","","html-keyboard-response","15","800298","0.0-14.0-1.0","f5d392d1-8c81-4f36-881c-68ec593c2fca","null","<p>יפה. הפעם בחרתם לשלם לכל היותר ₪29.
                <br><br>לחצו על העכבר כדי להמשיך.</p>","1","instructions","","","","","","","","","","","","","","","","","","","","","","",""
"","","","","","html-keyboard-response","16","809266","0.0-15.0","f5d392d1-8c81-4f36-881c-68ec593c2fca","null","<p>כעת נתחיל את הניסוי.
                <br><br>אתם תראו הגרלות ותתבקשו לבחור כמה תהיו מוכנים לשלם כדי להשתתף בהן.
                <br>יש לכם תקציב של ₪80 עבור כל הגרלה.
                <br>בסוף הניסוי הגרלה אחת תבחר באקראי ותשוחק.
                <br><br>לחצו על העכבר כדי להתחיל את הניסוי.</p>","1","instructions","","","","","","","","","","","","","","","","","","","","","","",""
"","","","","","html-keyboard-response","17","810531","0.0-16.0","f5d392d1-8c81-4f36-881c-68ec593c2fca","null","<p style=""text-align: center;"">+</p>","null","fixation","","","","","","","","","","","","","","","","","","","","","","",""
"","","","","","html-slider-response","18","811542","0.0-17.0-0.0","f5d392d1-8c81-4f36-881c-68ec593c2fca","1000","
                  <p style=""text-align: center;"">₪4
                                                <br>75%</p>
                  <p id=""wtp"" style=""text-align:center; margin-top: 0px; margin-bottom: 0px; font-size: 40px"";>&ensp;</p>","-","viewing","0","3","12B,20B,23B,27C,29C","","","","","","","","","","","","","","","","","","","",""
"","","","","","html-slider-response","19","815549","0.0-17.0-1.0","f5d392d1-8c81-4f36-881c-68ec593c2fca","null","
                  <p style=""text-align: center;"">₪4
                                                <br>75%</p>
                  <p id=""wtp"" style=""text-align:center; margin-top: 0px; margin-bottom: 0px; font-size: 40px"";>מוכנים לשלם: <span id=""c_p_y""></span></p>","null","evaluation","37","3","12B,20B,23B,27C,29C","75","4","17","","","","","","","","","","","","","","","","",""
"","","","","","html-keyboard-response","20","816103","0.0-17.0-2.0","f5d392d1-8c81-4f36-881c-68ec593c2fca","null","<p style=""text-align: center;"">+</p>","null","fixation","","","","","","","","","","","","","","","","","","","","","","",""
"","","","","","html-slider-response","21","817116","0.0-17.0-0.1","f5d392d1-8c81-4f36-881c-68ec593c2fca","1000","
                  <p style=""text-align: center;"">₪11
                                                <br>20%</p>
                  <p id=""wtp"" style=""text-align:center; margin-top: 0px; margin-bottom: 0px; font-size: 40px"";>&ensp;</p>","-","viewing","0","4","12C,17C,23C,28C","","","","","","","","","","","","","","","","","","","",""
"","","","","","html-slider-response","22","819202","0.0-17.0-1.1","f5d392d1-8c81-4f36-881c-68ec593c2fca","2085","
                  <p style=""text-align: center;"">₪11
                                                <br>20%</p>
                  <p id=""wtp"" style=""text-align:center; margin-top: 0px; margin-bottom: 0px; font-size: 40px"";>מוכנים לשלם: <span id=""c_p_y""></span></p>","23","evaluation","12","4","12C,17C,23C,28C","20","11","23","","","","","","","","","","","","","","","","",""
"","","","","","html-keyboard-response","23","820645","0.0-17.0-2.1","f5d392d1-8c81-4f36-881c-68ec593c2fca","null","<p style=""text-align: center;"">+</p>","null","fixation","","","","","","","","","","","","","","","","","","","","","","",""
"","","","","","html-slider-response","24","821651","0.0-17.0-0.2","f5d392d1-8c81-4f36-881c-68ec593c2fca","1000","
                  <p style=""text-align: center;"">₪61
                                                <br>45%</p>
                  <p id=""wtp"" style=""text-align:center; margin-top: 0px; margin-bottom: 0px; font-size: 40px"";>&ensp;</p>","-","viewing","0","22","10A,11A","","","","","","","","","","","","","","","","","","","",""
"","","","","","html-slider-response","25","824546","0.0-17.0-1.2","f5d392d1-8c81-4f36-881c-68ec593c2fca","2894","
                  <p style=""text-align: center;"">₪61
                                                <br>45%</p>
                  <p id=""wtp"" style=""text-align:center; margin-top: 0px; margin-bottom: 0px; font-size: 40px"";>מוכנים לשלם: <span id=""c_p_y""></span></p>","65","evaluation","12","22","10A,11A","45","61","65","","","","","","","","","","","","","","","","",""
"","","","","","html-keyboard-response","26","825719","0.0-17.0-2.2","f5d392d1-8c81-4f36-881c-68ec593c2fca","null","<p style=""text-align: center;"">+</p>","null","fixation","","","","","","","","","","","","","","","","","","","","","","",""
"","","","","","html-slider-response","27","826728","0.0-17.0-0.3","f5d392d1-8c81-4f36-881c-68ec593c2fca","1000","
                  <p style=""text-align: center;"">₪36
                                                <br>60%</p>
                  <p id=""wtp"" style=""text-align:center; margin-top: 0px; margin-bottom: 0px; font-size: 40px"";>&ensp;</p>","-","viewing","0","12","1C,7C,15C","","","","","","","","","","","","","","","","","","","",""
"","","","","","html-slider-response","28","828626","0.0-17.0-1.3","f5d392d1-8c81-4f36-881c-68ec593c2fca","1896","
                  <p style=""text-align: center;"">₪36
                                                <br>60%</p>
                  <p id=""wtp"" style=""text-align:center; margin-top: 0px; margin-bottom: 0px; font-size: 40px"";>מוכנים לשלם: <span id=""c_p_y""></span></p>","45","evaluation","21","12","1C,7C,15C","60","36","45","","","","","","","","","","","","","","","","",""
"","","","","","html-keyboard-response","29","829257","0.0-17.0-2.3","f5d392d1-8c81-4f36-881c-68ec593c2fca","null","<p style=""text-align: center;"">+</p>","null","fixation","","","","","","","","","","","","","","","","","","","","","","",""
"","","","","","html-slider-response","30","830262","0.0-17.0-0.4","f5d392d1-8c81-4f36-881c-68ec593c2fca","1000","
                  <p style=""text-align: center;"">₪36
                                                <br>30%</p>
                  <p id=""wtp"" style=""text-align:center; margin-top: 0px; margin-bottom: 0px; font-size: 40px"";>&ensp;</p>","-","viewing","0","11","3C,20A,22A","","","","","","","","","","","","","","","","","","","",""
"","","","","","html-slider-response","31","833234","0.0-17.0-1.4","f5d392d1-8c81-4f36-881c-68ec593c2fca","2971","
                  <p style=""text-align: center;"">₪36
                                                <br>30%</p>
                  <p id=""wtp"" style=""text-align:center; margin-top: 0px; margin-bottom: 0px; font-size: 40px"";>מוכנים לשלם: <span id=""c_p_y""></span></p>","55","evaluation","44","11","3C,20A,22A","30","36","55","","","","","","","","","","","","","","","","",""
"","","","","","html-keyboard-response","32","834000","0.0-17.0-2.4","f5d392d1-8c81-4f36-881c-68ec593c2fca","null","<p style=""text-align: center;"">+</p>","null","fixation","","","","","","","","","","","","","","","","","","","","","","",""
"","","","","","html-slider-response","33","835002","0.0-17.0-0.5","f5d392d1-8c81-4f36-881c-68ec593c2fca","1000","
                  <p style=""text-align: center;"">₪18
                                                <br>25%</p>
                  <p id=""wtp"" style=""text-align:center; margin-top: 0px; margin-bottom: 0px; font-size: 40px"";>&ensp;</p>","-","viewing","0","9","14A,23A","","","","","","","","","","","","","","","","","","","",""
"","","","","","html-slider-response","34","836978","0.0-17.0-1.5","f5d392d1-8c81-4f36-881c-68ec593c2fca","1975","
                  <p style=""text-align: center;"">₪18
                                                <br>25%</p>
                  <p id=""wtp"" style=""text-align:center; margin-top: 0px; margin-bottom: 0px; font-size: 40px"";>מוכנים לשלם: <span id=""c_p_y""></span></p>","32","evaluation","48","9","14A,23A","25","18","32","","","","","","","","","","","","","","","","",""
"","","","","","html-keyboard-response","35","838161","0.0-17.0-2.5","f5d392d1-8c81-4f36-881c-68ec593c2fca","null","<p style=""text-align: center;"">+</p>","null","fixation","","","","","","","","","","","","","","","","","","","","","","",""
"","","","","","html-slider-response","36","839162","0.0-17.0-0.6","f5d392d1-8c81-4f36-881c-68ec593c2fca","1000","
                  <p style=""text-align: center;"">₪16
                                                <br>20%</p>
                  <p id=""wtp"" style=""text-align:center; margin-top: 0px; margin-bottom: 0px; font-size: 40px"";>&ensp;</p>","-","viewing","0","8","14C,17A,20C,27A","","","","","","","","","","","","","","","","","","","",""
"","","","","","html-slider-response","37","841122","0.0-17.0-1.6","f5d392d1-8c81-4f36-881c-68ec593c2fca","1959","
                  <p style=""text-align: center;"">₪16
                                                <br>20%</p>
                  <p id=""wtp"" style=""text-align:center; margin-top: 0px; margin-bottom: 0px; font-size: 40px"";>מוכנים לשלם: <span id=""c_p_y""></span></p>","7","evaluation","60","8","14C,17A,20C,27A","20","16","8","","","","","","","","","","","","","","","","",""
"","","","","","html-keyboard-response","38","842125","0.0-17.0-2.6","f5d392d1-8c81-4f36-881c-68ec593c2fca","null","<p style=""text-align: center;"">+</p>","null","fixation","","","","","","","","","","","","","","","","","","","","","","",""
"","","","","","html-slider-response","39","843127","0.0-17.0-0.7","f5d392d1-8c81-4f36-881c-68ec593c2fca","1000","
                  <p style=""text-align: center;"">₪64
                                                <br>25%</p>
                  <p id=""wtp"" style=""text-align:center; margin-top: 0px; margin-bottom: 0px; font-size: 40px"";>&ensp;</p>","-","viewing","0","24","6A,21A","","","","","","","","","","","","","","","","","","","",""
"","","","","","html-slider-response","40","846978","0.0-17.0-1.7","f5d392d1-8c81-4f36-881c-68ec593c2fca","3850","
                  <p style=""text-align: center;"">₪64
                                                <br>25%</p>
                  <p id=""wtp"" style=""text-align:center; margin-top: 0px; margin-bottom: 0px; font-size: 40px"";>מוכנים לשלם: <span id=""c_p_y""></span></p>","37","evaluation","51","24","6A,21A","25","64","37","","","","","","","","","","","","","","","","",""
"","","","","","html-keyboard-response","41","847500","0.0-17.0-2.7","f5d392d1-8c81-4f36-881c-68ec593c2fca","null","<p style=""text-align: center;"">+</p>","null","fixation","","","","","","","","","","","","","","","","","","","","","","",""
"","","","","","html-slider-response","42","848507","0.0-17.0-0.8","f5d392d1-8c81-4f36-881c-68ec593c2fca","1000","
                  <p style=""text-align: center;"">₪58
                                                <br>30%</p>
                  <p id=""wtp"" style=""text-align:center; margin-top: 0px; margin-bottom: 0px; font-size: 40px"";>&ensp;</p>","-","viewing","0","19","13C,30A","","","","","","","","","","","","","","","","","","","",""
"","","","","","html-slider-response","43","851882","0.0-17.0-1.8","f5d392d1-8c81-4f36-881c-68ec593c2fca","3374","
                  <p style=""text-align: center;"">₪58
                                                <br>30%</p>
                  <p id=""wtp"" style=""text-align:center; margin-top: 0px; margin-bottom: 0px; font-size: 40px"";>מוכנים לשלם: <span id=""c_p_y""></span></p>","64","evaluation","34","19","13C,30A","30","58","64","","","","","","","","","","","","","","","","",""
"","","","","","html-keyboard-response","44","852921","0.0-17.0-2.8","f5d392d1-8c81-4f36-881c-68ec593c2fca","null","<p style=""text-align: center;"">+</p>","null","fixation","","","","","","","","","","","","","","","","","","","","","","",""
"","","","","","html-slider-response","45","853923","0.0-17.0-0.9","f5d392d1-8c81-4f36-881c-68ec593c2fca","1000","
                  <p style=""text-align: center;"">₪18
                                                <br>50%</p>
                  <p id=""wtp"" style=""text-align:center; margin-top: 0px; margin-bottom: 0px; font-size: 40px"";>&ensp;</p>","-","viewing","0","10","2C,16C,22B,28A","","","","","","","","","","","","","","","","","","","",""
"","","","","","html-slider-response","46","855794","0.0-17.0-1.9","f5d392d1-8c81-4f36-881c-68ec593c2fca","1869","
                  <p style=""text-align: center;"">₪18
                                                <br>50%</p>
                  <p id=""wtp"" style=""text-align:center; margin-top: 0px; margin-bottom: 0px; font-size: 40px"";>מוכנים לשלם: <span id=""c_p_y""></span></p>","26","evaluation","46","10","2C,16C,22B,28A","50","18","26","","","","","","","","","","","","","","","","",""
"","","","","","html-keyboard-response","47","856371","0.0-17.0-2.9","f5d392d1-8c81-4f36-881c-68ec593c2fca","null","<p style=""text-align: center;"">+</p>","null","fixation","","","","","","","","","","","","","","","","","","","","","","",""
"","","","","","html-slider-response","48","857374","0.0-17.0-0.10","f5d392d1-8c81-4f36-881c-68ec593c2fca","1000","
                  <p style=""text-align: center;"">₪4
                                                <br>25%</p>
                  <p id=""wtp"" style=""text-align:center; margin-top: 0px; margin-bottom: 0px; font-size: 40px"";>&ensp;</p>","-","viewing","0","1","6C,29B,30C","","","","","","","","","","","","","","","","","","","",""
"","","","","","html-slider-response","49","858961","0.0-17.0-1.10","f5d392d1-8c81-4f36-881c-68ec593c2fca","1586","
                  <p style=""text-align: center;"">₪4
                                                <br>25%</p>
                  <p id=""wtp"" style=""text-align:center; margin-top: 0px; margin-bottom: 0px; font-size: 40px"";>מוכנים לשלם: <span id=""c_p_y""></span></p>","11","evaluation","21","1","6C,29B,30C","25","4","11","","","","","","","","","","","","","","","","",""
"","","","","","html-keyboard-response","50","859522","0.0-17.0-2.10","f5d392d1-8c81-4f36-881c-68ec593c2fca","null","<p style=""text-align: center;"">+</p>","null","fixation","","","","","","","","","","","","","","","","","","","","","","",""
"","","","","","html-slider-response","51","860524","0.0-17.0-0.11","f5d392d1-8c81-4f36-881c-68ec593c2fca","1000","
                  <p style=""text-align: center;"">₪39
                                                <br>60%</p>
                  <p id=""wtp"" style=""text-align:center; margin-top: 0px; margin-bottom: 0px; font-size: 40px"";>&ensp;</p>","-","viewing","0","15","9C,25B","","","","","","","","","","","","","","","","","","","",""
"","","","","","html-slider-response","52","861977","0.0-17.0-1.11","f5d392d1-8c81-4f36-881c-68ec593c2fca","1452","
                  <p style=""text-align: center;"">₪39
                                                <br>60%</p>
                  <p id=""wtp"" style=""text-align:center; margin-top: 0px; margin-bottom: 0px; font-size: 40px"";>מוכנים לשלם: <span id=""c_p_y""></span></p>","28","evaluation","51","15","9C,25B","60","39","28","","","","","","","","","","","","","","","","",""
"","","","","","html-keyboard-response","53","862638","0.0-17.0-2.11","f5d392d1-8c81-4f36-881c-68ec593c2fca","null","<p style=""text-align: center;"">+</p>","null","fixation","","","","","","","","","","","","","","","","","","","","","","",""
"","","","","","html-slider-response","54","863640","0.0-17.0-0.12","f5d392d1-8c81-4f36-881c-68ec593c2fca","1000","
                  <p style=""text-align: center;"">₪64
                                                <br>50%</p>
                  <p id=""wtp"" style=""text-align:center; margin-top: 0px; margin-bottom: 0px; font-size: 40px"";>&ensp;</p>","-","viewing","0","25","1B,3B,4A","","","","","","","","","","","","","","","","","","","",""
"","","","","","html-slider-response","55","867649","0.0-17.0-1.12","f5d392d1-8c81-4f36-881c-68ec593c2fca","null","
                  <p style=""text-align: center;"">₪64
                                                <br>50%</p>
                  <p id=""wtp"" style=""text-align:center; margin-top: 0px; margin-bottom: 0px; font-size: 40px"";>מוכנים לשלם: <span id=""c_p_y""></span></p>","null","evaluation","35","25","1B,3B,4A","50","64","50","","","","","","","","","","","","","","","","",""
"","","","","","html-keyboard-response","56","868456","0.0-17.0-2.12","f5d392d1-8c81-4f36-881c-68ec593c2fca","null","<p style=""text-align: center;"">+</p>","null","fixation","","","","","","","","","","","","","","","","","","","","","","",""
"","","","","","html-slider-response","57","869458","0.0-17.0-0.13","f5d392d1-8c81-4f36-881c-68ec593c2fca","1000","
                  <p style=""text-align: center;"">₪58
                                                <br>40%</p>
                  <p id=""wtp"" style=""text-align:center; margin-top: 0px; margin-bottom: 0px; font-size: 40px"";>&ensp;</p>","-","viewing","0","20","10C,13A,19C,21B","","","","","","","","","","","","","","","","","","","",""
"","","","","","html-slider-response","58","872017","0.0-17.0-1.13","f5d392d1-8c81-4f36-881c-68ec593c2fca","2558","
                  <p style=""text-align: center;"">₪58
                                                <br>40%</p>
                  <p id=""wtp"" style=""text-align:center; margin-top: 0px; margin-bottom: 0px; font-size: 40px"";>מוכנים לשלם: <span id=""c_p_y""></span></p>","62","evaluation","70","20","10C,13A,19C,21B","40","58","62","","","","","","","","","","","","","","","","",""
"","","","","","html-keyboard-response","59","872977","0.0-17.0-2.13","f5d392d1-8c81-4f36-881c-68ec593c2fca","null","<p style=""text-align: center;"">+</p>","null","fixation","","","","","","","","","","","","","","","","","","","","","","",""
"","","","","","html-slider-response","60","873979","0.0-17.0-0.14","f5d392d1-8c81-4f36-881c-68ec593c2fca","1000","
                  <p style=""text-align: center;"">₪71
                                                <br>45%</p>
                  <p id=""wtp"" style=""text-align:center; margin-top: 0px; margin-bottom: 0px; font-size: 40px"";>&ensp;</p>","-","viewing","0","26","2B,16A","","","","","","","","","","","","","","","","","","","",""
"","","","","","html-slider-response","61","874665","0.0-17.0-1.14","f5d392d1-8c81-4f36-881c-68ec593c2fca","685","
                  <p style=""text-align: center;"">₪71
                                                <br>45%</p>
                  <p id=""wtp"" style=""text-align:center; margin-top: 0px; margin-bottom: 0px; font-size: 40px"";>מוכנים לשלם: <span id=""c_p_y""></span></p>","62","evaluation","12","26","2B,16A","45","71","62","","","","","","","","","","","","","","","","",""
"","","","","","html-keyboard-response","62","875307","0.0-17.0-2.14","f5d392d1-8c81-4f36-881c-68ec593c2fca","null","<p style=""text-align: center;"">+</p>","null","fixation","","","","","","","","","","","","","","","","","","","","","","",""
"","","","","","html-slider-response","63","876310","0.0-17.0-0.15","f5d392d1-8c81-4f36-881c-68ec593c2fca","1000","
                  <p style=""text-align: center;"">₪61
                                                <br>55%</p>
                  <p id=""wtp"" style=""text-align:center; margin-top: 0px; margin-bottom: 0px; font-size: 40px"";>&ensp;</p>","-","viewing","0","23","7B,26B","","","","","","","","","","","","","","","","","","","",""
"","","","","","html-slider-response","64","878449","0.0-17.0-1.15","f5d392d1-8c81-4f36-881c-68ec593c2fca","2138","
                  <p style=""text-align: center;"">₪61
                                                <br>55%</p>
                  <p id=""wtp"" style=""text-align:center; margin-top: 0px; margin-bottom: 0px; font-size: 40px"";>מוכנים לשלם: <span id=""c_p_y""></span></p>","53","evaluation","2","23","7B,26B","55","61","53","","","","","","","","","","","","","","","","",""
"","","","","","html-keyboard-response","65","879814","0.0-17.0-2.15","f5d392d1-8c81-4f36-881c-68ec593c2fca","null","<p style=""text-align: center;"">+</p>","null","fixation","","","","","","","","","","","","","","","","","","","","","","",""
"","","","","","html-slider-response","66","880818","0.0-17.0-0.16","f5d392d1-8c81-4f36-881c-68ec593c2fca","1000","
                  <p style=""text-align: center;"">₪36
                                                <br>70%</p>
                  <p id=""wtp"" style=""text-align:center; margin-top: 0px; margin-bottom: 0px; font-size: 40px"";>&ensp;</p>","-","viewing","0","13","3A,5C,10B","","","","","","","","","","","","","","","","","","","",""
"","","","","","html-slider-response","67","883041","0.0-17.0-1.16","f5d392d1-8c81-4f36-881c-68ec593c2fca","2222","
                  <p style=""text-align: center;"">₪36
                                                <br>70%</p>
                  <p id=""wtp"" style=""text-align:center; margin-top: 0px; margin-bottom: 0px; font-size: 40px"";>מוכנים לשלם: <span id=""c_p_y""></span></p>","29","evaluation","69","13","3A,5C,10B","70","36","29","","","","","","","","","","","","","","","","",""
"","","","","","html-keyboard-response","68","884255","0.0-17.0-2.16","f5d392d1-8c81-4f36-881c-68ec593c2fca","null","<p style=""text-align: center;"">+</p>","null","fixation","","","","","","","","","","","","","","","","","","","","","","",""
"","","","","","html-slider-response","69","885259","0.0-17.0-0.17","f5d392d1-8c81-4f36-881c-68ec593c2fca","1000","
                  <p style=""text-align: center;"">₪11
                                                <br>25%</p>
                  <p id=""wtp"" style=""text-align:center; margin-top: 0px; margin-bottom: 0px; font-size: 40px"";>&ensp;</p>","-","viewing","0","5","12A,27B,28B,30B","","","","","","","","","","","","","","","","","","","",""
"","","","","","html-slider-response","70","886617","0.0-17.0-1.17","f5d392d1-8c81-4f36-881c-68ec593c2fca","1356","
                  <p style=""text-align: center;"">₪11
                                                <br>25%</p>
                  <p id=""wtp"" style=""text-align:center; margin-top: 0px; margin-bottom: 0px; font-size: 40px"";>מוכנים לשלם: <span id=""c_p_y""></span></p>","24","evaluation","57","5","12A,27B,28B,30B","25","11","24","","","","","","","","","","","","","","","","",""
"","","","","","html-keyboard-response","71","887151","0.0-17.0-2.17","f5d392d1-8c81-4f36-881c-68ec593c2fca","null","<p style=""text-align: center;"">+</p>","null","fixation","","","","","","","","","","","","","","","","","","","","","","",""
"","","","","","html-slider-response","72","888152","0.0-17.0-0.18","f5d392d1-8c81-4f36-881c-68ec593c2fca","1000","
                  <p style=""text-align: center;"">₪79
                                                <br>40%</p>
                  <p id=""wtp"" style=""text-align:center; margin-top: 0px; margin-bottom: 0px; font-size: 40px"";>&ensp;</p>","-","viewing","0","30","9B","","","","","","","","","","","","","","","","","","","",""
"","","","","","html-slider-response","73","890753","0.0-17.0-1.18","f5d392d1-8c81-4f36-881c-68ec593c2fca","2600","
                  <p style=""text-align: center;"">₪79
                                                <br>40%</p>
                  <p id=""wtp"" style=""text-align:center; margin-top: 0px; margin-bottom: 0px; font-size: 40px"";>מוכנים לשלם: <span id=""c_p_y""></span></p>","56","evaluation","0","30","9B","40","79","56","","","","","","","","","","","","","","","","",""
"","","","","","html-keyboard-response","74","892102","0.0-17.0-2.18","f5d392d1-8c81-4f36-881c-68ec593c2fca","null","<p style=""text-align: center;"">+</p>","null","fixation","","","","","","","","","","","","","","","","","","","","","","",""
"","","","","","html-slider-response","75","893111","0.0-17.0-0.19","f5d392d1-8c81-4f36-881c-68ec593c2fca","1000","
                  <p style=""text-align: center;"">₪71
                                                <br>55%</p>
                  <p id=""wtp"" style=""text-align:center; margin-top: 0px; margin-bottom: 0px; font-size: 40px"";>&ensp;</p>","-","viewing","0","27","5B,18A","","","","","","","","","","","","","","","","","","","",""
"","","","","","html-slider-response","76","894625","0.0-17.0-1.19","f5d392d1-8c81-4f36-881c-68ec593c2fca","1513","
                  <p style=""text-align: center;"">₪71
                                                <br>55%</p>
                  <p id=""wtp"" style=""text-align:center; margin-top: 0px; margin-bottom: 0px; font-size: 40px"";>מוכנים לשלם: <span id=""c_p_y""></span></p>","68","evaluation","12","27","5B,18A","55","71","68","","","","","","","","","","","","","","","","",""
"","","","","","html-keyboard-response","77","895843","0.0-17.0-2.19","f5d392d1-8c81-4f36-881c-68ec593c2fca","null","<p style=""text-align: center;"">+</p>","null","fixation","","","","","","","","","","","","","","","","","","","","","","",""
"","","","","","html-slider-response","78","896848","0.0-17.0-0.20","f5d392d1-8c81-4f36-881c-68ec593c2fca","1000","
                  <p style=""text-align: center;"">₪58
                                                <br>45%</p>
                  <p id=""wtp"" style=""text-align:center; margin-top: 0px; margin-bottom: 0px; font-size: 40px"";>&ensp;</p>","-","viewing","0","21","11C,18C,25A","","","","","","","","","","","","","","","","","","","",""
"","","","","","html-slider-response","79","897897","0.0-17.0-1.20","f5d392d1-8c81-4f36-881c-68ec593c2fca","1048","
                  <p style=""text-align: center;"">₪58
                                                <br>45%</p>
                  <p id=""wtp"" style=""text-align:center; margin-top: 0px; margin-bottom: 0px; font-size: 40px"";>מוכנים לשלם: <span id=""c_p_y""></span></p>","39","evaluation","78","21","11C,18C,25A","45","58","39","","","","","","","","","","","","","","","","",""
"","","","","","html-keyboard-response","80","899058","0.0-17.0-2.20","f5d392d1-8c81-4f36-881c-68ec593c2fca","null","<p style=""text-align: center;"">+</p>","null","fixation","","","","","","","","","","","","","","","","","","","","","","",""
"","","","","","html-slider-response","81","900067","0.0-17.0-0.21","f5d392d1-8c81-4f36-881c-68ec593c2fca","1000","
                  <p style=""text-align: center;"">₪76
                                                <br>65%</p>
                  <p id=""wtp"" style=""text-align:center; margin-top: 0px; margin-bottom: 0px; font-size: 40px"";>&ensp;</p>","-","viewing","0","29","8C,19A,24B","","","","","","","","","","","","","","","","","","","",""
"","","","","","html-slider-response","82","901505","0.0-17.0-1.21","f5d392d1-8c81-4f36-881c-68ec593c2fca","1437","
                  <p style=""text-align: center;"">₪76
                                                <br>65%</p>
                  <p id=""wtp"" style=""text-align:center; margin-top: 0px; margin-bottom: 0px; font-size: 40px"";>מוכנים לשלם: <span id=""c_p_y""></span></p>","53","evaluation","50","29","8C,19A,24B","65","76","53","","","","","","","","","","","","","","","","",""
"","","","","","html-keyboard-response","83","902020","0.0-17.0-2.21","f5d392d1-8c81-4f36-881c-68ec593c2fca","null","<p style=""text-align: center;"">+</p>","null","fixation","","","","","","","","","","","","","","","","","","","","","","",""
"","","","","","html-slider-response","84","903026","0.0-17.0-0.22","f5d392d1-8c81-4f36-881c-68ec593c2fca","1000","
                  <p style=""text-align: center;"">₪39
                                                <br>65%</p>
                  <p id=""wtp"" style=""text-align:center; margin-top: 0px; margin-bottom: 0px; font-size: 40px"";>&ensp;</p>","-","viewing","0","16","1A,15A,26C","","","","","","","","","","","","","","","","","","","",""
"","","","","","html-slider-response","85","903753","0.0-17.0-1.22","f5d392d1-8c81-4f36-881c-68ec593c2fca","726","
                  <p style=""text-align: center;"">₪39
                                                <br>65%</p>
                  <p id=""wtp"" style=""text-align:center; margin-top: 0px; margin-bottom: 0px; font-size: 40px"";>מוכנים לשלם: <span id=""c_p_y""></span></p>","32","evaluation","36","16","1A,15A,26C","65","39","32","","","","","","","","","","","","","","","","",""
"","","","","","html-keyboard-response","86","904428","0.0-17.0-2.22","f5d392d1-8c81-4f36-881c-68ec593c2fca","null","<p style=""text-align: center;"">+</p>","null","fixation","","","","","","","","","","","","","","","","","","","","","","",""
"","","","","","html-slider-response","87","905445","0.0-17.0-0.23","f5d392d1-8c81-4f36-881c-68ec593c2fca","1000","
                  <p style=""text-align: center;"">₪11
                                                <br>75%</p>
                  <p id=""wtp"" style=""text-align:center; margin-top: 0px; margin-bottom: 0px; font-size: 40px"";>&ensp;</p>","-","viewing","0","7","6B,18B,22C,24C,29A","","","","","","","","","","","","","","","","","","","",""
"","","","","","html-slider-response","88","906921","0.0-17.0-1.23","f5d392d1-8c81-4f36-881c-68ec593c2fca","1475","
                  <p style=""text-align: center;"">₪11
                                                <br>75%</p>
                  <p id=""wtp"" style=""text-align:center; margin-top: 0px; margin-bottom: 0px; font-size: 40px"";>מוכנים לשלם: <span id=""c_p_y""></span></p>","22","evaluation","15","7","6B,18B,22C,24C,29A","75","11","22","","","","","","","","","","","","","","","","",""
"","","","","","html-keyboard-response","89","908273","0.0-17.0-2.23","f5d392d1-8c81-4f36-881c-68ec593c2fca","null","<p style=""text-align: center;"">+</p>","null","fixation","","","","","","","","","","","","","","","","","","","","","","",""
"","","","","","html-slider-response","90","909276","0.0-17.0-0.24","f5d392d1-8c81-4f36-881c-68ec593c2fca","1000","
                  <p style=""text-align: center;"">₪71
                                                <br>75%</p>
                  <p id=""wtp"" style=""text-align:center; margin-top: 0px; margin-bottom: 0px; font-size: 40px"";>&ensp;</p>","-","viewing","0","28","8B","","","","","","","","","","","","","","","","","","","",""
"","","","","","html-slider-response","91","911033","0.0-17.0-1.24","f5d392d1-8c81-4f36-881c-68ec593c2fca","1756","
                  <p style=""text-align: center;"">₪71
                                                <br>75%</p>
                  <p id=""wtp"" style=""text-align:center; margin-top: 0px; margin-bottom: 0px; font-size: 40px"";>מוכנים לשלם: <span id=""c_p_y""></span></p>","35","evaluation","70","28","8B","75","71","35","","","","","","","","","","","","","","","","",""
"","","","","","html-keyboard-response","92","911734","0.0-17.0-2.24","f5d392d1-8c81-4f36-881c-68ec593c2fca","null","<p style=""text-align: center;"">+</p>","null","fixation","","","","","","","","","","","","","","","","","","","","","","",""
"","","","","","html-slider-response","93","912743","0.0-17.0-0.25","f5d392d1-8c81-4f36-881c-68ec593c2fca","1000","
                  <p style=""text-align: center;"">₪4
                                                <br>50%</p>
                  <p id=""wtp"" style=""text-align:center; margin-top: 0px; margin-bottom: 0px; font-size: 40px"";>&ensp;</p>","-","viewing","0","2","4C,17B","","","","","","","","","","","","","","","","","","","",""
"","","","","","html-slider-response","94","914665","0.0-17.0-1.25","f5d392d1-8c81-4f36-881c-68ec593c2fca","1921","
                  <p style=""text-align: center;"">₪4
                                                <br>50%</p>
                  <p id=""wtp"" style=""text-align:center; margin-top: 0px; margin-bottom: 0px; font-size: 40px"";>מוכנים לשלם: <span id=""c_p_y""></span></p>","48","evaluation","25","2","4C,17B","50","4","48","","","","","","","","","","","","","","","","",""
"","","","","","html-keyboard-response","95","915824","0.0-17.0-2.25","f5d392d1-8c81-4f36-881c-68ec593c2fca","null","<p style=""text-align: center;"">+</p>","null","fixation","","","","","","","","","","","","","","","","","","","","","","",""
"","","","","","html-slider-response","96","916824","0.0-17.0-0.26","f5d392d1-8c81-4f36-881c-68ec593c2fca","1000","
                  <p style=""text-align: center;"">₪36
                                                <br>75%</p>
                  <p id=""wtp"" style=""text-align:center; margin-top: 0px; margin-bottom: 0px; font-size: 40px"";>&ensp;</p>","-","viewing","0","14","4B,5A,13B,16B","","","","","","","","","","","","","","","","","","","",""
"","","","","","html-slider-response","97","920239","0.0-17.0-1.26","f5d392d1-8c81-4f36-881c-68ec593c2fca","3413","
                  <p style=""text-align: center;"">₪36
                                                <br>75%</p>
                  <p id=""wtp"" style=""text-align:center; margin-top: 0px; margin-bottom: 0px; font-size: 40px"";>מוכנים לשלם: <span id=""c_p_y""></span></p>","47","evaluation","40","14","4B,5A,13B,16B","75","36","47","","","","","","","","","","","","","","","","",""
"","","","","","html-keyboard-response","98","921377","0.0-17.0-2.26","f5d392d1-8c81-4f36-881c-68ec593c2fca","null","<p style=""text-align: center;"">+</p>","null","fixation","","","","","","","","","","","","","","","","","","","","","","",""
"","","","","","html-slider-response","99","922379","0.0-17.0-0.27","f5d392d1-8c81-4f36-881c-68ec593c2fca","1000","
                  <p style=""text-align: center;"">₪43
                                                <br>75%</p>
                  <p id=""wtp"" style=""text-align:center; margin-top: 0px; margin-bottom: 0px; font-size: 40px"";>&ensp;</p>","-","viewing","0","18","11B,19B,24A,26A","","","","","","","","","","","","","","","","","","","",""
"","","","","","html-slider-response","100","924239","0.0-17.0-1.27","f5d392d1-8c81-4f36-881c-68ec593c2fca","1859","
                  <p style=""text-align: center;"">₪43
                                                <br>75%</p>
                  <p id=""wtp"" style=""text-align:center; margin-top: 0px; margin-bottom: 0px; font-size: 40px"";>מוכנים לשלם: <span id=""c_p_y""></span></p>","34","evaluation","4","18","11B,19B,24A,26A","75","43","34","","","","","","","","","","","","","","","","",""
"","","","","","html-keyboard-response","101","925342","0.0-17.0-2.27","f5d392d1-8c81-4f36-881c-68ec593c2fca","null","<p style=""text-align: center;"">+</p>","null","fixation","","","","","","","","","","","","","","","","","","","","","","",""
"","","","","","html-slider-response","102","926355","0.0-17.0-0.28","f5d392d1-8c81-4f36-881c-68ec593c2fca","1000","
                  <p style=""text-align: center;"">₪79
                                                <br>65%</p>
                  <p id=""wtp"" style=""text-align:center; margin-top: 0px; margin-bottom: 0px; font-size: 40px"";>&ensp;</p>","-","viewing","0","31","8A","","","","","","","","","","","","","","","","","","","",""
"","","","","","html-slider-response","103","927895","0.0-17.0-1.28","f5d392d1-8c81-4f36-881c-68ec593c2fca","1539","
                  <p style=""text-align: center;"">₪79
                                                <br>65%</p>
                  <p id=""wtp"" style=""text-align:center; margin-top: 0px; margin-bottom: 0px; font-size: 40px"";>מוכנים לשלם: <span id=""c_p_y""></span></p>","70","evaluation","4","31","8A","65","79","70","","","","","","","","","","","","","","","","",""
"","","","","","html-keyboard-response","104","929239","0.0-17.0-2.28","f5d392d1-8c81-4f36-881c-68ec593c2fca","null","<p style=""text-align: center;"">+</p>","null","fixation","","","","","","","","","","","","","","","","","","","","","","",""
"","","","","","html-slider-response","105","930247","0.0-17.0-0.29","f5d392d1-8c81-4f36-881c-68ec593c2fca","1000","
                  <p style=""text-align: center;"">₪11
                                                <br>45%</p>
                  <p id=""wtp"" style=""text-align:center; margin-top: 0px; margin-bottom: 0px; font-size: 40px"";>&ensp;</p>","-","viewing","0","6","14B,21C,25C","","","","","","","","","","","","","","","","","","","",""
"","","","","","html-slider-response","106","932591","0.0-17.0-1.29","f5d392d1-8c81-4f36-881c-68ec593c2fca","2343","
                  <p style=""text-align: center;"">₪11
                                                <br>45%</p>
                  <p id=""wtp"" style=""text-align:center; margin-top: 0px; margin-bottom: 0px; font-size: 40px"";>מוכנים לשלם: <span id=""c_p_y""></span></p>","13","evaluation","41","6","14B,21C,25C","45","11","13","","","","","","","","","","","","","","","","",""
"","","","","","html-keyboard-response","107","933154","0.0-17.0-2.29","f5d392d1-8c81-4f36-881c-68ec593c2fca","null","<p style=""text-align: center;"">+</p>","null","fixation","","","","","","","","","","","","","","","","","","","","","","",""
"","","","","","html-slider-response","108","934166","0.0-17.0-0.30","f5d392d1-8c81-4f36-881c-68ec593c2fca","1000","
                  <p style=""text-align: center;"">₪43
                                                <br>60%</p>
                  <p id=""wtp"" style=""text-align:center; margin-top: 0px; margin-bottom: 0px; font-size: 40px"";>&ensp;</p>","-","viewing","0","17","2A,7A,9A,15B","","","","","","","","","","","","","","","","","","","",""
"","","","","","html-slider-response","109","935119","0.0-17.0-1.30","f5d392d1-8c81-4f36-881c-68ec593c2fca","952","
                  <p style=""text-align: center;"">₪43
                                                <br>60%</p>
                  <p id=""wtp"" style=""text-align:center; margin-top: 0px; margin-bottom: 0px; font-size: 40px"";>מוכנים לשלם: <span id=""c_p_y""></span></p>","35","evaluation","22","17","2A,7A,9A,15B","60","43","35","","","","","","","","","","","","","","","","",""
"","","","","","html-keyboard-response","110","936578","0.0-17.0-2.30","f5d392d1-8c81-4f36-881c-68ec593c2fca","null","<p style=""text-align: center;"">+</p>","null","fixation","","","","","","","","","","","","","","","","","","","","","","",""
"","","","","","html-keyboard-response","111","937587","0.0-18.0","f5d392d1-8c81-4f36-881c-68ec593c2fca","null","<p style=""text-align: center;"">+</p>","null","fixation","","","","","","","","","","","","","","","","","","","","","","",""
"","","","","","html-keyboard-response","112","940759","0.0-19.0","f5d392d1-8c81-4f36-881c-68ec593c2fca","null","<p>הפסקה.
          <br>לחצו כדי להמשיך.</p>","1","scan_wait","","","","","","","","","","","","","","","","","","","","","","",""
"","","","","","html-keyboard-response","113","941774","0.0-20.0","f5d392d1-8c81-4f36-881c-68ec593c2fca","null","<p style=""text-align: center;"">+</p>","null","fixation","","","","","","","","","","","","","","","","","","","","","","",""
"","","","","","html-slider-response","114","942775","0.0-21.0-0.0","f5d392d1-8c81-4f36-881c-68ec593c2fca","1000","
                  <p style=""text-align: center;"">₪64
                                                <br>25%</p>
                  <p id=""wtp"" style=""text-align:center; margin-top: 0px; margin-bottom: 0px; font-size: 40px"";>&ensp;</p>","-","viewing","0","24","6A,21A","","","","","","","","","","","","","","","","","","","",""
"","","","","","html-slider-response","115","945103","0.0-21.0-1.0","f5d392d1-8c81-4f36-881c-68ec593c2fca","2327","
                  <p style=""text-align: center;"">₪64
                                                <br>25%</p>
                  <p id=""wtp"" style=""text-align:center; margin-top: 0px; margin-bottom: 0px; font-size: 40px"";>מוכנים לשלם: <span id=""c_p_y""></span></p>","33","evaluation","56","24","6A,21A","25","64","33","","","","","","","","","","","","","","","","",""
"","","","","","html-keyboard-response","116","946098","0.0-21.0-2.0","f5d392d1-8c81-4f36-881c-68ec593c2fca","null","<p style=""text-align: center;"">+</p>","null","fixation","","","","","","","","","","","","","","","","","","","","","","",""
"","","","","","html-slider-response","117","947109","0.0-21.0-0.1","f5d392d1-8c81-4f36-881c-68ec593c2fca","1000","
                  <p style=""text-align: center;"">₪43
                                                <br>60%</p>
                  <p id=""wtp"" style=""text-align:center; margin-top: 0px; margin-bottom: 0px; font-size: 40px"";>&ensp;</p>","-","viewing","0","17","2A,7A,9A,15B","","","","","","","","","","","","","","","","","","","",""
"","","","","","html-slider-response","118","948615","0.0-21.0-1.1","f5d392d1-8c81-4f36-881c-68ec593c2fca","1504","
                  <p style=""text-align: center;"">₪43
                                                <br>60%</p>
                  <p id=""wtp"" style=""text-align:center; margin-top: 0px; margin-bottom: 0px; font-size: 40px"";>מוכנים לשלם: <span id=""c_p_y""></span></p>","49","evaluation","43","17","2A,7A,9A,15B","60","43","49","","","","","","","","","","","","","","","","",""
"","","","","","html-keyboard-response","119","949931","0.0-21.0-2.1","f5d392d1-8c81-4f36-881c-68ec593c2fca","null","<p style=""text-align: center;"">+</p>","null","fixation","","","","","","","","","","","","","","","","","","","","","","",""
"","","","","","html-slider-response","120","950944","0.0-21.0-0.2","f5d392d1-8c81-4f36-881c-68ec593c2fca","1000","
                  <p style=""text-align: center;"">₪58
                                                <br>45%</p>
                  <p id=""wtp"" style=""text-align:center; margin-top: 0px; margin-bottom: 0px; font-size: 40px"";>&ensp;</p>","-","viewing","0","21","11C,18C,25A","","","","","","","","","","","","","","","","","","","",""
"","","","","","html-slider-response","121","952655","0.0-21.0-1.2","f5d392d1-8c81-4f36-881c-68ec593c2fca","1709","
                  <p style=""text-align: center;"">₪58
                                                <br>45%</p>
                  <p id=""wtp"" style=""text-align:center; margin-top: 0px; margin-bottom: 0px; font-size: 40px"";>מוכנים לשלם: <span id=""c_p_y""></span></p>","36","evaluation","31","21","11C,18C,25A","45","58","36","","","","","","","","","","","","","","","","",""
"","","","","","html-keyboard-response","122","953704","0.0-21.0-2.2","f5d392d1-8c81-4f36-881c-68ec593c2fca","null","<p style=""text-align: center;"">+</p>","null","fixation","","","","","","","","","","","","","","","","","","","","","","",""
"","","","","","html-slider-response","123","954706","0.0-21.0-0.3","f5d392d1-8c81-4f36-881c-68ec593c2fca","1000","
                  <p style=""text-align: center;"">₪71
                                                <br>75%</p>
                  <p id=""wtp"" style=""text-align:center; margin-top: 0px; margin-bottom: 0px; font-size: 40px"";>&ensp;</p>","-","viewing","0","28","8B","","","","","","","","","","","","","","","","","","","",""
"","","","","","html-slider-response","124","956127","0.0-21.0-1.3","f5d392d1-8c81-4f36-881c-68ec593c2fca","1419","
                  <p style=""text-align: center;"">₪71
                                                <br>75%</p>
                  <p id=""wtp"" style=""text-align:center; margin-top: 0px; margin-bottom: 0px; font-size: 40px"";>מוכנים לשלם: <span id=""c_p_y""></span></p>","59","evaluation","22","28","8B","75","71","59","","","","","","","","","","","","","","","","",""
"","","","","","html-keyboard-response","125","956951","0.0-21.0-2.3","f5d392d1-8c81-4f36-881c-68ec593c2fca","null","<p style=""text-align: center;"">+</p>","null","fixation","","","","","","","","","","","","","","","","","","","","","","",""
"","","","","","html-slider-response","126","957953","0.0-21.0-0.4","f5d392d1-8c81-4f36-881c-68ec593c2fca","1000","
                  <p style=""text-align: center;"">₪18
                                                <br>25%</p>
                  <p id=""wtp"" style=""text-align:center; margin-top: 0px; margin-bottom: 0px; font-size: 40px"";>&ensp;</p>","-","viewing","0","9","14A,23A","","","","","","","","","","","","","","","","","","","",""
"","","","","","html-slider-response","127","959503","0.0-21.0-1.4","f5d392d1-8c81-4f36-881c-68ec593c2fca","1549","
                  <p style=""text-align: center;"">₪18
                                                <br>25%</p>
                  <p id=""wtp"" style=""text-align:center; margin-top: 0px; margin-bottom: 0px; font-size: 40px"";>מוכנים לשלם: <span id=""c_p_y""></span></p>","6","evaluation","46","9","14A,23A","25","18","7","","","","","","","","","","","","","","","","",""
"","","","","","html-keyboard-response","128","960825","0.0-21.0-2.4","f5d392d1-8c81-4f36-881c-68ec593c2fca","null","<p style=""text-align: center;"">+</p>","null","fixation","","","","","","","","","","","","","","","","","","","","","","",""
"","","","","","html-slider-response","129","961831","0.0-21.0-0.5","f5d392d1-8c81-4f36-881c-68ec593c2fca","1000","
                  <p style=""text-align: center;"">₪61
                                                <br>55%</p>
                  <p id=""wtp"" style=""text-align:center; margin-top: 0px; margin-bottom: 0px; font-size: 40px"";>&ensp;</p>","-","viewing","0","23","7B,26B","","","","","","","","","","","","","","","","","","","",""
"","","","","","html-slider-response","130","964143","0.0-21.0-1.5","f5d392d1-8c81-4f36-881c-68ec593c2fca","2311","
                  <p style=""text-align: center;"">₪61
                                                <br>55%</p>
                  <p id=""wtp"" style=""text-align:center; margin-top: 0px; margin-bottom: 0px; font-size: 40px"";>מוכנים לשלם: <span id=""c_p_y""></span></p>","35","evaluation","23","23","7B,26B","55","61","35","","","","","","","","","","","","","","","","",""
"","","","","","html-keyboard-response","131","965194","0.0-21.0-2.5","f5d392d1-8c81-4f36-881c-68ec593c2fca","null","<p style=""text-align: center;"">+</p>","null","fixation","","","","","","","","","","","","","","","","","","","","","","",""
"","","","","","html-slider-response","132","966205","0.0-21.0-0.6","f5d392d1-8c81-4f36-881c-68ec593c2fca","1000","
                  <p style=""text-align: center;"">₪39
                                                <br>60%</p>
                  <p id=""wtp"" style=""text-align:center; margin-top: 0px; margin-bottom: 0px; font-size: 40px"";>&ensp;</p>","-","viewing","0","15","9C,25B","","","","","","","","","","","","","","","","","","","",""
"","","","","","html-slider-response","133","967407","0.0-21.0-1.6","f5d392d1-8c81-4f36-881c-68ec593c2fca","1200","
                  <p style=""text-align: center;"">₪39
                                                <br>60%</p>
                  <p id=""wtp"" style=""text-align:center; margin-top: 0px; margin-bottom: 0px; font-size: 40px"";>מוכנים לשלם: <span id=""c_p_y""></span></p>","42","evaluation","53","15","9C,25B","60","39","42","","","","","","","","","","","","","","","","",""
"","","","","","html-keyboard-response","134","968026","0.0-21.0-2.6","f5d392d1-8c81-4f36-881c-68ec593c2fca","null","<p style=""text-align: center;"">+</p>","null","fixation","","","","","","","","","","","","","","","","","","","","","","",""
"","","","","","html-slider-response","135","969032","0.0-21.0-0.7","f5d392d1-8c81-4f36-881c-68ec593c2fca","1000","
                  <p style=""text-align: center;"">₪11
                                                <br>25%</p>
                  <p id=""wtp"" style=""text-align:center; margin-top: 0px; margin-bottom: 0px; font-size: 40px"";>&ensp;</p>","-","viewing","0","5","12A,27B,28B,30B","","","","","","","","","","","","","","","","","","","",""
"","","","","","html-slider-response","136","972383","0.0-21.0-1.7","f5d392d1-8c81-4f36-881c-68ec593c2fca","3350","
                  <p style=""text-align: center;"">₪11
                                                <br>25%</p>
                  <p id=""wtp"" style=""text-align:center; margin-top: 0px; margin-bottom: 0px; font-size: 40px"";>מוכנים לשלם: <span id=""c_p_y""></span></p>","8","evaluation","73","5","12A,27B,28B,30B","25","11","9","","","","","","","","","","","","","","","","",""
"","","","","","html-keyboard-response","137","973011","0.0-21.0-2.7","f5d392d1-8c81-4f36-881c-68ec593c2fca","null","<p style=""text-align: center;"">+</p>","null","fixation","","","","","","","","","","","","","","","","","","","","","","",""
"","","","","","html-slider-response","138","974020","0.0-21.0-0.8","f5d392d1-8c81-4f36-881c-68ec593c2fca","1000","
                  <p style=""text-align: center;"">₪11
                                                <br>20%</p>
                  <p id=""wtp"" style=""text-align:center; margin-top: 0px; margin-bottom: 0px; font-size: 40px"";>&ensp;</p>","-","viewing","0","4","12C,17C,23C,28C","","","","","","","","","","","","","","","","","","","",""
"","","","","","html-slider-response","139","975879","0.0-21.0-1.8","f5d392d1-8c81-4f36-881c-68ec593c2fca","1858","
                  <p style=""text-align: center;"">₪11
                                                <br>20%</p>
                  <p id=""wtp"" style=""text-align:center; margin-top: 0px; margin-bottom: 0px; font-size: 40px"";>מוכנים לשלם: <span id=""c_p_y""></span></p>","3","evaluation","18","4","12C,17C,23C,28C","20","11","3","","","","","","","","","","","","","","","","",""
"","","","","","html-keyboard-response","140","976805","0.0-21.0-2.8","f5d392d1-8c81-4f36-881c-68ec593c2fca","null","<p style=""text-align: center;"">+</p>","null","fixation","","","","","","","","","","","","","","","","","","","","","","",""
"","","","","","html-slider-response","141","977806","0.0-21.0-0.9","f5d392d1-8c81-4f36-881c-68ec593c2fca","1000","
                  <p style=""text-align: center;"">₪71
                                                <br>45%</p>
                  <p id=""wtp"" style=""text-align:center; margin-top: 0px; margin-bottom: 0px; font-size: 40px"";>&ensp;</p>","-","viewing","0","26","2B,16A","","","","","","","","","","","","","","","","","","","",""
"","","","","","html-slider-response","142","980006","0.0-21.0-1.9","f5d392d1-8c81-4f36-881c-68ec593c2fca","2200","
                  <p style=""text-align: center;"">₪71
                                                <br>45%</p>
                  <p id=""wtp"" style=""text-align:center; margin-top: 0px; margin-bottom: 0px; font-size: 40px"";>מוכנים לשלם: <span id=""c_p_y""></span></p>","34","evaluation","20","26","2B,16A","45","71","34","","","","","","","","","","","","","","","","",""
"","","","","","html-keyboard-response","143","980621","0.0-21.0-2.9","f5d392d1-8c81-4f36-881c-68ec593c2fca","null","<p style=""text-align: center;"">+</p>","null","fixation","","","","","","","","","","","","","","","","","","","","","","",""
"","","","","","html-slider-response","144","981623","0.0-21.0-0.10","f5d392d1-8c81-4f36-881c-68ec593c2fca","1000","
                  <p style=""text-align: center;"">₪36
                                                <br>75%</p>
                  <p id=""wtp"" style=""text-align:center; margin-top: 0px; margin-bottom: 0px; font-size: 40px"";>&ensp;</p>","-","viewing","0","14","4B,5A,13B,16B","","","","","","","","","","","","","","","","","","","",""
"","","","","","html-slider-response","145","983142","0.0-21.0-1.10","f5d392d1-8c81-4f36-881c-68ec593c2fca","1518","
                  <p style=""text-align: center;"">₪36
                                                <br>75%</p>
                  <p id=""wtp"" style=""text-align:center; margin-top: 0px; margin-bottom: 0px; font-size: 40px"";>מוכנים לשלם: <span id=""c_p_y""></span></p>","29","evaluation","21","14","4B,5A,13B,16B","75","36","29","","","","","","","","","","","","","","","","",""
"","","","","","html-keyboard-response","146","983744","0.0-21.0-2.10","f5d392d1-8c81-4f36-881c-68ec593c2fca","null","<p style=""text-align: center;"">+</p>","null","fixation","","","","","","","","","","","","","","","","","","","","","","",""
"","","","","","html-slider-response","147","984750","0.0-21.0-0.11","f5d392d1-8c81-4f36-881c-68ec593c2fca","1000","
                  <p style=""text-align: center;"">₪79
                                                <br>40%</p>
                  <p id=""wtp"" style=""text-align:center; margin-top: 0px; margin-bottom: 0px; font-size: 40px"";>&ensp;</p>","-","viewing","0","30","9B","","","","","","","","","","","","","","","","","","","",""
"","","","","","html-slider-response","148","986358","0.0-21.0-1.11","f5d392d1-8c81-4f36-881c-68ec593c2fca","1607","
                  <p style=""text-align: center;"">₪79
                                                <br>40%</p>
                  <p id=""wtp"" style=""text-align:center; margin-top: 0px; margin-bottom: 0px; font-size: 40px"";>מוכנים לשלם: <span id=""c_p_y""></span></p>","55","evaluation","27","30","9B","40","79","55","","","","","","","","","","","","","","","","",""
"","","","","","html-keyboard-response","149","987597","0.0-21.0-2.11","f5d392d1-8c81-4f36-881c-68ec593c2fca","null","<p style=""text-align: center;"">+</p>","null","fixation","","","","","","","","","","","","","","","","","","","","","","",""
"","","","","","html-slider-response","150","988599","0.0-21.0-0.12","f5d392d1-8c81-4f36-881c-68ec593c2fca","1000","
                  <p style=""text-align: center;"">₪11
                                                <br>75%</p>
                  <p id=""wtp"" style=""text-align:center; margin-top: 0px; margin-bottom: 0px; font-size: 40px"";>&ensp;</p>","-","viewing","0","7","6B,18B,22C,24C,29A","","","","","","","","","","","","","","","","","","","",""
"","","","","","html-slider-response","151","990246","0.0-21.0-1.12","f5d392d1-8c81-4f36-881c-68ec593c2fca","1646","
                  <p style=""text-align: center;"">₪11
                                                <br>75%</p>
                  <p id=""wtp"" style=""text-align:center; margin-top: 0px; margin-bottom: 0px; font-size: 40px"";>מוכנים לשלם: <span id=""c_p_y""></span></p>","7","evaluation","43","7","6B,18B,22C,24C,29A","75","11","7","","","","","","","","","","","","","","","","",""
"","","","","","html-keyboard-response","152","991351","0.0-21.0-2.12","f5d392d1-8c81-4f36-881c-68ec593c2fca","null","<p style=""text-align: center;"">+</p>","null","fixation","","","","","","","","","","","","","","","","","","","","","","",""
"","","","","","html-slider-response","153","992355","0.0-21.0-0.13","f5d392d1-8c81-4f36-881c-68ec593c2fca","1000","
                  <p style=""text-align: center;"">₪18
                                                <br>50%</p>
                  <p id=""wtp"" style=""text-align:center; margin-top: 0px; margin-bottom: 0px; font-size: 40px"";>&ensp;</p>","-","viewing","0","10","2C,16C,22B,28A","","","","","","","","","","","","","","","","","","","",""
"","","","","","html-slider-response","154","994742","0.0-21.0-1.13","f5d392d1-8c81-4f36-881c-68ec593c2fca","2386","
                  <p style=""text-align: center;"">₪18
                                                <br>50%</p>
                  <p id=""wtp"" style=""text-align:center; margin-top: 0px; margin-bottom: 0px; font-size: 40px"";>מוכנים לשלם: <span id=""c_p_y""></span></p>","24","evaluation","14","10","2C,16C,22B,28A","50","18","24","","","","","","","","","","","","","","","","",""
"","","","","","html-keyboard-response","155","995338","0.0-21.0-2.13","f5d392d1-8c81-4f36-881c-68ec593c2fca","null","<p style=""text-align: center;"">+</p>","null","fixation","","","","","","","","","","","","","","","","","","","","","","",""
"","","","","","html-slider-response","156","996339","0.0-21.0-0.14","f5d392d1-8c81-4f36-881c-68ec593c2fca","1000","
                  <p style=""text-align: center;"">₪4
                                                <br>25%</p>
                  <p id=""wtp"" style=""text-align:center; margin-top: 0px; margin-bottom: 0px; font-size: 40px"";>&ensp;</p>","-","viewing","0","1","6C,29B,30C","","","","","","","","","","","","","","","","","","","",""
"","","","","","html-slider-response","157","999038","0.0-21.0-1.14","f5d392d1-8c81-4f36-881c-68ec593c2fca","2698","
                  <p style=""text-align: center;"">₪4
                                                <br>25%</p>
                  <p id=""wtp"" style=""text-align:center; margin-top: 0px; margin-bottom: 0px; font-size: 40px"";>מוכנים לשלם: <span id=""c_p_y""></span></p>","1","evaluation","51","1","6C,29B,30C","25","4","2","","","","","","","","","","","","","","","","",""
"","","","","","html-keyboard-response","158","1000295","0.0-21.0-2.14","f5d392d1-8c81-4f36-881c-68ec593c2fca","null","<p style=""text-align: center;"">+</p>","null","fixation","","","","","","","","","","","","","","","","","","","","","","",""
"","","","","","html-slider-response","159","1001297","0.0-21.0-0.15","f5d392d1-8c81-4f36-881c-68ec593c2fca","1000","
                  <p style=""text-align: center;"">₪61
                                                <br>45%</p>
                  <p id=""wtp"" style=""text-align:center; margin-top: 0px; margin-bottom: 0px; font-size: 40px"";>&ensp;</p>","-","viewing","0","22","10A,11A","","","","","","","","","","","","","","","","","","","",""
"","","","","","html-slider-response","160","1003302","0.0-21.0-1.15","f5d392d1-8c81-4f36-881c-68ec593c2fca","2004","
                  <p style=""text-align: center;"">₪61
                                                <br>45%</p>
                  <p id=""wtp"" style=""text-align:center; margin-top: 0px; margin-bottom: 0px; font-size: 40px"";>מוכנים לשלם: <span id=""c_p_y""></span></p>","42","evaluation","50","22","10A,11A","45","61","42","","","","","","","","","","","","","","","","",""
"","","","","","html-keyboard-response","161","1004522","0.0-21.0-2.15","f5d392d1-8c81-4f36-881c-68ec593c2fca","null","<p style=""text-align: center;"">+</p>","null","fixation","","","","","","","","","","","","","","","","","","","","","","",""
"","","","","","html-slider-response","162","1005527","0.0-21.0-0.16","f5d392d1-8c81-4f36-881c-68ec593c2fca","1000","
                  <p style=""text-align: center;"">₪11
                                                <br>45%</p>
                  <p id=""wtp"" style=""text-align:center; margin-top: 0px; margin-bottom: 0px; font-size: 40px"";>&ensp;</p>","-","viewing","0","6","14B,21C,25C","","","","","","","","","","","","","","","","","","","",""
"","","","","","html-slider-response","163","1007278","0.0-21.0-1.16","f5d392d1-8c81-4f36-881c-68ec593c2fca","1750","
                  <p style=""text-align: center;"">₪11
                                                <br>45%</p>
                  <p id=""wtp"" style=""text-align:center; margin-top: 0px; margin-bottom: 0px; font-size: 40px"";>מוכנים לשלם: <span id=""c_p_y""></span></p>","12","evaluation","73","6","14B,21C,25C","45","11","12","","","","","","","","","","","","","","","","",""
"","","","","","html-keyboard-response","164","1008145","0.0-21.0-2.16","f5d392d1-8c81-4f36-881c-68ec593c2fca","null","<p style=""text-align: center;"">+</p>","null","fixation","","","","","","","","","","","","","","","","","","","","","","",""
"","","","","","html-slider-response","165","1009154","0.0-21.0-0.17","f5d392d1-8c81-4f36-881c-68ec593c2fca","1000","
                  <p style=""text-align: center;"">₪36
                                                <br>30%</p>
                  <p id=""wtp"" style=""text-align:center; margin-top: 0px; margin-bottom: 0px; font-size: 40px"";>&ensp;</p>","-","viewing","0","11","3C,20A,22A","","","","","","","","","","","","","","","","","","","",""
"","","","","","html-slider-response","166","1011798","0.0-21.0-1.17","f5d392d1-8c81-4f36-881c-68ec593c2fca","2643","
                  <p style=""text-align: center;"">₪36
                                                <br>30%</p>
                  <p id=""wtp"" style=""text-align:center; margin-top: 0px; margin-bottom: 0px; font-size: 40px"";>מוכנים לשלם: <span id=""c_p_y""></span></p>","19","evaluation","63","11","3C,20A,22A","30","36","19","","","","","","","","","","","","","","","","",""
"","","","","","html-keyboard-response","167","1012607","0.0-21.0-2.17","f5d392d1-8c81-4f36-881c-68ec593c2fca","null","<p style=""text-align: center;"">+</p>","null","fixation","","","","","","","","","","","","","","","","","","","","","","",""
"","","","","","html-slider-response","168","1013609","0.0-21.0-0.18","f5d392d1-8c81-4f36-881c-68ec593c2fca","1000","
                  <p style=""text-align: center;"">₪43
                                                <br>75%</p>
                  <p id=""wtp"" style=""text-align:center; margin-top: 0px; margin-bottom: 0px; font-size: 40px"";>&ensp;</p>","-","viewing","0","18","11B,19B,24A,26A","","","","","","","","","","","","","","","","","","","",""
"","","","","","html-slider-response","169","1015438","0.0-21.0-1.18","f5d392d1-8c81-4f36-881c-68ec593c2fca","1828","
                  <p style=""text-align: center;"">₪43
                                                <br>75%</p>
                  <p id=""wtp"" style=""text-align:center; margin-top: 0px; margin-bottom: 0px; font-size: 40px"";>מוכנים לשלם: <span id=""c_p_y""></span></p>","29","evaluation","59","18","11B,19B,24A,26A","75","43","29","","","","","","","","","","","","","","","","",""
"","","","","","html-keyboard-response","170","1016641","0.0-21.0-2.18","f5d392d1-8c81-4f36-881c-68ec593c2fca","null","<p style=""text-align: center;"">+</p>","null","fixation","","","","","","","","","","","","","","","","","","","","","","",""
"","","","","","html-slider-response","171","1017643","0.0-21.0-0.19","f5d392d1-8c81-4f36-881c-68ec593c2fca","1000","
                  <p style=""text-align: center;"">₪4
                                                <br>50%</p>
                  <p id=""wtp"" style=""text-align:center; margin-top: 0px; margin-bottom: 0px; font-size: 40px"";>&ensp;</p>","-","viewing","0","2","4C,17B","","","","","","","","","","","","","","","","","","","",""
"","","","","","html-slider-response","172","1019766","0.0-21.0-1.19","f5d392d1-8c81-4f36-881c-68ec593c2fca","2121","
                  <p style=""text-align: center;"">₪4
                                                <br>50%</p>
                  <p id=""wtp"" style=""text-align:center; margin-top: 0px; margin-bottom: 0px; font-size: 40px"";>מוכנים לשלם: <span id=""c_p_y""></span></p>","3","evaluation","59","2","4C,17B","50","4","4","","","","","","","","","","","","","","","","",""
"","","","","","html-keyboard-response","173","1020465","0.0-21.0-2.19","f5d392d1-8c81-4f36-881c-68ec593c2fca","null","<p style=""text-align: center;"">+</p>","null","fixation","","","","","","","","","","","","","","","","","","","","","","",""
"","","","","","html-slider-response","174","1021469","0.0-21.0-0.20","f5d392d1-8c81-4f36-881c-68ec593c2fca","1000","
                  <p style=""text-align: center;"">₪58
                                                <br>40%</p>
                  <p id=""wtp"" style=""text-align:center; margin-top: 0px; margin-bottom: 0px; font-size: 40px"";>&ensp;</p>","-","viewing","0","20","10C,13A,19C,21B","","","","","","","","","","","","","","","","","","","",""
"","","","","","html-slider-response","175","1025471","0.0-21.0-1.20","f5d392d1-8c81-4f36-881c-68ec593c2fca","null","
                  <p style=""text-align: center;"">₪58
                                                <br>40%</p>
                  <p id=""wtp"" style=""text-align:center; margin-top: 0px; margin-bottom: 0px; font-size: 40px"";>מוכנים לשלם: <span id=""c_p_y""></span></p>","null","evaluation","12","20","10C,13A,19C,21B","40","58","33","","","","","","","","","","","","","","","","",""
"","","","","","html-keyboard-response","176","1026134","0.0-21.0-2.20","f5d392d1-8c81-4f36-881c-68ec593c2fca","null","<p style=""text-align: center;"">+</p>","null","fixation","","","","","","","","","","","","","","","","","","","","","","",""
"","","","","","html-slider-response","177","1027139","0.0-21.0-0.21","f5d392d1-8c81-4f36-881c-68ec593c2fca","1000","
                  <p style=""text-align: center;"">₪79
                                                <br>65%</p>
                  <p id=""wtp"" style=""text-align:center; margin-top: 0px; margin-bottom: 0px; font-size: 40px"";>&ensp;</p>","-","viewing","0","31","8A","","","","","","","","","","","","","","","","","","","",""
"","","","","","html-slider-response","178","1030942","0.0-21.0-1.21","f5d392d1-8c81-4f36-881c-68ec593c2fca","3801","
                  <p style=""text-align: center;"">₪79
                                                <br>65%</p>
                  <p id=""wtp"" style=""text-align:center; margin-top: 0px; margin-bottom: 0px; font-size: 40px"";>מוכנים לשלם: <span id=""c_p_y""></span></p>","48","evaluation","20","31","8A","65","79","47","","","","","","","","","","","","","","","","",""
"","","","","","html-keyboard-response","179","1032271","0.0-21.0-2.21","f5d392d1-8c81-4f36-881c-68ec593c2fca","null","<p style=""text-align: center;"">+</p>","null","fixation","","","","","","","","","","","","","","","","","","","","","","",""
"","","","","","html-slider-response","180","1033273","0.0-21.0-0.22","f5d392d1-8c81-4f36-881c-68ec593c2fca","1000","
                  <p style=""text-align: center;"">₪76
                                                <br>65%</p>
                  <p id=""wtp"" style=""text-align:center; margin-top: 0px; margin-bottom: 0px; font-size: 40px"";>&ensp;</p>","-","viewing","0","29","8C,19A,24B","","","","","","","","","","","","","","","","","","","",""
"","","","","","html-slider-response","181","1035214","0.0-21.0-1.22","f5d392d1-8c81-4f36-881c-68ec593c2fca","1940","
                  <p style=""text-align: center;"">₪76
                                                <br>65%</p>
                  <p id=""wtp"" style=""text-align:center; margin-top: 0px; margin-bottom: 0px; font-size: 40px"";>מוכנים לשלם: <span id=""c_p_y""></span></p>","38","evaluation","53","29","8C,19A,24B","65","76","38","","","","","","","","","","","","","","","","",""
"","","","","","html-keyboard-response","182","1036046","0.0-21.0-2.22","f5d392d1-8c81-4f36-881c-68ec593c2fca","null","<p style=""text-align: center;"">+</p>","null","fixation","","","","","","","","","","","","","","","","","","","","","","",""
"","","","","","html-slider-response","183","1037053","0.0-21.0-0.23","f5d392d1-8c81-4f36-881c-68ec593c2fca","1000","
                  <p style=""text-align: center;"">₪71
                                                <br>55%</p>
                  <p id=""wtp"" style=""text-align:center; margin-top: 0px; margin-bottom: 0px; font-size: 40px"";>&ensp;</p>","-","viewing","0","27","5B,18A","","","","","","","","","","","","","","","","","","","",""
"","","","","","html-slider-response","184","1038980","0.0-21.0-1.23","f5d392d1-8c81-4f36-881c-68ec593c2fca","1926","
                  <p style=""text-align: center;"">₪71
                                                <br>55%</p>
                  <p id=""wtp"" style=""text-align:center; margin-top: 0px; margin-bottom: 0px; font-size: 40px"";>מוכנים לשלם: <span id=""c_p_y""></span></p>","56","evaluation","16","27","5B,18A","55","71","56","","","","","","","","","","","","","","","","",""
"","","","","","html-keyboard-response","185","1040325","0.0-21.0-2.23","f5d392d1-8c81-4f36-881c-68ec593c2fca","null","<p style=""text-align: center;"">+</p>","null","fixation","","","","","","","","","","","","","","","","","","","","","","",""
"","","","","","html-slider-response","186","1041327","0.0-21.0-0.24","f5d392d1-8c81-4f36-881c-68ec593c2fca","1000","
                  <p style=""text-align: center;"">₪39
                                                <br>65%</p>
                  <p id=""wtp"" style=""text-align:center; margin-top: 0px; margin-bottom: 0px; font-size: 40px"";>&ensp;</p>","-","viewing","0","16","1A,15A,26C","","","","","","","","","","","","","","","","","","","",""
"","","","","","html-slider-response","187","1042508","0.0-21.0-1.24","f5d392d1-8c81-4f36-881c-68ec593c2fca","1180","
                  <p style=""text-align: center;"">₪39
                                                <br>65%</p>
                  <p id=""wtp"" style=""text-align:center; margin-top: 0px; margin-bottom: 0px; font-size: 40px"";>מוכנים לשלם: <span id=""c_p_y""></span></p>","33","evaluation","24","16","1A,15A,26C","65","39","33","","","","","","","","","","","","","","","","",""
"","","","","","html-keyboard-response","188","1043374","0.0-21.0-2.24","f5d392d1-8c81-4f36-881c-68ec593c2fca","null","<p style=""text-align: center;"">+</p>","null","fixation","","","","","","","","","","","","","","","","","","","","","","",""
"","","","","","html-slider-response","189","1044381","0.0-21.0-0.25","f5d392d1-8c81-4f36-881c-68ec593c2fca","1000","
                  <p style=""text-align: center;"">₪58
                                                <br>30%</p>
                  <p id=""wtp"" style=""text-align:center; margin-top: 0px; margin-bottom: 0px; font-size: 40px"";>&ensp;</p>","-","viewing","0","19","13C,30A","","","","","","","","","","","","","","","","","","","",""
"","","","","","html-slider-response","190","1046308","0.0-21.0-1.25","f5d392d1-8c81-4f36-881c-68ec593c2fca","1926","
                  <p style=""text-align: center;"">₪58
                                                <br>30%</p>
                  <p id=""wtp"" style=""text-align:center; margin-top: 0px; margin-bottom: 0px; font-size: 40px"";>מוכנים לשלם: <span id=""c_p_y""></span></p>","40","evaluation","45","19","13C,30A","30","58","40","","","","","","","","","","","","","","","","",""
"","","","","","html-keyboard-response","191","1047539","0.0-21.0-2.25","f5d392d1-8c81-4f36-881c-68ec593c2fca","null","<p style=""text-align: center;"">+</p>","null","fixation","","","","","","","","","","","","","","","","","","","","","","",""
"","","","","","html-slider-response","192","1048550","0.0-21.0-0.26","f5d392d1-8c81-4f36-881c-68ec593c2fca","1000","
                  <p style=""text-align: center;"">₪36
                                                <br>60%</p>
                  <p id=""wtp"" style=""text-align:center; margin-top: 0px; margin-bottom: 0px; font-size: 40px"";>&ensp;</p>","-","viewing","0","12","1C,7C,15C","","","","","","","","","","","","","","","","","","","",""
"","","","","","html-slider-response","193","1050372","0.0-21.0-1.26","f5d392d1-8c81-4f36-881c-68ec593c2fca","1820","
                  <p style=""text-align: center;"">₪36
                                                <br>60%</p>
                  <p id=""wtp"" style=""text-align:center; margin-top: 0px; margin-bottom: 0px; font-size: 40px"";>מוכנים לשלם: <span id=""c_p_y""></span></p>","35","evaluation","73","12","1C,7C,15C","60","36","35","","","","","","","","","","","","","","","","",""
"","","","","","html-keyboard-response","194","1051213","0.0-21.0-2.26","f5d392d1-8c81-4f36-881c-68ec593c2fca","null","<p style=""text-align: center;"">+</p>","null","fixation","","","","","","","","","","","","","","","","","","","","","","",""
"","","","","","html-slider-response","195","1052215","0.0-21.0-0.27","f5d392d1-8c81-4f36-881c-68ec593c2fca","1000","
                  <p style=""text-align: center;"">₪4
                                                <br>75%</p>
                  <p id=""wtp"" style=""text-align:center; margin-top: 0px; margin-bottom: 0px; font-size: 40px"";>&ensp;</p>","-","viewing","0","3","12B,20B,23B,27C,29C","","","","","","","","","","","","","","","","","","","",""
"","","","","","html-slider-response","196","1053268","0.0-21.0-1.27","f5d392d1-8c81-4f36-881c-68ec593c2fca","1052","
                  <p style=""text-align: center;"">₪4
                                                <br>75%</p>
                  <p id=""wtp"" style=""text-align:center; margin-top: 0px; margin-bottom: 0px; font-size: 40px"";>מוכנים לשלם: <span id=""c_p_y""></span></p>","6","evaluation","17","3","12B,20B,23B,27C,29C","75","4","7","","","","","","","","","","","","","","","","",""
"","","","","","html-keyboard-response","197","1054215","0.0-21.0-2.27","f5d392d1-8c81-4f36-881c-68ec593c2fca","null","<p style=""text-align: center;"">+</p>","null","fixation","","","","","","","","","","","","","","","","","","","","","","",""
"","","","","","html-slider-response","198","1055225","0.0-21.0-0.28","f5d392d1-8c81-4f36-881c-68ec593c2fca","1000","
                  <p style=""text-align: center;"">₪36
                                                <br>70%</p>
                  <p id=""wtp"" style=""text-align:center; margin-top: 0px; margin-bottom: 0px; font-size: 40px"";>&ensp;</p>","-","viewing","0","13","3A,5C,10B","","","","","","","","","","","","","","","","","","","",""
"","","","","","html-slider-response","199","1057180","0.0-21.0-1.28","f5d392d1-8c81-4f36-881c-68ec593c2fca","1954","
                  <p style=""text-align: center;"">₪36
                                                <br>70%</p>
                  <p id=""wtp"" style=""text-align:center; margin-top: 0px; margin-bottom: 0px; font-size: 40px"";>מוכנים לשלם: <span id=""c_p_y""></span></p>","34","evaluation","49","13","3A,5C,10B","70","36","34","","","","","","","","","","","","","","","","",""
"","","","","","html-keyboard-response","200","1058043","0.0-21.0-2.28","f5d392d1-8c81-4f36-881c-68ec593c2fca","null","<p style=""text-align: center;"">+</p>","null","fixation","","","","","","","","","","","","","","","","","","","","","","",""
"","","","","","html-slider-response","201","1059054","0.0-21.0-0.29","f5d392d1-8c81-4f36-881c-68ec593c2fca","1000","
                  <p style=""text-align: center;"">₪16
                                                <br>20%</p>
                  <p id=""wtp"" style=""text-align:center; margin-top: 0px; margin-bottom: 0px; font-size: 40px"";>&ensp;</p>","-","viewing","0","8","14C,17A,20C,27A","","","","","","","","","","","","","","","","","","","",""
"","","","","","html-slider-response","202","1060964","0.0-21.0-1.29","f5d392d1-8c81-4f36-881c-68ec593c2fca","1909","
                  <p style=""text-align: center;"">₪16
                                                <br>20%</p>
                  <p id=""wtp"" style=""text-align:center; margin-top: 0px; margin-bottom: 0px; font-size: 40px"";>מוכנים לשלם: <span id=""c_p_y""></span></p>","7","evaluation","23","8","14C,17A,20C,27A","20","16","8","","","","","","","","","","","","","","","","",""
"","","","","","html-keyboard-response","203","1062256","0.0-21.0-2.29","f5d392d1-8c81-4f36-881c-68ec593c2fca","null","<p style=""text-align: center;"">+</p>","null","fixation","","","","","","","","","","","","","","","","","","","","","","",""
"","","","","","html-slider-response","204","1063271","0.0-21.0-0.30","f5d392d1-8c81-4f36-881c-68ec593c2fca","1000","
                  <p style=""text-align: center;"">₪64
                                                <br>50%</p>
                  <p id=""wtp"" style=""text-align:center; margin-top: 0px; margin-bottom: 0px; font-size: 40px"";>&ensp;</p>","-","viewing","0","25","1B,3B,4A","","","","","","","","","","","","","","","","","","","",""
"","","","","","html-slider-response","205","1064908","0.0-21.0-1.30","f5d392d1-8c81-4f36-881c-68ec593c2fca","1636","
                  <p style=""text-align: center;"">₪64
                                                <br>50%</p>
                  <p id=""wtp"" style=""text-align:center; margin-top: 0px; margin-bottom: 0px; font-size: 40px"";>מוכנים לשלם: <span id=""c_p_y""></span></p>","46","evaluation","60","25","1B,3B,4A","50","64","46","","","","","","","","","","","","","","","","",""
"","","","","","html-keyboard-response","206","1066328","0.0-21.0-2.30","f5d392d1-8c81-4f36-881c-68ec593c2fca","null","<p style=""text-align: center;"">+</p>","null","fixation","","","","","","","","","","","","","","","","","","","","","","",""
"","","","","","html-keyboard-response","207","1067343","0.0-22.0","f5d392d1-8c81-4f36-881c-68ec593c2fca","null","<p style=""text-align: center;"">+</p>","null","fixation","","","","","","","","","","","","","","","","","","","","","","",""
"","","","","","html-keyboard-response","208","1078756","0.0-23.0","f5d392d1-8c81-4f36-881c-68ec593c2fca","null","<p>הפסקה.
          <br>לחצו כדי להמשיך.</p>","1","scan_wait","","","","","","","","","","","","","","","","","","","","","","",""
"","","","","","html-keyboard-response","209","1079771","0.0-24.0","f5d392d1-8c81-4f36-881c-68ec593c2fca","null","<p style=""text-align: center;"">+</p>","null","fixation","","","","","","","","","","","","","","","","","","","","","","",""
"","","","","","html-slider-response","210","1080778","0.0-25.0-0.0","f5d392d1-8c81-4f36-881c-68ec593c2fca","1000","
                  <p style=""text-align: center;"">₪4
                                                <br>25%</p>
                  <p id=""wtp"" style=""text-align:center; margin-top: 0px; margin-bottom: 0px; font-size: 40px"";>&ensp;</p>","-","viewing","0","1","6C,29B,30C","","","","","","","","","","","","","","","","","","","",""
"","","","","","html-slider-response","211","1081820","0.0-25.0-1.0","f5d392d1-8c81-4f36-881c-68ec593c2fca","1041","
                  <p style=""text-align: center;"">₪4
                                                <br>25%</p>
                  <p id=""wtp"" style=""text-align:center; margin-top: 0px; margin-bottom: 0px; font-size: 40px"";>מוכנים לשלם: <span id=""c_p_y""></span></p>","1","evaluation","26","1","6C,29B,30C","25","4","2","","","","","","","","","","","","","","","","",""
"","","","","","html-keyboard-response","212","1082700","0.0-25.0-2.0","f5d392d1-8c81-4f36-881c-68ec593c2fca","null","<p style=""text-align: center;"">+</p>","null","fixation","","","","","","","","","","","","","","","","","","","","","","",""
"","","","","","html-slider-response","213","1083701","0.0-25.0-0.1","f5d392d1-8c81-4f36-881c-68ec593c2fca","1000","
                  <p style=""text-align: center;"">₪36
                                                <br>70%</p>
                  <p id=""wtp"" style=""text-align:center; margin-top: 0px; margin-bottom: 0px; font-size: 40px"";>&ensp;</p>","-","viewing","0","13","3A,5C,10B","","","","","","","","","","","","","","","","","","","",""
"","","","","","html-slider-response","214","1084956","0.0-25.0-1.1","f5d392d1-8c81-4f36-881c-68ec593c2fca","1254","
                  <p style=""text-align: center;"">₪36
                                                <br>70%</p>
                  <p id=""wtp"" style=""text-align:center; margin-top: 0px; margin-bottom: 0px; font-size: 40px"";>מוכנים לשלם: <span id=""c_p_y""></span></p>","26","evaluation","50","13","3A,5C,10B","70","36","26","","","","","","","","","","","","","","","","",""
"","","","","","html-keyboard-response","215","1086379","0.0-25.0-2.1","f5d392d1-8c81-4f36-881c-68ec593c2fca","null","<p style=""text-align: center;"">+</p>","null","fixation","","","","","","","","","","","","","","","","","","","","","","",""
"","","","","","html-slider-response","216","1087393","0.0-25.0-0.2","f5d392d1-8c81-4f36-881c-68ec593c2fca","1000","
                  <p style=""text-align: center;"">₪36
                                                <br>60%</p>
                  <p id=""wtp"" style=""text-align:center; margin-top: 0px; margin-bottom: 0px; font-size: 40px"";>&ensp;</p>","-","viewing","0","12","1C,7C,15C","","","","","","","","","","","","","","","","","","","",""
"","","","","","html-slider-response","217","1088556","0.0-25.0-1.2","f5d392d1-8c81-4f36-881c-68ec593c2fca","1162","
                  <p style=""text-align: center;"">₪36
                                                <br>60%</p>
                  <p id=""wtp"" style=""text-align:center; margin-top: 0px; margin-bottom: 0px; font-size: 40px"";>מוכנים לשלם: <span id=""c_p_y""></span></p>","34","evaluation","72","12","1C,7C,15C","60","36","34","","","","","","","","","","","","","","","","",""
"","","","","","html-keyboard-response","218","1089069","0.0-25.0-2.2","f5d392d1-8c81-4f36-881c-68ec593c2fca","null","<p style=""text-align: center;"">+</p>","null","fixation","","","","","","","","","","","","","","","","","","","","","","",""
"","","","","","html-slider-response","219","1090086","0.0-25.0-0.3","f5d392d1-8c81-4f36-881c-68ec593c2fca","1000","
                  <p style=""text-align: center;"">₪39
                                                <br>65%</p>
                  <p id=""wtp"" style=""text-align:center; margin-top: 0px; margin-bottom: 0px; font-size: 40px"";>&ensp;</p>","-","viewing","0","16","1A,15A,26C","","","","","","","","","","","","","","","","","","","",""
"","","","","","html-slider-response","220","1092260","0.0-25.0-1.3","f5d392d1-8c81-4f36-881c-68ec593c2fca","2173","
                  <p style=""text-align: center;"">₪39
                                                <br>65%</p>
                  <p id=""wtp"" style=""text-align:center; margin-top: 0px; margin-bottom: 0px; font-size: 40px"";>מוכנים לשלם: <span id=""c_p_y""></span></p>","26","evaluation","25","16","1A,15A,26C","65","39","26","","","","","","","","","","","","","","","","",""
"","","","","","html-keyboard-response","221","1093750","0.0-25.0-2.3","f5d392d1-8c81-4f36-881c-68ec593c2fca","null","<p style=""text-align: center;"">+</p>","null","fixation","","","","","","","","","","","","","","","","","","","","","","",""
"","","","","","html-slider-response","222","1094757","0.0-25.0-0.4","f5d392d1-8c81-4f36-881c-68ec593c2fca","1000","
                  <p style=""text-align: center;"">₪61
                                                <br>55%</p>
                  <p id=""wtp"" style=""text-align:center; margin-top: 0px; margin-bottom: 0px; font-size: 40px"";>&ensp;</p>","-","viewing","0","23","7B,26B","","","","","","","","","","","","","","","","","","","",""
"","","","","","html-slider-response","223","1096923","0.0-25.0-1.4","f5d392d1-8c81-4f36-881c-68ec593c2fca","2167","
                  <p style=""text-align: center;"">₪61
                                                <br>55%</p>
                  <p id=""wtp"" style=""text-align:center; margin-top: 0px; margin-bottom: 0px; font-size: 40px"";>מוכנים לשלם: <span id=""c_p_y""></span></p>","31","evaluation","56","23","7B,26B","55","61","31","","","","","","","","","","","","","","","","",""
"","","","","","html-keyboard-response","224","1098083","0.0-25.0-2.4","f5d392d1-8c81-4f36-881c-68ec593c2fca","null","<p style=""text-align: center;"">+</p>","null","fixation","","","","","","","","","","","","","","","","","","","","","","",""
"","","","","","html-slider-response","225","1099085","0.0-25.0-0.5","f5d392d1-8c81-4f36-881c-68ec593c2fca","1000","
                  <p style=""text-align: center;"">₪11
                                                <br>75%</p>
                  <p id=""wtp"" style=""text-align:center; margin-top: 0px; margin-bottom: 0px; font-size: 40px"";>&ensp;</p>","-","viewing","0","7","6B,18B,22C,24C,29A","","","","","","","","","","","","","","","","","","","",""
"","","","","","html-slider-response","226","1101186","0.0-25.0-1.5","f5d392d1-8c81-4f36-881c-68ec593c2fca","2101","
                  <p style=""text-align: center;"">₪11
                                                <br>75%</p>
                  <p id=""wtp"" style=""text-align:center; margin-top: 0px; margin-bottom: 0px; font-size: 40px"";>מוכנים לשלם: <span id=""c_p_y""></span></p>","14","evaluation","25","7","6B,18B,22C,24C,29A","75","11","14","","","","","","","","","","","","","","","","",""
"","","","","","html-keyboard-response","227","1101978","0.0-25.0-2.5","f5d392d1-8c81-4f36-881c-68ec593c2fca","null","<p style=""text-align: center;"">+</p>","null","fixation","","","","","","","","","","","","","","","","","","","","","","",""
"","","","","","html-slider-response","228","1102981","0.0-25.0-0.6","f5d392d1-8c81-4f36-881c-68ec593c2fca","1000","
                  <p style=""text-align: center;"">₪39
                                                <br>60%</p>
                  <p id=""wtp"" style=""text-align:center; margin-top: 0px; margin-bottom: 0px; font-size: 40px"";>&ensp;</p>","-","viewing","0","15","9C,25B","","","","","","","","","","","","","","","","","","","",""
"","","","","","html-slider-response","229","1105026","0.0-25.0-1.6","f5d392d1-8c81-4f36-881c-68ec593c2fca","2044","
                  <p style=""text-align: center;"">₪39
                                                <br>60%</p>
                  <p id=""wtp"" style=""text-align:center; margin-top: 0px; margin-bottom: 0px; font-size: 40px"";>מוכנים לשלם: <span id=""c_p_y""></span></p>","40","evaluation","35","15","9C,25B","60","39","40","","","","","","","","","","","","","","","","",""
"","","","","","html-keyboard-response","230","1106299","0.0-25.0-2.6","f5d392d1-8c81-4f36-881c-68ec593c2fca","null","<p style=""text-align: center;"">+</p>","null","fixation","","","","","","","","","","","","","","","","","","","","","","",""
"","","","","","html-slider-response","231","1107300","0.0-25.0-0.7","f5d392d1-8c81-4f36-881c-68ec593c2fca","1000","
                  <p style=""text-align: center;"">₪61
                                                <br>45%</p>
                  <p id=""wtp"" style=""text-align:center; margin-top: 0px; margin-bottom: 0px; font-size: 40px"";>&ensp;</p>","-","viewing","0","22","10A,11A","","","","","","","","","","","","","","","","","","","",""
"","","","","","html-slider-response","232","1110098","0.0-25.0-1.7","f5d392d1-8c81-4f36-881c-68ec593c2fca","2798","
                  <p style=""text-align: center;"">₪61
                                                <br>45%</p>
                  <p id=""wtp"" style=""text-align:center; margin-top: 0px; margin-bottom: 0px; font-size: 40px"";>מוכנים לשלם: <span id=""c_p_y""></span></p>","43","evaluation","58","22","10A,11A","45","61","43","","","","","","","","","","","","","","","","",""
"","","","","","html-keyboard-response","233","1111017","0.0-25.0-2.7","f5d392d1-8c81-4f36-881c-68ec593c2fca","null","<p style=""text-align: center;"">+</p>","null","fixation","","","","","","","","","","","","","","","","","","","","","","",""
"","","","","","html-slider-response","234","1112019","0.0-25.0-0.8","f5d392d1-8c81-4f36-881c-68ec593c2fca","1000","
                  <p style=""text-align: center;"">₪36
                                                <br>75%</p>
                  <p id=""wtp"" style=""text-align:center; margin-top: 0px; margin-bottom: 0px; font-size: 40px"";>&ensp;</p>","-","viewing","0","14","4B,5A,13B,16B","","","","","","","","","","","","","","","","","","","",""
"","","","","","html-slider-response","235","1113978","0.0-25.0-1.8","f5d392d1-8c81-4f36-881c-68ec593c2fca","1958","
                  <p style=""text-align: center;"">₪36
                                                <br>75%</p>
                  <p id=""wtp"" style=""text-align:center; margin-top: 0px; margin-bottom: 0px; font-size: 40px"";>מוכנים לשלם: <span id=""c_p_y""></span></p>","39","evaluation","28","14","4B,5A,13B,16B","75","36","39","","","","","","","","","","","","","","","","",""
"","","","","","html-keyboard-response","236","1114599","0.0-25.0-2.8","f5d392d1-8c81-4f36-881c-68ec593c2fca","null","<p style=""text-align: center;"">+</p>","null","fixation","","","","","","","","","","","","","","","","","","","","","","",""
"","","","","","html-slider-response","237","1115608","0.0-25.0-0.9","f5d392d1-8c81-4f36-881c-68ec593c2fca","1000","
                  <p style=""text-align: center;"">₪43
                                                <br>60%</p>
                  <p id=""wtp"" style=""text-align:center; margin-top: 0px; margin-bottom: 0px; font-size: 40px"";>&ensp;</p>","-","viewing","0","17","2A,7A,9A,15B","","","","","","","","","","","","","","","","","","","",""
"","","","","","html-slider-response","238","1117954","0.0-25.0-1.9","f5d392d1-8c81-4f36-881c-68ec593c2fca","2346","
                  <p style=""text-align: center;"">₪43
                                                <br>60%</p>
                  <p id=""wtp"" style=""text-align:center; margin-top: 0px; margin-bottom: 0px; font-size: 40px"";>מוכנים לשלם: <span id=""c_p_y""></span></p>","45","evaluation","45","17","2A,7A,9A,15B","60","43","45","","","","","","","","","","","","","","","","",""
"","","","","","html-keyboard-response","239","1119120","0.0-25.0-2.9","f5d392d1-8c81-4f36-881c-68ec593c2fca","null","<p style=""text-align: center;"">+</p>","null","fixation","","","","","","","","","","","","","","","","","","","","","","",""
"","","","","","html-slider-response","240","1120124","0.0-25.0-0.10","f5d392d1-8c81-4f36-881c-68ec593c2fca","1000","
                  <p style=""text-align: center;"">₪11
                                                <br>45%</p>
                  <p id=""wtp"" style=""text-align:center; margin-top: 0px; margin-bottom: 0px; font-size: 40px"";>&ensp;</p>","-","viewing","0","6","14B,21C,25C","","","","","","","","","","","","","","","","","","","",""
"","","","","","html-slider-response","241","1122170","0.0-25.0-1.10","f5d392d1-8c81-4f36-881c-68ec593c2fca","2045","
                  <p style=""text-align: center;"">₪11
                                                <br>45%</p>
                  <p id=""wtp"" style=""text-align:center; margin-top: 0px; margin-bottom: 0px; font-size: 40px"";>מוכנים לשלם: <span id=""c_p_y""></span></p>","5","evaluation","57","6","14B,21C,25C","45","11","5","","","","","","","","","","","","","","","","",""
"","","","","","html-keyboard-response","242","1123197","0.0-25.0-2.10","f5d392d1-8c81-4f36-881c-68ec593c2fca","null","<p style=""text-align: center;"">+</p>","null","fixation","","","","","","","","","","","","","","","","","","","","","","",""
"","","","","","html-slider-response","243","1124201","0.0-25.0-0.11","f5d392d1-8c81-4f36-881c-68ec593c2fca","1000","
                  <p style=""text-align: center;"">₪11
                                                <br>25%</p>
                  <p id=""wtp"" style=""text-align:center; margin-top: 0px; margin-bottom: 0px; font-size: 40px"";>&ensp;</p>","-","viewing","0","5","12A,27B,28B,30B","","","","","","","","","","","","","","","","","","","",""
"","","","","","html-slider-response","244","1125618","0.0-25.0-1.11","f5d392d1-8c81-4f36-881c-68ec593c2fca","1417","
                  <p style=""text-align: center;"">₪11
                                                <br>25%</p>
                  <p id=""wtp"" style=""text-align:center; margin-top: 0px; margin-bottom: 0px; font-size: 40px"";>מוכנים לשלם: <span id=""c_p_y""></span></p>","0","evaluation","33","5","12A,27B,28B,30B","25","11","1","","","","","","","","","","","","","","","","",""
"","","","","","html-keyboard-response","245","1126383","0.0-25.0-2.11","f5d392d1-8c81-4f36-881c-68ec593c2fca","null","<p style=""text-align: center;"">+</p>","null","fixation","","","","","","","","","","","","","","","","","","","","","","",""
"","","","","","html-slider-response","246","1127386","0.0-25.0-0.12","f5d392d1-8c81-4f36-881c-68ec593c2fca","1000","
                  <p style=""text-align: center;"">₪36
                                                <br>30%</p>
                  <p id=""wtp"" style=""text-align:center; margin-top: 0px; margin-bottom: 0px; font-size: 40px"";>&ensp;</p>","-","viewing","0","11","3C,20A,22A","","","","","","","","","","","","","","","","","","","",""
"","","","","","html-slider-response","247","1128858","0.0-25.0-1.12","f5d392d1-8c81-4f36-881c-68ec593c2fca","1471","
                  <p style=""text-align: center;"">₪36
                                                <br>30%</p>
                  <p id=""wtp"" style=""text-align:center; margin-top: 0px; margin-bottom: 0px; font-size: 40px"";>מוכנים לשלם: <span id=""c_p_y""></span></p>","24","evaluation","79","11","3C,20A,22A","30","36","24","","","","","","","","","","","","","","","","",""
"","","","","","html-keyboard-response","248","1129756","0.0-25.0-2.12","f5d392d1-8c81-4f36-881c-68ec593c2fca","null","<p style=""text-align: center;"">+</p>","null","fixation","","","","","","","","","","","","","","","","","","","","","","",""
"","","","","","html-slider-response","249","1130759","0.0-25.0-0.13","f5d392d1-8c81-4f36-881c-68ec593c2fca","1000","
                  <p style=""text-align: center;"">₪64
                                                <br>25%</p>
