"success","timeout","failed_images","failed_audio","failed_video","trial_type","trial_index","time_elapsed","internal_node_id","subject_id","rt","stimulus","response","part","slider_start","ID","set_ID","prob","amount","last_location","actual_choice","actual_EV","binary_id","trinary_id","catch","direction","A_key","S_key","D_key","choice_prob","choice_amount","potential_prize_prob","potential_prize_amount","won_prize","total_prize","remaining_budget","accuracy"
"true","false","[]","[]","[]","preload","0","8","0.0-0.0","d97e4b04-a8c0-46f3-ab85-5d88f60c6985","","","","","","","","","","","","","","","","","","","","","","","","","","",""
"","","","","","html-keyboard-response","1","14075","0.0-1.0","d97e4b04-a8c0-46f3-ab85-5d88f60c6985","null","
          <h1>שלום וברוכים הבאים!</h1>
          <p>לפניכם ניסוי בקבלת החלטות עם שני חלקים.
          <br><br>לחצו על העכבר כדי להמשיך.</p>","0","example","","","","","","","","","","","","","","","","","","","","","","",""
"","","","","","html-keyboard-response","2","23827","0.0-2.0","d97e4b04-a8c0-46f3-ab85-5d88f60c6985","null","
        <h1>חלק 1</h1>
        <p>בקרוב יוצגו בפניכם הגרלות.
        <br>עליכם לבחור את המחיר המירבי שתהיו מוכנים לשלם כדי להשתתף בהגרלה שתוצג.
        <br>יש לכם תקציב של ₪80 לכל הגרלה. 
        <br>נסו להעריך כל הגרלה בנפרד ולחשוב כמה היא שווה עבורכם, ₪80 זמינים לכל הגרלה בנפרד.
        <br><br>לחצו על העכבר כדי להמשיך.</p>","1","instructions","","","","","","","","","","","","","","","","","","","","","","",""
"","","","","","html-keyboard-response","3","32123","0.0-3.0","d97e4b04-a8c0-46f3-ab85-5d88f60c6985","null","
        <p>בסוף הניסוי, המחשב יבחר את אחת ההגרלות ויקבע מחיר לכרטיס עבורה. 
        <br>במידה והמחיר שבחרתם נמוך מהמחיר שנבחר על ידי המחשב, לא תשתתפו בהגרלה ותשארו עם מלוא התקציב.
        <br>במידה והמחיר שבחרתם גבוה מהמחיר שנבחר על ידי המחשב, תשלמו את המחיר שנקבע ותשתתפו בהגרלה.
        <br><br>לחצו על העכבר כדי להמשיך.</p>","1","instructions","","","","","","","","","","","","","","","","","","","","","","",""
"","","","","","html-slider-response","4","38483","0.0-4.0","d97e4b04-a8c0-46f3-ab85-5d88f60c6985","6252","
        <p style=""font-size: 42px;"">נתחיל עם דוגמא: 
        <br>ההגרלה מטה מציעה 65% סיכוי לזכות ב-₪40 
        <br>&emsp;&emsp;&emsp;&emsp;&emsp;&emsp;&emsp;&emsp;&ensp;35% סיכוי לזכות ב-₪0.
        <br><br>מה המחיר המירבי שתהיו מוכנים לשלם על כרטיס להגרלה זו בין 0 ל-₪80?
        <br>הזיזו את העכבר על פני המלבן ולחצו כדי לבצע בחירה.</p>
        
        <p style=""text-align: center;"">₪40<br>65%</p>

        <p id=""wtp"" style=""text-align:center; margin-top: 0px; margin-bottom: 0px; font-size: 40px"";>מוכנים לשלם: <span id=""c_p_y""></span></p>","15","example","20","","","","","","","","","","","","","","","","","","","","","",""
"","","","","","html-keyboard-response","5","46643","0.0-5.0","d97e4b04-a8c0-46f3-ab85-5d88f60c6985","null","<p>יפה מאוד!
                <br> בחרתם שתהיו מוכנים לשלם ₪15 כדי להשתתף בהגרלה:
                <br><p style=""text-align: center;"">₪40<br>65%</p>
                <p>נשמע נכון?
                <br>נניח שהגרלה זו נבחרה בסוף הניסוי.
                <br>כעת המחשב יקבע מחיר עבורה באקראי.
                <br>לחצו על העכבר להמשך.</p>","1","example","","","","","","","","","","","","","","","","","","","","","","",""
"","","","","","html-keyboard-response","6","60371","0.0-6.0","d97e4b04-a8c0-46f3-ab85-5d88f60c6985","null","<p>המחשב קבע מחיר: ₪33
                <br>ואתם בחרתם לשלם לכל היותר: ₪15
                <br><br>מכיוון שהמחיר שבחרתם נמוך מהמחיר שנקבע, לא תתשתתפו בהגרלה.
                <br>במקרה כזה, בסוף הניסוי תקבלו את כל התקציב ההתחלתי של ₪80.
                <br><br>לחצו על העכבר להמשך.</p>","1","example","","","","","","","","","","","","","","","","","","","","","","",""
"","","","","","html-slider-response","7","64236","0.0-7.0","d97e4b04-a8c0-46f3-ab85-5d88f60c6985","3610","<p style=""font-size: 42px;"">הנה עוד דוגמא:
                <br>ההגרלה מטה מציעה 35% סיכוי לזכות ב-₪18 
                <br>&emsp;&emsp;&emsp;&emsp;&emsp;&emsp;&emsp;&emsp;&ensp;65% סיכוי לזכות ב-₪0.</p>
        
                <p style=""text-align: center;"">₪18<br>35%</p>
                <p id=""wtp"" style=""text-align:center; margin-top: 0px; margin-bottom: 0px; font-size: 40px"";>מוכנים לשלם: <span id=""c_p_y""></span></p>","6","example","58","","","","","","","","","","","","","","","","","","","","","",""
"","","","","","html-keyboard-response","8","72859","0.0-8.0","d97e4b04-a8c0-46f3-ab85-5d88f60c6985","null","<p>הייתם מוכנים לשלם  ₪6 כדי להשתתף בהגרלה:
                <p style=""text-align: center;"">₪18<br>35%</p>
                <p>כעת נניח שהמחשב בחר את ההגרלה הזו בסוף הניסוי, וקבע עבורה מחיר.
                <br><br>לחצו על העכבר כדי להמשיך.</p>","1","instructions","","","","","","","","","","","","","","","","","","","","","","",""
"","","","","","html-keyboard-response","9","81211","0.0-9.0","d97e4b04-a8c0-46f3-ab85-5d88f60c6985","null","<p>המחשב קבע מחיר להגרלה: ₪4<br>ואתם בחרתם לשלם לכל היותר: ₪6
                <br><br>כעת המחיר שנקבע נמוך מזה שבחרתם, אז תשלמו את המחיר שקבע המחשב (₪4) ותשתתפו בהגרלה.
                <br>במקרה כזה, תסיימו את הניסוי עם תקציב של ₪76 ועם סיכוי לזכות ב-₪18 נוספים מההגרלה.
                <br>כלומר, תוכלו לקבל ₪76 אם לא תזכו בהגרלה, או ₪94 אם תזכו בהגרלה.
                <br><br>לחצו על העכבר להמשך.</p>","1","example","","","","","","","","","","","","","","","","","","","","","","",""
"","","","","","html-keyboard-response","10","96620","0.0-10.0","d97e4b04-a8c0-46f3-ab85-5d88f60c6985","null","<p>במהלך הניסוי, קודם תראו את ההגרלה ורק לאחר מכן תוכלו לבחור.
                <p>כמו כן, יהיו לכם מספר שניות מוגבל להגיב.
                <p>בואו ננסה זאת עם ההגרלה הקודמת.
                <br>לחצו על העכבר כדי להמשיך.</p>","1","instructions","","","","","","","","","","","","","","","","","","","","","","",""
"","","","","","html-slider-response","11","97886","0.0-11.0","d97e4b04-a8c0-46f3-ab85-5d88f60c6985","1000","
                    <p style=""text-align: center;"">₪18<br>35%</p>
                    <p id=""wtp"" style=""text-align:center; margin-top: 0px; margin-bottom: 0px; font-size: 40px"";>&ensp;</p>","14","instructions","0","","","","","","","","","","","","","","","","","","","","","",""
"","","","","","html-slider-response","12","99796","0.0-12.0","d97e4b04-a8c0-46f3-ab85-5d88f60c6985","1657","
                    <p style=""text-align: center;"">₪18<br>35%</p>
                    <p id=""wtp"" style=""text-align:center; margin-top: 0px; margin-bottom: 0px; font-size: 40px"";>מוכנים לשלם: <span id=""c_p_y""></span></p>","3","instructions","19","","","","","","","","","","","","","","","","","","","","","",""
"","","","","","html-keyboard-response","13","101939","0.0-13.0","d97e4b04-a8c0-46f3-ab85-5d88f60c6985","null","<p>יפה. הפעם בחרתם לשלם לכל היותר ₪3.
                <br><br>לחצו על העכבר כדי להמשיך.</p>","1","instructions","","","","","","","","","","","","","","","","","","","","","","",""
"","","","","","html-keyboard-response","14","108707","0.0-15.0","d97e4b04-a8c0-46f3-ab85-5d88f60c6985","null","<p>כעת נתחיל את הניסוי.
                <br><br>אתם תראו הגרלות ותתבקשו לבחור כמה תהיו מוכנים לשלם כדי להשתתף בהן.
                <br>יש לכם תקציב של ₪80 עבור כל הגרלה.
                <br>בסוף הניסוי הגרלה אחת תבחר באקראי ותשוחק.
                <br><br>לחצו על העכבר כדי להתחיל את הניסוי.</p>","1","instructions","","","","","","","","","","","","","","","","","","","","","","",""
"","","","","","html-keyboard-response","15","109969","0.0-16.0","d97e4b04-a8c0-46f3-ab85-5d88f60c6985","null","<p style=""text-align: center;"">+</p>","null","fixation","","","","","","","","","","","","","","","","","","","","","","",""
"","","","","","html-slider-response","16","110972","0.0-17.0-0.0","d97e4b04-a8c0-46f3-ab85-5d88f60c6985","1000","
                  <p style=""text-align: center;"">₪64
                                                <br>25%</p>
                  <p id=""wtp"" style=""text-align:center; margin-top: 0px; margin-bottom: 0px; font-size: 40px"";>&ensp;</p>","-","viewing","0","24","6A,21A","","","","","","","","","","","","","","","","","","","",""
"","","","","","html-slider-response","17","112380","0.0-17.0-1.0","d97e4b04-a8c0-46f3-ab85-5d88f60c6985","1407","
                  <p style=""text-align: center;"">₪64
                                                <br>25%</p>
                  <p id=""wtp"" style=""text-align:center; margin-top: 0px; margin-bottom: 0px; font-size: 40px"";>מוכנים לשלם: <span id=""c_p_y""></span></p>","7","evaluation","51","24","6A,21A","25","64","7","","","","","","","","","","","","","","","","",""
"","","","","","html-keyboard-response","18","113177","0.0-17.0-2.0","d97e4b04-a8c0-46f3-ab85-5d88f60c6985","null","<p style=""text-align: center;"">+</p>","null","fixation","","","","","","","","","","","","","","","","","","","","","","",""
"","","","","","html-slider-response","19","114179","0.0-17.0-0.1","d97e4b04-a8c0-46f3-ab85-5d88f60c6985","1000","
                  <p style=""text-align: center;"">₪11
                                                <br>25%</p>
                  <p id=""wtp"" style=""text-align:center; margin-top: 0px; margin-bottom: 0px; font-size: 40px"";>&ensp;</p>","-","viewing","0","5","12A,27B,28B,30B","","","","","","","","","","","","","","","","","","","",""
"","","","","","html-slider-response","20","115692","0.0-17.0-1.1","d97e4b04-a8c0-46f3-ab85-5d88f60c6985","1511","
                  <p style=""text-align: center;"">₪11
                                                <br>25%</p>
                  <p id=""wtp"" style=""text-align:center; margin-top: 0px; margin-bottom: 0px; font-size: 40px"";>מוכנים לשלם: <span id=""c_p_y""></span></p>","1","evaluation","43","5","12A,27B,28B,30B","25","11","2","","","","","","","","","","","","","","","","",""
"","","","","","html-keyboard-response","21","116608","0.0-17.0-2.1","d97e4b04-a8c0-46f3-ab85-5d88f60c6985","null","<p style=""text-align: center;"">+</p>","null","fixation","","","","","","","","","","","","","","","","","","","","","","",""
"","","","","","html-slider-response","22","117621","0.0-17.0-0.2","d97e4b04-a8c0-46f3-ab85-5d88f60c6985","1000","
                  <p style=""text-align: center;"">₪11
                                                <br>75%</p>
                  <p id=""wtp"" style=""text-align:center; margin-top: 0px; margin-bottom: 0px; font-size: 40px"";>&ensp;</p>","-","viewing","0","7","6B,18B,22C,24C,29A","","","","","","","","","","","","","","","","","","","",""
"","","","","","html-slider-response","23","119236","0.0-17.0-1.2","d97e4b04-a8c0-46f3-ab85-5d88f60c6985","1614","
                  <p style=""text-align: center;"">₪11
                                                <br>75%</p>
                  <p id=""wtp"" style=""text-align:center; margin-top: 0px; margin-bottom: 0px; font-size: 40px"";>מוכנים לשלם: <span id=""c_p_y""></span></p>","10","evaluation","31","7","6B,18B,22C,24C,29A","75","11","11","","","","","","","","","","","","","","","","",""
"","","","","","html-keyboard-response","24","120345","0.0-17.0-2.2","d97e4b04-a8c0-46f3-ab85-5d88f60c6985","null","<p style=""text-align: center;"">+</p>","null","fixation","","","","","","","","","","","","","","","","","","","","","","",""
"","","","","","html-slider-response","25","121354","0.0-17.0-0.3","d97e4b04-a8c0-46f3-ab85-5d88f60c6985","1000","
                  <p style=""text-align: center;"">₪71
                                                <br>45%</p>
                  <p id=""wtp"" style=""text-align:center; margin-top: 0px; margin-bottom: 0px; font-size: 40px"";>&ensp;</p>","-","viewing","0","26","2B,16A","","","","","","","","","","","","","","","","","","","",""
"","","","","","html-slider-response","26","123876","0.0-17.0-1.3","d97e4b04-a8c0-46f3-ab85-5d88f60c6985","2520","
                  <p style=""text-align: center;"">₪71
                                                <br>45%</p>
                  <p id=""wtp"" style=""text-align:center; margin-top: 0px; margin-bottom: 0px; font-size: 40px"";>מוכנים לשלם: <span id=""c_p_y""></span></p>","28","evaluation","75","26","2B,16A","45","71","29","","","","","","","","","","","","","","","","",""
"","","","","","html-keyboard-response","27","124750","0.0-17.0-2.3","d97e4b04-a8c0-46f3-ab85-5d88f60c6985","null","<p style=""text-align: center;"">+</p>","null","fixation","","","","","","","","","","","","","","","","","","","","","","",""
"","","","","","html-slider-response","28","125755","0.0-17.0-0.4","d97e4b04-a8c0-46f3-ab85-5d88f60c6985","1000","
                  <p style=""text-align: center;"">₪58
                                                <br>45%</p>
                  <p id=""wtp"" style=""text-align:center; margin-top: 0px; margin-bottom: 0px; font-size: 40px"";>&ensp;</p>","-","viewing","0","21","11C,18C,25A","","","","","","","","","","","","","","","","","","","",""
"","","","","","html-slider-response","29","127092","0.0-17.0-1.4","d97e4b04-a8c0-46f3-ab85-5d88f60c6985","1335","
                  <p style=""text-align: center;"">₪58
                                                <br>45%</p>
                  <p id=""wtp"" style=""text-align:center; margin-top: 0px; margin-bottom: 0px; font-size: 40px"";>מוכנים לשלם: <span id=""c_p_y""></span></p>","31","evaluation","24","21","11C,18C,25A","45","58","32","","","","","","","","","","","","","","","","",""
"","","","","","html-keyboard-response","30","128555","0.0-17.0-2.4","d97e4b04-a8c0-46f3-ab85-5d88f60c6985","null","<p style=""text-align: center;"">+</p>","null","fixation","","","","","","","","","","","","","","","","","","","","","","",""
"","","","","","html-slider-response","31","129557","0.0-17.0-0.5","d97e4b04-a8c0-46f3-ab85-5d88f60c6985","1000","
                  <p style=""text-align: center;"">₪79
                                                <br>40%</p>
                  <p id=""wtp"" style=""text-align:center; margin-top: 0px; margin-bottom: 0px; font-size: 40px"";>&ensp;</p>","-","viewing","0","30","9B","","","","","","","","","","","","","","","","","","","",""
"","","","","","html-slider-response","32","132340","0.0-17.0-1.5","d97e4b04-a8c0-46f3-ab85-5d88f60c6985","2782","
                  <p style=""text-align: center;"">₪79
                                                <br>40%</p>
                  <p id=""wtp"" style=""text-align:center; margin-top: 0px; margin-bottom: 0px; font-size: 40px"";>מוכנים לשלם: <span id=""c_p_y""></span></p>","20","evaluation","55","30","9B","40","79","20","","","","","","","","","","","","","","","","",""
"","","","","","html-keyboard-response","33","133462","0.0-17.0-2.5","d97e4b04-a8c0-46f3-ab85-5d88f60c6985","null","<p style=""text-align: center;"">+</p>","null","fixation","","","","","","","","","","","","","","","","","","","","","","",""
"","","","","","html-slider-response","34","134478","0.0-17.0-0.6","d97e4b04-a8c0-46f3-ab85-5d88f60c6985","1000","
                  <p style=""text-align: center;"">₪36
                                                <br>30%</p>
                  <p id=""wtp"" style=""text-align:center; margin-top: 0px; margin-bottom: 0px; font-size: 40px"";>&ensp;</p>","-","viewing","0","11","3C,20A,22A","","","","","","","","","","","","","","","","","","","",""
"","","","","","html-slider-response","35","136660","0.0-17.0-1.6","d97e4b04-a8c0-46f3-ab85-5d88f60c6985","2182","
                  <p style=""text-align: center;"">₪36
                                                <br>30%</p>
                  <p id=""wtp"" style=""text-align:center; margin-top: 0px; margin-bottom: 0px; font-size: 40px"";>מוכנים לשלם: <span id=""c_p_y""></span></p>","10","evaluation","76","11","3C,20A,22A","30","36","10","","","","","","","","","","","","","","","","",""
"","","","","","html-keyboard-response","36","137493","0.0-17.0-2.6","d97e4b04-a8c0-46f3-ab85-5d88f60c6985","null","<p style=""text-align: center;"">+</p>","null","fixation","","","","","","","","","","","","","","","","","","","","","","",""
"","","","","","html-slider-response","37","138501","0.0-17.0-0.7","d97e4b04-a8c0-46f3-ab85-5d88f60c6985","1000","
                  <p style=""text-align: center;"">₪36
                                                <br>60%</p>
                  <p id=""wtp"" style=""text-align:center; margin-top: 0px; margin-bottom: 0px; font-size: 40px"";>&ensp;</p>","-","viewing","0","12","1C,7C,15C","","","","","","","","","","","","","","","","","","","",""
"","","","","","html-slider-response","38","139852","0.0-17.0-1.7","d97e4b04-a8c0-46f3-ab85-5d88f60c6985","1349","
                  <p style=""text-align: center;"">₪36
                                                <br>60%</p>
                  <p id=""wtp"" style=""text-align:center; margin-top: 0px; margin-bottom: 0px; font-size: 40px"";>מוכנים לשלם: <span id=""c_p_y""></span></p>","15","evaluation","80","12","1C,7C,15C","60","36","15","","","","","","","","","","","","","","","","",""
"","","","","","html-keyboard-response","39","140619","0.0-17.0-2.7","d97e4b04-a8c0-46f3-ab85-5d88f60c6985","null","<p style=""text-align: center;"">+</p>","null","fixation","","","","","","","","","","","","","","","","","","","","","","",""
"","","","","","html-slider-response","40","141621","0.0-17.0-0.8","d97e4b04-a8c0-46f3-ab85-5d88f60c6985","1000","
                  <p style=""text-align: center;"">₪61
                                                <br>55%</p>
                  <p id=""wtp"" style=""text-align:center; margin-top: 0px; margin-bottom: 0px; font-size: 40px"";>&ensp;</p>","-","viewing","0","23","7B,26B","","","","","","","","","","","","","","","","","","","",""
"","","","","","html-slider-response","41","144787","0.0-17.0-1.8","d97e4b04-a8c0-46f3-ab85-5d88f60c6985","3165","
                  <p style=""text-align: center;"">₪61
                                                <br>55%</p>
                  <p id=""wtp"" style=""text-align:center; margin-top: 0px; margin-bottom: 0px; font-size: 40px"";>מוכנים לשלם: <span id=""c_p_y""></span></p>","25","evaluation","74","23","7B,26B","55","61","25","","","","","","","","","","","","","","","","",""
"","","","","","html-keyboard-response","42","145766","0.0-17.0-2.8","d97e4b04-a8c0-46f3-ab85-5d88f60c6985","null","<p style=""text-align: center;"">+</p>","null","fixation","","","","","","","","","","","","","","","","","","","","","","",""
"","","","","","html-slider-response","43","146770","0.0-17.0-0.9","d97e4b04-a8c0-46f3-ab85-5d88f60c6985","1000","
                  <p style=""text-align: center;"">₪58
                                                <br>30%</p>
                  <p id=""wtp"" style=""text-align:center; margin-top: 0px; margin-bottom: 0px; font-size: 40px"";>&ensp;</p>","-","viewing","0","19","13C,30A","","","","","","","","","","","","","","","","","","","",""
"","","","","","html-slider-response","44","149380","0.0-17.0-1.9","d97e4b04-a8c0-46f3-ab85-5d88f60c6985","2609","
                  <p style=""text-align: center;"">₪58
                                                <br>30%</p>
                  <p id=""wtp"" style=""text-align:center; margin-top: 0px; margin-bottom: 0px; font-size: 40px"";>מוכנים לשלם: <span id=""c_p_y""></span></p>","14","evaluation","2","19","13C,30A","30","58","15","","","","","","","","","","","","","","","","",""
"","","","","","html-keyboard-response","45","150187","0.0-17.0-2.9","d97e4b04-a8c0-46f3-ab85-5d88f60c6985","null","<p style=""text-align: center;"">+</p>","null","fixation","","","","","","","","","","","","","","","","","","","","","","",""
"","","","","","html-slider-response","46","151203","0.0-17.0-0.10","d97e4b04-a8c0-46f3-ab85-5d88f60c6985","1000","
                  <p style=""text-align: center;"">₪4
                                                <br>50%</p>
                  <p id=""wtp"" style=""text-align:center; margin-top: 0px; margin-bottom: 0px; font-size: 40px"";>&ensp;</p>","-","viewing","0","2","4C,17B","","","","","","","","","","","","","","","","","","","",""
"","","","","","html-slider-response","47","153524","0.0-17.0-1.10","d97e4b04-a8c0-46f3-ab85-5d88f60c6985","2319","
                  <p style=""text-align: center;"">₪4
                                                <br>50%</p>
                  <p id=""wtp"" style=""text-align:center; margin-top: 0px; margin-bottom: 0px; font-size: 40px"";>מוכנים לשלם: <span id=""c_p_y""></span></p>","1","evaluation","56","2","4C,17B","50","4","2","","","","","","","","","","","","","","","","",""
"","","","","","html-keyboard-response","48","154985","0.0-17.0-2.10","d97e4b04-a8c0-46f3-ab85-5d88f60c6985","null","<p style=""text-align: center;"">+</p>","null","fixation","","","","","","","","","","","","","","","","","","","","","","",""
"","","","","","html-slider-response","49","155986","0.0-17.0-0.11","d97e4b04-a8c0-46f3-ab85-5d88f60c6985","1000","
                  <p style=""text-align: center;"">₪58
                                                <br>40%</p>
                  <p id=""wtp"" style=""text-align:center; margin-top: 0px; margin-bottom: 0px; font-size: 40px"";>&ensp;</p>","-","viewing","0","20","10C,13A,19C,21B","","","","","","","","","","","","","","","","","","","",""
"","","","","","html-slider-response","50","158940","0.0-17.0-1.11","d97e4b04-a8c0-46f3-ab85-5d88f60c6985","2952","
                  <p style=""text-align: center;"">₪58
                                                <br>40%</p>
                  <p id=""wtp"" style=""text-align:center; margin-top: 0px; margin-bottom: 0px; font-size: 40px"";>מוכנים לשלם: <span id=""c_p_y""></span></p>","25","evaluation","41","20","10C,13A,19C,21B","40","58","25","","","","","","","","","","","","","","","","",""
"","","","","","html-keyboard-response","51","160236","0.0-17.0-2.11","d97e4b04-a8c0-46f3-ab85-5d88f60c6985","null","<p style=""text-align: center;"">+</p>","null","fixation","","","","","","","","","","","","","","","","","","","","","","",""
"","","","","","html-slider-response","52","161238","0.0-17.0-0.12","d97e4b04-a8c0-46f3-ab85-5d88f60c6985","1000","
                  <p style=""text-align: center;"">₪11
                                                <br>20%</p>
                  <p id=""wtp"" style=""text-align:center; margin-top: 0px; margin-bottom: 0px; font-size: 40px"";>&ensp;</p>","-","viewing","0","4","12C,17C,23C,28C","","","","","","","","","","","","","","","","","","","",""
"","","","","","html-slider-response","53","164092","0.0-17.0-1.12","d97e4b04-a8c0-46f3-ab85-5d88f60c6985","2853","
                  <p style=""text-align: center;"">₪11
                                                <br>20%</p>
                  <p id=""wtp"" style=""text-align:center; margin-top: 0px; margin-bottom: 0px; font-size: 40px"";>מוכנים לשלם: <span id=""c_p_y""></span></p>","1","evaluation","22","4","12C,17C,23C,28C","20","11","2","","","","","","","","","","","","","","","","",""
"","","","","","html-keyboard-response","54","165277","0.0-17.0-2.12","d97e4b04-a8c0-46f3-ab85-5d88f60c6985","null","<p style=""text-align: center;"">+</p>","null","fixation","","","","","","","","","","","","","","","","","","","","","","",""
"","","","","","html-slider-response","55","166279","0.0-17.0-0.13","d97e4b04-a8c0-46f3-ab85-5d88f60c6985","1000","
                  <p style=""text-align: center;"">₪39
                                                <br>60%</p>
                  <p id=""wtp"" style=""text-align:center; margin-top: 0px; margin-bottom: 0px; font-size: 40px"";>&ensp;</p>","-","viewing","0","15","9C,25B","","","","","","","","","","","","","","","","","","","",""
"","","","","","html-slider-response","56","168924","0.0-17.0-1.13","d97e4b04-a8c0-46f3-ab85-5d88f60c6985","2644","
                  <p style=""text-align: center;"">₪39
                                                <br>60%</p>
                  <p id=""wtp"" style=""text-align:center; margin-top: 0px; margin-bottom: 0px; font-size: 40px"";>מוכנים לשלם: <span id=""c_p_y""></span></p>","22","evaluation","48","15","9C,25B","60","39","23","","","","","","","","","","","","","","","","",""
"","","","","","html-keyboard-response","57","169994","0.0-17.0-2.13","d97e4b04-a8c0-46f3-ab85-5d88f60c6985","null","<p style=""text-align: center;"">+</p>","null","fixation","","","","","","","","","","","","","","","","","","","","","","",""
"","","","","","html-slider-response","58","170996","0.0-17.0-0.14","d97e4b04-a8c0-46f3-ab85-5d88f60c6985","1000","
                  <p style=""text-align: center;"">₪4
                                                <br>25%</p>
                  <p id=""wtp"" style=""text-align:center; margin-top: 0px; margin-bottom: 0px; font-size: 40px"";>&ensp;</p>","-","viewing","0","1","6C,29B,30C","","","","","","","","","","","","","","","","","","","",""
"","","","","","html-slider-response","59","172572","0.0-17.0-1.14","d97e4b04-a8c0-46f3-ab85-5d88f60c6985","1574","
                  <p style=""text-align: center;"">₪4
                                                <br>25%</p>
                  <p id=""wtp"" style=""text-align:center; margin-top: 0px; margin-bottom: 0px; font-size: 40px"";>מוכנים לשלם: <span id=""c_p_y""></span></p>","0","evaluation","69","1","6C,29B,30C","25","4","1","","","","","","","","","","","","","","","","",""
"","","","","","html-keyboard-response","60","173634","0.0-17.0-2.14","d97e4b04-a8c0-46f3-ab85-5d88f60c6985","null","<p style=""text-align: center;"">+</p>","null","fixation","","","","","","","","","","","","","","","","","","","","","","",""
"","","","","","html-slider-response","61","174636","0.0-17.0-0.15","d97e4b04-a8c0-46f3-ab85-5d88f60c6985","1000","
                  <p style=""text-align: center;"">₪79
                                                <br>65%</p>
                  <p id=""wtp"" style=""text-align:center; margin-top: 0px; margin-bottom: 0px; font-size: 40px"";>&ensp;</p>","-","viewing","0","31","8A","","","","","","","","","","","","","","","","","","","",""
"","","","","","html-slider-response","62","176916","0.0-17.0-1.15","d97e4b04-a8c0-46f3-ab85-5d88f60c6985","2278","
                  <p style=""text-align: center;"">₪79
                                                <br>65%</p>
                  <p id=""wtp"" style=""text-align:center; margin-top: 0px; margin-bottom: 0px; font-size: 40px"";>מוכנים לשלם: <span id=""c_p_y""></span></p>","40","evaluation","60","31","8A","65","79","40","","","","","","","","","","","","","","","","",""
"","","","","","html-keyboard-response","63","178260","0.0-17.0-2.15","d97e4b04-a8c0-46f3-ab85-5d88f60c6985","null","<p style=""text-align: center;"">+</p>","null","fixation","","","","","","","","","","","","","","","","","","","","","","",""
"","","","","","html-slider-response","64","179262","0.0-17.0-0.16","d97e4b04-a8c0-46f3-ab85-5d88f60c6985","1000","
                  <p style=""text-align: center;"">₪18
                                                <br>25%</p>
                  <p id=""wtp"" style=""text-align:center; margin-top: 0px; margin-bottom: 0px; font-size: 40px"";>&ensp;</p>","-","viewing","0","9","14A,23A","","","","","","","","","","","","","","","","","","","",""
"","","","","","html-slider-response","65","181500","0.0-17.0-1.16","d97e4b04-a8c0-46f3-ab85-5d88f60c6985","2236","
                  <p style=""text-align: center;"">₪18
                                                <br>25%</p>
                  <p id=""wtp"" style=""text-align:center; margin-top: 0px; margin-bottom: 0px; font-size: 40px"";>מוכנים לשלם: <span id=""c_p_y""></span></p>","7","evaluation","22","9","14A,23A","25","18","8","","","","","","","","","","","","","","","","",""
"","","","","","html-keyboard-response","66","182118","0.0-17.0-2.16","d97e4b04-a8c0-46f3-ab85-5d88f60c6985","null","<p style=""text-align: center;"">+</p>","null","fixation","","","","","","","","","","","","","","","","","","","","","","",""
"","","","","","html-slider-response","67","183134","0.0-17.0-0.17","d97e4b04-a8c0-46f3-ab85-5d88f60c6985","1000","
                  <p style=""text-align: center;"">₪18
                                                <br>50%</p>
                  <p id=""wtp"" style=""text-align:center; margin-top: 0px; margin-bottom: 0px; font-size: 40px"";>&ensp;</p>","-","viewing","0","10","2C,16C,22B,28A","","","","","","","","","","","","","","","","","","","",""
"","","","","","html-slider-response","68","185580","0.0-17.0-1.17","d97e4b04-a8c0-46f3-ab85-5d88f60c6985","2444","
                  <p style=""text-align: center;"">₪18
                                                <br>50%</p>
                  <p id=""wtp"" style=""text-align:center; margin-top: 0px; margin-bottom: 0px; font-size: 40px"";>מוכנים לשלם: <span id=""c_p_y""></span></p>","5","evaluation","8","10","2C,16C,22B,28A","50","18","6","","","","","","","","","","","","","","","","",""
"","","","","","html-keyboard-response","69","186190","0.0-17.0-2.17","d97e4b04-a8c0-46f3-ab85-5d88f60c6985","null","<p style=""text-align: center;"">+</p>","null","fixation","","","","","","","","","","","","","","","","","","","","","","",""
"","","","","","html-slider-response","70","187193","0.0-17.0-0.18","d97e4b04-a8c0-46f3-ab85-5d88f60c6985","1000","
                  <p style=""text-align: center;"">₪43
                                                <br>60%</p>
                  <p id=""wtp"" style=""text-align:center; margin-top: 0px; margin-bottom: 0px; font-size: 40px"";>&ensp;</p>","-","viewing","0","17","2A,7A,9A,15B","","","","","","","","","","","","","","","","","","","",""
"","","","","","html-slider-response","71","189804","0.0-17.0-1.18","d97e4b04-a8c0-46f3-ab85-5d88f60c6985","2610","
                  <p style=""text-align: center;"">₪43
                                                <br>60%</p>
                  <p id=""wtp"" style=""text-align:center; margin-top: 0px; margin-bottom: 0px; font-size: 40px"";>מוכנים לשלם: <span id=""c_p_y""></span></p>","23","evaluation","27","17","2A,7A,9A,15B","60","43","23","","","","","","","","","","","","","","","","",""
"","","","","","html-keyboard-response","72","191157","0.0-17.0-2.18","d97e4b04-a8c0-46f3-ab85-5d88f60c6985","null","<p style=""text-align: center;"">+</p>","null","fixation","","","","","","","","","","","","","","","","","","","","","","",""
"","","","","","html-slider-response","73","192165","0.0-17.0-0.19","d97e4b04-a8c0-46f3-ab85-5d88f60c6985","1000","
                  <p style=""text-align: center;"">₪61
                                                <br>45%</p>
                  <p id=""wtp"" style=""text-align:center; margin-top: 0px; margin-bottom: 0px; font-size: 40px"";>&ensp;</p>","-","viewing","0","22","10A,11A","","","","","","","","","","","","","","","","","","","",""
"","","","","","html-slider-response","74","193284","0.0-17.0-1.19","d97e4b04-a8c0-46f3-ab85-5d88f60c6985","1118","
                  <p style=""text-align: center;"">₪61
                                                <br>45%</p>
                  <p id=""wtp"" style=""text-align:center; margin-top: 0px; margin-bottom: 0px; font-size: 40px"";>מוכנים לשלם: <span id=""c_p_y""></span></p>","30","evaluation","49","22","10A,11A","45","61","30","","","","","","","","","","","","","","","","",""
"","","","","","html-keyboard-response","75","194193","0.0-17.0-2.19","d97e4b04-a8c0-46f3-ab85-5d88f60c6985","null","<p style=""text-align: center;"">+</p>","null","fixation","","","","","","","","","","","","","","","","","","","","","","",""
"","","","","","html-slider-response","76","195203","0.0-17.0-0.20","d97e4b04-a8c0-46f3-ab85-5d88f60c6985","1000","
                  <p style=""text-align: center;"">₪71
                                                <br>55%</p>
                  <p id=""wtp"" style=""text-align:center; margin-top: 0px; margin-bottom: 0px; font-size: 40px"";>&ensp;</p>","-","viewing","0","27","5B,18A","","","","","","","","","","","","","","","","","","","",""
"","","","","","html-slider-response","77","199212","0.0-17.0-1.20","d97e4b04-a8c0-46f3-ab85-5d88f60c6985","null","
                  <p style=""text-align: center;"">₪71
                                                <br>55%</p>
                  <p id=""wtp"" style=""text-align:center; margin-top: 0px; margin-bottom: 0px; font-size: 40px"";>מוכנים לשלם: <span id=""c_p_y""></span></p>","null","evaluation","11","27","5B,18A","55","71","27","","","","","","","","","","","","","","","","",""
"","","","","","html-keyboard-response","78","200127","0.0-17.0-2.20","d97e4b04-a8c0-46f3-ab85-5d88f60c6985","null","<p style=""text-align: center;"">+</p>","null","fixation","","","","","","","","","","","","","","","","","","","","","","",""
"","","","","","html-slider-response","79","201129","0.0-17.0-0.21","d97e4b04-a8c0-46f3-ab85-5d88f60c6985","1000","
                  <p style=""text-align: center;"">₪4
                                                <br>75%</p>
                  <p id=""wtp"" style=""text-align:center; margin-top: 0px; margin-bottom: 0px; font-size: 40px"";>&ensp;</p>","-","viewing","0","3","12B,20B,23B,27C,29C","","","","","","","","","","","","","","","","","","","",""
"","","","","","html-slider-response","80","204012","0.0-17.0-1.21","d97e4b04-a8c0-46f3-ab85-5d88f60c6985","2882","
                  <p style=""text-align: center;"">₪4
                                                <br>75%</p>
                  <p id=""wtp"" style=""text-align:center; margin-top: 0px; margin-bottom: 0px; font-size: 40px"";>מוכנים לשלם: <span id=""c_p_y""></span></p>","4","evaluation","61","3","12B,20B,23B,27C,29C","75","4","4","","","","","","","","","","","","","","","","",""
"","","","","","html-keyboard-response","81","204590","0.0-17.0-2.21","d97e4b04-a8c0-46f3-ab85-5d88f60c6985","null","<p style=""text-align: center;"">+</p>","null","fixation","","","","","","","","","","","","","","","","","","","","","","",""
"","","","","","html-slider-response","82","205603","0.0-17.0-0.22","d97e4b04-a8c0-46f3-ab85-5d88f60c6985","1000","
                  <p style=""text-align: center;"">₪16
                                                <br>20%</p>
                  <p id=""wtp"" style=""text-align:center; margin-top: 0px; margin-bottom: 0px; font-size: 40px"";>&ensp;</p>","-","viewing","0","8","14C,17A,20C,27A","","","","","","","","","","","","","","","","","","","",""
"","","","","","html-slider-response","83","206828","0.0-17.0-1.22","d97e4b04-a8c0-46f3-ab85-5d88f60c6985","1223","
                  <p style=""text-align: center;"">₪16
                                                <br>20%</p>
                  <p id=""wtp"" style=""text-align:center; margin-top: 0px; margin-bottom: 0px; font-size: 40px"";>מוכנים לשלם: <span id=""c_p_y""></span></p>","4","evaluation","22","8","14C,17A,20C,27A","20","16","5","","","","","","","","","","","","","","","","",""
"","","","","","html-keyboard-response","84","208155","0.0-17.0-2.22","d97e4b04-a8c0-46f3-ab85-5d88f60c6985","null","<p style=""text-align: center;"">+</p>","null","fixation","","","","","","","","","","","","","","","","","","","","","","",""
"","","","","","html-slider-response","85","209167","0.0-17.0-0.23","d97e4b04-a8c0-46f3-ab85-5d88f60c6985","1000","
                  <p style=""text-align: center;"">₪64
                                                <br>50%</p>
                  <p id=""wtp"" style=""text-align:center; margin-top: 0px; margin-bottom: 0px; font-size: 40px"";>&ensp;</p>","-","viewing","0","25","1B,3B,4A","","","","","","","","","","","","","","","","","","","",""
"","","","","","html-slider-response","86","212580","0.0-17.0-1.23","d97e4b04-a8c0-46f3-ab85-5d88f60c6985","3412","
                  <p style=""text-align: center;"">₪64
                                                <br>50%</p>
                  <p id=""wtp"" style=""text-align:center; margin-top: 0px; margin-bottom: 0px; font-size: 40px"";>מוכנים לשלם: <span id=""c_p_y""></span></p>","36","evaluation","51","25","1B,3B,4A","50","64","36","","","","","","","","","","","","","","","","",""
"","","","","","html-keyboard-response","87","213301","0.0-17.0-2.23","d97e4b04-a8c0-46f3-ab85-5d88f60c6985","null","<p style=""text-align: center;"">+</p>","null","fixation","","","","","","","","","","","","","","","","","","","","","","",""
"","","","","","html-slider-response","88","214314","0.0-17.0-0.24","d97e4b04-a8c0-46f3-ab85-5d88f60c6985","1000","
                  <p style=""text-align: center;"">₪36
                                                <br>70%</p>
                  <p id=""wtp"" style=""text-align:center; margin-top: 0px; margin-bottom: 0px; font-size: 40px"";>&ensp;</p>","-","viewing","0","13","3A,5C,10B","","","","","","","","","","","","","","","","","","","",""
"","","","","","html-slider-response","89","216268","0.0-17.0-1.24","d97e4b04-a8c0-46f3-ab85-5d88f60c6985","1952","
                  <p style=""text-align: center;"">₪36
                                                <br>70%</p>
                  <p id=""wtp"" style=""text-align:center; margin-top: 0px; margin-bottom: 0px; font-size: 40px"";>מוכנים לשלם: <span id=""c_p_y""></span></p>","26","evaluation","11","13","3A,5C,10B","70","36","26","","","","","","","","","","","","","","","","",""
"","","","","","html-keyboard-response","90","217202","0.0-17.0-2.24","d97e4b04-a8c0-46f3-ab85-5d88f60c6985","null","<p style=""text-align: center;"">+</p>","null","fixation","","","","","","","","","","","","","","","","","","","","","","",""
"","","","","","html-slider-response","91","218204","0.0-17.0-0.25","d97e4b04-a8c0-46f3-ab85-5d88f60c6985","1000","
                  <p style=""text-align: center;"">₪71
                                                <br>75%</p>
                  <p id=""wtp"" style=""text-align:center; margin-top: 0px; margin-bottom: 0px; font-size: 40px"";>&ensp;</p>","-","viewing","0","28","8B","","","","","","","","","","","","","","","","","","","",""
"","","","","","html-slider-response","92","220156","0.0-17.0-1.25","d97e4b04-a8c0-46f3-ab85-5d88f60c6985","1950","
                  <p style=""text-align: center;"">₪71
                                                <br>75%</p>
                  <p id=""wtp"" style=""text-align:center; margin-top: 0px; margin-bottom: 0px; font-size: 40px"";>מוכנים לשלם: <span id=""c_p_y""></span></p>","42","evaluation","28","28","8B","75","71","42","","","","","","","","","","","","","","","","",""
"","","","","","html-keyboard-response","93","221479","0.0-17.0-2.25","d97e4b04-a8c0-46f3-ab85-5d88f60c6985","null","<p style=""text-align: center;"">+</p>","null","fixation","","","","","","","","","","","","","","","","","","","","","","",""
"","","","","","html-slider-response","94","222487","0.0-17.0-0.26","d97e4b04-a8c0-46f3-ab85-5d88f60c6985","1000","
                  <p style=""text-align: center;"">₪11
                                                <br>45%</p>
                  <p id=""wtp"" style=""text-align:center; margin-top: 0px; margin-bottom: 0px; font-size: 40px"";>&ensp;</p>","-","viewing","0","6","14B,21C,25C","","","","","","","","","","","","","","","","","","","",""
"","","","","","html-slider-response","95","225772","0.0-17.0-1.26","d97e4b04-a8c0-46f3-ab85-5d88f60c6985","3283","
                  <p style=""text-align: center;"">₪11
                                                <br>45%</p>
                  <p id=""wtp"" style=""text-align:center; margin-top: 0px; margin-bottom: 0px; font-size: 40px"";>מוכנים לשלם: <span id=""c_p_y""></span></p>","6","evaluation","47","6","14B,21C,25C","45","11","7","","","","","","","","","","","","","","","","",""
"","","","","","html-keyboard-response","96","226950","0.0-17.0-2.26","d97e4b04-a8c0-46f3-ab85-5d88f60c6985","null","<p style=""text-align: center;"">+</p>","null","fixation","","","","","","","","","","","","","","","","","","","","","","",""
"","","","","","html-slider-response","97","227953","0.0-17.0-0.27","d97e4b04-a8c0-46f3-ab85-5d88f60c6985","1000","
                  <p style=""text-align: center;"">₪76
                                                <br>65%</p>
                  <p id=""wtp"" style=""text-align:center; margin-top: 0px; margin-bottom: 0px; font-size: 40px"";>&ensp;</p>","-","viewing","0","29","8C,19A,24B","","","","","","","","","","","","","","","","","","","",""
"","","","","","html-slider-response","98","230004","0.0-17.0-1.27","d97e4b04-a8c0-46f3-ab85-5d88f60c6985","2049","
                  <p style=""text-align: center;"">₪76
                                                <br>65%</p>
                  <p id=""wtp"" style=""text-align:center; margin-top: 0px; margin-bottom: 0px; font-size: 40px"";>מוכנים לשלם: <span id=""c_p_y""></span></p>","43","evaluation","43","29","8C,19A,24B","65","76","43","","","","","","","","","","","","","","","","",""
"","","","","","html-keyboard-response","99","230678","0.0-17.0-2.27","d97e4b04-a8c0-46f3-ab85-5d88f60c6985","null","<p style=""text-align: center;"">+</p>","null","fixation","","","","","","","","","","","","","","","","","","","","","","",""
"","","","","","html-slider-response","100","231680","0.0-17.0-0.28","d97e4b04-a8c0-46f3-ab85-5d88f60c6985","1000","
                  <p style=""text-align: center;"">₪43
                                                <br>75%</p>
                  <p id=""wtp"" style=""text-align:center; margin-top: 0px; margin-bottom: 0px; font-size: 40px"";>&ensp;</p>","-","viewing","0","18","11B,19B,24A,26A","","","","","","","","","","","","","","","","","","","",""
"","","","","","html-slider-response","101","234188","0.0-17.0-1.28","d97e4b04-a8c0-46f3-ab85-5d88f60c6985","2506","
                  <p style=""text-align: center;"">₪43
                                                <br>75%</p>
                  <p id=""wtp"" style=""text-align:center; margin-top: 0px; margin-bottom: 0px; font-size: 40px"";>מוכנים לשלם: <span id=""c_p_y""></span></p>","15","evaluation","63","18","11B,19B,24A,26A","75","43","15","","","","","","","","","","","","","","","","",""
"","","","","","html-keyboard-response","102","235489","0.0-17.0-2.28","d97e4b04-a8c0-46f3-ab85-5d88f60c6985","null","<p style=""text-align: center;"">+</p>","null","fixation","","","","","","","","","","","","","","","","","","","","","","",""
"","","","","","html-slider-response","103","236492","0.0-17.0-0.29","d97e4b04-a8c0-46f3-ab85-5d88f60c6985","1000","
                  <p style=""text-align: center;"">₪36
                                                <br>75%</p>
                  <p id=""wtp"" style=""text-align:center; margin-top: 0px; margin-bottom: 0px; font-size: 40px"";>&ensp;</p>","-","viewing","0","14","4B,5A,13B,16B","","","","","","","","","","","","","","","","","","","",""
"","","","","","html-slider-response","104","238420","0.0-17.0-1.29","d97e4b04-a8c0-46f3-ab85-5d88f60c6985","1927","
                  <p style=""text-align: center;"">₪36
                                                <br>75%</p>
                  <p id=""wtp"" style=""text-align:center; margin-top: 0px; margin-bottom: 0px; font-size: 40px"";>מוכנים לשלם: <span id=""c_p_y""></span></p>","16","evaluation","73","14","4B,5A,13B,16B","75","36","17","","","","","","","","","","","","","","","","",""
"","","","","","html-keyboard-response","105","239607","0.0-17.0-2.29","d97e4b04-a8c0-46f3-ab85-5d88f60c6985","null","<p style=""text-align: center;"">+</p>","null","fixation","","","","","","","","","","","","","","","","","","","","","","",""
"","","","","","html-slider-response","106","240609","0.0-17.0-0.30","d97e4b04-a8c0-46f3-ab85-5d88f60c6985","1000","
                  <p style=""text-align: center;"">₪39
                                                <br>65%</p>
                  <p id=""wtp"" style=""text-align:center; margin-top: 0px; margin-bottom: 0px; font-size: 40px"";>&ensp;</p>","-","viewing","0","16","1A,15A,26C","","","","","","","","","","","","","","","","","","","",""
"","","","","","html-slider-response","107","242028","0.0-17.0-1.30","d97e4b04-a8c0-46f3-ab85-5d88f60c6985","1417","
                  <p style=""text-align: center;"">₪39
                                                <br>65%</p>
                  <p id=""wtp"" style=""text-align:center; margin-top: 0px; margin-bottom: 0px; font-size: 40px"";>מוכנים לשלם: <span id=""c_p_y""></span></p>","9","evaluation","53","16","1A,15A,26C","65","39","10","","","","","","","","","","","","","","","","",""
"","","","","","html-keyboard-response","108","242906","0.0-17.0-2.30","d97e4b04-a8c0-46f3-ab85-5d88f60c6985","null","<p style=""text-align: center;"">+</p>","null","fixation","","","","","","","","","","","","","","","","","","","","","","",""
"","","","","","html-keyboard-response","109","243911","0.0-18.0","d97e4b04-a8c0-46f3-ab85-5d88f60c6985","null","<p style=""text-align: center;"">+</p>","null","fixation","","","","","","","","","","","","","","","","","","","","","","",""
"","","","","","html-keyboard-response","110","245532","0.0-19.0","d97e4b04-a8c0-46f3-ab85-5d88f60c6985","null","<p>הפסקה.
          <br>לחצו כדי להמשיך.</p>","1","scan_wait","","","","","","","","","","","","","","","","","","","","","","",""
"","","","","","html-keyboard-response","111","246544","0.0-20.0","d97e4b04-a8c0-46f3-ab85-5d88f60c6985","null","<p style=""text-align: center;"">+</p>","null","fixation","","","","","","","","","","","","","","","","","","","","","","",""
"","","","","","html-slider-response","112","247546","0.0-21.0-0.0","d97e4b04-a8c0-46f3-ab85-5d88f60c6985","1000","
                  <p style=""text-align: center;"">₪71
                                                <br>55%</p>
                  <p id=""wtp"" style=""text-align:center; margin-top: 0px; margin-bottom: 0px; font-size: 40px"";>&ensp;</p>","-","viewing","0","27","5B,18A","","","","","","","","","","","","","","","","","","","",""
"","","","","","html-slider-response","113","249524","0.0-21.0-1.0","d97e4b04-a8c0-46f3-ab85-5d88f60c6985","1977","
                  <p style=""text-align: center;"">₪71
                                                <br>55%</p>
                  <p id=""wtp"" style=""text-align:center; margin-top: 0px; margin-bottom: 0px; font-size: 40px"";>מוכנים לשלם: <span id=""c_p_y""></span></p>","32","evaluation","38","27","5B,18A","55","71","32","","","","","","","","","","","","","","","","",""
"","","","","","html-keyboard-response","114","250489","0.0-21.0-2.0","d97e4b04-a8c0-46f3-ab85-5d88f60c6985","null","<p style=""text-align: center;"">+</p>","null","fixation","","","","","","","","","","","","","","","","","","","","","","",""
"","","","","","html-slider-response","115","251493","0.0-21.0-0.1","d97e4b04-a8c0-46f3-ab85-5d88f60c6985","1000","
                  <p style=""text-align: center;"">₪79
                                                <br>65%</p>
                  <p id=""wtp"" style=""text-align:center; margin-top: 0px; margin-bottom: 0px; font-size: 40px"";>&ensp;</p>","-","viewing","0","31","8A","","","","","","","","","","","","","","","","","","","",""
"","","","","","html-slider-response","116","253004","0.0-21.0-1.1","d97e4b04-a8c0-46f3-ab85-5d88f60c6985","1509","
                  <p style=""text-align: center;"">₪79
                                                <br>65%</p>
                  <p id=""wtp"" style=""text-align:center; margin-top: 0px; margin-bottom: 0px; font-size: 40px"";>מוכנים לשלם: <span id=""c_p_y""></span></p>","40","evaluation","67","31","8A","65","79","40","","","","","","","","","","","","","","","","",""
"","","","","","html-keyboard-response","117","254101","0.0-21.0-2.1","d97e4b04-a8c0-46f3-ab85-5d88f60c6985","null","<p style=""text-align: center;"">+</p>","null","fixation","","","","","","","","","","","","","","","","","","","","","","",""
"","","","","","html-slider-response","118","255104","0.0-21.0-0.2","d97e4b04-a8c0-46f3-ab85-5d88f60c6985","1000","
                  <p style=""text-align: center;"">₪71
                                                <br>45%</p>
                  <p id=""wtp"" style=""text-align:center; margin-top: 0px; margin-bottom: 0px; font-size: 40px"";>&ensp;</p>","-","viewing","0","26","2B,16A","","","","","","","","","","","","","","","","","","","",""
"","","","","","html-slider-response","119","258348","0.0-21.0-1.2","d97e4b04-a8c0-46f3-ab85-5d88f60c6985","3243","
                  <p style=""text-align: center;"">₪71
                                                <br>45%</p>
                  <p id=""wtp"" style=""text-align:center; margin-top: 0px; margin-bottom: 0px; font-size: 40px"";>מוכנים לשלם: <span id=""c_p_y""></span></p>","22","evaluation","74","26","2B,16A","45","71","22","","","","","","","","","","","","","","","","",""
"","","","","","html-keyboard-response","120","259628","0.0-21.0-2.2","d97e4b04-a8c0-46f3-ab85-5d88f60c6985","null","<p style=""text-align: center;"">+</p>","null","fixation","","","","","","","","","","","","","","","","","","","","","","",""
"","","","","","html-slider-response","121","260639","0.0-21.0-0.3","d97e4b04-a8c0-46f3-ab85-5d88f60c6985","1000","
                  <p style=""text-align: center;"">₪4
                                                <br>75%</p>
                  <p id=""wtp"" style=""text-align:center; margin-top: 0px; margin-bottom: 0px; font-size: 40px"";>&ensp;</p>","-","viewing","0","3","12B,20B,23B,27C,29C","","","","","","","","","","","","","","","","","","","",""
"","","","","","html-slider-response","122","263196","0.0-21.0-1.3","d97e4b04-a8c0-46f3-ab85-5d88f60c6985","2556","
                  <p style=""text-align: center;"">₪4
                                                <br>75%</p>
                  <p id=""wtp"" style=""text-align:center; margin-top: 0px; margin-bottom: 0px; font-size: 40px"";>מוכנים לשלם: <span id=""c_p_y""></span></p>","1","evaluation","75","3","12B,20B,23B,27C,29C","75","4","2","","","","","","","","","","","","","","","","",""
"","","","","","html-keyboard-response","123","264662","0.0-21.0-2.3","d97e4b04-a8c0-46f3-ab85-5d88f60c6985","null","<p style=""text-align: center;"">+</p>","null","fixation","","","","","","","","","","","","","","","","","","","","","","",""
"","","","","","html-slider-response","124","265670","0.0-21.0-0.4","d97e4b04-a8c0-46f3-ab85-5d88f60c6985","1000","
                  <p style=""text-align: center;"">₪36
                                                <br>30%</p>
                  <p id=""wtp"" style=""text-align:center; margin-top: 0px; margin-bottom: 0px; font-size: 40px"";>&ensp;</p>","-","viewing","0","11","3C,20A,22A","","","","","","","","","","","","","","","","","","","",""
"","","","","","html-slider-response","125","267732","0.0-21.0-1.4","d97e4b04-a8c0-46f3-ab85-5d88f60c6985","2060","
                  <p style=""text-align: center;"">₪36
                                                <br>30%</p>
                  <p id=""wtp"" style=""text-align:center; margin-top: 0px; margin-bottom: 0px; font-size: 40px"";>מוכנים לשלם: <span id=""c_p_y""></span></p>","8","evaluation","29","11","3C,20A,22A","30","36","9","","","","","","","","","","","","","","","","",""
"","","","","","html-keyboard-response","126","268246","0.0-21.0-2.4","d97e4b04-a8c0-46f3-ab85-5d88f60c6985","null","<p style=""text-align: center;"">+</p>","null","fixation","","","","","","","","","","","","","","","","","","","","","","",""
"","","","","","html-slider-response","127","269251","0.0-21.0-0.5","d97e4b04-a8c0-46f3-ab85-5d88f60c6985","1000","
                  <p style=""text-align: center;"">₪71
                                                <br>75%</p>
                  <p id=""wtp"" style=""text-align:center; margin-top: 0px; margin-bottom: 0px; font-size: 40px"";>&ensp;</p>","-","viewing","0","28","8B","","","","","","","","","","","","","","","","","","","",""
"","","","","","html-slider-response","128","271668","0.0-21.0-1.5","d97e4b04-a8c0-46f3-ab85-5d88f60c6985","2415","
                  <p style=""text-align: center;"">₪71
                                                <br>75%</p>
                  <p id=""wtp"" style=""text-align:center; margin-top: 0px; margin-bottom: 0px; font-size: 40px"";>מוכנים לשלם: <span id=""c_p_y""></span></p>","46","evaluation","74","28","8B","75","71","46","","","","","","","","","","","","","","","","",""
"","","","","","html-keyboard-response","129","272289","0.0-21.0-2.5","d97e4b04-a8c0-46f3-ab85-5d88f60c6985","null","<p style=""text-align: center;"">+</p>","null","fixation","","","","","","","","","","","","","","","","","","","","","","",""
"","","","","","html-slider-response","130","273292","0.0-21.0-0.6","d97e4b04-a8c0-46f3-ab85-5d88f60c6985","1000","
                  <p style=""text-align: center;"">₪58
                                                <br>40%</p>
                  <p id=""wtp"" style=""text-align:center; margin-top: 0px; margin-bottom: 0px; font-size: 40px"";>&ensp;</p>","-","viewing","0","20","10C,13A,19C,21B","","","","","","","","","","","","","","","","","","","",""
"","","","","","html-slider-response","131","275764","0.0-21.0-1.6","d97e4b04-a8c0-46f3-ab85-5d88f60c6985","2471","
                  <p style=""text-align: center;"">₪58
                                                <br>40%</p>
                  <p id=""wtp"" style=""text-align:center; margin-top: 0px; margin-bottom: 0px; font-size: 40px"";>מוכנים לשלם: <span id=""c_p_y""></span></p>","20","evaluation","37","20","10C,13A,19C,21B","40","58","20","","","","","","","","","","","","","","","","",""
"","","","","","html-keyboard-response","132","277161","0.0-21.0-2.6","d97e4b04-a8c0-46f3-ab85-5d88f60c6985","null","<p style=""text-align: center;"">+</p>","null","fixation","","","","","","","","","","","","","","","","","","","","","","",""
"","","","","","html-slider-response","133","278164","0.0-21.0-0.7","d97e4b04-a8c0-46f3-ab85-5d88f60c6985","1000","
                  <p style=""text-align: center;"">₪36
                                                <br>75%</p>
                  <p id=""wtp"" style=""text-align:center; margin-top: 0px; margin-bottom: 0px; font-size: 40px"";>&ensp;</p>","-","viewing","0","14","4B,5A,13B,16B","","","","","","","","","","","","","","","","","","","",""
"","","","","","html-slider-response","134","279748","0.0-21.0-1.7","d97e4b04-a8c0-46f3-ab85-5d88f60c6985","1583","
                  <p style=""text-align: center;"">₪36
                                                <br>75%</p>
                  <p id=""wtp"" style=""text-align:center; margin-top: 0px; margin-bottom: 0px; font-size: 40px"";>מוכנים לשלם: <span id=""c_p_y""></span></p>","10","evaluation","49","14","4B,5A,13B,16B","75","36","11","","","","","","","","","","","","","","","","",""
"","","","","","html-keyboard-response","135","280976","0.0-21.0-2.7","d97e4b04-a8c0-46f3-ab85-5d88f60c6985","null","<p style=""text-align: center;"">+</p>","null","fixation","","","","","","","","","","","","","","","","","","","","","","",""
"","","","","","html-slider-response","136","281979","0.0-21.0-0.8","d97e4b04-a8c0-46f3-ab85-5d88f60c6985","1000","
                  <p style=""text-align: center;"">₪18
                                                <br>50%</p>
                  <p id=""wtp"" style=""text-align:center; margin-top: 0px; margin-bottom: 0px; font-size: 40px"";>&ensp;</p>","-","viewing","0","10","2C,16C,22B,28A","","","","","","","","","","","","","","","","","","","",""
"","","","","","html-slider-response","137","282980","0.0-21.0-1.8","d97e4b04-a8c0-46f3-ab85-5d88f60c6985","999","
                  <p style=""text-align: center;"">₪18
                                                <br>50%</p>
                  <p id=""wtp"" style=""text-align:center; margin-top: 0px; margin-bottom: 0px; font-size: 40px"";>מוכנים לשלם: <span id=""c_p_y""></span></p>","6","evaluation","66","10","2C,16C,22B,28A","50","18","6","","","","","","","","","","","","","","","","",""
"","","","","","html-keyboard-response","138","283503","0.0-21.0-2.8","d97e4b04-a8c0-46f3-ab85-5d88f60c6985","null","<p style=""text-align: center;"">+</p>","null","fixation","","","","","","","","","","","","","","","","","","","","","","",""
"","","","","","html-slider-response","139","284505","0.0-21.0-0.9","d97e4b04-a8c0-46f3-ab85-5d88f60c6985","1000","
                  <p style=""text-align: center;"">₪4
                                                <br>25%</p>
                  <p id=""wtp"" style=""text-align:center; margin-top: 0px; margin-bottom: 0px; font-size: 40px"";>&ensp;</p>","-","viewing","0","1","6C,29B,30C","","","","","","","","","","","","","","","","","","","",""
"","","","","","html-slider-response","140","286444","0.0-21.0-1.9","d97e4b04-a8c0-46f3-ab85-5d88f60c6985","1937","
                  <p style=""text-align: center;"">₪4
                                                <br>25%</p>
                  <p id=""wtp"" style=""text-align:center; margin-top: 0px; margin-bottom: 0px; font-size: 40px"";>מוכנים לשלם: <span id=""c_p_y""></span></p>","0","evaluation","33","1","6C,29B,30C","25","4","1","","","","","","","","","","","","","","","","",""
"","","","","","html-keyboard-response","141","287534","0.0-21.0-2.9","d97e4b04-a8c0-46f3-ab85-5d88f60c6985","null","<p style=""text-align: center;"">+</p>","null","fixation","","","","","","","","","","","","","","","","","","","","","","",""
"","","","","","html-slider-response","142","288537","0.0-21.0-0.10","d97e4b04-a8c0-46f3-ab85-5d88f60c6985","1000","
                  <p style=""text-align: center;"">₪61
                                                <br>55%</p>
                  <p id=""wtp"" style=""text-align:center; margin-top: 0px; margin-bottom: 0px; font-size: 40px"";>&ensp;</p>","-","viewing","0","23","7B,26B","","","","","","","","","","","","","","","","","","","",""
"","","","","","html-slider-response","143","290436","0.0-21.0-1.10","d97e4b04-a8c0-46f3-ab85-5d88f60c6985","1897","
                  <p style=""text-align: center;"">₪61
                                                <br>55%</p>
                  <p id=""wtp"" style=""text-align:center; margin-top: 0px; margin-bottom: 0px; font-size: 40px"";>מוכנים לשלם: <span id=""c_p_y""></span></p>","29","evaluation","61","23","7B,26B","55","61","29","","","","","","","","","","","","","","","","",""
"","","","","","html-keyboard-response","144","291055","0.0-21.0-2.10","d97e4b04-a8c0-46f3-ab85-5d88f60c6985","null","<p style=""text-align: center;"">+</p>","null","fixation","","","","","","","","","","","","","","","","","","","","","","",""
"","","","","","html-slider-response","145","292057","0.0-21.0-0.11","d97e4b04-a8c0-46f3-ab85-5d88f60c6985","1000","
                  <p style=""text-align: center;"">₪39
                                                <br>60%</p>
                  <p id=""wtp"" style=""text-align:center; margin-top: 0px; margin-bottom: 0px; font-size: 40px"";>&ensp;</p>","-","viewing","0","15","9C,25B","","","","","","","","","","","","","","","","","","","",""
"","","","","","html-slider-response","146","294660","0.0-21.0-1.11","d97e4b04-a8c0-46f3-ab85-5d88f60c6985","2601","
                  <p style=""text-align: center;"">₪39
                                                <br>60%</p>
                  <p id=""wtp"" style=""text-align:center; margin-top: 0px; margin-bottom: 0px; font-size: 40px"";>מוכנים לשלם: <span id=""c_p_y""></span></p>","14","evaluation","10","15","9C,25B","60","39","14","","","","","","","","","","","","","","","","",""
"","","","","","html-keyboard-response","147","295326","0.0-21.0-2.11","d97e4b04-a8c0-46f3-ab85-5d88f60c6985","null","<p style=""text-align: center;"">+</p>","null","fixation","","","","","","","","","","","","","","","","","","","","","","",""
"","","","","","html-slider-response","148","296338","0.0-21.0-0.12","d97e4b04-a8c0-46f3-ab85-5d88f60c6985","1000","
                  <p style=""text-align: center;"">₪11
                                                <br>20%</p>
                  <p id=""wtp"" style=""text-align:center; margin-top: 0px; margin-bottom: 0px; font-size: 40px"";>&ensp;</p>","-","viewing","0","4","12C,17C,23C,28C","","","","","","","","","","","","","","","","","","","",""
"","","","","","html-slider-response","149","298228","0.0-21.0-1.12","d97e4b04-a8c0-46f3-ab85-5d88f60c6985","1889","
                  <p style=""text-align: center;"">₪11
                                                <br>20%</p>
                  <p id=""wtp"" style=""text-align:center; margin-top: 0px; margin-bottom: 0px; font-size: 40px"";>מוכנים לשלם: <span id=""c_p_y""></span></p>","0","evaluation","39","4","12C,17C,23C,28C","20","11","1","","","","","","","","","","","","","","","","",""
"","","","","","html-keyboard-response","150","299343","0.0-21.0-2.12","d97e4b04-a8c0-46f3-ab85-5d88f60c6985","null","<p style=""text-align: center;"">+</p>","null","fixation","","","","","","","","","","","","","","","","","","","","","","",""
"","","","","","html-slider-response","151","300351","0.0-21.0-0.13","d97e4b04-a8c0-46f3-ab85-5d88f60c6985","1000","
                  <p style=""text-align: center;"">₪58
                                                <br>45%</p>
                  <p id=""wtp"" style=""text-align:center; margin-top: 0px; margin-bottom: 0px; font-size: 40px"";>&ensp;</p>","-","viewing","0","21","11C,18C,25A","","","","","","","","","","","","","","","","","","","",""
"","","","","","html-slider-response","152","304099","0.0-21.0-1.13","d97e4b04-a8c0-46f3-ab85-5d88f60c6985","3748","
                  <p style=""text-align: center;"">₪58
                                                <br>45%</p>
                  <p id=""wtp"" style=""text-align:center; margin-top: 0px; margin-bottom: 0px; font-size: 40px"";>מוכנים לשלם: <span id=""c_p_y""></span></p>","19","evaluation","23","21","11C,18C,25A","45","58","20","","","","","","","","","","","","","","","","",""
"","","","","","html-keyboard-response","153","305043","0.0-21.0-2.13","d97e4b04-a8c0-46f3-ab85-5d88f60c6985","null","<p style=""text-align: center;"">+</p>","null","fixation","","","","","","","","","","","","","","","","","","","","","","",""
"","","","","","html-slider-response","154","306045","0.0-21.0-0.14","d97e4b04-a8c0-46f3-ab85-5d88f60c6985","1000","
                  <p style=""text-align: center;"">₪64
                                                <br>50%</p>
                  <p id=""wtp"" style=""text-align:center; margin-top: 0px; margin-bottom: 0px; font-size: 40px"";>&ensp;</p>","-","viewing","0","25","1B,3B,4A","","","","","","","","","","","","","","","","","","","",""
"","","","","","html-slider-response","155","306867","0.0-21.0-1.14","d97e4b04-a8c0-46f3-ab85-5d88f60c6985","821","
                  <p style=""text-align: center;"">₪64
                                                <br>50%</p>
                  <p id=""wtp"" style=""text-align:center; margin-top: 0px; margin-bottom: 0px; font-size: 40px"";>מוכנים לשלם: <span id=""c_p_y""></span></p>","30","evaluation","20","25","1B,3B,4A","50","64","30","","","","","","","","","","","","","","","","",""
"","","","","","html-keyboard-response","156","307856","0.0-21.0-2.14","d97e4b04-a8c0-46f3-ab85-5d88f60c6985","null","<p style=""text-align: center;"">+</p>","null","fixation","","","","","","","","","","","","","","","","","","","","","","",""
"","","","","","html-slider-response","157","308872","0.0-21.0-0.15","d97e4b04-a8c0-46f3-ab85-5d88f60c6985","1000","
                  <p style=""text-align: center;"">₪64
                                                <br>25%</p>
                  <p id=""wtp"" style=""text-align:center; margin-top: 0px; margin-bottom: 0px; font-size: 40px"";>&ensp;</p>","-","viewing","0","24","6A,21A","","","","","","","","","","","","","","","","","","","",""
"","","","","","html-slider-response","158","310971","0.0-21.0-1.15","d97e4b04-a8c0-46f3-ab85-5d88f60c6985","2098","
                  <p style=""text-align: center;"">₪64
                                                <br>25%</p>
                  <p id=""wtp"" style=""text-align:center; margin-top: 0px; margin-bottom: 0px; font-size: 40px"";>מוכנים לשלם: <span id=""c_p_y""></span></p>","14","evaluation","2","24","6A,21A","25","64","15","","","","","","","","","","","","","","","","",""
"","","","","","html-keyboard-response","159","311963","0.0-21.0-2.15","d97e4b04-a8c0-46f3-ab85-5d88f60c6985","null","<p style=""text-align: center;"">+</p>","null","fixation","","","","","","","","","","","","","","","","","","","","","","",""
"","","","","","html-slider-response","160","312975","0.0-21.0-0.16","d97e4b04-a8c0-46f3-ab85-5d88f60c6985","1000","
                  <p style=""text-align: center;"">₪11
                                                <br>45%</p>
                  <p id=""wtp"" style=""text-align:center; margin-top: 0px; margin-bottom: 0px; font-size: 40px"";>&ensp;</p>","-","viewing","0","6","14B,21C,25C","","","","","","","","","","","","","","","","","","","",""
"","","","","","html-slider-response","161","315012","0.0-21.0-1.16","d97e4b04-a8c0-46f3-ab85-5d88f60c6985","2035","
                  <p style=""text-align: center;"">₪11
                                                <br>45%</p>
                  <p id=""wtp"" style=""text-align:center; margin-top: 0px; margin-bottom: 0px; font-size: 40px"";>מוכנים לשלם: <span id=""c_p_y""></span></p>","4","evaluation","58","6","14B,21C,25C","45","11","5","","","","","","","","","","","","","","","","",""
"","","","","","html-keyboard-response","162","315582","0.0-21.0-2.16","d97e4b04-a8c0-46f3-ab85-5d88f60c6985","null","<p style=""text-align: center;"">+</p>","null","fixation","","","","","","","","","","","","","","","","","","","","","","",""
"","","","","","html-slider-response","163","316587","0.0-21.0-0.17","d97e4b04-a8c0-46f3-ab85-5d88f60c6985","1000","
                  <p style=""text-align: center;"">₪58
                                                <br>30%</p>
                  <p id=""wtp"" style=""text-align:center; margin-top: 0px; margin-bottom: 0px; font-size: 40px"";>&ensp;</p>","-","viewing","0","19","13C,30A","","","","","","","","","","","","","","","","","","","",""
"","","","","","html-slider-response","164","320124","0.0-21.0-1.17","d97e4b04-a8c0-46f3-ab85-5d88f60c6985","3535","
                  <p style=""text-align: center;"">₪58
                                                <br>30%</p>
                  <p id=""wtp"" style=""text-align:center; margin-top: 0px; margin-bottom: 0px; font-size: 40px"";>מוכנים לשלם: <span id=""c_p_y""></span></p>","13","evaluation","77","19","13C,30A","30","58","13","","","","","","","","","","","","","","","","",""
"","","","","","html-keyboard-response","165","320957","0.0-21.0-2.17","d97e4b04-a8c0-46f3-ab85-5d88f60c6985","null","<p style=""text-align: center;"">+</p>","null","fixation","","","","","","","","","","","","","","","","","","","","","","",""
"","","","","","html-slider-response","166","321958","0.0-21.0-0.18","d97e4b04-a8c0-46f3-ab85-5d88f60c6985","1000","
                  <p style=""text-align: center;"">₪43
                                                <br>60%</p>
                  <p id=""wtp"" style=""text-align:center; margin-top: 0px; margin-bottom: 0px; font-size: 40px"";>&ensp;</p>","-","viewing","0","17","2A,7A,9A,15B","","","","","","","","","","","","","","","","","","","",""
"","","","","","html-slider-response","167","323764","0.0-21.0-1.18","d97e4b04-a8c0-46f3-ab85-5d88f60c6985","1805","
                  <p style=""text-align: center;"">₪43
                                                <br>60%</p>
                  <p id=""wtp"" style=""text-align:center; margin-top: 0px; margin-bottom: 0px; font-size: 40px"";>מוכנים לשלם: <span id=""c_p_y""></span></p>","25","evaluation","11","17","2A,7A,9A,15B","60","43","25","","","","","","","","","","","","","","","","",""
"","","","","","html-keyboard-response","168","324948","0.0-21.0-2.18","d97e4b04-a8c0-46f3-ab85-5d88f60c6985","null","<p style=""text-align: center;"">+</p>","null","fixation","","","","","","","","","","","","","","","","","","","","","","",""
"","","","","","html-slider-response","169","325951","0.0-21.0-0.19","d97e4b04-a8c0-46f3-ab85-5d88f60c6985","1000","
                  <p style=""text-align: center;"">₪43
                                                <br>75%</p>
                  <p id=""wtp"" style=""text-align:center; margin-top: 0px; margin-bottom: 0px; font-size: 40px"";>&ensp;</p>","-","viewing","0","18","11B,19B,24A,26A","","","","","","","","","","","","","","","","","","","",""
"","","","","","html-slider-response","170","329907","0.0-21.0-1.19","d97e4b04-a8c0-46f3-ab85-5d88f60c6985","3954","
                  <p style=""text-align: center;"">₪43
                                                <br>75%</p>
                  <p id=""wtp"" style=""text-align:center; margin-top: 0px; margin-bottom: 0px; font-size: 40px"";>מוכנים לשלם: <span id=""c_p_y""></span></p>","20","evaluation","43","18","11B,19B,24A,26A","75","43","21","","","","","","","","","","","","","","","","",""
"","","","","","html-keyboard-response","171","330550","0.0-21.0-2.19","d97e4b04-a8c0-46f3-ab85-5d88f60c6985","null","<p style=""text-align: center;"">+</p>","null","fixation","","","","","","","","","","","","","","","","","","","","","","",""
"","","","","","html-slider-response","172","331566","0.0-21.0-0.20","d97e4b04-a8c0-46f3-ab85-5d88f60c6985","1000","
                  <p style=""text-align: center;"">₪36
                                                <br>70%</p>
                  <p id=""wtp"" style=""text-align:center; margin-top: 0px; margin-bottom: 0px; font-size: 40px"";>&ensp;</p>","-","viewing","0","13","3A,5C,10B","","","","","","","","","","","","","","","","","","","",""
"","","","","","html-slider-response","173","334028","0.0-21.0-1.20","d97e4b04-a8c0-46f3-ab85-5d88f60c6985","2460","
                  <p style=""text-align: center;"">₪36
                                                <br>70%</p>
                  <p id=""wtp"" style=""text-align:center; margin-top: 0px; margin-bottom: 0px; font-size: 40px"";>מוכנים לשלם: <span id=""c_p_y""></span></p>","24","evaluation","55","13","3A,5C,10B","70","36","25","","","","","","","","","","","","","","","","",""
"","","","","","html-keyboard-response","174","334708","0.0-21.0-2.20","d97e4b04-a8c0-46f3-ab85-5d88f60c6985","null","<p style=""text-align: center;"">+</p>","null","fixation","","","","","","","","","","","","","","","","","","","","","","",""
"","","","","","html-slider-response","175","335714","0.0-21.0-0.21","d97e4b04-a8c0-46f3-ab85-5d88f60c6985","1000","
                  <p style=""text-align: center;"">₪11
                                                <br>25%</p>
                  <p id=""wtp"" style=""text-align:center; margin-top: 0px; margin-bottom: 0px; font-size: 40px"";>&ensp;</p>","-","viewing","0","5","12A,27B,28B,30B","","","","","","","","","","","","","","","","","","","",""
"","","","","","html-slider-response","176","336932","0.0-21.0-1.21","d97e4b04-a8c0-46f3-ab85-5d88f60c6985","1217","
                  <p style=""text-align: center;"">₪11
                                                <br>25%</p>
                  <p id=""wtp"" style=""text-align:center; margin-top: 0px; margin-bottom: 0px; font-size: 40px"";>מוכנים לשלם: <span id=""c_p_y""></span></p>","5","evaluation","33","5","12A,27B,28B,30B","25","11","6","","","","","","","","","","","","","","","","",""
"","","","","","html-keyboard-response","177","337949","0.0-21.0-2.21","d97e4b04-a8c0-46f3-ab85-5d88f60c6985","null","<p style=""text-align: center;"">+</p>","null","fixation","","","","","","","","","","","","","","","","","","","","","","",""
"","","","","","html-slider-response","178","338960","0.0-21.0-0.22","d97e4b04-a8c0-46f3-ab85-5d88f60c6985","1000","
                  <p style=""text-align: center;"">₪79
                                                <br>40%</p>
                  <p id=""wtp"" style=""text-align:center; margin-top: 0px; margin-bottom: 0px; font-size: 40px"";>&ensp;</p>","-","viewing","0","30","9B","","","","","","","","","","","","","","","","","","","",""
"","","","","","html-slider-response","179","341244","0.0-21.0-1.22","d97e4b04-a8c0-46f3-ab85-5d88f60c6985","2283","
                  <p style=""text-align: center;"">₪79
                                                <br>40%</p>
                  <p id=""wtp"" style=""text-align:center; margin-top: 0px; margin-bottom: 0px; font-size: 40px"";>מוכנים לשלם: <span id=""c_p_y""></span></p>","24","evaluation","20","30","9B","40","79","25","","","","","","","","","","","","","","","","",""
"","","","","","html-keyboard-response","180","341805","0.0-21.0-2.22","d97e4b04-a8c0-46f3-ab85-5d88f60c6985","null","<p style=""text-align: center;"">+</p>","null","fixation","","","","","","","","","","","","","","","","","","","","","","",""
"","","","","","html-slider-response","181","342807","0.0-21.0-0.23","d97e4b04-a8c0-46f3-ab85-5d88f60c6985","1000","
                  <p style=""text-align: center;"">₪18
                                                <br>25%</p>
                  <p id=""wtp"" style=""text-align:center; margin-top: 0px; margin-bottom: 0px; font-size: 40px"";>&ensp;</p>","-","viewing","0","9","14A,23A","","","","","","","","","","","","","","","","","","","",""
"","","","","","html-slider-response","182","344267","0.0-21.0-1.23","d97e4b04-a8c0-46f3-ab85-5d88f60c6985","1459","
                  <p style=""text-align: center;"">₪18
                                                <br>25%</p>
                  <p id=""wtp"" style=""text-align:center; margin-top: 0px; margin-bottom: 0px; font-size: 40px"";>מוכנים לשלם: <span id=""c_p_y""></span></p>","8","evaluation","78","9","14A,23A","25","18","8","","","","","","","","","","","","","","","","",""
"","","","","","html-keyboard-response","183","345081","0.0-21.0-2.23","d97e4b04-a8c0-46f3-ab85-5d88f60c6985","null","<p style=""text-align: center;"">+</p>","null","fixation","","","","","","","","","","","","","","","","","","","","","","",""
"","","","","","html-slider-response","184","346083","0.0-21.0-0.24","d97e4b04-a8c0-46f3-ab85-5d88f60c6985","1000","
                  <p style=""text-align: center;"">₪11
                                                <br>75%</p>
                  <p id=""wtp"" style=""text-align:center; margin-top: 0px; margin-bottom: 0px; font-size: 40px"";>&ensp;</p>","-","viewing","0","7","6B,18B,22C,24C,29A","","","","","","","","","","","","","","","","","","","",""
"","","","","","html-slider-response","185","347364","0.0-21.0-1.24","d97e4b04-a8c0-46f3-ab85-5d88f60c6985","1281","
                  <p style=""text-align: center;"">₪11
                                                <br>75%</p>
                  <p id=""wtp"" style=""text-align:center; margin-top: 0px; margin-bottom: 0px; font-size: 40px"";>מוכנים לשלם: <span id=""c_p_y""></span></p>","4","evaluation","27","7","6B,18B,22C,24C,29A","75","11","5","","","","","","","","","","","","","","","","",""
"","","","","","html-keyboard-response","186","347880","0.0-21.0-2.24","d97e4b04-a8c0-46f3-ab85-5d88f60c6985","null","<p style=""text-align: center;"">+</p>","null","fixation","","","","","","","","","","","","","","","","","","","","","","",""
"","","","","","html-slider-response","187","348883","0.0-21.0-0.25","d97e4b04-a8c0-46f3-ab85-5d88f60c6985","1000","
                  <p style=""text-align: center;"">₪61
                                                <br>45%</p>
                  <p id=""wtp"" style=""text-align:center; margin-top: 0px; margin-bottom: 0px; font-size: 40px"";>&ensp;</p>","-","viewing","0","22","10A,11A","","","","","","","","","","","","","","","","","","","",""
"","","","","","html-slider-response","188","352659","0.0-21.0-1.25","d97e4b04-a8c0-46f3-ab85-5d88f60c6985","3775","
                  <p style=""text-align: center;"">₪61
                                                <br>45%</p>
                  <p id=""wtp"" style=""text-align:center; margin-top: 0px; margin-bottom: 0px; font-size: 40px"";>מוכנים לשלם: <span id=""c_p_y""></span></p>","21","evaluation","75","22","10A,11A","45","61","22","","","","","","","","","","","","","","","","",""
"","","","","","html-keyboard-response","189","353899","0.0-21.0-2.25","d97e4b04-a8c0-46f3-ab85-5d88f60c6985","null","<p style=""text-align: center;"">+</p>","null","fixation","","","","","","","","","","","","","","","","","","","","","","",""
"","","","","","html-slider-response","190","354915","0.0-21.0-0.26","d97e4b04-a8c0-46f3-ab85-5d88f60c6985","1000","
                  <p style=""text-align: center;"">₪36
                                                <br>60%</p>
                  <p id=""wtp"" style=""text-align:center; margin-top: 0px; margin-bottom: 0px; font-size: 40px"";>&ensp;</p>","-","viewing","0","12","1C,7C,15C","","","","","","","","","","","","","","","","","","","",""
"","","","","","html-slider-response","191","357468","0.0-21.0-1.26","d97e4b04-a8c0-46f3-ab85-5d88f60c6985","2552","
                  <p style=""text-align: center;"">₪36
                                                <br>60%</p>
                  <p id=""wtp"" style=""text-align:center; margin-top: 0px; margin-bottom: 0px; font-size: 40px"";>מוכנים לשלם: <span id=""c_p_y""></span></p>","12","evaluation","44","12","1C,7C,15C","60","36","12","","","","","","","","","","","","","","","","",""
"","","","","","html-keyboard-response","192","358469","0.0-21.0-2.26","d97e4b04-a8c0-46f3-ab85-5d88f60c6985","null","<p style=""text-align: center;"">+</p>","null","fixation","","","","","","","","","","","","","","","","","","","","","","",""
"","","","","","html-slider-response","193","359472","0.0-21.0-0.27","d97e4b04-a8c0-46f3-ab85-5d88f60c6985","1000","
                  <p style=""text-align: center;"">₪76
                                                <br>65%</p>
                  <p id=""wtp"" style=""text-align:center; margin-top: 0px; margin-bottom: 0px; font-size: 40px"";>&ensp;</p>","-","viewing","0","29","8C,19A,24B","","","","","","","","","","","","","","","","","","","",""
"","","","","","html-slider-response","194","361636","0.0-21.0-1.27","d97e4b04-a8c0-46f3-ab85-5d88f60c6985","2162","
                  <p style=""text-align: center;"">₪76
                                                <br>65%</p>
                  <p id=""wtp"" style=""text-align:center; margin-top: 0px; margin-bottom: 0px; font-size: 40px"";>מוכנים לשלם: <span id=""c_p_y""></span></p>","40","evaluation","30","29","8C,19A,24B","65","76","40","","","","","","","","","","","","","","","","",""
"","","","","","html-keyboard-response","195","362694","0.0-21.0-2.27","d97e4b04-a8c0-46f3-ab85-5d88f60c6985","null","<p style=""text-align: center;"">+</p>","null","fixation","","","","","","","","","","","","","","","","","","","","","","",""
"","","","","","html-slider-response","196","363703","0.0-21.0-0.28","d97e4b04-a8c0-46f3-ab85-5d88f60c6985","1000","
                  <p style=""text-align: center;"">₪4
                                                <br>50%</p>
                  <p id=""wtp"" style=""text-align:center; margin-top: 0px; margin-bottom: 0px; font-size: 40px"";>&ensp;</p>","-","viewing","0","2","4C,17B","","","","","","","","","","","","","","","","","","","",""
"","","","","","html-slider-response","197","365700","0.0-21.0-1.28","d97e4b04-a8c0-46f3-ab85-5d88f60c6985","1997","
                  <p style=""text-align: center;"">₪4
                                                <br>50%</p>
                  <p id=""wtp"" style=""text-align:center; margin-top: 0px; margin-bottom: 0px; font-size: 40px"";>מוכנים לשלם: <span id=""c_p_y""></span></p>","1","evaluation","55","2","4C,17B","50","4","2","","","","","","","","","","","","","","","","",""
"","","","","","html-keyboard-response","198","366283","0.0-21.0-2.28","d97e4b04-a8c0-46f3-ab85-5d88f60c6985","null","<p style=""text-align: center;"">+</p>","null","fixation","","","","","","","","","","","","","","","","","","","","","","",""
"","","","","","html-slider-response","199","367285","0.0-21.0-0.29","d97e4b04-a8c0-46f3-ab85-5d88f60c6985","1000","
                  <p style=""text-align: center;"">₪39
                                                <br>65%</p>
                  <p id=""wtp"" style=""text-align:center; margin-top: 0px; margin-bottom: 0px; font-size: 40px"";>&ensp;</p>","-","viewing","0","16","1A,15A,26C","","","","","","","","","","","","","","","","","","","",""
"","","","","","html-slider-response","200","368420","0.0-21.0-1.29","d97e4b04-a8c0-46f3-ab85-5d88f60c6985","1133","
                  <p style=""text-align: center;"">₪39
                                                <br>65%</p>
                  <p id=""wtp"" style=""text-align:center; margin-top: 0px; margin-bottom: 0px; font-size: 40px"";>מוכנים לשלם: <span id=""c_p_y""></span></p>","15","evaluation","4","16","1A,15A,26C","65","39","15","","","","","","","","","","","","","","","","",""
"","","","","","html-keyboard-response","201","369455","0.0-21.0-2.29","d97e4b04-a8c0-46f3-ab85-5d88f60c6985","null","<p style=""text-align: center;"">+</p>","null","fixation","","","","","","","","","","","","","","","","","","","","","","",""
"","","","","","html-slider-response","202","370471","0.0-21.0-0.30","d97e4b04-a8c0-46f3-ab85-5d88f60c6985","1000","
                  <p style=""text-align: center;"">₪16
                                                <br>20%</p>
                  <p id=""wtp"" style=""text-align:center; margin-top: 0px; margin-bottom: 0px; font-size: 40px"";>&ensp;</p>","-","viewing","0","8","14C,17A,20C,27A","","","","","","","","","","","","","","","","","","","",""
"","","","","","html-slider-response","203","372212","0.0-21.0-1.30","d97e4b04-a8c0-46f3-ab85-5d88f60c6985","1739","
                  <p style=""text-align: center;"">₪16
                                                <br>20%</p>
                  <p id=""wtp"" style=""text-align:center; margin-top: 0px; margin-bottom: 0px; font-size: 40px"";>מוכנים לשלם: <span id=""c_p_y""></span></p>","6","evaluation","27","8","14C,17A,20C,27A","20","16","6","","","","","","","","","","","","","","","","",""
"","","","","","html-keyboard-response","204","373660","0.0-21.0-2.30","d97e4b04-a8c0-46f3-ab85-5d88f60c6985","null","<p style=""text-align: center;"">+</p>","null","fixation","","","","","","","","","","","","","","","","","","","","","","",""
"","","","","","html-keyboard-response","205","374661","0.0-22.0","d97e4b04-a8c0-46f3-ab85-5d88f60c6985","null","<p style=""text-align: center;"">+</p>","null","fixation","","","","","","","","","","","","","","","","","","","","","","",""
"","","","","","html-keyboard-response","206","375716","0.0-23.0","d97e4b04-a8c0-46f3-ab85-5d88f60c6985","null","<p>הפסקה.
          <br>לחצו כדי להמשיך.</p>","1","scan_wait","","","","","","","","","","","","","","","","","","","","","","",""
"","","","","","html-keyboard-response","207","376721","0.0-24.0","d97e4b04-a8c0-46f3-ab85-5d88f60c6985","null","<p style=""text-align: center;"">+</p>","null","fixation","","","","","","","","","","","","","","","","","","","","","","",""
"","","","","","html-slider-response","208","377724","0.0-25.0-0.0","d97e4b04-a8c0-46f3-ab85-5d88f60c6985","1000","
                  <p style=""text-align: center;"">₪79
                                                <br>40%</p>
                  <p id=""wtp"" style=""text-align:center; margin-top: 0px; margin-bottom: 0px; font-size: 40px"";>&ensp;</p>","-","viewing","0","30","9B","","","","","","","","","","","","","","","","","","","",""
"","","","","","html-slider-response","209","380772","0.0-25.0-1.0","d97e4b04-a8c0-46f3-ab85-5d88f60c6985","3047","
                  <p style=""text-align: center;"">₪79
                                                <br>40%</p>
                  <p id=""wtp"" style=""text-align:center; margin-top: 0px; margin-bottom: 0px; font-size: 40px"";>מוכנים לשלם: <span id=""c_p_y""></span></p>","31","evaluation","59","30","9B","40","79","32","","","","","","","","","","","","","","","","",""
"","","","","","html-keyboard-response","210","382135","0.0-25.0-2.0","d97e4b04-a8c0-46f3-ab85-5d88f60c6985","null","<p style=""text-align: center;"">+</p>","null","fixation","","","","","","","","","","","","","","","","","","","","","","",""
"","","","","","html-slider-response","211","383145","0.0-25.0-0.1","d97e4b04-a8c0-46f3-ab85-5d88f60c6985","1000","
                  <p style=""text-align: center;"">₪39
                                                <br>65%</p>
                  <p id=""wtp"" style=""text-align:center; margin-top: 0px; margin-bottom: 0px; font-size: 40px"";>&ensp;</p>","-","viewing","0","16","1A,15A,26C","","","","","","","","","","","","","","","","","","","",""
"","","","","","html-slider-response","212","384476","0.0-25.0-1.1","d97e4b04-a8c0-46f3-ab85-5d88f60c6985","1329","
                  <p style=""text-align: center;"">₪39
                                                <br>65%</p>
                  <p id=""wtp"" style=""text-align:center; margin-top: 0px; margin-bottom: 0px; font-size: 40px"";>מוכנים לשלם: <span id=""c_p_y""></span></p>","14","evaluation","11","16","1A,15A,26C","65","39","15","","","","","","","","","","","","","","","","",""
"","","","","","html-keyboard-response","213","385074","0.0-25.0-2.1","d97e4b04-a8c0-46f3-ab85-5d88f60c6985","null","<p style=""text-align: center;"">+</p>","null","fixation","","","","","","","","","","","","","","","","","","","","","","",""
"","","","","","html-slider-response","214","386076","0.0-25.0-0.2","d97e4b04-a8c0-46f3-ab85-5d88f60c6985","1000","
                  <p style=""text-align: center;"">₪43
                                                <br>75%</p>
                  <p id=""wtp"" style=""text-align:center; margin-top: 0px; margin-bottom: 0px; font-size: 40px"";>&ensp;</p>","-","viewing","0","18","11B,19B,24A,26A","","","","","","","","","","","","","","","","","","","",""
"","","","","","html-slider-response","215","388172","0.0-25.0-1.2","d97e4b04-a8c0-46f3-ab85-5d88f60c6985","2095","
                  <p style=""text-align: center;"">₪43
                                                <br>75%</p>
                  <p id=""wtp"" style=""text-align:center; margin-top: 0px; margin-bottom: 0px; font-size: 40px"";>מוכנים לשלם: <span id=""c_p_y""></span></p>","19","evaluation","78","18","11B,19B,24A,26A","75","43","20","","","","","","","","","","","","","","","","",""
"","","","","","html-keyboard-response","216","389023","0.0-25.0-2.2","d97e4b04-a8c0-46f3-ab85-5d88f60c6985","null","<p style=""text-align: center;"">+</p>","null","fixation","","","","","","","","","","","","","","","","","","","","","","",""
"","","","","","html-slider-response","217","390039","0.0-25.0-0.3","d97e4b04-a8c0-46f3-ab85-5d88f60c6985","1000","
                  <p style=""text-align: center;"">₪16
                                                <br>20%</p>
                  <p id=""wtp"" style=""text-align:center; margin-top: 0px; margin-bottom: 0px; font-size: 40px"";>&ensp;</p>","-","viewing","0","8","14C,17A,20C,27A","","","","","","","","","","","","","","","","","","","",""
"","","","","","html-slider-response","218","391308","0.0-25.0-1.3","d97e4b04-a8c0-46f3-ab85-5d88f60c6985","1268","
                  <p style=""text-align: center;"">₪16
                                                <br>20%</p>
                  <p id=""wtp"" style=""text-align:center; margin-top: 0px; margin-bottom: 0px; font-size: 40px"";>מוכנים לשלם: <span id=""c_p_y""></span></p>","7","evaluation","75","8","14C,17A,20C,27A","20","16","8","","","","","","","","","","","","","","","","",""
"","","","","","html-keyboard-response","219","392257","0.0-25.0-2.3","d97e4b04-a8c0-46f3-ab85-5d88f60c6985","null","<p style=""text-align: center;"">+</p>","null","fixation","","","","","","","","","","","","","","","","","","","","","","",""
"","","","","","html-slider-response","220","393259","0.0-25.0-0.4","d97e4b04-a8c0-46f3-ab85-5d88f60c6985","1000","
                  <p style=""text-align: center;"">₪71
                                                <br>45%</p>
                  <p id=""wtp"" style=""text-align:center; margin-top: 0px; margin-bottom: 0px; font-size: 40px"";>&ensp;</p>","-","viewing","0","26","2B,16A","","","","","","","","","","","","","","","","","","","",""
"","","","","","html-slider-response","221","395324","0.0-25.0-1.4","d97e4b04-a8c0-46f3-ab85-5d88f60c6985","2064","
                  <p style=""text-align: center;"">₪71
                                                <br>45%</p>
                  <p id=""wtp"" style=""text-align:center; margin-top: 0px; margin-bottom: 0px; font-size: 40px"";>מוכנים לשלם: <span id=""c_p_y""></span></p>","33","evaluation","46","26","2B,16A","45","71","33","","","","","","","","","","","","","","","","",""
"","","","","","html-keyboard-response","222","395889","0.0-25.0-2.4","d97e4b04-a8c0-46f3-ab85-5d88f60c6985","null","<p style=""text-align: center;"">+</p>","null","fixation","","","","","","","","","","","","","","","","","","","","","","",""
"","","","","","html-slider-response","223","396891","0.0-25.0-0.5","d97e4b04-a8c0-46f3-ab85-5d88f60c6985","1000","
                  <p style=""text-align: center;"">₪79
                                                <br>65%</p>
                  <p id=""wtp"" style=""text-align:center; margin-top: 0px; margin-bottom: 0px; font-size: 40px"";>&ensp;</p>","-","viewing","0","31","8A","","","","","","","","","","","","","","","","","","","",""
"","","","","","html-slider-response","224","398604","0.0-25.0-1.5","d97e4b04-a8c0-46f3-ab85-5d88f60c6985","1712","
                  <p style=""text-align: center;"">₪79
                                                <br>65%</p>
                  <p id=""wtp"" style=""text-align:center; margin-top: 0px; margin-bottom: 0px; font-size: 40px"";>מוכנים לשלם: <span id=""c_p_y""></span></p>","40","evaluation","12","31","8A","65","79","40","","","","","","","","","","","","","","","","",""
"","","","","","html-keyboard-response","225","399935","0.0-25.0-2.5","d97e4b04-a8c0-46f3-ab85-5d88f60c6985","null","<p style=""text-align: center;"">+</p>","null","fixation","","","","","","","","","","","","","","","","","","","","","","",""
"","","","","","html-slider-response","226","400937","0.0-25.0-0.6","d97e4b04-a8c0-46f3-ab85-5d88f60c6985","1000","
                  <p style=""text-align: center;"">₪11
                                                <br>75%</p>
                  <p id=""wtp"" style=""text-align:center; margin-top: 0px; margin-bottom: 0px; font-size: 40px"";>&ensp;</p>","-","viewing","0","7","6B,18B,22C,24C,29A","","","","","","","","","","","","","","","","","","","",""
"","","","","","html-slider-response","227","403692","0.0-25.0-1.6","d97e4b04-a8c0-46f3-ab85-5d88f60c6985","2754","
                  <p style=""text-align: center;"">₪11
                                                <br>75%</p>
                  <p id=""wtp"" style=""text-align:center; margin-top: 0px; margin-bottom: 0px; font-size: 40px"";>מוכנים לשלם: <span id=""c_p_y""></span></p>","6","evaluation","42","7","6B,18B,22C,24C,29A","75","11","6","","","","","","","","","","","","","","","","",""
"","","","","","html-keyboard-response","228","404916","0.0-25.0-2.6","d97e4b04-a8c0-46f3-ab85-5d88f60c6985","null","<p style=""text-align: center;"">+</p>","null","fixation","","","","","","","","","","","","","","","","","","","","","","",""
"","","","","","html-slider-response","229","405917","0.0-25.0-0.7","d97e4b04-a8c0-46f3-ab85-5d88f60c6985","1000","
                  <p style=""text-align: center;"">₪58
                                                <br>40%</p>
                  <p id=""wtp"" style=""text-align:center; margin-top: 0px; margin-bottom: 0px; font-size: 40px"";>&ensp;</p>","-","viewing","0","20","10C,13A,19C,21B","","","","","","","","","","","","","","","","","","","",""
"","","","","","html-slider-response","230","408892","0.0-25.0-1.7","d97e4b04-a8c0-46f3-ab85-5d88f60c6985","2973","
                  <p style=""text-align: center;"">₪58
                                                <br>40%</p>
                  <p id=""wtp"" style=""text-align:center; margin-top: 0px; margin-bottom: 0px; font-size: 40px"";>מוכנים לשלם: <span id=""c_p_y""></span></p>","22","evaluation","5","20","10C,13A,19C,21B","40","58","23","","","","","","","","","","","","","","","","",""
"","","","","","html-keyboard-response","231","410224","0.0-25.0-2.7","d97e4b04-a8c0-46f3-ab85-5d88f60c6985","null","<p style=""text-align: center;"">+</p>","null","fixation","","","","","","","","","","","","","","","","","","","","","","",""
"","","","","","html-slider-response","232","411239","0.0-25.0-0.8","d97e4b04-a8c0-46f3-ab85-5d88f60c6985","1000","
                  <p style=""text-align: center;"">₪36
                                                <br>30%</p>
                  <p id=""wtp"" style=""text-align:center; margin-top: 0px; margin-bottom: 0px; font-size: 40px"";>&ensp;</p>","-","viewing","0","11","3C,20A,22A","","","","","","","","","","","","","","","","","","","",""
"","","","","","html-slider-response","233","415251","0.0-25.0-1.8","d97e4b04-a8c0-46f3-ab85-5d88f60c6985","null","
                  <p style=""text-align: center;"">₪36
                                                <br>30%</p>
                  <p id=""wtp"" style=""text-align:center; margin-top: 0px; margin-bottom: 0px; font-size: 40px"";>מוכנים לשלם: <span id=""c_p_y""></span></p>","null","evaluation","64","11","3C,20A,22A","30","36","11","","","","","","","","","","","","","","","","",""
"","","","","","html-keyboard-response","234","416650","0.0-25.0-2.8","d97e4b04-a8c0-46f3-ab85-5d88f60c6985","null","<p style=""text-align: center;"">+</p>","null","fixation","","","","","","","","","","","","","","","","","","","","","","",""
"","","","","","html-slider-response","235","417652","0.0-25.0-0.9","d97e4b04-a8c0-46f3-ab85-5d88f60c6985","1000","
                  <p style=""text-align: center;"">₪18
                                                <br>50%</p>
                  <p id=""wtp"" style=""text-align:center; margin-top: 0px; margin-bottom: 0px; font-size: 40px"";>&ensp;</p>","-","viewing","0","10","2C,16C,22B,28A","","","","","","","","","","","","","","","","","","","",""
"","","","","","html-slider-response","236","420276","0.0-25.0-1.9","d97e4b04-a8c0-46f3-ab85-5d88f60c6985","2622","
                  <p style=""text-align: center;"">₪18
                                                <br>50%</p>
                  <p id=""wtp"" style=""text-align:center; margin-top: 0px; margin-bottom: 0px; font-size: 40px"";>מוכנים לשלם: <span id=""c_p_y""></span></p>","6","evaluation","80","10","2C,16C,22B,28A","50","18","7","","","","","","","","","","","","","","","","",""
"","","","","","html-keyboard-response","237","421098","0.0-25.0-2.9","d97e4b04-a8c0-46f3-ab85-5d88f60c6985","null","<p style=""text-align: center;"">+</p>","null","fixation","","","","","","","","","","","","","","","","","","","","","","",""
"","","","","","html-slider-response","238","422099","0.0-25.0-0.10","d97e4b04-a8c0-46f3-ab85-5d88f60c6985","1000","
                  <p style=""text-align: center;"">₪11
                                                <br>45%</p>
                  <p id=""wtp"" style=""text-align:center; margin-top: 0px; margin-bottom: 0px; font-size: 40px"";>&ensp;</p>","-","viewing","0","6","14B,21C,25C","","","","","","","","","","","","","","","","","","","",""
"","","","","","html-slider-response","239","423732","0.0-25.0-1.10","d97e4b04-a8c0-46f3-ab85-5d88f60c6985","1631","
                  <p style=""text-align: center;"">₪11
                                                <br>45%</p>
                  <p id=""wtp"" style=""text-align:center; margin-top: 0px; margin-bottom: 0px; font-size: 40px"";>מוכנים לשלם: <span id=""c_p_y""></span></p>","2","evaluation","14","6","14B,21C,25C","45","11","3","","","","","","","","","","","","","","","","",""
"","","","","","html-keyboard-response","240","424590","0.0-25.0-2.10","d97e4b04-a8c0-46f3-ab85-5d88f60c6985","null","<p style=""text-align: center;"">+</p>","null","fixation","","","","","","","","","","","","","","","","","","","","","","",""
"","","","","","html-slider-response","241","425592","0.0-25.0-0.11","d97e4b04-a8c0-46f3-ab85-5d88f60c6985","1000","
                  <p style=""text-align: center;"">₪43
                                                <br>60%</p>
                  <p id=""wtp"" style=""text-align:center; margin-top: 0px; margin-bottom: 0px; font-size: 40px"";>&ensp;</p>","-","viewing","0","17","2A,7A,9A,15B","","","","","","","","","","","","","","","","","","","",""
"","","","","","html-slider-response","242","428164","0.0-25.0-1.11","d97e4b04-a8c0-46f3-ab85-5d88f60c6985","2571","
                  <p style=""text-align: center;"">₪43
                                                <br>60%</p>
                  <p id=""wtp"" style=""text-align:center; margin-top: 0px; margin-bottom: 0px; font-size: 40px"";>מוכנים לשלם: <span id=""c_p_y""></span></p>","20","evaluation","2","17","2A,7A,9A,15B","60","43","20","","","","","","","","","","","","","","","","",""
"","","","","","html-keyboard-response","243","428784","0.0-25.0-2.11","d97e4b04-a8c0-46f3-ab85-5d88f60c6985","null","<p style=""text-align: center;"">+</p>","null","fixation","","","","","","","","","","","","","","","","","","","","","","",""
"","","","","","html-slider-response","244","429790","0.0-25.0-0.12","d97e4b04-a8c0-46f3-ab85-5d88f60c6985","1000","
                  <p style=""text-align: center;"">₪71
                                                <br>55%</p>
                  <p id=""wtp"" style=""text-align:center; margin-top: 0px; margin-bottom: 0px; font-size: 40px"";>&ensp;</p>","-","viewing","0","27","5B,18A","","","","","","","","","","","","","","","","","","","",""
"","","","","","html-slider-response","245","432212","0.0-25.0-1.12","d97e4b04-a8c0-46f3-ab85-5d88f60c6985","2420","
                  <p style=""text-align: center;"">₪71
                                                <br>55%</p>
                  <p id=""wtp"" style=""text-align:center; margin-top: 0px; margin-bottom: 0px; font-size: 40px"";>מוכנים לשלם: <span id=""c_p_y""></span></p>","35","evaluation","59","27","5B,18A","55","71","35","","","","","","","","","","","","","","","","",""
"","","","","","html-keyboard-response","246","432915","0.0-25.0-2.12","d97e4b04-a8c0-46f3-ab85-5d88f60c6985","null","<p style=""text-align: center;"">+</p>","null","fixation","","","","","","","","","","","","","","","","","","","","","","",""
"","","","","","html-slider-response","247","433918","0.0-25.0-0.13","d97e4b04-a8c0-46f3-ab85-5d88f60c6985","1000","
                  <p style=""text-align: center;"">₪36
                                                <br>60%</p>
                  <p id=""wtp"" style=""text-align:center; margin-top: 0px; margin-bottom: 0px; font-size: 40px"";>&ensp;</p>","-","viewing","0","12","1C,7C,15C","","","","","","","","","","","","","","","","","","","",""
"","","","","","html-slider-response","248","435292","0.0-25.0-1.13","d97e4b04-a8c0-46f3-ab85-5d88f60c6985","1374","
                  <p style=""text-align: center;"">₪36
                                                <br>60%</p>
                  <p id=""wtp"" style=""text-align:center; margin-top: 0px; margin-bottom: 0px; font-size: 40px"";>מוכנים לשלם: <span id=""c_p_y""></span></p>","17","evaluation","19","12","1C,7C,15C","60","36","17","","","","","","","","","","","","","","","","",""
