"success","timeout","failed_images","failed_audio","failed_video","trial_type","trial_index","time_elapsed","internal_node_id","subject_id","rt","stimulus","response","part","slider_start","ID","set_ID","prob","amount","last_location","actual_choice","actual_EV","binary_id","trinary_id","catch","A_key","D_key","choice_prob","choice_amount","chosen_part","potential_prize_prob","potential_prize_amount","won_prize","total_prize","prize_cost","remaining_budget","accuracy"
"true","false","[]","[]","[]","preload","0","23","0.0-0.0","c42bb243-6020-44ac-9451-f937e428ec02","","","","","","","","","","","","","","","","","","","","","","","","","","",""
"","","","","","html-keyboard-response","1","1022266","0.0-1.0","c42bb243-6020-44ac-9451-f937e428ec02","null","
          <h1>שלום וברוכים הבאים!</h1>
          <p>לפניכם ניסוי בקבלת החלטות עם שני חלקים.
          <br><br>לחצו על העכבר כדי להמשיך.</p>","0","example","","","","","","","","","","","","","","","","","","","","","","",""
"","","","","","html-keyboard-response","2","1032161","0.0-2.0","c42bb243-6020-44ac-9451-f937e428ec02","null","
        <h1>חלק 1</h1>
        <p>בקרוב יוצגו בפניכם הגרלות.
        <br>עליכם לבחור את המחיר המירבי שתהיו מוכנים לשלם כדי להשתתף בהגרלה שתוצג.
        <br>יש לכם תקציב של ₪80 לכל הגרלה. 
        <br>נסו להעריך כל הגרלה בנפרד ולחשוב כמה היא שווה עבורכם, ₪80 זמינים לכל הגרלה בנפרד.
        <br><br>לחצו על העכבר כדי להמשיך.</p>","1","instructions","","","","","","","","","","","","","","","","","","","","","","",""
"","","","","","html-keyboard-response","3","1040585","0.0-3.0","c42bb243-6020-44ac-9451-f937e428ec02","null","
        <p>בסוף הניסוי, המחשב יבחר את אחת ההגרלות ויקבע מחיר לכרטיס עבורה. 
        <br>במידה והמחיר שבחרתם נמוך מהמחיר שנבחר על ידי המחשב, לא תשתתפו בהגרלה ותשארו עם מלוא התקציב.
        <br>במידה והמחיר שבחרתם גבוה מהמחיר שנבחר על ידי המחשב, תשלמו את המחיר שנקבע ותשתתפו בהגרלה.
        <br><br>לחצו על העכבר כדי להמשיך.</p>","1","instructions","","","","","","","","","","","","","","","","","","","","","","",""
"","","","","","html-slider-response","4","1053185","0.0-4.0","c42bb243-6020-44ac-9451-f937e428ec02","12492","
        <p style=""font-size: 42px;"">נתחיל עם דוגמא: 
        <br>ההגרלה מטה מציעה 65% סיכוי לזכות ב-₪40 
        <br>&emsp;&emsp;&emsp;&emsp;&emsp;&emsp;&emsp;&emsp;&ensp;35% סיכוי לזכות ב-₪0.
        <br><br>מה המחיר המירבי שתהיו מוכנים לשלם על כרטיס להגרלה זו בין 0 ל-₪80?
        <br>הזיזו את העכבר על פני המלבן ולחצו כדי לבצע בחירה.</p>
        
        <p style=""text-align: center;"">₪40<br>65%</p>

        <p id=""wtp"" style=""text-align:center; margin-top: 0px; margin-bottom: 0px; font-size: 40px"";>מוכנים לשלם: <span id=""c_p_y""></span></p>","25","example","62","","","","","","","","","","","","","","","","","","","","","",""
"","","","","","html-keyboard-response","5","1062809","0.0-5.0","c42bb243-6020-44ac-9451-f937e428ec02","null","<p>יפה מאוד!
                <br> בחרתם שתהיו מוכנים לשלם ₪25 כדי להשתתף בהגרלה:
                <br><p style=""text-align: center;"">₪40<br>65%</p>
                <p>נשמע נכון?
                <br>נניח שהגרלה זו נבחרה בסוף הניסוי.
                <br>כעת המחשב יקבע מחיר עבורה באקראי.
                <br>לחצו על העכבר להמשך.</p>","1","example","","","","","","","","","","","","","","","","","","","","","","",""
"","","","","","html-keyboard-response","6","1075489","0.0-6.0","c42bb243-6020-44ac-9451-f937e428ec02","null","<p>המחשב קבע מחיר: ₪73
                <br>ואתם בחרתם לשלם לכל היותר: ₪25
                <br><br>מכיוון שהמחיר שבחרתם נמוך מהמחיר שנקבע, לא תתשתתפו בהגרלה.
                <br>במקרה כזה, בסוף הניסוי תקבלו את כל התקציב ההתחלתי של ₪80.
                <br><br>לחצו על העכבר להמשך.</p>","1","example","","","","","","","","","","","","","","","","","","","","","","",""
"","","","","","html-slider-response","7","1084134","0.0-7.0","c42bb243-6020-44ac-9451-f937e428ec02","8387","<p style=""font-size: 42px;"">הנה עוד דוגמא:
                <br>ההגרלה מטה מציעה 35% סיכוי לזכות ב-₪18 
                <br>&emsp;&emsp;&emsp;&emsp;&emsp;&emsp;&emsp;&emsp;&ensp;65% סיכוי לזכות ב-₪0.</p>
        
                <p style=""text-align: center;"">₪18<br>35%</p>
                <p id=""wtp"" style=""text-align:center; margin-top: 0px; margin-bottom: 0px; font-size: 40px"";>מוכנים לשלם: <span id=""c_p_y""></span></p>","5","example","74","","","","","","","","","","","","","","","","","","","","","",""
"","","","","","html-keyboard-response","8","1090318","0.0-8.0","c42bb243-6020-44ac-9451-f937e428ec02","null","<p>הייתם מוכנים לשלם  ₪5 כדי להשתתף בהגרלה:
                <p style=""text-align: center;"">₪18<br>35%</p>
                <p>כעת נניח שהמחשב בחר את ההגרלה הזו בסוף הניסוי, וקבע עבורה מחיר.
                <br><br>לחצו על העכבר כדי להמשיך.</p>","1","instructions","","","","","","","","","","","","","","","","","","","","","","",""
"","","","","","html-keyboard-response","9","1107710","0.0-9.0","c42bb243-6020-44ac-9451-f937e428ec02","null","<p>המחשב קבע מחיר להגרלה: ₪5
                <br>ואתם בחרתם לשלם לכל היותר: ₪5
                <br><br>כעת המחיר שנקבע זהה לזה שבחרתם, אז תשלמו את המחיר שקבע המחשב (₪5) ותשתתפו בהגרלה.
                <br>במקרה כזה, תסיימו את הניסוי עם תקציב של ₪75 ועם סיכוי לזכות ב-₪18 נוספים מההגרלה.
                <br>כלומר, תוכלו לקבל ₪75 אם לא תזכו בהגרלה, או ₪93 אם תזכו בהגרלה.
                <br><br>לחצו על העכבר להמשך.</p>","1","example","","","","","","","","","","","","","","","","","","","","","","",""
"","","","","","html-keyboard-response","10","1119886","0.0-10.0","c42bb243-6020-44ac-9451-f937e428ec02","null","<p>במהלך הניסוי, קודם תראו את ההגרלה ורק לאחר מכן תוכלו לבחור.
                <p>כמו כן, יהיו לכם מספר שניות מוגבל להגיב.
                <p>בואו ננסה זאת עם ההגרלה הקודמת.
                <br>לחצו על העכבר כדי להמשיך.</p>","1","instructions","","","","","","","","","","","","","","","","","","","","","","",""
"","","","","","html-slider-response","11","1121157","0.0-11.0","c42bb243-6020-44ac-9451-f937e428ec02","1000","
                    <p style=""text-align: center;"">₪18<br>35%</p>
                    <p id=""wtp"" style=""text-align:center; margin-top: 0px; margin-bottom: 0px; font-size: 40px"";>&ensp;</p>","44","instructions","0","","","","","","","","","","","","","","","","","","","","","",""
"","","","","","html-slider-response","12","1125434","0.0-12.0","c42bb243-6020-44ac-9451-f937e428ec02","null","
                    <p style=""text-align: center;"">₪18<br>35%</p>
                    <p id=""wtp"" style=""text-align:center; margin-top: 0px; margin-bottom: 0px; font-size: 40px"";>מוכנים לשלם: <span id=""c_p_y""></span></p>","null","instructions","5","","","","","","","","","","","","","","","","","","","","","",""
"","","","","","html-keyboard-response","13","1130582","0.0-13.0","c42bb243-6020-44ac-9451-f937e428ec02","null","<p>לא הגבתם בזמן המוקצב לתגובה. 
                <br>נסו להגיב מהר יותר בפעם הבאה.
                <br><br>לחצו על העכבר כדי להמשיך.</p>","1","instructions","","","","","","","","","","","","","","","","","","","","","","",""
"","","","","","html-slider-response","14","1133534","0.0-14.0-0.0","c42bb243-6020-44ac-9451-f937e428ec02","2697","
                    <p style=""text-align: center;"">₪40<br>65%</p>
                    <p id=""wtp"" style=""text-align:center; margin-top: 0px; margin-bottom: 0px; font-size: 40px"";>מוכנים לשלם: <span id=""c_p_y""></span></p>","19","instructions","37","","","","","","","","","","","","","","","","","","","","","",""
"","","","","","html-keyboard-response","15","1135142","0.0-14.0-1.0","c42bb243-6020-44ac-9451-f937e428ec02","null","<p>יפה. הפעם בחרתם לשלם לכל היותר ₪19.
                <br><br>לחצו על העכבר כדי להמשיך.</p>","1","instructions","","","","","","","","","","","","","","","","","","","","","","",""
"","","","","","html-keyboard-response","16","1141765","0.0-15.0","c42bb243-6020-44ac-9451-f937e428ec02","null","<p>כעת נתחיל את הניסוי.
                <br><br>אתם תראו הגרלות ותתבקשו לבחור כמה תהיו מוכנים לשלם כדי להשתתף בהן.
                <br>יש לכם תקציב של ₪80 עבור כל הגרלה.
                <br>בסוף הניסוי הגרלה אחת תבחר באקראי ותשוחק.
                <br><br>לחצו על העכבר כדי להתחיל את הניסוי.</p>","1","instructions","","","","","","","","","","","","","","","","","","","","","","",""
"","","","","","html-keyboard-response","17","1143019","0.0-16.0","c42bb243-6020-44ac-9451-f937e428ec02","null","<p style=""text-align: center;"">+</p>","null","fixation","","","","","","","","","","","","","","","","","","","","","","",""
"","","","","","html-slider-response","18","1144035","0.0-17.0-0.0","c42bb243-6020-44ac-9451-f937e428ec02","1000","
                  <p style=""text-align: center;"">₪11
                                                <br>45%</p>
                  <p id=""wtp"" style=""text-align:center; margin-top: 0px; margin-bottom: 0px; font-size: 40px"";>&ensp;</p>","-","viewing","0","6","14B,21C,25C","","","","","","","","","","","","","","","","","","","",""
"","","","","","html-slider-response","19","1147325","0.0-17.0-1.0","c42bb243-6020-44ac-9451-f937e428ec02","3288","
                  <p style=""text-align: center;"">₪11
                                                <br>45%</p>
                  <p id=""wtp"" style=""text-align:center; margin-top: 0px; margin-bottom: 0px; font-size: 40px"";>מוכנים לשלם: <span id=""c_p_y""></span></p>","10","evaluation","53","6","14B,21C,25C","45","11","10","","","","","","","","","","","","","","","","",""
"","","","","","html-keyboard-response","20","1148098","0.0-17.0-2.0","c42bb243-6020-44ac-9451-f937e428ec02","null","<p style=""text-align: center;"">+</p>","null","fixation","","","","","","","","","","","","","","","","","","","","","","",""
"","","","","","html-slider-response","21","1149115","0.0-17.0-0.1","c42bb243-6020-44ac-9451-f937e428ec02","1000","
                  <p style=""text-align: center;"">₪64
                                                <br>50%</p>
                  <p id=""wtp"" style=""text-align:center; margin-top: 0px; margin-bottom: 0px; font-size: 40px"";>&ensp;</p>","-","viewing","0","25","1B,3B,4A","","","","","","","","","","","","","","","","","","","",""
"","","","","","html-slider-response","22","1151557","0.0-17.0-1.1","c42bb243-6020-44ac-9451-f937e428ec02","2441","
                  <p style=""text-align: center;"">₪64
                                                <br>50%</p>
                  <p id=""wtp"" style=""text-align:center; margin-top: 0px; margin-bottom: 0px; font-size: 40px"";>מוכנים לשלם: <span id=""c_p_y""></span></p>","30","evaluation","20","25","1B,3B,4A","50","64","30","","","","","","","","","","","","","","","","",""
"","","","","","html-keyboard-response","23","1152293","0.0-17.0-2.1","c42bb243-6020-44ac-9451-f937e428ec02","null","<p style=""text-align: center;"">+</p>","null","fixation","","","","","","","","","","","","","","","","","","","","","","",""
"","","","","","html-slider-response","24","1153305","0.0-17.0-0.2","c42bb243-6020-44ac-9451-f937e428ec02","1000","
                  <p style=""text-align: center;"">₪79
                                                <br>65%</p>
                  <p id=""wtp"" style=""text-align:center; margin-top: 0px; margin-bottom: 0px; font-size: 40px"";>&ensp;</p>","-","viewing","0","31","8A","","","","","","","","","","","","","","","","","","","",""
"","","","","","html-slider-response","25","1156381","0.0-17.0-1.2","c42bb243-6020-44ac-9451-f937e428ec02","3075","
                  <p style=""text-align: center;"">₪79
                                                <br>65%</p>
                  <p id=""wtp"" style=""text-align:center; margin-top: 0px; margin-bottom: 0px; font-size: 40px"";>מוכנים לשלם: <span id=""c_p_y""></span></p>","40","evaluation","0","31","8A","65","79","40","","","","","","","","","","","","","","","","",""
"","","","","","html-keyboard-response","26","1157034","0.0-17.0-2.2","c42bb243-6020-44ac-9451-f937e428ec02","null","<p style=""text-align: center;"">+</p>","null","fixation","","","","","","","","","","","","","","","","","","","","","","",""
"","","","","","html-slider-response","27","1158045","0.0-17.0-0.3","c42bb243-6020-44ac-9451-f937e428ec02","1000","
                  <p style=""text-align: center;"">₪43
                                                <br>60%</p>
                  <p id=""wtp"" style=""text-align:center; margin-top: 0px; margin-bottom: 0px; font-size: 40px"";>&ensp;</p>","-","viewing","0","17","2A,7A,9A,15B","","","","","","","","","","","","","","","","","","","",""
"","","","","","html-slider-response","28","1162058","0.0-17.0-1.3","c42bb243-6020-44ac-9451-f937e428ec02","null","
                  <p style=""text-align: center;"">₪43
                                                <br>60%</p>
                  <p id=""wtp"" style=""text-align:center; margin-top: 0px; margin-bottom: 0px; font-size: 40px"";>מוכנים לשלם: <span id=""c_p_y""></span></p>","null","evaluation","10","17","2A,7A,9A,15B","60","43","29","","","","","","","","","","","","","","","","",""
"","","","","","html-keyboard-response","29","1162894","0.0-17.0-2.3","c42bb243-6020-44ac-9451-f937e428ec02","null","<p style=""text-align: center;"">+</p>","null","fixation","","","","","","","","","","","","","","","","","","","","","","",""
"","","","","","html-slider-response","30","1163908","0.0-17.0-0.4","c42bb243-6020-44ac-9451-f937e428ec02","1000","
                  <p style=""text-align: center;"">₪61
                                                <br>55%</p>
                  <p id=""wtp"" style=""text-align:center; margin-top: 0px; margin-bottom: 0px; font-size: 40px"";>&ensp;</p>","-","viewing","0","23","7B,26B","","","","","","","","","","","","","","","","","","","",""
"","","","","","html-slider-response","31","1166837","0.0-17.0-1.4","c42bb243-6020-44ac-9451-f937e428ec02","2928","
                  <p style=""text-align: center;"">₪61
                                                <br>55%</p>
                  <p id=""wtp"" style=""text-align:center; margin-top: 0px; margin-bottom: 0px; font-size: 40px"";>מוכנים לשלם: <span id=""c_p_y""></span></p>","30","evaluation","73","23","7B,26B","55","61","30","","","","","","","","","","","","","","","","",""
"","","","","","html-keyboard-response","32","1167821","0.0-17.0-2.4","c42bb243-6020-44ac-9451-f937e428ec02","null","<p style=""text-align: center;"">+</p>","null","fixation","","","","","","","","","","","","","","","","","","","","","","",""
"","","","","","html-slider-response","33","1168836","0.0-17.0-0.5","c42bb243-6020-44ac-9451-f937e428ec02","1000","
                  <p style=""text-align: center;"">₪71
                                                <br>45%</p>
                  <p id=""wtp"" style=""text-align:center; margin-top: 0px; margin-bottom: 0px; font-size: 40px"";>&ensp;</p>","-","viewing","0","26","2B,16A","","","","","","","","","","","","","","","","","","","",""
"","","","","","html-slider-response","34","1170486","0.0-17.0-1.5","c42bb243-6020-44ac-9451-f937e428ec02","1648","
                  <p style=""text-align: center;"">₪71
                                                <br>45%</p>
                  <p id=""wtp"" style=""text-align:center; margin-top: 0px; margin-bottom: 0px; font-size: 40px"";>מוכנים לשלם: <span id=""c_p_y""></span></p>","41","evaluation","15","26","2B,16A","45","71","41","","","","","","","","","","","","","","","","",""
"","","","","","html-keyboard-response","35","1171771","0.0-17.0-2.5","c42bb243-6020-44ac-9451-f937e428ec02","null","<p style=""text-align: center;"">+</p>","null","fixation","","","","","","","","","","","","","","","","","","","","","","",""
"","","","","","html-slider-response","36","1172775","0.0-17.0-0.6","c42bb243-6020-44ac-9451-f937e428ec02","1000","
                  <p style=""text-align: center;"">₪39
                                                <br>65%</p>
                  <p id=""wtp"" style=""text-align:center; margin-top: 0px; margin-bottom: 0px; font-size: 40px"";>&ensp;</p>","-","viewing","0","16","1A,15A,26C","","","","","","","","","","","","","","","","","","","",""
"","","","","","html-slider-response","37","1176788","0.0-17.0-1.6","c42bb243-6020-44ac-9451-f937e428ec02","null","
                  <p style=""text-align: center;"">₪39
                                                <br>65%</p>
                  <p id=""wtp"" style=""text-align:center; margin-top: 0px; margin-bottom: 0px; font-size: 40px"";>מוכנים לשלם: <span id=""c_p_y""></span></p>","null","evaluation","63","16","1A,15A,26C","65","39","21","","","","","","","","","","","","","","","","",""
"","","","","","html-keyboard-response","38","1177735","0.0-17.0-2.6","c42bb243-6020-44ac-9451-f937e428ec02","null","<p style=""text-align: center;"">+</p>","null","fixation","","","","","","","","","","","","","","","","","","","","","","",""
"","","","","","html-slider-response","39","1178746","0.0-17.0-0.7","c42bb243-6020-44ac-9451-f937e428ec02","1000","
                  <p style=""text-align: center;"">₪36
                                                <br>60%</p>
                  <p id=""wtp"" style=""text-align:center; margin-top: 0px; margin-bottom: 0px; font-size: 40px"";>&ensp;</p>","-","viewing","0","12","1C,7C,15C","","","","","","","","","","","","","","","","","","","",""
"","","","","","html-slider-response","40","1181493","0.0-17.0-1.7","c42bb243-6020-44ac-9451-f937e428ec02","2746","
                  <p style=""text-align: center;"">₪36
                                                <br>60%</p>
                  <p id=""wtp"" style=""text-align:center; margin-top: 0px; margin-bottom: 0px; font-size: 40px"";>מוכנים לשלם: <span id=""c_p_y""></span></p>","39","evaluation","33","12","1C,7C,15C","60","36","39","","","","","","","","","","","","","","","","",""
"","","","","","html-keyboard-response","41","1182647","0.0-17.0-2.7","c42bb243-6020-44ac-9451-f937e428ec02","null","<p style=""text-align: center;"">+</p>","null","fixation","","","","","","","","","","","","","","","","","","","","","","",""
"","","","","","html-slider-response","42","1183654","0.0-17.0-0.8","c42bb243-6020-44ac-9451-f937e428ec02","1000","
                  <p style=""text-align: center;"">₪4
                                                <br>75%</p>
                  <p id=""wtp"" style=""text-align:center; margin-top: 0px; margin-bottom: 0px; font-size: 40px"";>&ensp;</p>","-","viewing","0","3","12B,20B,23B,27C,29C","","","","","","","","","","","","","","","","","","","",""
"","","","","","html-slider-response","43","1186341","0.0-17.0-1.8","c42bb243-6020-44ac-9451-f937e428ec02","2686","
                  <p style=""text-align: center;"">₪4
                                                <br>75%</p>
                  <p id=""wtp"" style=""text-align:center; margin-top: 0px; margin-bottom: 0px; font-size: 40px"";>מוכנים לשלם: <span id=""c_p_y""></span></p>","2","evaluation","55","3","12B,20B,23B,27C,29C","75","4","3","","","","","","","","","","","","","","","","",""
"","","","","","html-keyboard-response","44","1187404","0.0-17.0-2.8","c42bb243-6020-44ac-9451-f937e428ec02","null","<p style=""text-align: center;"">+</p>","null","fixation","","","","","","","","","","","","","","","","","","","","","","",""
"","","","","","html-slider-response","45","1188422","0.0-17.0-0.9","c42bb243-6020-44ac-9451-f937e428ec02","1000","
                  <p style=""text-align: center;"">₪58
                                                <br>45%</p>
                  <p id=""wtp"" style=""text-align:center; margin-top: 0px; margin-bottom: 0px; font-size: 40px"";>&ensp;</p>","-","viewing","0","21","11C,18C,25A","","","","","","","","","","","","","","","","","","","",""
"","","","","","html-slider-response","46","1192309","0.0-17.0-1.9","c42bb243-6020-44ac-9451-f937e428ec02","3886","
                  <p style=""text-align: center;"">₪58
                                                <br>45%</p>
                  <p id=""wtp"" style=""text-align:center; margin-top: 0px; margin-bottom: 0px; font-size: 40px"";>מוכנים לשלם: <span id=""c_p_y""></span></p>","21","evaluation","4","21","11C,18C,25A","45","58","22","","","","","","","","","","","","","","","","",""
"","","","","","html-keyboard-response","47","1193523","0.0-17.0-2.9","c42bb243-6020-44ac-9451-f937e428ec02","null","<p style=""text-align: center;"">+</p>","null","fixation","","","","","","","","","","","","","","","","","","","","","","",""
"","","","","","html-slider-response","48","1194529","0.0-17.0-0.10","c42bb243-6020-44ac-9451-f937e428ec02","1000","
                  <p style=""text-align: center;"">₪71
                                                <br>55%</p>
                  <p id=""wtp"" style=""text-align:center; margin-top: 0px; margin-bottom: 0px; font-size: 40px"";>&ensp;</p>","-","viewing","0","27","5B,18A","","","","","","","","","","","","","","","","","","","",""
"","","","","","html-slider-response","49","1196499","0.0-17.0-1.10","c42bb243-6020-44ac-9451-f937e428ec02","1971","
                  <p style=""text-align: center;"">₪71
                                                <br>55%</p>
                  <p id=""wtp"" style=""text-align:center; margin-top: 0px; margin-bottom: 0px; font-size: 40px"";>מוכנים לשלם: <span id=""c_p_y""></span></p>","32","evaluation","72","27","5B,18A","55","71","32","","","","","","","","","","","","","","","","",""
"","","","","","html-keyboard-response","50","1197060","0.0-17.0-2.10","c42bb243-6020-44ac-9451-f937e428ec02","null","<p style=""text-align: center;"">+</p>","null","fixation","","","","","","","","","","","","","","","","","","","","","","",""
"","","","","","html-slider-response","51","1198065","0.0-17.0-0.11","c42bb243-6020-44ac-9451-f937e428ec02","1000","
                  <p style=""text-align: center;"">₪18
                                                <br>50%</p>
                  <p id=""wtp"" style=""text-align:center; margin-top: 0px; margin-bottom: 0px; font-size: 40px"";>&ensp;</p>","-","viewing","0","10","2C,16C,22B,28A","","","","","","","","","","","","","","","","","","","",""
"","","","","","html-slider-response","52","1200507","0.0-17.0-1.11","c42bb243-6020-44ac-9451-f937e428ec02","2442","
                  <p style=""text-align: center;"">₪18
                                                <br>50%</p>
                  <p id=""wtp"" style=""text-align:center; margin-top: 0px; margin-bottom: 0px; font-size: 40px"";>מוכנים לשלם: <span id=""c_p_y""></span></p>","10","evaluation","77","10","2C,16C,22B,28A","50","18","10","","","","","","","","","","","","","","","","",""
"","","","","","html-keyboard-response","53","1201491","0.0-17.0-2.11","c42bb243-6020-44ac-9451-f937e428ec02","null","<p style=""text-align: center;"">+</p>","null","fixation","","","","","","","","","","","","","","","","","","","","","","",""
"","","","","","html-slider-response","54","1202505","0.0-17.0-0.12","c42bb243-6020-44ac-9451-f937e428ec02","1000","
                  <p style=""text-align: center;"">₪43
                                                <br>75%</p>
                  <p id=""wtp"" style=""text-align:center; margin-top: 0px; margin-bottom: 0px; font-size: 40px"";>&ensp;</p>","-","viewing","0","18","11B,19B,24A,26A","","","","","","","","","","","","","","","","","","","",""
"","","","","","html-slider-response","55","1204467","0.0-17.0-1.12","c42bb243-6020-44ac-9451-f937e428ec02","1962","
                  <p style=""text-align: center;"">₪43
                                                <br>75%</p>
                  <p id=""wtp"" style=""text-align:center; margin-top: 0px; margin-bottom: 0px; font-size: 40px"";>מוכנים לשלם: <span id=""c_p_y""></span></p>","15","evaluation","60","18","11B,19B,24A,26A","75","43","15","","","","","","","","","","","","","","","","",""
"","","","","","html-keyboard-response","56","1205536","0.0-17.0-2.12","c42bb243-6020-44ac-9451-f937e428ec02","null","<p style=""text-align: center;"">+</p>","null","fixation","","","","","","","","","","","","","","","","","","","","","","",""
"","","","","","html-slider-response","57","1206539","0.0-17.0-0.13","c42bb243-6020-44ac-9451-f937e428ec02","1000","
                  <p style=""text-align: center;"">₪61
                                                <br>45%</p>
                  <p id=""wtp"" style=""text-align:center; margin-top: 0px; margin-bottom: 0px; font-size: 40px"";>&ensp;</p>","-","viewing","0","22","10A,11A","","","","","","","","","","","","","","","","","","","",""
"","","","","","html-slider-response","58","1209779","0.0-17.0-1.13","c42bb243-6020-44ac-9451-f937e428ec02","3239","
                  <p style=""text-align: center;"">₪61
                                                <br>45%</p>
                  <p id=""wtp"" style=""text-align:center; margin-top: 0px; margin-bottom: 0px; font-size: 40px"";>מוכנים לשלם: <span id=""c_p_y""></span></p>","25","evaluation","35","22","10A,11A","45","61","25","","","","","","","","","","","","","","","","",""
"","","","","","html-keyboard-response","59","1211121","0.0-17.0-2.13","c42bb243-6020-44ac-9451-f937e428ec02","null","<p style=""text-align: center;"">+</p>","null","fixation","","","","","","","","","","","","","","","","","","","","","","",""
"","","","","","html-slider-response","60","1212128","0.0-17.0-0.14","c42bb243-6020-44ac-9451-f937e428ec02","1000","
                  <p style=""text-align: center;"">₪36
                                                <br>75%</p>
                  <p id=""wtp"" style=""text-align:center; margin-top: 0px; margin-bottom: 0px; font-size: 40px"";>&ensp;</p>","-","viewing","0","14","4B,5A,13B,16B","","","","","","","","","","","","","","","","","","","",""
"","","","","","html-slider-response","61","1214155","0.0-17.0-1.14","c42bb243-6020-44ac-9451-f937e428ec02","2026","
                  <p style=""text-align: center;"">₪36
                                                <br>75%</p>
                  <p id=""wtp"" style=""text-align:center; margin-top: 0px; margin-bottom: 0px; font-size: 40px"";>מוכנים לשלם: <span id=""c_p_y""></span></p>","18","evaluation","64","14","4B,5A,13B,16B","75","36","18","","","","","","","","","","","","","","","","",""
"","","","","","html-keyboard-response","62","1214963","0.0-17.0-2.14","c42bb243-6020-44ac-9451-f937e428ec02","null","<p style=""text-align: center;"">+</p>","null","fixation","","","","","","","","","","","","","","","","","","","","","","",""
"","","","","","html-slider-response","63","1215969","0.0-17.0-0.15","c42bb243-6020-44ac-9451-f937e428ec02","1000","
                  <p style=""text-align: center;"">₪79
                                                <br>40%</p>
                  <p id=""wtp"" style=""text-align:center; margin-top: 0px; margin-bottom: 0px; font-size: 40px"";>&ensp;</p>","-","viewing","0","30","9B","","","","","","","","","","","","","","","","","","","",""
"","","","","","html-slider-response","64","1217915","0.0-17.0-1.15","c42bb243-6020-44ac-9451-f937e428ec02","1945","
                  <p style=""text-align: center;"">₪79
                                                <br>40%</p>
                  <p id=""wtp"" style=""text-align:center; margin-top: 0px; margin-bottom: 0px; font-size: 40px"";>מוכנים לשלם: <span id=""c_p_y""></span></p>","30","evaluation","52","30","9B","40","79","30","","","","","","","","","","","","","","","","",""
"","","","","","html-keyboard-response","65","1218560","0.0-17.0-2.15","c42bb243-6020-44ac-9451-f937e428ec02","null","<p style=""text-align: center;"">+</p>","null","fixation","","","","","","","","","","","","","","","","","","","","","","",""
"","","","","","html-slider-response","66","1219568","0.0-17.0-0.16","c42bb243-6020-44ac-9451-f937e428ec02","1000","
                  <p style=""text-align: center;"">₪39
                                                <br>60%</p>
                  <p id=""wtp"" style=""text-align:center; margin-top: 0px; margin-bottom: 0px; font-size: 40px"";>&ensp;</p>","-","viewing","0","15","9C,25B","","","","","","","","","","","","","","","","","","","",""
"","","","","","html-slider-response","67","1222387","0.0-17.0-1.16","c42bb243-6020-44ac-9451-f937e428ec02","2818","
                  <p style=""text-align: center;"">₪39
                                                <br>60%</p>
                  <p id=""wtp"" style=""text-align:center; margin-top: 0px; margin-bottom: 0px; font-size: 40px"";>מוכנים לשלם: <span id=""c_p_y""></span></p>","13","evaluation","12","15","9C,25B","60","39","13","","","","","","","","","","","","","","","","",""
"","","","","","html-keyboard-response","68","1223276","0.0-17.0-2.16","c42bb243-6020-44ac-9451-f937e428ec02","null","<p style=""text-align: center;"">+</p>","null","fixation","","","","","","","","","","","","","","","","","","","","","","",""
"","","","","","html-slider-response","69","1224290","0.0-17.0-0.17","c42bb243-6020-44ac-9451-f937e428ec02","1000","
                  <p style=""text-align: center;"">₪36
                                                <br>30%</p>
                  <p id=""wtp"" style=""text-align:center; margin-top: 0px; margin-bottom: 0px; font-size: 40px"";>&ensp;</p>","-","viewing","0","11","3C,20A,22A","","","","","","","","","","","","","","","","","","","",""
"","","","","","html-slider-response","70","1228291","0.0-17.0-1.17","c42bb243-6020-44ac-9451-f937e428ec02","4000","
                  <p style=""text-align: center;"">₪36
                                                <br>30%</p>
                  <p id=""wtp"" style=""text-align:center; margin-top: 0px; margin-bottom: 0px; font-size: 40px"";>מוכנים לשלם: <span id=""c_p_y""></span></p>","19","evaluation","61","11","3C,20A,22A","30","36","19","","","","","","","","","","","","","","","","",""
"","","","","","html-keyboard-response","71","1228937","0.0-17.0-2.17","c42bb243-6020-44ac-9451-f937e428ec02","null","<p style=""text-align: center;"">+</p>","null","fixation","","","","","","","","","","","","","","","","","","","","","","",""
"","","","","","html-slider-response","72","1229945","0.0-17.0-0.18","c42bb243-6020-44ac-9451-f937e428ec02","1000","
                  <p style=""text-align: center;"">₪11
                                                <br>20%</p>
                  <p id=""wtp"" style=""text-align:center; margin-top: 0px; margin-bottom: 0px; font-size: 40px"";>&ensp;</p>","-","viewing","0","4","12C,17C,23C,28C","","","","","","","","","","","","","","","","","","","",""
"","","","","","html-slider-response","73","1232091","0.0-17.0-1.18","c42bb243-6020-44ac-9451-f937e428ec02","2146","
                  <p style=""text-align: center;"">₪11
                                                <br>20%</p>
                  <p id=""wtp"" style=""text-align:center; margin-top: 0px; margin-bottom: 0px; font-size: 40px"";>מוכנים לשלם: <span id=""c_p_y""></span></p>","2","evaluation","2","4","12C,17C,23C,28C","20","11","2","","","","","","","","","","","","","","","","",""
"","","","","","html-keyboard-response","74","1233147","0.0-17.0-2.18","c42bb243-6020-44ac-9451-f937e428ec02","null","<p style=""text-align: center;"">+</p>","null","fixation","","","","","","","","","","","","","","","","","","","","","","",""
"","","","","","html-slider-response","75","1234149","0.0-17.0-0.19","c42bb243-6020-44ac-9451-f937e428ec02","1000","
                  <p style=""text-align: center;"">₪4
                                                <br>25%</p>
                  <p id=""wtp"" style=""text-align:center; margin-top: 0px; margin-bottom: 0px; font-size: 40px"";>&ensp;</p>","-","viewing","0","1","6C,29B,30C","","","","","","","","","","","","","","","","","","","",""
"","","","","","html-slider-response","76","1236715","0.0-17.0-1.19","c42bb243-6020-44ac-9451-f937e428ec02","2566","
                  <p style=""text-align: center;"">₪4
                                                <br>25%</p>
                  <p id=""wtp"" style=""text-align:center; margin-top: 0px; margin-bottom: 0px; font-size: 40px"";>מוכנים לשלם: <span id=""c_p_y""></span></p>","3","evaluation","64","1","6C,29B,30C","25","4","3","","","","","","","","","","","","","","","","",""
"","","","","","html-keyboard-response","77","1237935","0.0-17.0-2.19","c42bb243-6020-44ac-9451-f937e428ec02","null","<p style=""text-align: center;"">+</p>","null","fixation","","","","","","","","","","","","","","","","","","","","","","",""
"","","","","","html-slider-response","78","1238952","0.0-17.0-0.20","c42bb243-6020-44ac-9451-f937e428ec02","1000","
                  <p style=""text-align: center;"">₪4
                                                <br>50%</p>
                  <p id=""wtp"" style=""text-align:center; margin-top: 0px; margin-bottom: 0px; font-size: 40px"";>&ensp;</p>","-","viewing","0","2","4C,17B","","","","","","","","","","","","","","","","","","","",""
"","","","","","html-slider-response","79","1242315","0.0-17.0-1.20","c42bb243-6020-44ac-9451-f937e428ec02","3362","
                  <p style=""text-align: center;"">₪4
                                                <br>50%</p>
                  <p id=""wtp"" style=""text-align:center; margin-top: 0px; margin-bottom: 0px; font-size: 40px"";>מוכנים לשלם: <span id=""c_p_y""></span></p>","4","evaluation","79","2","4C,17B","50","4","4","","","","","","","","","","","","","","","","",""
"","","","","","html-keyboard-response","80","1243108","0.0-17.0-2.20","c42bb243-6020-44ac-9451-f937e428ec02","null","<p style=""text-align: center;"">+</p>","null","fixation","","","","","","","","","","","","","","","","","","","","","","",""
"","","","","","html-slider-response","81","1244111","0.0-17.0-0.21","c42bb243-6020-44ac-9451-f937e428ec02","1000","
                  <p style=""text-align: center;"">₪76
                                                <br>65%</p>
                  <p id=""wtp"" style=""text-align:center; margin-top: 0px; margin-bottom: 0px; font-size: 40px"";>&ensp;</p>","-","viewing","0","29","8C,19A,24B","","","","","","","","","","","","","","","","","","","",""
"","","","","","html-slider-response","82","1246099","0.0-17.0-1.21","c42bb243-6020-44ac-9451-f937e428ec02","1987","
                  <p style=""text-align: center;"">₪76
                                                <br>65%</p>
                  <p id=""wtp"" style=""text-align:center; margin-top: 0px; margin-bottom: 0px; font-size: 40px"";>מוכנים לשלם: <span id=""c_p_y""></span></p>","41","evaluation","41","29","8C,19A,24B","65","76","41","","","","","","","","","","","","","","","","",""
"","","","","","html-keyboard-response","83","1246836","0.0-17.0-2.21","c42bb243-6020-44ac-9451-f937e428ec02","null","<p style=""text-align: center;"">+</p>","null","fixation","","","","","","","","","","","","","","","","","","","","","","",""
"","","","","","html-slider-response","84","1247843","0.0-17.0-0.22","c42bb243-6020-44ac-9451-f937e428ec02","1000","
                  <p style=""text-align: center;"">₪36
                                                <br>70%</p>
                  <p id=""wtp"" style=""text-align:center; margin-top: 0px; margin-bottom: 0px; font-size: 40px"";>&ensp;</p>","-","viewing","0","13","3A,5C,10B","","","","","","","","","","","","","","","","","","","",""
"","","","","","html-slider-response","85","1251643","0.0-17.0-1.22","c42bb243-6020-44ac-9451-f937e428ec02","3799","
                  <p style=""text-align: center;"">₪36
                                                <br>70%</p>
                  <p id=""wtp"" style=""text-align:center; margin-top: 0px; margin-bottom: 0px; font-size: 40px"";>מוכנים לשלם: <span id=""c_p_y""></span></p>","10","evaluation","5","13","3A,5C,10B","70","36","10","","","","","","","","","","","","","","","","",""
"","","","","","html-keyboard-response","86","1252394","0.0-17.0-2.22","c42bb243-6020-44ac-9451-f937e428ec02","null","<p style=""text-align: center;"">+</p>","null","fixation","","","","","","","","","","","","","","","","","","","","","","",""
"","","","","","html-slider-response","87","1253402","0.0-17.0-0.23","c42bb243-6020-44ac-9451-f937e428ec02","1000","
                  <p style=""text-align: center;"">₪71
                                                <br>75%</p>
                  <p id=""wtp"" style=""text-align:center; margin-top: 0px; margin-bottom: 0px; font-size: 40px"";>&ensp;</p>","-","viewing","0","28","8B","","","","","","","","","","","","","","","","","","","",""
"","","","","","html-slider-response","88","1255051","0.0-17.0-1.23","c42bb243-6020-44ac-9451-f937e428ec02","1648","
                  <p style=""text-align: center;"">₪71
                                                <br>75%</p>
                  <p id=""wtp"" style=""text-align:center; margin-top: 0px; margin-bottom: 0px; font-size: 40px"";>מוכנים לשלם: <span id=""c_p_y""></span></p>","40","evaluation","66","28","8B","75","71","40","","","","","","","","","","","","","","","","",""
"","","","","","html-keyboard-response","89","1256016","0.0-17.0-2.23","c42bb243-6020-44ac-9451-f937e428ec02","null","<p style=""text-align: center;"">+</p>","null","fixation","","","","","","","","","","","","","","","","","","","","","","",""
"","","","","","html-slider-response","90","1257028","0.0-17.0-0.24","c42bb243-6020-44ac-9451-f937e428ec02","1000","
                  <p style=""text-align: center;"">₪16
                                                <br>20%</p>
                  <p id=""wtp"" style=""text-align:center; margin-top: 0px; margin-bottom: 0px; font-size: 40px"";>&ensp;</p>","-","viewing","0","8","14C,17A,20C,27A","","","","","","","","","","","","","","","","","","","",""
"","","","","","html-slider-response","91","1259513","0.0-17.0-1.24","c42bb243-6020-44ac-9451-f937e428ec02","2485","
                  <p style=""text-align: center;"">₪16
                                                <br>20%</p>
                  <p id=""wtp"" style=""text-align:center; margin-top: 0px; margin-bottom: 0px; font-size: 40px"";>מוכנים לשלם: <span id=""c_p_y""></span></p>","7","evaluation","32","8","14C,17A,20C,27A","20","16","7","","","","","","","","","","","","","","","","",""
"","","","","","html-keyboard-response","92","1260162","0.0-17.0-2.24","c42bb243-6020-44ac-9451-f937e428ec02","null","<p style=""text-align: center;"">+</p>","null","fixation","","","","","","","","","","","","","","","","","","","","","","",""
"","","","","","html-slider-response","93","1261175","0.0-17.0-0.25","c42bb243-6020-44ac-9451-f937e428ec02","1000","
                  <p style=""text-align: center;"">₪58
                                                <br>30%</p>
                  <p id=""wtp"" style=""text-align:center; margin-top: 0px; margin-bottom: 0px; font-size: 40px"";>&ensp;</p>","-","viewing","0","19","13C,30A","","","","","","","","","","","","","","","","","","","",""
"","","","","","html-slider-response","94","1263569","0.0-17.0-1.25","c42bb243-6020-44ac-9451-f937e428ec02","2393","
                  <p style=""text-align: center;"">₪58
                                                <br>30%</p>
                  <p id=""wtp"" style=""text-align:center; margin-top: 0px; margin-bottom: 0px; font-size: 40px"";>מוכנים לשלם: <span id=""c_p_y""></span></p>","14","evaluation","22","19","13C,30A","30","58","14","","","","","","","","","","","","","","","","",""
"","","","","","html-keyboard-response","95","1265063","0.0-17.0-2.25","c42bb243-6020-44ac-9451-f937e428ec02","null","<p style=""text-align: center;"">+</p>","null","fixation","","","","","","","","","","","","","","","","","","","","","","",""
"","","","","","html-slider-response","96","1266080","0.0-17.0-0.26","c42bb243-6020-44ac-9451-f937e428ec02","1000","
                  <p style=""text-align: center;"">₪18
                                                <br>25%</p>
                  <p id=""wtp"" style=""text-align:center; margin-top: 0px; margin-bottom: 0px; font-size: 40px"";>&ensp;</p>","-","viewing","0","9","14A,23A","","","","","","","","","","","","","","","","","","","",""
"","","","","","html-slider-response","97","1267593","0.0-17.0-1.26","c42bb243-6020-44ac-9451-f937e428ec02","1512","
                  <p style=""text-align: center;"">₪18
                                                <br>25%</p>
                  <p id=""wtp"" style=""text-align:center; margin-top: 0px; margin-bottom: 0px; font-size: 40px"";>מוכנים לשלם: <span id=""c_p_y""></span></p>","6","evaluation","76","9","14A,23A","25","18","6","","","","","","","","","","","","","","","","",""
"","","","","","html-keyboard-response","98","1268928","0.0-17.0-2.26","c42bb243-6020-44ac-9451-f937e428ec02","null","<p style=""text-align: center;"">+</p>","null","fixation","","","","","","","","","","","","","","","","","","","","","","",""
"","","","","","html-slider-response","99","1269931","0.0-17.0-0.27","c42bb243-6020-44ac-9451-f937e428ec02","1000","
                  <p style=""text-align: center;"">₪11
                                                <br>75%</p>
                  <p id=""wtp"" style=""text-align:center; margin-top: 0px; margin-bottom: 0px; font-size: 40px"";>&ensp;</p>","-","viewing","0","7","6B,18B,22C,24C,29A","","","","","","","","","","","","","","","","","","","",""
"","","","","","html-slider-response","100","1272009","0.0-17.0-1.27","c42bb243-6020-44ac-9451-f937e428ec02","2077","
                  <p style=""text-align: center;"">₪11
                                                <br>75%</p>
                  <p id=""wtp"" style=""text-align:center; margin-top: 0px; margin-bottom: 0px; font-size: 40px"";>מוכנים לשלם: <span id=""c_p_y""></span></p>","7","evaluation","58","7","6B,18B,22C,24C,29A","75","11","8","","","","","","","","","","","","","","","","",""
"","","","","","html-keyboard-response","101","1272971","0.0-17.0-2.27","c42bb243-6020-44ac-9451-f937e428ec02","null","<p style=""text-align: center;"">+</p>","null","fixation","","","","","","","","","","","","","","","","","","","","","","",""
"","","","","","html-slider-response","102","1273988","0.0-17.0-0.28","c42bb243-6020-44ac-9451-f937e428ec02","1000","
                  <p style=""text-align: center;"">₪58
                                                <br>40%</p>
                  <p id=""wtp"" style=""text-align:center; margin-top: 0px; margin-bottom: 0px; font-size: 40px"";>&ensp;</p>","-","viewing","0","20","10C,13A,19C,21B","","","","","","","","","","","","","","","","","","","",""
"","","","","","html-slider-response","103","1276753","0.0-17.0-1.28","c42bb243-6020-44ac-9451-f937e428ec02","2764","
                  <p style=""text-align: center;"">₪58
                                                <br>40%</p>
                  <p id=""wtp"" style=""text-align:center; margin-top: 0px; margin-bottom: 0px; font-size: 40px"";>מוכנים לשלם: <span id=""c_p_y""></span></p>","20","evaluation","20","20","10C,13A,19C,21B","40","58","20","","","","","","","","","","","","","","","","",""
"","","","","","html-keyboard-response","104","1277978","0.0-17.0-2.28","c42bb243-6020-44ac-9451-f937e428ec02","null","<p style=""text-align: center;"">+</p>","null","fixation","","","","","","","","","","","","","","","","","","","","","","",""
"","","","","","html-slider-response","105","1278992","0.0-17.0-0.29","c42bb243-6020-44ac-9451-f937e428ec02","1000","
                  <p style=""text-align: center;"">₪64
                                                <br>25%</p>
                  <p id=""wtp"" style=""text-align:center; margin-top: 0px; margin-bottom: 0px; font-size: 40px"";>&ensp;</p>","-","viewing","0","24","6A,21A","","","","","","","","","","","","","","","","","","","",""
"","","","","","html-slider-response","106","1282689","0.0-17.0-1.29","c42bb243-6020-44ac-9451-f937e428ec02","3696","
                  <p style=""text-align: center;"">₪64
                                                <br>25%</p>
                  <p id=""wtp"" style=""text-align:center; margin-top: 0px; margin-bottom: 0px; font-size: 40px"";>מוכנים לשלם: <span id=""c_p_y""></span></p>","29","evaluation","65","24","6A,21A","25","64","29","","","","","","","","","","","","","","","","",""
"","","","","","html-keyboard-response","107","1283603","0.0-17.0-2.29","c42bb243-6020-44ac-9451-f937e428ec02","null","<p style=""text-align: center;"">+</p>","null","fixation","","","","","","","","","","","","","","","","","","","","","","",""
"","","","","","html-slider-response","108","1284609","0.0-17.0-0.30","c42bb243-6020-44ac-9451-f937e428ec02","1000","
                  <p style=""text-align: center;"">₪11
                                                <br>25%</p>
                  <p id=""wtp"" style=""text-align:center; margin-top: 0px; margin-bottom: 0px; font-size: 40px"";>&ensp;</p>","-","viewing","0","5","12A,27B,28B,30B","","","","","","","","","","","","","","","","","","","",""
"","","","","","html-slider-response","109","1286073","0.0-17.0-1.30","c42bb243-6020-44ac-9451-f937e428ec02","1463","
                  <p style=""text-align: center;"">₪11
                                                <br>25%</p>
                  <p id=""wtp"" style=""text-align:center; margin-top: 0px; margin-bottom: 0px; font-size: 40px"";>מוכנים לשלם: <span id=""c_p_y""></span></p>","4","evaluation","63","5","12A,27B,28B,30B","25","11","4","","","","","","","","","","","","","","","","",""
"","","","","","html-keyboard-response","110","1287561","0.0-17.0-2.30","c42bb243-6020-44ac-9451-f937e428ec02","null","<p style=""text-align: center;"">+</p>","null","fixation","","","","","","","","","","","","","","","","","","","","","","",""
"","","","","","html-keyboard-response","111","1288575","0.0-18.0","c42bb243-6020-44ac-9451-f937e428ec02","null","<p style=""text-align: center;"">+</p>","null","fixation","","","","","","","","","","","","","","","","","","","","","","",""
"","","","","","html-keyboard-response","112","1291017","0.0-19.0","c42bb243-6020-44ac-9451-f937e428ec02","null","<p>הפסקה.
          <br>לחצו כדי להמשיך.</p>","1","scan_wait","","","","","","","","","","","","","","","","","","","","","","",""
"","","","","","html-keyboard-response","113","1292022","0.0-20.0","c42bb243-6020-44ac-9451-f937e428ec02","null","<p style=""text-align: center;"">+</p>","null","fixation","","","","","","","","","","","","","","","","","","","","","","",""
"","","","","","html-slider-response","114","1293024","0.0-21.0-0.0","c42bb243-6020-44ac-9451-f937e428ec02","1000","
                  <p style=""text-align: center;"">₪18
                                                <br>50%</p>
                  <p id=""wtp"" style=""text-align:center; margin-top: 0px; margin-bottom: 0px; font-size: 40px"";>&ensp;</p>","-","viewing","0","10","2C,16C,22B,28A","","","","","","","","","","","","","","","","","","","",""
"","","","","","html-slider-response","115","1294217","0.0-21.0-1.0","c42bb243-6020-44ac-9451-f937e428ec02","1192","
                  <p style=""text-align: center;"">₪18
                                                <br>50%</p>
                  <p id=""wtp"" style=""text-align:center; margin-top: 0px; margin-bottom: 0px; font-size: 40px"";>מוכנים לשלם: <span id=""c_p_y""></span></p>","4","evaluation","17","10","2C,16C,22B,28A","50","18","4","","","","","","","","","","","","","","","","",""
"","","","","","html-keyboard-response","116","1295098","0.0-21.0-2.0","c42bb243-6020-44ac-9451-f937e428ec02","null","<p style=""text-align: center;"">+</p>","null","fixation","","","","","","","","","","","","","","","","","","","","","","",""
"","","","","","html-slider-response","117","1296108","0.0-21.0-0.1","c42bb243-6020-44ac-9451-f937e428ec02","1000","
                  <p style=""text-align: center;"">₪36
                                                <br>75%</p>
                  <p id=""wtp"" style=""text-align:center; margin-top: 0px; margin-bottom: 0px; font-size: 40px"";>&ensp;</p>","-","viewing","0","14","4B,5A,13B,16B","","","","","","","","","","","","","","","","","","","",""
"","","","","","html-slider-response","118","1297738","0.0-21.0-1.1","c42bb243-6020-44ac-9451-f937e428ec02","1629","
                  <p style=""text-align: center;"">₪36
                                                <br>75%</p>
                  <p id=""wtp"" style=""text-align:center; margin-top: 0px; margin-bottom: 0px; font-size: 40px"";>מוכנים לשלם: <span id=""c_p_y""></span></p>","19","evaluation","8","14","4B,5A,13B,16B","75","36","19","","","","","","","","","","","","","","","","",""
"","","","","","html-keyboard-response","119","1298605","0.0-21.0-2.1","c42bb243-6020-44ac-9451-f937e428ec02","null","<p style=""text-align: center;"">+</p>","null","fixation","","","","","","","","","","","","","","","","","","","","","","",""
"","","","","","html-slider-response","120","1299613","0.0-21.0-0.2","c42bb243-6020-44ac-9451-f937e428ec02","1000","
                  <p style=""text-align: center;"">₪61
                                                <br>55%</p>
                  <p id=""wtp"" style=""text-align:center; margin-top: 0px; margin-bottom: 0px; font-size: 40px"";>&ensp;</p>","-","viewing","0","23","7B,26B","","","","","","","","","","","","","","","","","","","",""
"","","","","","html-slider-response","121","1302297","0.0-21.0-1.2","c42bb243-6020-44ac-9451-f937e428ec02","2683","
                  <p style=""text-align: center;"">₪61
                                                <br>55%</p>
                  <p id=""wtp"" style=""text-align:center; margin-top: 0px; margin-bottom: 0px; font-size: 40px"";>מוכנים לשלם: <span id=""c_p_y""></span></p>","46","evaluation","43","23","7B,26B","55","61","46","","","","","","","","","","","","","","","","",""
"","","","","","html-keyboard-response","122","1303733","0.0-21.0-2.2","c42bb243-6020-44ac-9451-f937e428ec02","null","<p style=""text-align: center;"">+</p>","null","fixation","","","","","","","","","","","","","","","","","","","","","","",""
"","","","","","html-slider-response","123","1304741","0.0-21.0-0.3","c42bb243-6020-44ac-9451-f937e428ec02","1000","
                  <p style=""text-align: center;"">₪64
                                                <br>50%</p>
                  <p id=""wtp"" style=""text-align:center; margin-top: 0px; margin-bottom: 0px; font-size: 40px"";>&ensp;</p>","-","viewing","0","25","1B,3B,4A","","","","","","","","","","","","","","","","","","","",""
"","","","","","html-slider-response","124","1306057","0.0-21.0-1.3","c42bb243-6020-44ac-9451-f937e428ec02","1315","
                  <p style=""text-align: center;"">₪64
                                                <br>50%</p>
                  <p id=""wtp"" style=""text-align:center; margin-top: 0px; margin-bottom: 0px; font-size: 40px"";>מוכנים לשלם: <span id=""c_p_y""></span></p>","45","evaluation","29","25","1B,3B,4A","50","64","45","","","","","","","","","","","","","","","","",""
"","","","","","html-keyboard-response","125","1306664","0.0-21.0-2.3","c42bb243-6020-44ac-9451-f937e428ec02","null","<p style=""text-align: center;"">+</p>","null","fixation","","","","","","","","","","","","","","","","","","","","","","",""
"","","","","","html-slider-response","126","1307672","0.0-21.0-0.4","c42bb243-6020-44ac-9451-f937e428ec02","1000","
                  <p style=""text-align: center;"">₪36
                                                <br>30%</p>
                  <p id=""wtp"" style=""text-align:center; margin-top: 0px; margin-bottom: 0px; font-size: 40px"";>&ensp;</p>","-","viewing","0","11","3C,20A,22A","","","","","","","","","","","","","","","","","","","",""
"","","","","","html-slider-response","127","1309633","0.0-21.0-1.4","c42bb243-6020-44ac-9451-f937e428ec02","1960","
                  <p style=""text-align: center;"">₪36
                                                <br>30%</p>
                  <p id=""wtp"" style=""text-align:center; margin-top: 0px; margin-bottom: 0px; font-size: 40px"";>מוכנים לשלם: <span id=""c_p_y""></span></p>","27","evaluation","6","11","3C,20A,22A","30","36","27","","","","","","","","","","","","","","","","",""
"","","","","","html-keyboard-response","128","1310711","0.0-21.0-2.4","c42bb243-6020-44ac-9451-f937e428ec02","null","<p style=""text-align: center;"">+</p>","null","fixation","","","","","","","","","","","","","","","","","","","","","","",""
"","","","","","html-slider-response","129","1311722","0.0-21.0-0.5","c42bb243-6020-44ac-9451-f937e428ec02","1000","
                  <p style=""text-align: center;"">₪11
                                                <br>75%</p>
                  <p id=""wtp"" style=""text-align:center; margin-top: 0px; margin-bottom: 0px; font-size: 40px"";>&ensp;</p>","-","viewing","0","7","6B,18B,22C,24C,29A","","","","","","","","","","","","","","","","","","","",""
"","","","","","html-slider-response","130","1312889","0.0-21.0-1.5","c42bb243-6020-44ac-9451-f937e428ec02","1166","
                  <p style=""text-align: center;"">₪11
                                                <br>75%</p>
                  <p id=""wtp"" style=""text-align:center; margin-top: 0px; margin-bottom: 0px; font-size: 40px"";>מוכנים לשלם: <span id=""c_p_y""></span></p>","6","evaluation","55","7","6B,18B,22C,24C,29A","75","11","6","","","","","","","","","","","","","","","","",""
"","","","","","html-keyboard-response","131","1313739","0.0-21.0-2.5","c42bb243-6020-44ac-9451-f937e428ec02","null","<p style=""text-align: center;"">+</p>","null","fixation","","","","","","","","","","","","","","","","","","","","","","",""
"","","","","","html-slider-response","132","1314749","0.0-21.0-0.6","c42bb243-6020-44ac-9451-f937e428ec02","1000","
                  <p style=""text-align: center;"">₪18
                                                <br>25%</p>
                  <p id=""wtp"" style=""text-align:center; margin-top: 0px; margin-bottom: 0px; font-size: 40px"";>&ensp;</p>","-","viewing","0","9","14A,23A","","","","","","","","","","","","","","","","","","","",""
"","","","","","html-slider-response","133","1316999","0.0-21.0-1.6","c42bb243-6020-44ac-9451-f937e428ec02","2251","
                  <p style=""text-align: center;"">₪18
                                                <br>25%</p>
                  <p id=""wtp"" style=""text-align:center; margin-top: 0px; margin-bottom: 0px; font-size: 40px"";>מוכנים לשלם: <span id=""c_p_y""></span></p>","10","evaluation","41","9","14A,23A","25","18","10","","","","","","","","","","","","","","","","",""
"","","","","","html-keyboard-response","134","1317793","0.0-21.0-2.6","c42bb243-6020-44ac-9451-f937e428ec02","null","<p style=""text-align: center;"">+</p>","null","fixation","","","","","","","","","","","","","","","","","","","","","","",""
"","","","","","html-slider-response","135","1318797","0.0-21.0-0.7","c42bb243-6020-44ac-9451-f937e428ec02","1000","
                  <p style=""text-align: center;"">₪4
                                                <br>50%</p>
                  <p id=""wtp"" style=""text-align:center; margin-top: 0px; margin-bottom: 0px; font-size: 40px"";>&ensp;</p>","-","viewing","0","2","4C,17B","","","","","","","","","","","","","","","","","","","",""
"","","","","","html-slider-response","136","1320175","0.0-21.0-1.7","c42bb243-6020-44ac-9451-f937e428ec02","1377","
                  <p style=""text-align: center;"">₪4
                                                <br>50%</p>
                  <p id=""wtp"" style=""text-align:center; margin-top: 0px; margin-bottom: 0px; font-size: 40px"";>מוכנים לשלם: <span id=""c_p_y""></span></p>","3","evaluation","47","2","4C,17B","50","4","3","","","","","","","","","","","","","","","","",""
"","","","","","html-keyboard-response","137","1321280","0.0-21.0-2.7","c42bb243-6020-44ac-9451-f937e428ec02","null","<p style=""text-align: center;"">+</p>","null","fixation","","","","","","","","","","","","","","","","","","","","","","",""
"","","","","","html-slider-response","138","1322297","0.0-21.0-0.8","c42bb243-6020-44ac-9451-f937e428ec02","1000","
                  <p style=""text-align: center;"">₪36
                                                <br>70%</p>
                  <p id=""wtp"" style=""text-align:center; margin-top: 0px; margin-bottom: 0px; font-size: 40px"";>&ensp;</p>","-","viewing","0","13","3A,5C,10B","","","","","","","","","","","","","","","","","","","",""
"","","","","","html-slider-response","139","1324687","0.0-21.0-1.8","c42bb243-6020-44ac-9451-f937e428ec02","2388","
                  <p style=""text-align: center;"">₪36
                                                <br>70%</p>
                  <p id=""wtp"" style=""text-align:center; margin-top: 0px; margin-bottom: 0px; font-size: 40px"";>מוכנים לשלם: <span id=""c_p_y""></span></p>","27","evaluation","80","13","3A,5C,10B","70","36","27","","","","","","","","","","","","","","","","",""
"","","","","","html-keyboard-response","140","1326141","0.0-21.0-2.8","c42bb243-6020-44ac-9451-f937e428ec02","null","<p style=""text-align: center;"">+</p>","null","fixation","","","","","","","","","","","","","","","","","","","","","","",""
"","","","","","html-slider-response","141","1327155","0.0-21.0-0.9","c42bb243-6020-44ac-9451-f937e428ec02","1000","
                  <p style=""text-align: center;"">₪39
                                                <br>65%</p>
                  <p id=""wtp"" style=""text-align:center; margin-top: 0px; margin-bottom: 0px; font-size: 40px"";>&ensp;</p>","-","viewing","0","16","1A,15A,26C","","","","","","","","","","","","","","","","","","","",""
"","","","","","html-slider-response","142","1330407","0.0-21.0-1.9","c42bb243-6020-44ac-9451-f937e428ec02","3250","
                  <p style=""text-align: center;"">₪39
                                                <br>65%</p>
                  <p id=""wtp"" style=""text-align:center; margin-top: 0px; margin-bottom: 0px; font-size: 40px"";>מוכנים לשלם: <span id=""c_p_y""></span></p>","20","evaluation","36","16","1A,15A,26C","65","39","20","","","","","","","","","","","","","","","","",""
"","","","","","html-keyboard-response","143","1330925","0.0-21.0-2.9","c42bb243-6020-44ac-9451-f937e428ec02","null","<p style=""text-align: center;"">+</p>","null","fixation","","","","","","","","","","","","","","","","","","","","","","",""
"","","","","","html-slider-response","144","1331928","0.0-21.0-0.10","c42bb243-6020-44ac-9451-f937e428ec02","1000","
                  <p style=""text-align: center;"">₪79
                                                <br>65%</p>
                  <p id=""wtp"" style=""text-align:center; margin-top: 0px; margin-bottom: 0px; font-size: 40px"";>&ensp;</p>","-","viewing","0","31","8A","","","","","","","","","","","","","","","","","","","",""
"","","","","","html-slider-response","145","1334679","0.0-21.0-1.10","c42bb243-6020-44ac-9451-f937e428ec02","2751","
                  <p style=""text-align: center;"">₪79
                                                <br>65%</p>
                  <p id=""wtp"" style=""text-align:center; margin-top: 0px; margin-bottom: 0px; font-size: 40px"";>מוכנים לשלם: <span id=""c_p_y""></span></p>","40","evaluation","48","31","8A","65","79","40","","","","","","","","","","","","","","","","",""
"","","","","","html-keyboard-response","146","1336153","0.0-21.0-2.10","c42bb243-6020-44ac-9451-f937e428ec02","null","<p style=""text-align: center;"">+</p>","null","fixation","","","","","","","","","","","","","","","","","","","","","","",""
"","","","","","html-slider-response","147","1337166","0.0-21.0-0.11","c42bb243-6020-44ac-9451-f937e428ec02","1000","
                  <p style=""text-align: center;"">₪11
                                                <br>25%</p>
                  <p id=""wtp"" style=""text-align:center; margin-top: 0px; margin-bottom: 0px; font-size: 40px"";>&ensp;</p>","-","viewing","0","5","12A,27B,28B,30B","","","","","","","","","","","","","","","","","","","",""
"","","","","","html-slider-response","148","1339247","0.0-21.0-1.11","c42bb243-6020-44ac-9451-f937e428ec02","2080","
                  <p style=""text-align: center;"">₪11
                                                <br>25%</p>
                  <p id=""wtp"" style=""text-align:center; margin-top: 0px; margin-bottom: 0px; font-size: 40px"";>מוכנים לשלם: <span id=""c_p_y""></span></p>","2","evaluation","25","5","12A,27B,28B,30B","25","11","2","","","","","","","","","","","","","","","","",""
"","","","","","html-keyboard-response","149","1339923","0.0-21.0-2.11","c42bb243-6020-44ac-9451-f937e428ec02","null","<p style=""text-align: center;"">+</p>","null","fixation","","","","","","","","","","","","","","","","","","","","","","",""
"","","","","","html-slider-response","150","1340935","0.0-21.0-0.12","c42bb243-6020-44ac-9451-f937e428ec02","1000","
                  <p style=""text-align: center;"">₪4
                                                <br>75%</p>
                  <p id=""wtp"" style=""text-align:center; margin-top: 0px; margin-bottom: 0px; font-size: 40px"";>&ensp;</p>","-","viewing","0","3","12B,20B,23B,27C,29C","","","","","","","","","","","","","","","","","","","",""
"","","","","","html-slider-response","151","1342047","0.0-21.0-1.12","c42bb243-6020-44ac-9451-f937e428ec02","1111","
                  <p style=""text-align: center;"">₪4
                                                <br>75%</p>
                  <p id=""wtp"" style=""text-align:center; margin-top: 0px; margin-bottom: 0px; font-size: 40px"";>מוכנים לשלם: <span id=""c_p_y""></span></p>","2","evaluation","38","3","12B,20B,23B,27C,29C","75","4","3","","","","","","","","","","","","","","","","",""
"","","","","","html-keyboard-response","152","1343398","0.0-21.0-2.12","c42bb243-6020-44ac-9451-f937e428ec02","null","<p style=""text-align: center;"">+</p>","null","fixation","","","","","","","","","","","","","","","","","","","","","","",""
"","","","","","html-slider-response","153","1344402","0.0-21.0-0.13","c42bb243-6020-44ac-9451-f937e428ec02","1000","
                  <p style=""text-align: center;"">₪36
                                                <br>60%</p>
                  <p id=""wtp"" style=""text-align:center; margin-top: 0px; margin-bottom: 0px; font-size: 40px"";>&ensp;</p>","-","viewing","0","12","1C,7C,15C","","","","","","","","","","","","","","","","","","","",""
"","","","","","html-slider-response","154","1347319","0.0-21.0-1.13","c42bb243-6020-44ac-9451-f937e428ec02","2915","
                  <p style=""text-align: center;"">₪36
                                                <br>60%</p>
                  <p id=""wtp"" style=""text-align:center; margin-top: 0px; margin-bottom: 0px; font-size: 40px"";>מוכנים לשלם: <span id=""c_p_y""></span></p>","21","evaluation","48","12","1C,7C,15C","60","36","21","","","","","","","","","","","","","","","","",""
"","","","","","html-keyboard-response","155","1348232","0.0-21.0-2.13","c42bb243-6020-44ac-9451-f937e428ec02","null","<p style=""text-align: center;"">+</p>","null","fixation","","","","","","","","","","","","","","","","","","","","","","",""
"","","","","","html-slider-response","156","1349244","0.0-21.0-0.14","c42bb243-6020-44ac-9451-f937e428ec02","1000","
                  <p style=""text-align: center;"">₪39
                                                <br>60%</p>
                  <p id=""wtp"" style=""text-align:center; margin-top: 0px; margin-bottom: 0px; font-size: 40px"";>&ensp;</p>","-","viewing","0","15","9C,25B","","","","","","","","","","","","","","","","","","","",""
"","","","","","html-slider-response","157","1351822","0.0-21.0-1.14","c42bb243-6020-44ac-9451-f937e428ec02","2577","
                  <p style=""text-align: center;"">₪39
                                                <br>60%</p>
                  <p id=""wtp"" style=""text-align:center; margin-top: 0px; margin-bottom: 0px; font-size: 40px"";>מוכנים לשלם: <span id=""c_p_y""></span></p>","21","evaluation","64","15","9C,25B","60","39","21","","","","","","","","","","","","","","","","",""
"","","","","","html-keyboard-response","158","1353315","0.0-21.0-2.14","c42bb243-6020-44ac-9451-f937e428ec02","null","<p style=""text-align: center;"">+</p>","null","fixation","","","","","","","","","","","","","","","","","","","","","","",""
"","","","","","html-slider-response","159","1354317","0.0-21.0-0.15","c42bb243-6020-44ac-9451-f937e428ec02","1000","
                  <p style=""text-align: center;"">₪11
                                                <br>20%</p>
                  <p id=""wtp"" style=""text-align:center; margin-top: 0px; margin-bottom: 0px; font-size: 40px"";>&ensp;</p>","-","viewing","0","4","12C,17C,23C,28C","","","","","","","","","","","","","","","","","","","",""
"","","","","","html-slider-response","160","1355391","0.0-21.0-1.15","c42bb243-6020-44ac-9451-f937e428ec02","1073","
                  <p style=""text-align: center;"">₪11
                                                <br>20%</p>
                  <p id=""wtp"" style=""text-align:center; margin-top: 0px; margin-bottom: 0px; font-size: 40px"";>מוכנים לשלם: <span id=""c_p_y""></span></p>","3","evaluation","19","4","12C,17C,23C,28C","20","11","3","","","","","","","","","","","","","","","","",""
"","","","","","html-keyboard-response","161","1356635","0.0-21.0-2.15","c42bb243-6020-44ac-9451-f937e428ec02","null","<p style=""text-align: center;"">+</p>","null","fixation","","","","","","","","","","","","","","","","","","","","","","",""
"","","","","","html-slider-response","162","1357652","0.0-21.0-0.16","c42bb243-6020-44ac-9451-f937e428ec02","1000","
                  <p style=""text-align: center;"">₪71
                                                <br>55%</p>
                  <p id=""wtp"" style=""text-align:center; margin-top: 0px; margin-bottom: 0px; font-size: 40px"";>&ensp;</p>","-","viewing","0","27","5B,18A","","","","","","","","","","","","","","","","","","","",""
"","","","","","html-slider-response","163","1360319","0.0-21.0-1.16","c42bb243-6020-44ac-9451-f937e428ec02","2665","
                  <p style=""text-align: center;"">₪71
                                                <br>55%</p>
                  <p id=""wtp"" style=""text-align:center; margin-top: 0px; margin-bottom: 0px; font-size: 40px"";>מוכנים לשלם: <span id=""c_p_y""></span></p>","33","evaluation","10","27","5B,18A","55","71","33","","","","","","","","","","","","","","","","",""
"","","","","","html-keyboard-response","164","1361386","0.0-21.0-2.16","c42bb243-6020-44ac-9451-f937e428ec02","null","<p style=""text-align: center;"">+</p>","null","fixation","","","","","","","","","","","","","","","","","","","","","","",""
"","","","","","html-slider-response","165","1362391","0.0-21.0-0.17","c42bb243-6020-44ac-9451-f937e428ec02","1000","
                  <p style=""text-align: center;"">₪43
                                                <br>75%</p>
                  <p id=""wtp"" style=""text-align:center; margin-top: 0px; margin-bottom: 0px; font-size: 40px"";>&ensp;</p>","-","viewing","0","18","11B,19B,24A,26A","","","","","","","","","","","","","","","","","","","",""
"","","","","","html-slider-response","166","1363654","0.0-21.0-1.17","c42bb243-6020-44ac-9451-f937e428ec02","1263","
                  <p style=""text-align: center;"">₪43
                                                <br>75%</p>
                  <p id=""wtp"" style=""text-align:center; margin-top: 0px; margin-bottom: 0px; font-size: 40px"";>מוכנים לשלם: <span id=""c_p_y""></span></p>","19","evaluation","57","18","11B,19B,24A,26A","75","43","19","","","","","","","","","","","","","","","","",""
"","","","","","html-keyboard-response","167","1364270","0.0-21.0-2.17","c42bb243-6020-44ac-9451-f937e428ec02","null","<p style=""text-align: center;"">+</p>","null","fixation","","","","","","","","","","","","","","","","","","","","","","",""
"","","","","","html-slider-response","168","1365276","0.0-21.0-0.18","c42bb243-6020-44ac-9451-f937e428ec02","1000","
                  <p style=""text-align: center;"">₪71
                                                <br>75%</p>
                  <p id=""wtp"" style=""text-align:center; margin-top: 0px; margin-bottom: 0px; font-size: 40px"";>&ensp;</p>","-","viewing","0","28","8B","","","","","","","","","","","","","","","","","","","",""
"","","","","","html-slider-response","169","1367959","0.0-21.0-1.18","c42bb243-6020-44ac-9451-f937e428ec02","2681","
                  <p style=""text-align: center;"">₪71
                                                <br>75%</p>
                  <p id=""wtp"" style=""text-align:center; margin-top: 0px; margin-bottom: 0px; font-size: 40px"";>מוכנים לשלם: <span id=""c_p_y""></span></p>","34","evaluation","49","28","8B","75","71","34","","","","","","","","","","","","","","","","",""
"","","","","","html-keyboard-response","170","1369168","0.0-21.0-2.18","c42bb243-6020-44ac-9451-f937e428ec02","null","<p style=""text-align: center;"">+</p>","null","fixation","","","","","","","","","","","","","","","","","","","","","","",""
"","","","","","html-slider-response","171","1370181","0.0-21.0-0.19","c42bb243-6020-44ac-9451-f937e428ec02","1000","
                  <p style=""text-align: center;"">₪79
                                                <br>40%</p>
                  <p id=""wtp"" style=""text-align:center; margin-top: 0px; margin-bottom: 0px; font-size: 40px"";>&ensp;</p>","-","viewing","0","30","9B","","","","","","","","","","","","","","","","","","","",""
"","","","","","html-slider-response","172","1371678","0.0-21.0-1.19","c42bb243-6020-44ac-9451-f937e428ec02","1496","
                  <p style=""text-align: center;"">₪79
                                                <br>40%</p>
                  <p id=""wtp"" style=""text-align:center; margin-top: 0px; margin-bottom: 0px; font-size: 40px"";>מוכנים לשלם: <span id=""c_p_y""></span></p>","24","evaluation","79","30","9B","40","79","24","","","","","","","","","","","","","","","","",""
"","","","","","html-keyboard-response","173","1372950","0.0-21.0-2.19","c42bb243-6020-44ac-9451-f937e428ec02","null","<p style=""text-align: center;"">+</p>","null","fixation","","","","","","","","","","","","","","","","","","","","","","",""
"","","","","","html-slider-response","174","1373952","0.0-21.0-0.20","c42bb243-6020-44ac-9451-f937e428ec02","1000","
                  <p style=""text-align: center;"">₪61
                                                <br>45%</p>
                  <p id=""wtp"" style=""text-align:center; margin-top: 0px; margin-bottom: 0px; font-size: 40px"";>&ensp;</p>","-","viewing","0","22","10A,11A","","","","","","","","","","","","","","","","","","","",""
"","","","","","html-slider-response","175","1375775","0.0-21.0-1.20","c42bb243-6020-44ac-9451-f937e428ec02","1821","
                  <p style=""text-align: center;"">₪61
                                                <br>45%</p>
                  <p id=""wtp"" style=""text-align:center; margin-top: 0px; margin-bottom: 0px; font-size: 40px"";>מוכנים לשלם: <span id=""c_p_y""></span></p>","33","evaluation","50","22","10A,11A","45","61","33","","","","","","","","","","","","","","","","",""
"","","","","","html-keyboard-response","176","1377254","0.0-21.0-2.20","c42bb243-6020-44ac-9451-f937e428ec02","null","<p style=""text-align: center;"">+</p>","null","fixation","","","","","","","","","","","","","","","","","","","","","","",""
"","","","","","html-slider-response","177","1378267","0.0-21.0-0.21","c42bb243-6020-44ac-9451-f937e428ec02","1000","
                  <p style=""text-align: center;"">₪11
                                                <br>45%</p>
                  <p id=""wtp"" style=""text-align:center; margin-top: 0px; margin-bottom: 0px; font-size: 40px"";>&ensp;</p>","-","viewing","0","6","14B,21C,25C","","","","","","","","","","","","","","","","","","","",""
"","","","","","html-slider-response","178","1379613","0.0-21.0-1.21","c42bb243-6020-44ac-9451-f937e428ec02","1346","
                  <p style=""text-align: center;"">₪11
                                                <br>45%</p>
                  <p id=""wtp"" style=""text-align:center; margin-top: 0px; margin-bottom: 0px; font-size: 40px"";>מוכנים לשלם: <span id=""c_p_y""></span></p>","4","evaluation","76","6","14B,21C,25C","45","11","4","","","","","","","","","","","","","","","","",""
"","","","","","html-keyboard-response","179","1380655","0.0-21.0-2.21","c42bb243-6020-44ac-9451-f937e428ec02","null","<p style=""text-align: center;"">+</p>","null","fixation","","","","","","","","","","","","","","","","","","","","","","",""
"","","","","","html-slider-response","180","1381659","0.0-21.0-0.22","c42bb243-6020-44ac-9451-f937e428ec02","1000","
                  <p style=""text-align: center;"">₪71
                                                <br>45%</p>
                  <p id=""wtp"" style=""text-align:center; margin-top: 0px; margin-bottom: 0px; font-size: 40px"";>&ensp;</p>","-","viewing","0","26","2B,16A","","","","","","","","","","","","","","","","","","","",""
"","","","","","html-slider-response","181","1383829","0.0-21.0-1.22","c42bb243-6020-44ac-9451-f937e428ec02","2170","
                  <p style=""text-align: center;"">₪71
                                                <br>45%</p>
                  <p id=""wtp"" style=""text-align:center; margin-top: 0px; margin-bottom: 0px; font-size: 40px"";>מוכנים לשלם: <span id=""c_p_y""></span></p>","34","evaluation","53","26","2B,16A","45","71","34","","","","","","","","","","","","","","","","",""
"","","","","","html-keyboard-response","182","1384657","0.0-21.0-2.22","c42bb243-6020-44ac-9451-f937e428ec02","null","<p style=""text-align: center;"">+</p>","null","fixation","","","","","","","","","","","","","","","","","","","","","","",""
"","","","","","html-slider-response","183","1385664","0.0-21.0-0.23","c42bb243-6020-44ac-9451-f937e428ec02","1000","
                  <p style=""text-align: center;"">₪76
                                                <br>65%</p>
                  <p id=""wtp"" style=""text-align:center; margin-top: 0px; margin-bottom: 0px; font-size: 40px"";>&ensp;</p>","-","viewing","0","29","8C,19A,24B","","","","","","","","","","","","","","","","","","","",""
"","","","","","html-slider-response","184","1387445","0.0-21.0-1.23","c42bb243-6020-44ac-9451-f937e428ec02","1780","
                  <p style=""text-align: center;"">₪76
                                                <br>65%</p>
                  <p id=""wtp"" style=""text-align:center; margin-top: 0px; margin-bottom: 0px; font-size: 40px"";>מוכנים לשלם: <span id=""c_p_y""></span></p>","40","evaluation","77","29","8C,19A,24B","65","76","40","","","","","","","","","","","","","","","","",""
"","","","","","html-keyboard-response","185","1388653","0.0-21.0-2.23","c42bb243-6020-44ac-9451-f937e428ec02","null","<p style=""text-align: center;"">+</p>","null","fixation","","","","","","","","","","","","","","","","","","","","","","",""
"","","","","","html-slider-response","186","1389654","0.0-21.0-0.24","c42bb243-6020-44ac-9451-f937e428ec02","1000","
                  <p style=""text-align: center;"">₪16
                                                <br>20%</p>
                  <p id=""wtp"" style=""text-align:center; margin-top: 0px; margin-bottom: 0px; font-size: 40px"";>&ensp;</p>","-","viewing","0","8","14C,17A,20C,27A","","","","","","","","","","","","","","","","","","","",""
"","","","","","html-slider-response","187","1390461","0.0-21.0-1.24","c42bb243-6020-44ac-9451-f937e428ec02","806","
                  <p style=""text-align: center;"">₪16
                                                <br>20%</p>
                  <p id=""wtp"" style=""text-align:center; margin-top: 0px; margin-bottom: 0px; font-size: 40px"";>מוכנים לשלם: <span id=""c_p_y""></span></p>","0","evaluation","36","8","14C,17A,20C,27A","20","16","1","","","","","","","","","","","","","","","","",""
"","","","","","html-keyboard-response","188","1391320","0.0-21.0-2.24","c42bb243-6020-44ac-9451-f937e428ec02","null","<p style=""text-align: center;"">+</p>","null","fixation","","","","","","","","","","","","","","","","","","","","","","",""
"","","","","","html-slider-response","189","1392330","0.0-21.0-0.25","c42bb243-6020-44ac-9451-f937e428ec02","1000","
                  <p style=""text-align: center;"">₪64
                                                <br>25%</p>
                  <p id=""wtp"" style=""text-align:center; margin-top: 0px; margin-bottom: 0px; font-size: 40px"";>&ensp;</p>","-","viewing","0","24","6A,21A","","","","","","","","","","","","","","","","","","","",""
"","","","","","html-slider-response","190","1394317","0.0-21.0-1.25","c42bb243-6020-44ac-9451-f937e428ec02","1986","
                  <p style=""text-align: center;"">₪64
                                                <br>25%</p>
                  <p id=""wtp"" style=""text-align:center; margin-top: 0px; margin-bottom: 0px; font-size: 40px"";>מוכנים לשלם: <span id=""c_p_y""></span></p>","22","evaluation","29","24","6A,21A","25","64","23","","","","","","","","","","","","","","","","",""
"","","","","","html-keyboard-response","191","1395386","0.0-21.0-2.25","c42bb243-6020-44ac-9451-f937e428ec02","null","<p style=""text-align: center;"">+</p>","null","fixation","","","","","","","","","","","","","","","","","","","","","","",""
"","","","","","html-slider-response","192","1396390","0.0-21.0-0.26","c42bb243-6020-44ac-9451-f937e428ec02","1000","
                  <p style=""text-align: center;"">₪58
                                                <br>45%</p>
                  <p id=""wtp"" style=""text-align:center; margin-top: 0px; margin-bottom: 0px; font-size: 40px"";>&ensp;</p>","-","viewing","0","21","11C,18C,25A","","","","","","","","","","","","","","","","","","","",""
"","","","","","html-slider-response","193","1398678","0.0-21.0-1.26","c42bb243-6020-44ac-9451-f937e428ec02","2286","
                  <p style=""text-align: center;"">₪58
                                                <br>45%</p>
                  <p id=""wtp"" style=""text-align:center; margin-top: 0px; margin-bottom: 0px; font-size: 40px"";>מוכנים לשלם: <span id=""c_p_y""></span></p>","23","evaluation","39","21","11C,18C,25A","45","58","23","","","","","","","","","","","","","","","","",""
"","","","","","html-keyboard-response","194","1400145","0.0-21.0-2.26","c42bb243-6020-44ac-9451-f937e428ec02","null","<p style=""text-align: center;"">+</p>","null","fixation","","","","","","","","","","","","","","","","","","","","","","",""
"","","","","","html-slider-response","195","1401161","0.0-21.0-0.27","c42bb243-6020-44ac-9451-f937e428ec02","1000","
                  <p style=""text-align: center;"">₪43
                                                <br>60%</p>
                  <p id=""wtp"" style=""text-align:center; margin-top: 0px; margin-bottom: 0px; font-size: 40px"";>&ensp;</p>","-","viewing","0","17","2A,7A,9A,15B","","","","","","","","","","","","","","","","","","","",""
"","","","","","html-slider-response","196","1402989","0.0-21.0-1.27","c42bb243-6020-44ac-9451-f937e428ec02","1827","
                  <p style=""text-align: center;"">₪43
                                                <br>60%</p>
                  <p id=""wtp"" style=""text-align:center; margin-top: 0px; margin-bottom: 0px; font-size: 40px"";>מוכנים לשלם: <span id=""c_p_y""></span></p>","27","evaluation","10","17","2A,7A,9A,15B","60","43","27","","","","","","","","","","","","","","","","",""
"","","","","","html-keyboard-response","197","1404434","0.0-21.0-2.27","c42bb243-6020-44ac-9451-f937e428ec02","null","<p style=""text-align: center;"">+</p>","null","fixation","","","","","","","","","","","","","","","","","","","","","","",""
"","","","","","html-slider-response","198","1405449","0.0-21.0-0.28","c42bb243-6020-44ac-9451-f937e428ec02","1000","
                  <p style=""text-align: center;"">₪58
                                                <br>40%</p>
                  <p id=""wtp"" style=""text-align:center; margin-top: 0px; margin-bottom: 0px; font-size: 40px"";>&ensp;</p>","-","viewing","0","20","10C,13A,19C,21B","","","","","","","","","","","","","","","","","","","",""
"","","","","","html-slider-response","199","1406077","0.0-21.0-1.28","c42bb243-6020-44ac-9451-f937e428ec02","627","
                  <p style=""text-align: center;"">₪58
                                                <br>40%</p>
                  <p id=""wtp"" style=""text-align:center; margin-top: 0px; margin-bottom: 0px; font-size: 40px"";>מוכנים לשלם: <span id=""c_p_y""></span></p>","27","evaluation","11","20","10C,13A,19C,21B","40","58","28","","","","","","","","","","","","","","","","",""
"","","","","","html-keyboard-response","200","1407098","0.0-21.0-2.28","c42bb243-6020-44ac-9451-f937e428ec02","null","<p style=""text-align: center;"">+</p>","null","fixation","","","","","","","","","","","","","","","","","","","","","","",""
"","","","","","html-slider-response","201","1408114","0.0-21.0-0.29","c42bb243-6020-44ac-9451-f937e428ec02","1000","
                  <p style=""text-align: center;"">₪4
                                                <br>25%</p>
                  <p id=""wtp"" style=""text-align:center; margin-top: 0px; margin-bottom: 0px; font-size: 40px"";>&ensp;</p>","-","viewing","0","1","6C,29B,30C","","","","","","","","","","","","","","","","","","","",""
"","","","","","html-slider-response","202","1409661","0.0-21.0-1.29","c42bb243-6020-44ac-9451-f937e428ec02","1546","
                  <p style=""text-align: center;"">₪4
                                                <br>25%</p>
                  <p id=""wtp"" style=""text-align:center; margin-top: 0px; margin-bottom: 0px; font-size: 40px"";>מוכנים לשלם: <span id=""c_p_y""></span></p>","1","evaluation","44","1","6C,29B,30C","25","4","1","","","","","","","","","","","","","","","","",""
"","","","","","html-keyboard-response","203","1410936","0.0-21.0-2.29","c42bb243-6020-44ac-9451-f937e428ec02","null","<p style=""text-align: center;"">+</p>","null","fixation","","","","","","","","","","","","","","","","","","","","","","",""
"","","","","","html-slider-response","204","1411940","0.0-21.0-0.30","c42bb243-6020-44ac-9451-f937e428ec02","1000","
                  <p style=""text-align: center;"">₪58
                                                <br>30%</p>
                  <p id=""wtp"" style=""text-align:center; margin-top: 0px; margin-bottom: 0px; font-size: 40px"";>&ensp;</p>","-","viewing","0","19","13C,30A","","","","","","","","","","","","","","","","","","","",""
"","","","","","html-slider-response","205","1414390","0.0-21.0-1.30","c42bb243-6020-44ac-9451-f937e428ec02","2448","
                  <p style=""text-align: center;"">₪58
                                                <br>30%</p>
                  <p id=""wtp"" style=""text-align:center; margin-top: 0px; margin-bottom: 0px; font-size: 40px"";>מוכנים לשלם: <span id=""c_p_y""></span></p>","25","evaluation","68","19","13C,30A","30","58","25","","","","","","","","","","","","","","","","",""
"","","","","","html-keyboard-response","206","1415174","0.0-21.0-2.30","c42bb243-6020-44ac-9451-f937e428ec02","null","<p style=""text-align: center;"">+</p>","null","fixation","","","","","","","","","","","","","","","","","","","","","","",""
"","","","","","html-keyboard-response","207","1416178","0.0-22.0","c42bb243-6020-44ac-9451-f937e428ec02","null","<p style=""text-align: center;"">+</p>","null","fixation","","","","","","","","","","","","","","","","","","","","","","",""
"","","","","","html-keyboard-response","208","1418165","0.0-23.0","c42bb243-6020-44ac-9451-f937e428ec02","null","<p>הפסקה.
          <br>לחצו כדי להמשיך.</p>","1","scan_wait","","","","","","","","","","","","","","","","","","","","","","",""
"","","","","","html-keyboard-response","209","1419179","0.0-24.0","c42bb243-6020-44ac-9451-f937e428ec02","null","<p style=""text-align: center;"">+</p>","null","fixation","","","","","","","","","","","","","","","","","","","","","","",""
"","","","","","html-slider-response","210","1420196","0.0-25.0-0.0","c42bb243-6020-44ac-9451-f937e428ec02","1000","
                  <p style=""text-align: center;"">₪36
                                                <br>60%</p>
                  <p id=""wtp"" style=""text-align:center; margin-top: 0px; margin-bottom: 0px; font-size: 40px"";>&ensp;</p>","-","viewing","0","12","1C,7C,15C","","","","","","","","","","","","","","","","","","","",""
"","","","","","html-slider-response","211","1421653","0.0-25.0-1.0","c42bb243-6020-44ac-9451-f937e428ec02","1456","
                  <p style=""text-align: center;"">₪36
                                                <br>60%</p>
                  <p id=""wtp"" style=""text-align:center; margin-top: 0px; margin-bottom: 0px; font-size: 40px"";>מוכנים לשלם: <span id=""c_p_y""></span></p>","21","evaluation","48","12","1C,7C,15C","60","36","21","","","","","","","","","","","","","","","","",""
"","","","","","html-keyboard-response","212","1422478","0.0-25.0-2.0","c42bb243-6020-44ac-9451-f937e428ec02","null","<p style=""text-align: center;"">+</p>","null","fixation","","","","","","","","","","","","","","","","","","","","","","",""
"","","","","","html-slider-response","213","1423484","0.0-25.0-0.1","c42bb243-6020-44ac-9451-f937e428ec02","1000","
                  <p style=""text-align: center;"">₪58
                                                <br>40%</p>
                  <p id=""wtp"" style=""text-align:center; margin-top: 0px; margin-bottom: 0px; font-size: 40px"";>&ensp;</p>","-","viewing","0","20","10C,13A,19C,21B","","","","","","","","","","","","","","","","","","","",""
"","","","","","html-slider-response","214","1425069","0.0-25.0-1.1","c42bb243-6020-44ac-9451-f937e428ec02","1584","
                  <p style=""text-align: center;"">₪58
                                                <br>40%</p>
                  <p id=""wtp"" style=""text-align:center; margin-top: 0px; margin-bottom: 0px; font-size: 40px"";>מוכנים לשלם: <span id=""c_p_y""></span></p>","29","evaluation","26","20","10C,13A,19C,21B","40","58","29","","","","","","","","","","","","","","","","",""
"","","","","","html-keyboard-response","215","1426232","0.0-25.0-2.1","c42bb243-6020-44ac-9451-f937e428ec02","null","<p style=""text-align: center;"">+</p>","null","fixation","","","","","","","","","","","","","","","","","","","","","","",""
"","","","","","html-slider-response","216","1427239","0.0-25.0-0.2","c42bb243-6020-44ac-9451-f937e428ec02","1000","
                  <p style=""text-align: center;"">₪58
                                                <br>45%</p>
                  <p id=""wtp"" style=""text-align:center; margin-top: 0px; margin-bottom: 0px; font-size: 40px"";>&ensp;</p>","-","viewing","0","21","11C,18C,25A","","","","","","","","","","","","","","","","","","","",""
"","","","","","html-slider-response","217","1429373","0.0-25.0-1.2","c42bb243-6020-44ac-9451-f937e428ec02","2133","
                  <p style=""text-align: center;"">₪58
                                                <br>45%</p>
                  <p id=""wtp"" style=""text-align:center; margin-top: 0px; margin-bottom: 0px; font-size: 40px"";>מוכנים לשלם: <span id=""c_p_y""></span></p>","33","evaluation","62","21","11C,18C,25A","45","58","33","","","","","","","","","","","","","","","","",""
"","","","","","html-keyboard-response","218","1430702","0.0-25.0-2.2","c42bb243-6020-44ac-9451-f937e428ec02","null","<p style=""text-align: center;"">+</p>","null","fixation","","","","","","","","","","","","","","","","","","","","","","",""
"","","","","","html-slider-response","219","1431709","0.0-25.0-0.3","c42bb243-6020-44ac-9451-f937e428ec02","1000","
                  <p style=""text-align: center;"">₪36
                                                <br>30%</p>
                  <p id=""wtp"" style=""text-align:center; margin-top: 0px; margin-bottom: 0px; font-size: 40px"";>&ensp;</p>","-","viewing","0","11","3C,20A,22A","","","","","","","","","","","","","","","","","","","",""
"","","","","","html-slider-response","220","1433109","0.0-25.0-1.3","c42bb243-6020-44ac-9451-f937e428ec02","1399","
                  <p style=""text-align: center;"">₪36
                                                <br>30%</p>
                  <p id=""wtp"" style=""text-align:center; margin-top: 0px; margin-bottom: 0px; font-size: 40px"";>מוכנים לשלם: <span id=""c_p_y""></span></p>","21","evaluation","25","11","3C,20A,22A","30","36","21","","","","","","","","","","","","","","","","",""
"","","","","","html-keyboard-response","221","1433861","0.0-25.0-2.3","c42bb243-6020-44ac-9451-f937e428ec02","null","<p style=""text-align: center;"">+</p>","null","fixation","","","","","","","","","","","","","","","","","","","","","","",""
"","","","","","html-slider-response","222","1434878","0.0-25.0-0.4","c42bb243-6020-44ac-9451-f937e428ec02","1000","
                  <p style=""text-align: center;"">₪11
                                                <br>45%</p>
                  <p id=""wtp"" style=""text-align:center; margin-top: 0px; margin-bottom: 0px; font-size: 40px"";>&ensp;</p>","-","viewing","0","6","14B,21C,25C","","","","","","","","","","","","","","","","","","","",""
"","","","","","html-slider-response","223","1436181","0.0-25.0-1.4","c42bb243-6020-44ac-9451-f937e428ec02","1302","
                  <p style=""text-align: center;"">₪11
                                                <br>45%</p>
                  <p id=""wtp"" style=""text-align:center; margin-top: 0px; margin-bottom: 0px; font-size: 40px"";>מוכנים לשלם: <span id=""c_p_y""></span></p>","5","evaluation","7","6","14B,21C,25C","45","11","6","","","","","","","","","","","","","","","","",""
"","","","","","html-keyboard-response","224","1437387","0.0-25.0-2.4","c42bb243-6020-44ac-9451-f937e428ec02","null","<p style=""text-align: center;"">+</p>","null","fixation","","","","","","","","","","","","","","","","","","","","","","",""
"","","","","","html-slider-response","225","1438390","0.0-25.0-0.5","c42bb243-6020-44ac-9451-f937e428ec02","1000","
                  <p style=""text-align: center;"">₪36
                                                <br>75%</p>
                  <p id=""wtp"" style=""text-align:center; margin-top: 0px; margin-bottom: 0px; font-size: 40px"";>&ensp;</p>","-","viewing","0","14","4B,5A,13B,16B","","","","","","","","","","","","","","","","","","","",""
"","","","","","html-slider-response","226","1440371","0.0-25.0-1.5","c42bb243-6020-44ac-9451-f937e428ec02","1979","
                  <p style=""text-align: center;"">₪36
                                                <br>75%</p>
                  <p id=""wtp"" style=""text-align:center; margin-top: 0px; margin-bottom: 0px; font-size: 40px"";>מוכנים לשלם: <span id=""c_p_y""></span></p>","24","evaluation","72","14","4B,5A,13B,16B","75","36","24","","","","","","","","","","","","","","","","",""
"","","","","","html-keyboard-response","227","1441025","0.0-25.0-2.5","c42bb243-6020-44ac-9451-f937e428ec02","null","<p style=""text-align: center;"">+</p>","null","fixation","","","","","","","","","","","","","","","","","","","","","","",""
"","","","","","html-slider-response","228","1442041","0.0-25.0-0.6","c42bb243-6020-44ac-9451-f937e428ec02","1000","
                  <p style=""text-align: center;"">₪64
                                                <br>50%</p>
                  <p id=""wtp"" style=""text-align:center; margin-top: 0px; margin-bottom: 0px; font-size: 40px"";>&ensp;</p>","-","viewing","0","25","1B,3B,4A","","","","","","","","","","","","","","","","","","","",""
"","","","","","html-slider-response","229","1444027","0.0-25.0-1.6","c42bb243-6020-44ac-9451-f937e428ec02","1986","
                  <p style=""text-align: center;"">₪64
                                                <br>50%</p>
                  <p id=""wtp"" style=""text-align:center; margin-top: 0px; margin-bottom: 0px; font-size: 40px"";>מוכנים לשלם: <span id=""c_p_y""></span></p>","23","evaluation","38","25","1B,3B,4A","50","64","23","","","","","","","","","","","","","","","","",""
"","","","","","html-keyboard-response","230","1444551","0.0-25.0-2.6","c42bb243-6020-44ac-9451-f937e428ec02","null","<p style=""text-align: center;"">+</p>","null","fixation","","","","","","","","","","","","","","","","","","","","","","",""
"","","","","","html-slider-response","231","1445563","0.0-25.0-0.7","c42bb243-6020-44ac-9451-f937e428ec02","1000","
                  <p style=""text-align: center;"">₪16
                                                <br>20%</p>
                  <p id=""wtp"" style=""text-align:center; margin-top: 0px; margin-bottom: 0px; font-size: 40px"";>&ensp;</p>","-","viewing","0","8","14C,17A,20C,27A","","","","","","","","","","","","","","","","","","","",""
"","","","","","html-slider-response","232","1446915","0.0-25.0-1.7","c42bb243-6020-44ac-9451-f937e428ec02","1350","
                  <p style=""text-align: center;"">₪16
                                                <br>20%</p>
                  <p id=""wtp"" style=""text-align:center; margin-top: 0px; margin-bottom: 0px; font-size: 40px"";>מוכנים לשלם: <span id=""c_p_y""></span></p>","5","evaluation","69","8","14C,17A,20C,27A","20","16","5","","","","","","","","","","","","","","","","",""
"","","","","","html-keyboard-response","233","1447453","0.0-25.0-2.7","c42bb243-6020-44ac-9451-f937e428ec02","null","<p style=""text-align: center;"">+</p>","null","fixation","","","","","","","","","","","","","","","","","","","","","","",""
"","","","","","html-slider-response","234","1448456","0.0-25.0-0.8","c42bb243-6020-44ac-9451-f937e428ec02","1000","
                  <p style=""text-align: center;"">₪18
                                                <br>50%</p>
                  <p id=""wtp"" style=""text-align:center; margin-top: 0px; margin-bottom: 0px; font-size: 40px"";>&ensp;</p>","-","viewing","0","10","2C,16C,22B,28A","","","","","","","","","","","","","","","","","","","",""
"","","","","","html-slider-response","235","1450099","0.0-25.0-1.8","c42bb243-6020-44ac-9451-f937e428ec02","1641","
                  <p style=""text-align: center;"">₪18
                                                <br>50%</p>
                  <p id=""wtp"" style=""text-align:center; margin-top: 0px; margin-bottom: 0px; font-size: 40px"";>מוכנים לשלם: <span id=""c_p_y""></span></p>","3","evaluation","25","10","2C,16C,22B,28A","50","18","4","","","","","","","","","","","","","","","","",""
"","","","","","html-keyboard-response","236","1451373","0.0-25.0-2.8","c42bb243-6020-44ac-9451-f937e428ec02","null","<p style=""text-align: center;"">+</p>","null","fixation","","","","","","","","","","","","","","","","","","","","","","",""
"","","","","","html-slider-response","237","1452377","0.0-25.0-0.9","c42bb243-6020-44ac-9451-f937e428ec02","1000","
                  <p style=""text-align: center;"">₪76
                                                <br>65%</p>
                  <p id=""wtp"" style=""text-align:center; margin-top: 0px; margin-bottom: 0px; font-size: 40px"";>&ensp;</p>","-","viewing","0","29","8C,19A,24B","","","","","","","","","","","","","","","","","","","",""
"","","","","","html-slider-response","238","1455235","0.0-25.0-1.9","c42bb243-6020-44ac-9451-f937e428ec02","2856","
                  <p style=""text-align: center;"">₪76
                                                <br>65%</p>
                  <p id=""wtp"" style=""text-align:center; margin-top: 0px; margin-bottom: 0px; font-size: 40px"";>מוכנים לשלם: <span id=""c_p_y""></span></p>","30","evaluation","68","29","8C,19A,24B","65","76","30","","","","","","","","","","","","","","","","",""
"","","","","","html-keyboard-response","239","1455856","0.0-25.0-2.9","c42bb243-6020-44ac-9451-f937e428ec02","null","<p style=""text-align: center;"">+</p>","null","fixation","","","","","","","","","","","","","","","","","","","","","","",""
"","","","","","html-slider-response","240","1456861","0.0-25.0-0.10","c42bb243-6020-44ac-9451-f937e428ec02","1000","
                  <p style=""text-align: center;"">₪71
                                                <br>55%</p>
                  <p id=""wtp"" style=""text-align:center; margin-top: 0px; margin-bottom: 0px; font-size: 40px"";>&ensp;</p>","-","viewing","0","27","5B,18A","","","","","","","","","","","","","","","","","","","",""
"","","","","","html-slider-response","241","1458203","0.0-25.0-1.10","c42bb243-6020-44ac-9451-f937e428ec02","1340","
                  <p style=""text-align: center;"">₪71
                                                <br>55%</p>
                  <p id=""wtp"" style=""text-align:center; margin-top: 0px; margin-bottom: 0px; font-size: 40px"";>מוכנים לשלם: <span id=""c_p_y""></span></p>","31","evaluation","73","27","5B,18A","55","71","31","","","","","","","","","","","","","","","","",""
"","","","","","html-keyboard-response","242","1459107","0.0-25.0-2.10","c42bb243-6020-44ac-9451-f937e428ec02","null","<p style=""text-align: center;"">+</p>","null","fixation","","","","","","","","","","","","","","","","","","","","","","",""
"","","","","","html-slider-response","243","1460118","0.0-25.0-0.11","c42bb243-6020-44ac-9451-f937e428ec02","1000","
                  <p style=""text-align: center;"">₪71
                                                <br>75%</p>
                  <p id=""wtp"" style=""text-align:center; margin-top: 0px; margin-bottom: 0px; font-size: 40px"";>&ensp;</p>","-","viewing","0","28","8B","","","","","","","","","","","","","","","","","","","",""
"","","","","","html-slider-response","244","1461362","0.0-25.0-1.11","c42bb243-6020-44ac-9451-f937e428ec02","1243","
                  <p style=""text-align: center;"">₪71
                                                <br>75%</p>
                  <p id=""wtp"" style=""text-align:center; margin-top: 0px; margin-bottom: 0px; font-size: 40px"";>מוכנים לשלם: <span id=""c_p_y""></span></p>","37","evaluation","75","28","8B","75","71","37","","","","","","","","","","","","","","","","",""
"","","","","","html-keyboard-response","245","1461900","0.0-25.0-2.11","c42bb243-6020-44ac-9451-f937e428ec02","null","<p style=""text-align: center;"">+</p>","null","fixation","","","","","","","","","","","","","","","","","","","","","","",""
"","","","","","html-slider-response","246","1462904","0.0-25.0-0.12","c42bb243-6020-44ac-9451-f937e428ec02","1000","
                  <p style=""text-align: center;"">₪71
                                                <br>45%</p>
                  <p id=""wtp"" style=""text-align:center; margin-top: 0px; margin-bottom: 0px; font-size: 40px"";>&ensp;</p>","-","viewing","0","26","2B,16A","","","","","","","","","","","","","","","","","","","",""
"","","","","","html-slider-response","247","1464107","0.0-25.0-1.12","c42bb243-6020-44ac-9451-f937e428ec02","1201","
                  <p style=""text-align: center;"">₪71
                                                <br>45%</p>
                  <p id=""wtp"" style=""text-align:center; margin-top: 0px; margin-bottom: 0px; font-size: 40px"";>מוכנים לשלם: <span id=""c_p_y""></span></p>","39","evaluation","28","26","2B,16A","45","71","39","","","","","","","","","","","","","","","","",""
"","","","","","html-keyboard-response","248","1465372","0.0-25.0-2.12","c42bb243-6020-44ac-9451-f937e428ec02","null","<p style=""text-align: center;"">+</p>","null","fixation","","","","","","","","","","","","","","","","","","","","","","",""
"","","","","","html-slider-response","249","1466387","0.0-25.0-0.13","c42bb243-6020-44ac-9451-f937e428ec02","1000","
