"success","timeout","failed_images","failed_audio","failed_video","trial_type","trial_index","time_elapsed","internal_node_id","subject_id","rt","stimulus","response","part","slider_start","ID","set_ID","prob","amount","last_location","actual_choice","actual_EV","binary_id","trinary_id","catch","direction","A_key","S_key","D_key","choice_prob","choice_amount","chosen_part","won_prize","potential_prize_amount","potential_prize_prob","total_prize","accuracy"
"true","false","[]","[]","[]","preload","0","390","0.0-0.0","41dee2bf-44de-4b95-a0ce-cfd0e8024bf0","","","","","","","","","","","","","","","","","","","","","","","","","","",""
"","","","","","html-keyboard-response","1","820163","0.0-1.0","41dee2bf-44de-4b95-a0ce-cfd0e8024bf0","null","
          <h1>שלום וברוכים הבאים!</h1>
          <p>לפניכם ניסוי בקבלת החלטות עם שני חלקים.
          <br><br>לחצו על העכבר כדי להמשיך.</p>","0","example","","","","","","","","","","","","","","","","","","","","","","",""
"","","","","","html-keyboard-response","2","1246024","0.0-2.0","41dee2bf-44de-4b95-a0ce-cfd0e8024bf0","null","
        <h1>חלק 1</h1>
        <p>בקרוב יוצגו בפניכם הגרלות.
        <br>עליכם לבחור את המחיר המירבי שתהיו מוכנים לשלם כדי להשתתף בהגרלה שתוצג.
        <br>יש לכם תקציב של ₪80 לכל הגרלה. 
        <br>נסו להעריך כל הגרלה בנפרד ולחשוב כמה היא שווה עבורכם, ₪80 זמינים לכל הגרלה בנפרד.
        <br><br>לחצו על העכבר כדי להמשיך.</p>","1","instructions","","","","","","","","","","","","","","","","","","","","","","",""
"","","","","","html-keyboard-response","3","1249304","0.0-3.0","41dee2bf-44de-4b95-a0ce-cfd0e8024bf0","null","
        <p>בסוף הניסוי, המחשב יבחר את אחת ההגרלות ויקבע מחיר לכרטיס עבורה. 
        <br>במידה והמחיר שבחרתם נמוך מהמחיר שנבחר על ידי המחשב, לא תשתתפו בהגרלה ותשארו עם מלוא התקציב.
        <br>במידה והמחיר שבחרתם גבוה מהמחיר שנבחר על ידי המחשב, תשלמו את המחיר שנקבע ותשתתפו בהגרלה.
        <br><br>לחצו על העכבר כדי להמשיך.</p>","1","instructions","","","","","","","","","","","","","","","","","","","","","","",""
"","","","","","html-slider-response","4","1258513","0.0-4.0","41dee2bf-44de-4b95-a0ce-cfd0e8024bf0","9103","
        <p style=""font-size: 42px;"">נתחיל עם דוגמא: 
        <br>ההגרלה מטה מציעה 65% סיכוי לזכות ב-₪40 
        <br>&emsp;&emsp;&emsp;&emsp;&emsp;&emsp;&emsp;&emsp;&ensp;35% סיכוי לזכות ב-₪0.
        <br><br>מה המחיר המירבי שתהיו מוכנים לשלם על כרטיס להגרלה זו בין 0 ל-₪80?
        <br>הזיזו את העכבר על פני המלבן ולחצו כדי לבצע בחירה.</p>
        
        <p style=""text-align: center;"">₪40<br>65%</p>

        <p id=""wtp"" style=""text-align:center; margin-top: 0px; margin-bottom: 0px; font-size: 40px"";>מוכנים לשלם: <span id=""c_p_y""></span></p>","40","example","44","","","","","","","","","","","","","","","","","","","","","",""
"","","","","","html-keyboard-response","5","1265936","0.0-5.0","41dee2bf-44de-4b95-a0ce-cfd0e8024bf0","null","<p>יפה מאוד!
                <br> בחרתם שתהיו מוכנים לשלם ₪40 כדי להשתתף בהגרלה:
                <br><p style=""text-align: center;"">₪40<br>65%</p>
                <p>נשמע נכון?
                <br>נניח שהגרלה זו נבחרה בסוף הניסוי.
                <br>כעת המחשב יקבע מחיר עבורה באקראי.
                <br>לחצו על העכבר להמשך.</p>","1","example","","","","","","","","","","","","","","","","","","","","","","",""
"","","","","","html-keyboard-response","6","1273080","0.0-6.0","41dee2bf-44de-4b95-a0ce-cfd0e8024bf0","null","<p>המחשב קבע מחיר: ₪66
                <br>ואתם בחרתם לשלם לכל היותר: ₪40
                <br><br>מכיוון שהמחיר שבחרתם נמוך מהמחיר שנקבע, לא תתשתתפו בהגרלה.
                <br>במקרה כזה, בסוף הניסוי תקבלו את כל התקציב ההתחלתי של ₪80.
                <br><br>לחצו על העכבר להמשך.</p>","1","example","","","","","","","","","","","","","","","","","","","","","","",""
"","","","","","html-slider-response","7","1277377","0.0-7.0","41dee2bf-44de-4b95-a0ce-cfd0e8024bf0","4039","<p style=""font-size: 42px;"">הנה עוד דוגמא:
                <br>ההגרלה מטה מציעה 35% סיכוי לזכות ב-₪18 
                <br>&emsp;&emsp;&emsp;&emsp;&emsp;&emsp;&emsp;&emsp;&ensp;65% סיכוי לזכות ב-₪0.</p>
        
                <p style=""text-align: center;"">₪18<br>35%</p>
                <p id=""wtp"" style=""text-align:center; margin-top: 0px; margin-bottom: 0px; font-size: 40px"";>מוכנים לשלם: <span id=""c_p_y""></span></p>","60","example","19","","","","","","","","","","","","","","","","","","","","","",""
"","","","","","html-keyboard-response","8","1278864","0.0-8.0","41dee2bf-44de-4b95-a0ce-cfd0e8024bf0","null","<p>הייתם מוכנים לשלם  ₪60 כדי להשתתף בהגרלה:
                <p style=""text-align: center;"">₪18<br>35%</p>
                <p>כעת נניח שהמחשב בחר את ההגרלה הזו בסוף הניסוי, וקבע עבורה מחיר.
                <br><br>לחצו על העכבר כדי להמשיך.</p>","1","instructions","","","","","","","","","","","","","","","","","","","","","","",""
"","","","","","html-keyboard-response","9","1291552","0.0-9.0","41dee2bf-44de-4b95-a0ce-cfd0e8024bf0","null","<p>המחשב קבע מחיר להגרלה: ₪42<br>ואתם בחרתם לשלם לכל היותר: ₪60
                <br><br>כעת המחיר שנקבע נמוך מזה שבחרתם, אז תשלמו את המחיר שקבע המחשב (₪42) ותשתתפו בהגרלה.
                <br>במקרה כזה, תסיימו את הניסוי עם תקציב של ₪38 ועם סיכוי לזכות ב-₪18 נוספים מההגרלה.
                <br>כלומר, תוכלו לקבל ₪38 אם לא תזכו בהגרלה, או ₪56 אם תזכו בהגרלה.
                <br><br>לחצו על העכבר להמשך.</p>","1","example","","","","","","","","","","","","","","","","","","","","","","",""
"","","","","","html-keyboard-response","10","1296880","0.0-10.0","41dee2bf-44de-4b95-a0ce-cfd0e8024bf0","null","<p>במהלך הניסוי, קודם תראו את ההגרלה ורק לאחר מכן תוכלו לבחור.
                <p>כמו כן, יהיו לכם מספר שניות מוגבל להגיב.
                <p>בואו ננסה זאת עם ההגרלה הקודמת.
                <br>לחצו על העכבר כדי להמשיך.</p>","1","instructions","","","","","","","","","","","","","","","","","","","","","","",""
"","","","","","html-slider-response","11","1298160","0.0-11.0","41dee2bf-44de-4b95-a0ce-cfd0e8024bf0","1000","
                    <p style=""text-align: center;"">₪18<br>35%</p>
                    <p id=""wtp"" style=""text-align:center; margin-top: 0px; margin-bottom: 0px; font-size: 40px"";>&ensp;</p>","55","instructions","0","","","","","","","","","","","","","","","","","","","","","",""
"","","","","","html-slider-response","12","1302433","0.0-12.0","41dee2bf-44de-4b95-a0ce-cfd0e8024bf0","null","
                    <p style=""text-align: center;"">₪18<br>35%</p>
                    <p id=""wtp"" style=""text-align:center; margin-top: 0px; margin-bottom: 0px; font-size: 40px"";>מוכנים לשלם: <span id=""c_p_y""></span></p>","null","instructions","48","","","","","","","","","","","","","","","","","","","","","",""
"","","","","","html-keyboard-response","13","1306251","0.0-13.0","41dee2bf-44de-4b95-a0ce-cfd0e8024bf0","null","<p>לא הגבתם בזמן המוקצב לתגובה. 
                <br>נסו להגיב מהר יותר בפעם הבאה.
                <br><br>לחצו על העכבר כדי להמשיך.</p>","1","instructions","","","","","","","","","","","","","","","","","","","","","","",""
"","","","","","html-slider-response","14","1310527","0.0-14.0-0.0","41dee2bf-44de-4b95-a0ce-cfd0e8024bf0","null","
                    <p style=""text-align: center;"">₪40<br>65%</p>
                    <p id=""wtp"" style=""text-align:center; margin-top: 0px; margin-bottom: 0px; font-size: 40px"";>מוכנים לשלם: <span id=""c_p_y""></span></p>","null","instructions","10","","","","","","","","","","","","","","","","","","","","","",""
"","","","","","html-keyboard-response","15","1313555","0.0-14.0-1.0","41dee2bf-44de-4b95-a0ce-cfd0e8024bf0","null","<p>לא הגבתם בזמן המוקצב לתגובה. 
                <br>נסו להגיב מהר יותר בפעם הבאה.
                <br><br>לחצו על העכבר כדי להמשיך.</p>","1","instructions","","","","","","","","","","","","","","","","","","","","","","",""
"","","","","","html-keyboard-response","16","1318715","0.0-15.0","41dee2bf-44de-4b95-a0ce-cfd0e8024bf0","null","<p>כעת נתחיל את הניסוי.
                <br><br>אתם תראו הגרלות ותתבקשו לבחור כמה תהיו מוכנים לשלם כדי להשתתף בהן.
                <br>יש לכם תקציב של ₪80 עבור כל הגרלה.
                <br>בסוף הניסוי הגרלה אחת תבחר באקראי ותשוחק.
                <br><br>לחצו על העכבר כדי להתחיל את הניסוי.</p>","1","instructions","","","","","","","","","","","","","","","","","","","","","","",""
"","","","","","html-keyboard-response","17","1319987","0.0-16.0","41dee2bf-44de-4b95-a0ce-cfd0e8024bf0","null","<p style=""text-align: center;"">+</p>","null","fixation","","","","","","","","","","","","","","","","","","","","","","",""
"","","","","","html-slider-response","18","1320990","0.0-17.0-0.0","41dee2bf-44de-4b95-a0ce-cfd0e8024bf0","1000","
                  <p style=""text-align: center;"">₪39
                                                <br>65%</p>
                  <p id=""wtp"" style=""text-align:center; margin-top: 0px; margin-bottom: 0px; font-size: 40px"";>&ensp;</p>","-","viewing","0","16","1A,15A,26C","","","","","","","","","","","","","","","","","","","",""
"","","","","","html-slider-response","19","1322644","0.0-17.0-1.0","41dee2bf-44de-4b95-a0ce-cfd0e8024bf0","1653","
                  <p style=""text-align: center;"">₪39
                                                <br>65%</p>
                  <p id=""wtp"" style=""text-align:center; margin-top: 0px; margin-bottom: 0px; font-size: 40px"";>מוכנים לשלם: <span id=""c_p_y""></span></p>","60","evaluation","19","16","1A,15A,26C","65","39","60","","","","","","","","","","","","","","","","",""
"","","","","","html-keyboard-response","20","1323987","0.0-17.0-2.0","41dee2bf-44de-4b95-a0ce-cfd0e8024bf0","null","<p style=""text-align: center;"">+</p>","null","fixation","","","","","","","","","","","","","","","","","","","","","","",""
"","","","","","html-slider-response","21","1324994","0.0-17.0-0.1","41dee2bf-44de-4b95-a0ce-cfd0e8024bf0","1000","
                  <p style=""text-align: center;"">₪71
                                                <br>75%</p>
                  <p id=""wtp"" style=""text-align:center; margin-top: 0px; margin-bottom: 0px; font-size: 40px"";>&ensp;</p>","-","viewing","0","28","8B","","","","","","","","","","","","","","","","","","","",""
"","","","","","html-slider-response","22","1328627","0.0-17.0-1.1","41dee2bf-44de-4b95-a0ce-cfd0e8024bf0","3633","
                  <p style=""text-align: center;"">₪71
                                                <br>75%</p>
                  <p id=""wtp"" style=""text-align:center; margin-top: 0px; margin-bottom: 0px; font-size: 40px"";>מוכנים לשלם: <span id=""c_p_y""></span></p>","69","evaluation","32","28","8B","75","71","69","","","","","","","","","","","","","","","","",""
"","","","","","html-keyboard-response","23","1329137","0.0-17.0-2.1","41dee2bf-44de-4b95-a0ce-cfd0e8024bf0","null","<p style=""text-align: center;"">+</p>","null","fixation","","","","","","","","","","","","","","","","","","","","","","",""
"","","","","","html-slider-response","24","1330153","0.0-17.0-0.2","41dee2bf-44de-4b95-a0ce-cfd0e8024bf0","1000","
                  <p style=""text-align: center;"">₪58
                                                <br>30%</p>
                  <p id=""wtp"" style=""text-align:center; margin-top: 0px; margin-bottom: 0px; font-size: 40px"";>&ensp;</p>","-","viewing","0","19","13C,30A","","","","","","","","","","","","","","","","","","","",""
"","","","","","html-slider-response","25","1333900","0.0-17.0-1.2","41dee2bf-44de-4b95-a0ce-cfd0e8024bf0","3745","
                  <p style=""text-align: center;"">₪58
                                                <br>30%</p>
                  <p id=""wtp"" style=""text-align:center; margin-top: 0px; margin-bottom: 0px; font-size: 40px"";>מוכנים לשלם: <span id=""c_p_y""></span></p>","50","evaluation","19","19","13C,30A","30","58","50","","","","","","","","","","","","","","","","",""
"","","","","","html-keyboard-response","26","1334956","0.0-17.0-2.2","41dee2bf-44de-4b95-a0ce-cfd0e8024bf0","null","<p style=""text-align: center;"">+</p>","null","fixation","","","","","","","","","","","","","","","","","","","","","","",""
"","","","","","html-slider-response","27","1335972","0.0-17.0-0.3","41dee2bf-44de-4b95-a0ce-cfd0e8024bf0","1000","
                  <p style=""text-align: center;"">₪61
                                                <br>45%</p>
                  <p id=""wtp"" style=""text-align:center; margin-top: 0px; margin-bottom: 0px; font-size: 40px"";>&ensp;</p>","-","viewing","0","22","10A,11A","","","","","","","","","","","","","","","","","","","",""
"","","","","","html-slider-response","28","1338171","0.0-17.0-1.3","41dee2bf-44de-4b95-a0ce-cfd0e8024bf0","2198","
                  <p style=""text-align: center;"">₪61
                                                <br>45%</p>
                  <p id=""wtp"" style=""text-align:center; margin-top: 0px; margin-bottom: 0px; font-size: 40px"";>מוכנים לשלם: <span id=""c_p_y""></span></p>","40","evaluation","79","22","10A,11A","45","61","40","","","","","","","","","","","","","","","","",""
"","","","","","html-keyboard-response","29","1339648","0.0-17.0-2.3","41dee2bf-44de-4b95-a0ce-cfd0e8024bf0","null","<p style=""text-align: center;"">+</p>","null","fixation","","","","","","","","","","","","","","","","","","","","","","",""
"","","","","","html-slider-response","30","1340664","0.0-17.0-0.4","41dee2bf-44de-4b95-a0ce-cfd0e8024bf0","1000","
                  <p style=""text-align: center;"">₪79
                                                <br>65%</p>
                  <p id=""wtp"" style=""text-align:center; margin-top: 0px; margin-bottom: 0px; font-size: 40px"";>&ensp;</p>","-","viewing","0","31","8A","","","","","","","","","","","","","","","","","","","",""
"","","","","","html-slider-response","31","1344666","0.0-17.0-1.4","41dee2bf-44de-4b95-a0ce-cfd0e8024bf0","null","
                  <p style=""text-align: center;"">₪79
                                                <br>65%</p>
                  <p id=""wtp"" style=""text-align:center; margin-top: 0px; margin-bottom: 0px; font-size: 40px"";>מוכנים לשלם: <span id=""c_p_y""></span></p>","null","evaluation","50","31","8A","65","79","55","","","","","","","","","","","","","","","","",""
"","","","","","html-keyboard-response","32","1345950","0.0-17.0-2.4","41dee2bf-44de-4b95-a0ce-cfd0e8024bf0","null","<p style=""text-align: center;"">+</p>","null","fixation","","","","","","","","","","","","","","","","","","","","","","",""
"","","","","","html-slider-response","33","1346952","0.0-17.0-0.5","41dee2bf-44de-4b95-a0ce-cfd0e8024bf0","1000","
                  <p style=""text-align: center;"">₪36
                                                <br>60%</p>
                  <p id=""wtp"" style=""text-align:center; margin-top: 0px; margin-bottom: 0px; font-size: 40px"";>&ensp;</p>","-","viewing","0","12","1C,7C,15C","","","","","","","","","","","","","","","","","","","",""
"","","","","","html-slider-response","34","1350780","0.0-17.0-1.5","41dee2bf-44de-4b95-a0ce-cfd0e8024bf0","3827","
                  <p style=""text-align: center;"">₪36
                                                <br>60%</p>
                  <p id=""wtp"" style=""text-align:center; margin-top: 0px; margin-bottom: 0px; font-size: 40px"";>מוכנים לשלם: <span id=""c_p_y""></span></p>","50","evaluation","24","12","1C,7C,15C","60","36","50","","","","","","","","","","","","","","","","",""
"","","","","","html-keyboard-response","35","1351772","0.0-17.0-2.5","41dee2bf-44de-4b95-a0ce-cfd0e8024bf0","null","<p style=""text-align: center;"">+</p>","null","fixation","","","","","","","","","","","","","","","","","","","","","","",""
"","","","","","html-slider-response","36","1352774","0.0-17.0-0.6","41dee2bf-44de-4b95-a0ce-cfd0e8024bf0","1000","
                  <p style=""text-align: center;"">₪71
                                                <br>55%</p>
                  <p id=""wtp"" style=""text-align:center; margin-top: 0px; margin-bottom: 0px; font-size: 40px"";>&ensp;</p>","-","viewing","0","27","5B,18A","","","","","","","","","","","","","","","","","","","",""
"","","","","","html-slider-response","37","1355707","0.0-17.0-1.6","41dee2bf-44de-4b95-a0ce-cfd0e8024bf0","2933","
                  <p style=""text-align: center;"">₪71
                                                <br>55%</p>
                  <p id=""wtp"" style=""text-align:center; margin-top: 0px; margin-bottom: 0px; font-size: 40px"";>מוכנים לשלם: <span id=""c_p_y""></span></p>","80","evaluation","27","27","5B,18A","55","71","80","","","","","","","","","","","","","","","","",""
"","","","","","html-keyboard-response","38","1356425","0.0-17.0-2.6","41dee2bf-44de-4b95-a0ce-cfd0e8024bf0","null","<p style=""text-align: center;"">+</p>","null","fixation","","","","","","","","","","","","","","","","","","","","","","",""
"","","","","","html-slider-response","39","1357428","0.0-17.0-0.7","41dee2bf-44de-4b95-a0ce-cfd0e8024bf0","1000","
                  <p style=""text-align: center;"">₪43
                                                <br>75%</p>
                  <p id=""wtp"" style=""text-align:center; margin-top: 0px; margin-bottom: 0px; font-size: 40px"";>&ensp;</p>","-","viewing","0","18","11B,19B,24A,26A","","","","","","","","","","","","","","","","","","","",""
"","","","","","html-slider-response","40","1361051","0.0-17.0-1.7","41dee2bf-44de-4b95-a0ce-cfd0e8024bf0","3623","
                  <p style=""text-align: center;"">₪43
                                                <br>75%</p>
                  <p id=""wtp"" style=""text-align:center; margin-top: 0px; margin-bottom: 0px; font-size: 40px"";>מוכנים לשלם: <span id=""c_p_y""></span></p>","60","evaluation","78","18","11B,19B,24A,26A","75","43","60","","","","","","","","","","","","","","","","",""
"","","","","","html-keyboard-response","41","1361999","0.0-17.0-2.7","41dee2bf-44de-4b95-a0ce-cfd0e8024bf0","null","<p style=""text-align: center;"">+</p>","null","fixation","","","","","","","","","","","","","","","","","","","","","","",""
"","","","","","html-slider-response","42","1363009","0.0-17.0-0.8","41dee2bf-44de-4b95-a0ce-cfd0e8024bf0","1000","
                  <p style=""text-align: center;"">₪71
                                                <br>45%</p>
                  <p id=""wtp"" style=""text-align:center; margin-top: 0px; margin-bottom: 0px; font-size: 40px"";>&ensp;</p>","-","viewing","0","26","2B,16A","","","","","","","","","","","","","","","","","","","",""
"","","","","","html-slider-response","43","1366831","0.0-17.0-1.8","41dee2bf-44de-4b95-a0ce-cfd0e8024bf0","3826","
                  <p style=""text-align: center;"">₪71
                                                <br>45%</p>
                  <p id=""wtp"" style=""text-align:center; margin-top: 0px; margin-bottom: 0px; font-size: 40px"";>מוכנים לשלם: <span id=""c_p_y""></span></p>","40","evaluation","25","26","2B,16A","45","71","40","","","","","","","","","","","","","","","","",""
"","","","","","html-keyboard-response","44","1368055","0.0-17.0-2.8","41dee2bf-44de-4b95-a0ce-cfd0e8024bf0","null","<p style=""text-align: center;"">+</p>","null","fixation","","","","","","","","","","","","","","","","","","","","","","",""
"","","","","","html-slider-response","45","1369064","0.0-17.0-0.9","41dee2bf-44de-4b95-a0ce-cfd0e8024bf0","1000","
                  <p style=""text-align: center;"">₪64
                                                <br>25%</p>
                  <p id=""wtp"" style=""text-align:center; margin-top: 0px; margin-bottom: 0px; font-size: 40px"";>&ensp;</p>","-","viewing","0","24","6A,21A","","","","","","","","","","","","","","","","","","","",""
"","","","","","html-slider-response","46","1371135","0.0-17.0-1.9","41dee2bf-44de-4b95-a0ce-cfd0e8024bf0","2069","
                  <p style=""text-align: center;"">₪64
                                                <br>25%</p>
                  <p id=""wtp"" style=""text-align:center; margin-top: 0px; margin-bottom: 0px; font-size: 40px"";>מוכנים לשלם: <span id=""c_p_y""></span></p>","21","evaluation","12","24","6A,21A","25","64","21","","","","","","","","","","","","","","","","",""
"","","","","","html-keyboard-response","47","1372255","0.0-17.0-2.9","41dee2bf-44de-4b95-a0ce-cfd0e8024bf0","null","<p style=""text-align: center;"">+</p>","null","fixation","","","","","","","","","","","","","","","","","","","","","","",""
"","","","","","html-slider-response","48","1373257","0.0-17.0-0.10","41dee2bf-44de-4b95-a0ce-cfd0e8024bf0","1000","
                  <p style=""text-align: center;"">₪4
                                                <br>75%</p>
                  <p id=""wtp"" style=""text-align:center; margin-top: 0px; margin-bottom: 0px; font-size: 40px"";>&ensp;</p>","-","viewing","0","3","12B,20B,23B,27C,29C","","","","","","","","","","","","","","","","","","","",""
"","","","","","html-slider-response","49","1377259","0.0-17.0-1.10","41dee2bf-44de-4b95-a0ce-cfd0e8024bf0","null","
                  <p style=""text-align: center;"">₪4
                                                <br>75%</p>
                  <p id=""wtp"" style=""text-align:center; margin-top: 0px; margin-bottom: 0px; font-size: 40px"";>מוכנים לשלם: <span id=""c_p_y""></span></p>","null","evaluation","70","3","12B,20B,23B,27C,29C","75","4","18","","","","","","","","","","","","","","","","",""
"","","","","","html-keyboard-response","50","1378446","0.0-17.0-2.10","41dee2bf-44de-4b95-a0ce-cfd0e8024bf0","null","<p style=""text-align: center;"">+</p>","null","fixation","","","","","","","","","","","","","","","","","","","","","","",""
"","","","","","html-slider-response","51","1379450","0.0-17.0-0.11","41dee2bf-44de-4b95-a0ce-cfd0e8024bf0","1000","
                  <p style=""text-align: center;"">₪11
                                                <br>45%</p>
                  <p id=""wtp"" style=""text-align:center; margin-top: 0px; margin-bottom: 0px; font-size: 40px"";>&ensp;</p>","-","viewing","0","6","14B,21C,25C","","","","","","","","","","","","","","","","","","","",""
"","","","","","html-slider-response","52","1381695","0.0-17.0-1.11","41dee2bf-44de-4b95-a0ce-cfd0e8024bf0","2243","
                  <p style=""text-align: center;"">₪11
                                                <br>45%</p>
                  <p id=""wtp"" style=""text-align:center; margin-top: 0px; margin-bottom: 0px; font-size: 40px"";>מוכנים לשלם: <span id=""c_p_y""></span></p>","40","evaluation","19","6","14B,21C,25C","45","11","40","","","","","","","","","","","","","","","","",""
"","","","","","html-keyboard-response","53","1382733","0.0-17.0-2.11","41dee2bf-44de-4b95-a0ce-cfd0e8024bf0","null","<p style=""text-align: center;"">+</p>","null","fixation","","","","","","","","","","","","","","","","","","","","","","",""
"","","","","","html-slider-response","54","1383738","0.0-17.0-0.12","41dee2bf-44de-4b95-a0ce-cfd0e8024bf0","1000","
                  <p style=""text-align: center;"">₪58
                                                <br>40%</p>
                  <p id=""wtp"" style=""text-align:center; margin-top: 0px; margin-bottom: 0px; font-size: 40px"";>&ensp;</p>","-","viewing","0","20","10C,13A,19C,21B","","","","","","","","","","","","","","","","","","","",""
"","","","","","html-slider-response","55","1387752","0.0-17.0-1.12","41dee2bf-44de-4b95-a0ce-cfd0e8024bf0","null","
                  <p style=""text-align: center;"">₪58
                                                <br>40%</p>
                  <p id=""wtp"" style=""text-align:center; margin-top: 0px; margin-bottom: 0px; font-size: 40px"";>מוכנים לשלם: <span id=""c_p_y""></span></p>","null","evaluation","68","20","10C,13A,19C,21B","40","58","43","","","","","","","","","","","","","","","","",""
"","","","","","html-keyboard-response","56","1388383","0.0-17.0-2.12","41dee2bf-44de-4b95-a0ce-cfd0e8024bf0","null","<p style=""text-align: center;"">+</p>","null","fixation","","","","","","","","","","","","","","","","","","","","","","",""
"","","","","","html-slider-response","57","1389389","0.0-17.0-0.13","41dee2bf-44de-4b95-a0ce-cfd0e8024bf0","1000","
                  <p style=""text-align: center;"">₪18
                                                <br>50%</p>
                  <p id=""wtp"" style=""text-align:center; margin-top: 0px; margin-bottom: 0px; font-size: 40px"";>&ensp;</p>","-","viewing","0","10","2C,16C,22B,28A","","","","","","","","","","","","","","","","","","","",""
"","","","","","html-slider-response","58","1392759","0.0-17.0-1.13","41dee2bf-44de-4b95-a0ce-cfd0e8024bf0","3368","
                  <p style=""text-align: center;"">₪18
                                                <br>50%</p>
                  <p id=""wtp"" style=""text-align:center; margin-top: 0px; margin-bottom: 0px; font-size: 40px"";>מוכנים לשלם: <span id=""c_p_y""></span></p>","40","evaluation","77","10","2C,16C,22B,28A","50","18","40","","","","","","","","","","","","","","","","",""
"","","","","","html-keyboard-response","59","1394268","0.0-17.0-2.13","41dee2bf-44de-4b95-a0ce-cfd0e8024bf0","null","<p style=""text-align: center;"">+</p>","null","fixation","","","","","","","","","","","","","","","","","","","","","","",""
"","","","","","html-slider-response","60","1395281","0.0-17.0-0.14","41dee2bf-44de-4b95-a0ce-cfd0e8024bf0","1000","
                  <p style=""text-align: center;"">₪58
                                                <br>45%</p>
                  <p id=""wtp"" style=""text-align:center; margin-top: 0px; margin-bottom: 0px; font-size: 40px"";>&ensp;</p>","-","viewing","0","21","11C,18C,25A","","","","","","","","","","","","","","","","","","","",""
"","","","","","html-slider-response","61","1399159","0.0-17.0-1.14","41dee2bf-44de-4b95-a0ce-cfd0e8024bf0","3877","
                  <p style=""text-align: center;"">₪58
                                                <br>45%</p>
                  <p id=""wtp"" style=""text-align:center; margin-top: 0px; margin-bottom: 0px; font-size: 40px"";>מוכנים לשלם: <span id=""c_p_y""></span></p>","41","evaluation","59","21","11C,18C,25A","45","58","41","","","","","","","","","","","","","","","","",""
"","","","","","html-keyboard-response","62","1399938","0.0-17.0-2.14","41dee2bf-44de-4b95-a0ce-cfd0e8024bf0","null","<p style=""text-align: center;"">+</p>","null","fixation","","","","","","","","","","","","","","","","","","","","","","",""
"","","","","","html-slider-response","63","1400952","0.0-17.0-0.15","41dee2bf-44de-4b95-a0ce-cfd0e8024bf0","1000","
                  <p style=""text-align: center;"">₪64
                                                <br>50%</p>
                  <p id=""wtp"" style=""text-align:center; margin-top: 0px; margin-bottom: 0px; font-size: 40px"";>&ensp;</p>","-","viewing","0","25","1B,3B,4A","","","","","","","","","","","","","","","","","","","",""
"","","","","","html-slider-response","64","1404955","0.0-17.0-1.15","41dee2bf-44de-4b95-a0ce-cfd0e8024bf0","null","
                  <p style=""text-align: center;"">₪64
                                                <br>50%</p>
                  <p id=""wtp"" style=""text-align:center; margin-top: 0px; margin-bottom: 0px; font-size: 40px"";>מוכנים לשלם: <span id=""c_p_y""></span></p>","null","evaluation","13","25","1B,3B,4A","50","64","35","","","","","","","","","","","","","","","","",""
"","","","","","html-keyboard-response","65","1406036","0.0-17.0-2.15","41dee2bf-44de-4b95-a0ce-cfd0e8024bf0","null","<p style=""text-align: center;"">+</p>","null","fixation","","","","","","","","","","","","","","","","","","","","","","",""
"","","","","","html-slider-response","66","1407037","0.0-17.0-0.16","41dee2bf-44de-4b95-a0ce-cfd0e8024bf0","1000","
                  <p style=""text-align: center;"">₪16
                                                <br>20%</p>
                  <p id=""wtp"" style=""text-align:center; margin-top: 0px; margin-bottom: 0px; font-size: 40px"";>&ensp;</p>","-","viewing","0","8","14C,17A,20C,27A","","","","","","","","","","","","","","","","","","","",""
"","","","","","html-slider-response","67","1409255","0.0-17.0-1.16","41dee2bf-44de-4b95-a0ce-cfd0e8024bf0","2216","
                  <p style=""text-align: center;"">₪16
                                                <br>20%</p>
                  <p id=""wtp"" style=""text-align:center; margin-top: 0px; margin-bottom: 0px; font-size: 40px"";>מוכנים לשלם: <span id=""c_p_y""></span></p>","41","evaluation","51","8","14C,17A,20C,27A","20","16","41","","","","","","","","","","","","","","","","",""
"","","","","","html-keyboard-response","68","1410239","0.0-17.0-2.16","41dee2bf-44de-4b95-a0ce-cfd0e8024bf0","null","<p style=""text-align: center;"">+</p>","null","fixation","","","","","","","","","","","","","","","","","","","","","","",""
"","","","","","html-slider-response","69","1411254","0.0-17.0-0.17","41dee2bf-44de-4b95-a0ce-cfd0e8024bf0","1000","
                  <p style=""text-align: center;"">₪79
                                                <br>40%</p>
                  <p id=""wtp"" style=""text-align:center; margin-top: 0px; margin-bottom: 0px; font-size: 40px"";>&ensp;</p>","-","viewing","0","30","9B","","","","","","","","","","","","","","","","","","","",""
"","","","","","html-slider-response","70","1414223","0.0-17.0-1.17","41dee2bf-44de-4b95-a0ce-cfd0e8024bf0","2968","
                  <p style=""text-align: center;"">₪79
                                                <br>40%</p>
                  <p id=""wtp"" style=""text-align:center; margin-top: 0px; margin-bottom: 0px; font-size: 40px"";>מוכנים לשלם: <span id=""c_p_y""></span></p>","40","evaluation","37","30","9B","40","79","40","","","","","","","","","","","","","","","","",""
"","","","","","html-keyboard-response","71","1414746","0.0-17.0-2.17","41dee2bf-44de-4b95-a0ce-cfd0e8024bf0","null","<p style=""text-align: center;"">+</p>","null","fixation","","","","","","","","","","","","","","","","","","","","","","",""
"","","","","","html-slider-response","72","1415755","0.0-17.0-0.18","41dee2bf-44de-4b95-a0ce-cfd0e8024bf0","1000","
                  <p style=""text-align: center;"">₪4
                                                <br>50%</p>
                  <p id=""wtp"" style=""text-align:center; margin-top: 0px; margin-bottom: 0px; font-size: 40px"";>&ensp;</p>","-","viewing","0","2","4C,17B","","","","","","","","","","","","","","","","","","","",""
"","","","","","html-slider-response","73","1417935","0.0-17.0-1.18","41dee2bf-44de-4b95-a0ce-cfd0e8024bf0","2179","
                  <p style=""text-align: center;"">₪4
                                                <br>50%</p>
                  <p id=""wtp"" style=""text-align:center; margin-top: 0px; margin-bottom: 0px; font-size: 40px"";>מוכנים לשלם: <span id=""c_p_y""></span></p>","21","evaluation","57","2","4C,17B","50","4","21","","","","","","","","","","","","","","","","",""
"","","","","","html-keyboard-response","74","1419331","0.0-17.0-2.18","41dee2bf-44de-4b95-a0ce-cfd0e8024bf0","null","<p style=""text-align: center;"">+</p>","null","fixation","","","","","","","","","","","","","","","","","","","","","","",""
"","","","","","html-slider-response","75","1420336","0.0-17.0-0.19","41dee2bf-44de-4b95-a0ce-cfd0e8024bf0","1000","
                  <p style=""text-align: center;"">₪36
                                                <br>70%</p>
                  <p id=""wtp"" style=""text-align:center; margin-top: 0px; margin-bottom: 0px; font-size: 40px"";>&ensp;</p>","-","viewing","0","13","3A,5C,10B","","","","","","","","","","","","","","","","","","","",""
"","","","","","html-slider-response","76","1422951","0.0-17.0-1.19","41dee2bf-44de-4b95-a0ce-cfd0e8024bf0","2614","
                  <p style=""text-align: center;"">₪36
                                                <br>70%</p>
                  <p id=""wtp"" style=""text-align:center; margin-top: 0px; margin-bottom: 0px; font-size: 40px"";>מוכנים לשלם: <span id=""c_p_y""></span></p>","60","evaluation","53","13","3A,5C,10B","70","36","60","","","","","","","","","","","","","","","","",""
"","","","","","html-keyboard-response","77","1423873","0.0-17.0-2.19","41dee2bf-44de-4b95-a0ce-cfd0e8024bf0","null","<p style=""text-align: center;"">+</p>","null","fixation","","","","","","","","","","","","","","","","","","","","","","",""
"","","","","","html-slider-response","78","1424889","0.0-17.0-0.20","41dee2bf-44de-4b95-a0ce-cfd0e8024bf0","1000","
                  <p style=""text-align: center;"">₪18
                                                <br>25%</p>
                  <p id=""wtp"" style=""text-align:center; margin-top: 0px; margin-bottom: 0px; font-size: 40px"";>&ensp;</p>","-","viewing","0","9","14A,23A","","","","","","","","","","","","","","","","","","","",""
"","","","","","html-slider-response","79","1426618","0.0-17.0-1.20","41dee2bf-44de-4b95-a0ce-cfd0e8024bf0","1733","
                  <p style=""text-align: center;"">₪18
                                                <br>25%</p>
                  <p id=""wtp"" style=""text-align:center; margin-top: 0px; margin-bottom: 0px; font-size: 40px"";>מוכנים לשלם: <span id=""c_p_y""></span></p>","80","evaluation","24","9","14A,23A","25","18","80","","","","","","","","","","","","","","","","",""
"","","","","","html-keyboard-response","80","1427555","0.0-17.0-2.20","41dee2bf-44de-4b95-a0ce-cfd0e8024bf0","null","<p style=""text-align: center;"">+</p>","null","fixation","","","","","","","","","","","","","","","","","","","","","","",""
"","","","","","html-slider-response","81","1428562","0.0-17.0-0.21","41dee2bf-44de-4b95-a0ce-cfd0e8024bf0","1000","
                  <p style=""text-align: center;"">₪4
                                                <br>25%</p>
                  <p id=""wtp"" style=""text-align:center; margin-top: 0px; margin-bottom: 0px; font-size: 40px"";>&ensp;</p>","-","viewing","0","1","6C,29B,30C","","","","","","","","","","","","","","","","","","","",""
"","","","","","html-slider-response","82","1430538","0.0-17.0-1.21","41dee2bf-44de-4b95-a0ce-cfd0e8024bf0","1975","
                  <p style=""text-align: center;"">₪4
                                                <br>25%</p>
                  <p id=""wtp"" style=""text-align:center; margin-top: 0px; margin-bottom: 0px; font-size: 40px"";>מוכנים לשלם: <span id=""c_p_y""></span></p>","6","evaluation","0","1","6C,29B,30C","25","4","6","","","","","","","","","","","","","","","","",""
"","","","","","html-keyboard-response","83","1431686","0.0-17.0-2.21","41dee2bf-44de-4b95-a0ce-cfd0e8024bf0","null","<p style=""text-align: center;"">+</p>","null","fixation","","","","","","","","","","","","","","","","","","","","","","",""
"","","","","","html-slider-response","84","1432697","0.0-17.0-0.22","41dee2bf-44de-4b95-a0ce-cfd0e8024bf0","1000","
                  <p style=""text-align: center;"">₪39
                                                <br>60%</p>
                  <p id=""wtp"" style=""text-align:center; margin-top: 0px; margin-bottom: 0px; font-size: 40px"";>&ensp;</p>","-","viewing","0","15","9C,25B","","","","","","","","","","","","","","","","","","","",""
"","","","","","html-slider-response","85","1436146","0.0-17.0-1.22","41dee2bf-44de-4b95-a0ce-cfd0e8024bf0","3448","
                  <p style=""text-align: center;"">₪39
                                                <br>60%</p>
                  <p id=""wtp"" style=""text-align:center; margin-top: 0px; margin-bottom: 0px; font-size: 40px"";>מוכנים לשלם: <span id=""c_p_y""></span></p>","60","evaluation","10","15","9C,25B","60","39","60","","","","","","","","","","","","","","","","",""
"","","","","","html-keyboard-response","86","1437407","0.0-17.0-2.22","41dee2bf-44de-4b95-a0ce-cfd0e8024bf0","null","<p style=""text-align: center;"">+</p>","null","fixation","","","","","","","","","","","","","","","","","","","","","","",""
"","","","","","html-slider-response","87","1438411","0.0-17.0-0.23","41dee2bf-44de-4b95-a0ce-cfd0e8024bf0","1000","
                  <p style=""text-align: center;"">₪11
                                                <br>75%</p>
                  <p id=""wtp"" style=""text-align:center; margin-top: 0px; margin-bottom: 0px; font-size: 40px"";>&ensp;</p>","-","viewing","0","7","6B,18B,22C,24C,29A","","","","","","","","","","","","","","","","","","","",""
"","","","","","html-slider-response","88","1440762","0.0-17.0-1.23","41dee2bf-44de-4b95-a0ce-cfd0e8024bf0","2350","
                  <p style=""text-align: center;"">₪11
                                                <br>75%</p>
                  <p id=""wtp"" style=""text-align:center; margin-top: 0px; margin-bottom: 0px; font-size: 40px"";>מוכנים לשלם: <span id=""c_p_y""></span></p>","41","evaluation","16","7","6B,18B,22C,24C,29A","75","11","41","","","","","","","","","","","","","","","","",""
"","","","","","html-keyboard-response","89","1442179","0.0-17.0-2.23","41dee2bf-44de-4b95-a0ce-cfd0e8024bf0","null","<p style=""text-align: center;"">+</p>","null","fixation","","","","","","","","","","","","","","","","","","","","","","",""
"","","","","","html-slider-response","90","1443191","0.0-17.0-0.24","41dee2bf-44de-4b95-a0ce-cfd0e8024bf0","1000","
                  <p style=""text-align: center;"">₪43
                                                <br>60%</p>
                  <p id=""wtp"" style=""text-align:center; margin-top: 0px; margin-bottom: 0px; font-size: 40px"";>&ensp;</p>","-","viewing","0","17","2A,7A,9A,15B","","","","","","","","","","","","","","","","","","","",""
"","","","","","html-slider-response","91","1445106","0.0-17.0-1.24","41dee2bf-44de-4b95-a0ce-cfd0e8024bf0","1914","
                  <p style=""text-align: center;"">₪43
                                                <br>60%</p>
                  <p id=""wtp"" style=""text-align:center; margin-top: 0px; margin-bottom: 0px; font-size: 40px"";>מוכנים לשלם: <span id=""c_p_y""></span></p>","41","evaluation","42","17","2A,7A,9A,15B","60","43","41","","","","","","","","","","","","","","","","",""
"","","","","","html-keyboard-response","92","1446222","0.0-17.0-2.24","41dee2bf-44de-4b95-a0ce-cfd0e8024bf0","null","<p style=""text-align: center;"">+</p>","null","fixation","","","","","","","","","","","","","","","","","","","","","","",""
"","","","","","html-slider-response","93","1447230","0.0-17.0-0.25","41dee2bf-44de-4b95-a0ce-cfd0e8024bf0","1000","
                  <p style=""text-align: center;"">₪61
                                                <br>55%</p>
                  <p id=""wtp"" style=""text-align:center; margin-top: 0px; margin-bottom: 0px; font-size: 40px"";>&ensp;</p>","-","viewing","0","23","7B,26B","","","","","","","","","","","","","","","","","","","",""
"","","","","","html-slider-response","94","1451090","0.0-17.0-1.25","41dee2bf-44de-4b95-a0ce-cfd0e8024bf0","3859","
                  <p style=""text-align: center;"">₪61
                                                <br>55%</p>
                  <p id=""wtp"" style=""text-align:center; margin-top: 0px; margin-bottom: 0px; font-size: 40px"";>מוכנים לשלם: <span id=""c_p_y""></span></p>","50","evaluation","23","23","7B,26B","55","61","50","","","","","","","","","","","","","","","","",""
"","","","","","html-keyboard-response","95","1452393","0.0-17.0-2.25","41dee2bf-44de-4b95-a0ce-cfd0e8024bf0","null","<p style=""text-align: center;"">+</p>","null","fixation","","","","","","","","","","","","","","","","","","","","","","",""
"","","","","","html-slider-response","96","1453401","0.0-17.0-0.26","41dee2bf-44de-4b95-a0ce-cfd0e8024bf0","1000","
                  <p style=""text-align: center;"">₪76
                                                <br>65%</p>
                  <p id=""wtp"" style=""text-align:center; margin-top: 0px; margin-bottom: 0px; font-size: 40px"";>&ensp;</p>","-","viewing","0","29","8C,19A,24B","","","","","","","","","","","","","","","","","","","",""
"","","","","","html-slider-response","97","1457412","0.0-17.0-1.26","41dee2bf-44de-4b95-a0ce-cfd0e8024bf0","null","
                  <p style=""text-align: center;"">₪76
                                                <br>65%</p>
                  <p id=""wtp"" style=""text-align:center; margin-top: 0px; margin-bottom: 0px; font-size: 40px"";>מוכנים לשלם: <span id=""c_p_y""></span></p>","null","evaluation","37","29","8C,19A,24B","65","76","60","","","","","","","","","","","","","","","","",""
"","","","","","html-keyboard-response","98","1458311","0.0-17.0-2.26","41dee2bf-44de-4b95-a0ce-cfd0e8024bf0","null","<p style=""text-align: center;"">+</p>","null","fixation","","","","","","","","","","","","","","","","","","","","","","",""
"","","","","","html-slider-response","99","1459314","0.0-17.0-0.27","41dee2bf-44de-4b95-a0ce-cfd0e8024bf0","1000","
                  <p style=""text-align: center;"">₪36
                                                <br>30%</p>
                  <p id=""wtp"" style=""text-align:center; margin-top: 0px; margin-bottom: 0px; font-size: 40px"";>&ensp;</p>","-","viewing","0","11","3C,20A,22A","","","","","","","","","","","","","","","","","","","",""
"","","","","","html-slider-response","100","1462314","0.0-17.0-1.27","41dee2bf-44de-4b95-a0ce-cfd0e8024bf0","3000","
                  <p style=""text-align: center;"">₪36
                                                <br>30%</p>
                  <p id=""wtp"" style=""text-align:center; margin-top: 0px; margin-bottom: 0px; font-size: 40px"";>מוכנים לשלם: <span id=""c_p_y""></span></p>","60","evaluation","20","11","3C,20A,22A","30","36","60","","","","","","","","","","","","","","","","",""
"","","","","","html-keyboard-response","101","1463273","0.0-17.0-2.27","41dee2bf-44de-4b95-a0ce-cfd0e8024bf0","null","<p style=""text-align: center;"">+</p>","null","fixation","","","","","","","","","","","","","","","","","","","","","","",""
"","","","","","html-slider-response","102","1464278","0.0-17.0-0.28","41dee2bf-44de-4b95-a0ce-cfd0e8024bf0","1000","
                  <p style=""text-align: center;"">₪11
                                                <br>25%</p>
                  <p id=""wtp"" style=""text-align:center; margin-top: 0px; margin-bottom: 0px; font-size: 40px"";>&ensp;</p>","-","viewing","0","5","12A,27B,28B,30B","","","","","","","","","","","","","","","","","","","",""
"","","","","","html-slider-response","103","1468288","0.0-17.0-1.28","41dee2bf-44de-4b95-a0ce-cfd0e8024bf0","null","
                  <p style=""text-align: center;"">₪11
                                                <br>25%</p>
                  <p id=""wtp"" style=""text-align:center; margin-top: 0px; margin-bottom: 0px; font-size: 40px"";>מוכנים לשלם: <span id=""c_p_y""></span></p>","null","evaluation","43","5","12A,27B,28B,30B","25","11","60","","","","","","","","","","","","","","","","",""
"","","","","","html-keyboard-response","104","1469086","0.0-17.0-2.28","41dee2bf-44de-4b95-a0ce-cfd0e8024bf0","null","<p style=""text-align: center;"">+</p>","null","fixation","","","","","","","","","","","","","","","","","","","","","","",""
"","","","","","html-slider-response","105","1470101","0.0-17.0-0.29","41dee2bf-44de-4b95-a0ce-cfd0e8024bf0","1000","
                  <p style=""text-align: center;"">₪36
                                                <br>75%</p>
                  <p id=""wtp"" style=""text-align:center; margin-top: 0px; margin-bottom: 0px; font-size: 40px"";>&ensp;</p>","-","viewing","0","14","4B,5A,13B,16B","","","","","","","","","","","","","","","","","","","",""
"","","","","","html-slider-response","106","1472233","0.0-17.0-1.29","41dee2bf-44de-4b95-a0ce-cfd0e8024bf0","2132","
                  <p style=""text-align: center;"">₪36
                                                <br>75%</p>
                  <p id=""wtp"" style=""text-align:center; margin-top: 0px; margin-bottom: 0px; font-size: 40px"";>מוכנים לשלם: <span id=""c_p_y""></span></p>","60","evaluation","15","14","4B,5A,13B,16B","75","36","60","","","","","","","","","","","","","","","","",""
"","","","","","html-keyboard-response","107","1473502","0.0-17.0-2.29","41dee2bf-44de-4b95-a0ce-cfd0e8024bf0","null","<p style=""text-align: center;"">+</p>","null","fixation","","","","","","","","","","","","","","","","","","","","","","",""
"","","","","","html-slider-response","108","1474515","0.0-17.0-0.30","41dee2bf-44de-4b95-a0ce-cfd0e8024bf0","1000","
                  <p style=""text-align: center;"">₪11
                                                <br>20%</p>
                  <p id=""wtp"" style=""text-align:center; margin-top: 0px; margin-bottom: 0px; font-size: 40px"";>&ensp;</p>","-","viewing","0","4","12C,17C,23C,28C","","","","","","","","","","","","","","","","","","","",""
"","","","","","html-slider-response","109","1476378","0.0-17.0-1.30","41dee2bf-44de-4b95-a0ce-cfd0e8024bf0","1862","
                  <p style=""text-align: center;"">₪11
                                                <br>20%</p>
                  <p id=""wtp"" style=""text-align:center; margin-top: 0px; margin-bottom: 0px; font-size: 40px"";>מוכנים לשלם: <span id=""c_p_y""></span></p>","19","evaluation","62","4","12C,17C,23C,28C","20","11","20","","","","","","","","","","","","","","","","",""
"","","","","","html-keyboard-response","110","1477690","0.0-17.0-2.30","41dee2bf-44de-4b95-a0ce-cfd0e8024bf0","null","<p style=""text-align: center;"">+</p>","null","fixation","","","","","","","","","","","","","","","","","","","","","","",""
"","","","","","html-keyboard-response","111","1478694","0.0-18.0","41dee2bf-44de-4b95-a0ce-cfd0e8024bf0","null","<p style=""text-align: center;"">+</p>","null","fixation","","","","","","","","","","","","","","","","","","","","","","",""
"","","","","","html-keyboard-response","112","1480986","0.0-19.0","41dee2bf-44de-4b95-a0ce-cfd0e8024bf0","null","<p>הפסקה.
          <br>לחצו כדי להמשיך.</p>","1","scan_wait","","","","","","","","","","","","","","","","","","","","","","",""
"","","","","","html-keyboard-response","113","1481996","0.0-20.0","41dee2bf-44de-4b95-a0ce-cfd0e8024bf0","null","<p style=""text-align: center;"">+</p>","null","fixation","","","","","","","","","","","","","","","","","","","","","","",""
"","","","","","html-slider-response","114","1482998","0.0-21.0-0.0","41dee2bf-44de-4b95-a0ce-cfd0e8024bf0","1000","
                  <p style=""text-align: center;"">₪79
                                                <br>65%</p>
                  <p id=""wtp"" style=""text-align:center; margin-top: 0px; margin-bottom: 0px; font-size: 40px"";>&ensp;</p>","-","viewing","0","31","8A","","","","","","","","","","","","","","","","","","","",""
"","","","","","html-slider-response","115","1487003","0.0-21.0-1.0","41dee2bf-44de-4b95-a0ce-cfd0e8024bf0","null","
                  <p style=""text-align: center;"">₪79
                                                <br>65%</p>
                  <p id=""wtp"" style=""text-align:center; margin-top: 0px; margin-bottom: 0px; font-size: 40px"";>מוכנים לשלם: <span id=""c_p_y""></span></p>","null","evaluation","60","31","8A","65","79","59","","","","","","","","","","","","","","","","",""
"","","","","","html-keyboard-response","116","1487993","0.0-21.0-2.0","41dee2bf-44de-4b95-a0ce-cfd0e8024bf0","null","<p style=""text-align: center;"">+</p>","null","fixation","","","","","","","","","","","","","","","","","","","","","","",""
"","","","","","html-slider-response","117","1489009","0.0-21.0-0.1","41dee2bf-44de-4b95-a0ce-cfd0e8024bf0","1000","
                  <p style=""text-align: center;"">₪11
                                                <br>25%</p>
                  <p id=""wtp"" style=""text-align:center; margin-top: 0px; margin-bottom: 0px; font-size: 40px"";>&ensp;</p>","-","viewing","0","5","12A,27B,28B,30B","","","","","","","","","","","","","","","","","","","",""
"","","","","","html-slider-response","118","1492229","0.0-21.0-1.1","41dee2bf-44de-4b95-a0ce-cfd0e8024bf0","3219","
                  <p style=""text-align: center;"">₪11
                                                <br>25%</p>
                  <p id=""wtp"" style=""text-align:center; margin-top: 0px; margin-bottom: 0px; font-size: 40px"";>מוכנים לשלם: <span id=""c_p_y""></span></p>","40","evaluation","5","5","12A,27B,28B,30B","25","11","40","","","","","","","","","","","","","","","","",""
"","","","","","html-keyboard-response","119","1493215","0.0-21.0-2.1","41dee2bf-44de-4b95-a0ce-cfd0e8024bf0","null","<p style=""text-align: center;"">+</p>","null","fixation","","","","","","","","","","","","","","","","","","","","","","",""
"","","","","","html-slider-response","120","1494221","0.0-21.0-0.2","41dee2bf-44de-4b95-a0ce-cfd0e8024bf0","1000","
                  <p style=""text-align: center;"">₪71
                                                <br>45%</p>
                  <p id=""wtp"" style=""text-align:center; margin-top: 0px; margin-bottom: 0px; font-size: 40px"";>&ensp;</p>","-","viewing","0","26","2B,16A","","","","","","","","","","","","","","","","","","","",""
"","","","","","html-slider-response","121","1496469","0.0-21.0-1.2","41dee2bf-44de-4b95-a0ce-cfd0e8024bf0","2246","
                  <p style=""text-align: center;"">₪71
                                                <br>45%</p>
                  <p id=""wtp"" style=""text-align:center; margin-top: 0px; margin-bottom: 0px; font-size: 40px"";>מוכנים לשלם: <span id=""c_p_y""></span></p>","60","evaluation","6","26","2B,16A","45","71","60","","","","","","","","","","","","","","","","",""
"","","","","","html-keyboard-response","122","1496981","0.0-21.0-2.2","41dee2bf-44de-4b95-a0ce-cfd0e8024bf0","null","<p style=""text-align: center;"">+</p>","null","fixation","","","","","","","","","","","","","","","","","","","","","","",""
"","","","","","html-slider-response","123","1497989","0.0-21.0-0.3","41dee2bf-44de-4b95-a0ce-cfd0e8024bf0","1000","
                  <p style=""text-align: center;"">₪43
                                                <br>60%</p>
                  <p id=""wtp"" style=""text-align:center; margin-top: 0px; margin-bottom: 0px; font-size: 40px"";>&ensp;</p>","-","viewing","0","17","2A,7A,9A,15B","","","","","","","","","","","","","","","","","","","",""
"","","","","","html-slider-response","124","1500573","0.0-21.0-1.3","41dee2bf-44de-4b95-a0ce-cfd0e8024bf0","2583","
                  <p style=""text-align: center;"">₪43
                                                <br>60%</p>
                  <p id=""wtp"" style=""text-align:center; margin-top: 0px; margin-bottom: 0px; font-size: 40px"";>מוכנים לשלם: <span id=""c_p_y""></span></p>","40","evaluation","36","17","2A,7A,9A,15B","60","43","40","","","","","","","","","","","","","","","","",""
"","","","","","html-keyboard-response","125","1502047","0.0-21.0-2.3","41dee2bf-44de-4b95-a0ce-cfd0e8024bf0","null","<p style=""text-align: center;"">+</p>","null","fixation","","","","","","","","","","","","","","","","","","","","","","",""
"","","","","","html-slider-response","126","1503062","0.0-21.0-0.4","41dee2bf-44de-4b95-a0ce-cfd0e8024bf0","1000","
                  <p style=""text-align: center;"">₪71
                                                <br>55%</p>
                  <p id=""wtp"" style=""text-align:center; margin-top: 0px; margin-bottom: 0px; font-size: 40px"";>&ensp;</p>","-","viewing","0","27","5B,18A","","","","","","","","","","","","","","","","","","","",""
"","","","","","html-slider-response","127","1505461","0.0-21.0-1.4","41dee2bf-44de-4b95-a0ce-cfd0e8024bf0","2398","
                  <p style=""text-align: center;"">₪71
                                                <br>55%</p>
                  <p id=""wtp"" style=""text-align:center; margin-top: 0px; margin-bottom: 0px; font-size: 40px"";>מוכנים לשלם: <span id=""c_p_y""></span></p>","60","evaluation","77","27","5B,18A","55","71","60","","","","","","","","","","","","","","","","",""
"","","","","","html-keyboard-response","128","1506548","0.0-21.0-2.4","41dee2bf-44de-4b95-a0ce-cfd0e8024bf0","null","<p style=""text-align: center;"">+</p>","null","fixation","","","","","","","","","","","","","","","","","","","","","","",""
"","","","","","html-slider-response","129","1507551","0.0-21.0-0.5","41dee2bf-44de-4b95-a0ce-cfd0e8024bf0","1000","
                  <p style=""text-align: center;"">₪64
                                                <br>25%</p>
                  <p id=""wtp"" style=""text-align:center; margin-top: 0px; margin-bottom: 0px; font-size: 40px"";>&ensp;</p>","-","viewing","0","24","6A,21A","","","","","","","","","","","","","","","","","","","",""
"","","","","","html-slider-response","130","1511221","0.0-21.0-1.5","41dee2bf-44de-4b95-a0ce-cfd0e8024bf0","3669","
                  <p style=""text-align: center;"">₪64
                                                <br>25%</p>
                  <p id=""wtp"" style=""text-align:center; margin-top: 0px; margin-bottom: 0px; font-size: 40px"";>מוכנים לשלם: <span id=""c_p_y""></span></p>","40","evaluation","44","24","6A,21A","25","64","40","","","","","","","","","","","","","","","","",""
"","","","","","html-keyboard-response","131","1511886","0.0-21.0-2.5","41dee2bf-44de-4b95-a0ce-cfd0e8024bf0","null","<p style=""text-align: center;"">+</p>","null","fixation","","","","","","","","","","","","","","","","","","","","","","",""
"","","","","","html-slider-response","132","1512894","0.0-21.0-0.6","41dee2bf-44de-4b95-a0ce-cfd0e8024bf0","1000","
                  <p style=""text-align: center;"">₪39
                                                <br>60%</p>
                  <p id=""wtp"" style=""text-align:center; margin-top: 0px; margin-bottom: 0px; font-size: 40px"";>&ensp;</p>","-","viewing","0","15","9C,25B","","","","","","","","","","","","","","","","","","","",""
"","","","","","html-slider-response","133","1516157","0.0-21.0-1.6","41dee2bf-44de-4b95-a0ce-cfd0e8024bf0","3262","
                  <p style=""text-align: center;"">₪39
                                                <br>60%</p>
                  <p id=""wtp"" style=""text-align:center; margin-top: 0px; margin-bottom: 0px; font-size: 40px"";>מוכנים לשלם: <span id=""c_p_y""></span></p>","40","evaluation","62","15","9C,25B","60","39","40","","","","","","","","","","","","","","","","",""
"","","","","","html-keyboard-response","134","1517061","0.0-21.0-2.6","41dee2bf-44de-4b95-a0ce-cfd0e8024bf0","null","<p style=""text-align: center;"">+</p>","null","fixation","","","","","","","","","","","","","","","","","","","","","","",""
"","","","","","html-slider-response","135","1518062","0.0-21.0-0.7","41dee2bf-44de-4b95-a0ce-cfd0e8024bf0","1000","
                  <p style=""text-align: center;"">₪18
                                                <br>50%</p>
                  <p id=""wtp"" style=""text-align:center; margin-top: 0px; margin-bottom: 0px; font-size: 40px"";>&ensp;</p>","-","viewing","0","10","2C,16C,22B,28A","","","","","","","","","","","","","","","","","","","",""
"","","","","","html-slider-response","136","1522068","0.0-21.0-1.7","41dee2bf-44de-4b95-a0ce-cfd0e8024bf0","null","
                  <p style=""text-align: center;"">₪18
                                                <br>50%</p>
                  <p id=""wtp"" style=""text-align:center; margin-top: 0px; margin-bottom: 0px; font-size: 40px"";>מוכנים לשלם: <span id=""c_p_y""></span></p>","null","evaluation","22","10","2C,16C,22B,28A","50","18","41","","","","","","","","","","","","","","","","",""
"","","","","","html-keyboard-response","137","1522660","0.0-21.0-2.7","41dee2bf-44de-4b95-a0ce-cfd0e8024bf0","null","<p style=""text-align: center;"">+</p>","null","fixation","","","","","","","","","","","","","","","","","","","","","","",""
"","","","","","html-slider-response","138","1523672","0.0-21.0-0.8","41dee2bf-44de-4b95-a0ce-cfd0e8024bf0","1000","
                  <p style=""text-align: center;"">₪36
                                                <br>60%</p>
                  <p id=""wtp"" style=""text-align:center; margin-top: 0px; margin-bottom: 0px; font-size: 40px"";>&ensp;</p>","-","viewing","0","12","1C,7C,15C","","","","","","","","","","","","","","","","","","","",""
"","","","","","html-slider-response","139","1526437","0.0-21.0-1.8","41dee2bf-44de-4b95-a0ce-cfd0e8024bf0","2764","
                  <p style=""text-align: center;"">₪36
                                                <br>60%</p>
                  <p id=""wtp"" style=""text-align:center; margin-top: 0px; margin-bottom: 0px; font-size: 40px"";>מוכנים לשלם: <span id=""c_p_y""></span></p>","61","evaluation","53","12","1C,7C,15C","60","36","60","","","","","","","","","","","","","","","","",""
"","","","","","html-keyboard-response","140","1527221","0.0-21.0-2.8","41dee2bf-44de-4b95-a0ce-cfd0e8024bf0","null","<p style=""text-align: center;"">+</p>","null","fixation","","","","","","","","","","","","","","","","","","","","","","",""
"","","","","","html-slider-response","141","1528229","0.0-21.0-0.9","41dee2bf-44de-4b95-a0ce-cfd0e8024bf0","1000","
                  <p style=""text-align: center;"">₪43
                                                <br>75%</p>
                  <p id=""wtp"" style=""text-align:center; margin-top: 0px; margin-bottom: 0px; font-size: 40px"";>&ensp;</p>","-","viewing","0","18","11B,19B,24A,26A","","","","","","","","","","","","","","","","","","","",""
"","","","","","html-slider-response","142","1529445","0.0-21.0-1.9","41dee2bf-44de-4b95-a0ce-cfd0e8024bf0","1216","
                  <p style=""text-align: center;"">₪43
                                                <br>75%</p>
                  <p id=""wtp"" style=""text-align:center; margin-top: 0px; margin-bottom: 0px; font-size: 40px"";>מוכנים לשלם: <span id=""c_p_y""></span></p>","40","evaluation","0","18","11B,19B,24A,26A","75","43","40","","","","","","","","","","","","","","","","",""
"","","","","","html-keyboard-response","143","1530300","0.0-21.0-2.9","41dee2bf-44de-4b95-a0ce-cfd0e8024bf0","null","<p style=""text-align: center;"">+</p>","null","fixation","","","","","","","","","","","","","","","","","","","","","","",""
"","","","","","html-slider-response","144","1531305","0.0-21.0-0.10","41dee2bf-44de-4b95-a0ce-cfd0e8024bf0","1000","
                  <p style=""text-align: center;"">₪58
                                                <br>45%</p>
                  <p id=""wtp"" style=""text-align:center; margin-top: 0px; margin-bottom: 0px; font-size: 40px"";>&ensp;</p>","-","viewing","0","21","11C,18C,25A","","","","","","","","","","","","","","","","","","","",""
"","","","","","html-slider-response","145","1532261","0.0-21.0-1.10","41dee2bf-44de-4b95-a0ce-cfd0e8024bf0","955","
                  <p style=""text-align: center;"">₪58
                                                <br>45%</p>
                  <p id=""wtp"" style=""text-align:center; margin-top: 0px; margin-bottom: 0px; font-size: 40px"";>מוכנים לשלם: <span id=""c_p_y""></span></p>","40","evaluation","67","21","11C,18C,25A","45","58","40","","","","","","","","","","","","","","","","",""
"","","","","","html-keyboard-response","146","1533495","0.0-21.0-2.10","41dee2bf-44de-4b95-a0ce-cfd0e8024bf0","null","<p style=""text-align: center;"">+</p>","null","fixation","","","","","","","","","","","","","","","","","","","","","","",""
"","","","","","html-slider-response","147","1534510","0.0-21.0-0.11","41dee2bf-44de-4b95-a0ce-cfd0e8024bf0","1000","
                  <p style=""text-align: center;"">₪39
                                                <br>65%</p>
                  <p id=""wtp"" style=""text-align:center; margin-top: 0px; margin-bottom: 0px; font-size: 40px"";>&ensp;</p>","-","viewing","0","16","1A,15A,26C","","","","","","","","","","","","","","","","","","","",""
"","","","","","html-slider-response","148","1536405","0.0-21.0-1.11","41dee2bf-44de-4b95-a0ce-cfd0e8024bf0","1895","
                  <p style=""text-align: center;"">₪39
                                                <br>65%</p>
                  <p id=""wtp"" style=""text-align:center; margin-top: 0px; margin-bottom: 0px; font-size: 40px"";>מוכנים לשלם: <span id=""c_p_y""></span></p>","40","evaluation","37","16","1A,15A,26C","65","39","40","","","","","","","","","","","","","","","","",""
"","","","","","html-keyboard-response","149","1537710","0.0-21.0-2.11","41dee2bf-44de-4b95-a0ce-cfd0e8024bf0","null","<p style=""text-align: center;"">+</p>","null","fixation","","","","","","","","","","","","","","","","","","","","","","",""
"","","","","","html-slider-response","150","1538717","0.0-21.0-0.12","41dee2bf-44de-4b95-a0ce-cfd0e8024bf0","1000","
                  <p style=""text-align: center;"">₪79
                                                <br>40%</p>
                  <p id=""wtp"" style=""text-align:center; margin-top: 0px; margin-bottom: 0px; font-size: 40px"";>&ensp;</p>","-","viewing","0","30","9B","","","","","","","","","","","","","","","","","","","",""
"","","","","","html-slider-response","151","1541437","0.0-21.0-1.12","41dee2bf-44de-4b95-a0ce-cfd0e8024bf0","2720","
                  <p style=""text-align: center;"">₪79
                                                <br>40%</p>
                  <p id=""wtp"" style=""text-align:center; margin-top: 0px; margin-bottom: 0px; font-size: 40px"";>מוכנים לשלם: <span id=""c_p_y""></span></p>","40","evaluation","46","30","9B","40","79","40","","","","","","","","","","","","","","","","",""
"","","","","","html-keyboard-response","152","1542795","0.0-21.0-2.12","41dee2bf-44de-4b95-a0ce-cfd0e8024bf0","null","<p style=""text-align: center;"">+</p>","null","fixation","","","","","","","","","","","","","","","","","","","","","","",""
"","","","","","html-slider-response","153","1543799","0.0-21.0-0.13","41dee2bf-44de-4b95-a0ce-cfd0e8024bf0","1000","
                  <p style=""text-align: center;"">₪36
                                                <br>75%</p>
                  <p id=""wtp"" style=""text-align:center; margin-top: 0px; margin-bottom: 0px; font-size: 40px"";>&ensp;</p>","-","viewing","0","14","4B,5A,13B,16B","","","","","","","","","","","","","","","","","","","",""
"","","","","","html-slider-response","154","1545237","0.0-21.0-1.13","41dee2bf-44de-4b95-a0ce-cfd0e8024bf0","1437","
                  <p style=""text-align: center;"">₪36
                                                <br>75%</p>
                  <p id=""wtp"" style=""text-align:center; margin-top: 0px; margin-bottom: 0px; font-size: 40px"";>מוכנים לשלם: <span id=""c_p_y""></span></p>","40","evaluation","52","14","4B,5A,13B,16B","75","36","40","","","","","","","","","","","","","","","","",""
"","","","","","html-keyboard-response","155","1545771","0.0-21.0-2.13","41dee2bf-44de-4b95-a0ce-cfd0e8024bf0","null","<p style=""text-align: center;"">+</p>","null","fixation","","","","","","","","","","","","","","","","","","","","","","",""
"","","","","","html-slider-response","156","1546769","0.0-21.0-0.14","41dee2bf-44de-4b95-a0ce-cfd0e8024bf0","1000","
                  <p style=""text-align: center;"">₪61
                                                <br>45%</p>
                  <p id=""wtp"" style=""text-align:center; margin-top: 0px; margin-bottom: 0px; font-size: 40px"";>&ensp;</p>","-","viewing","0","22","10A,11A","","","","","","","","","","","","","","","","","","","",""
"","","","","","html-slider-response","157","1548752","0.0-21.0-1.14","41dee2bf-44de-4b95-a0ce-cfd0e8024bf0","1982","
                  <p style=""text-align: center;"">₪61
                                                <br>45%</p>
                  <p id=""wtp"" style=""text-align:center; margin-top: 0px; margin-bottom: 0px; font-size: 40px"";>מוכנים לשלם: <span id=""c_p_y""></span></p>","60","evaluation","66","22","10A,11A","45","61","60","","","","","","","","","","","","","","","","",""
"","","","","","html-keyboard-response","158","1549451","0.0-21.0-2.14","41dee2bf-44de-4b95-a0ce-cfd0e8024bf0","null","<p style=""text-align: center;"">+</p>","null","fixation","","","","","","","","","","","","","","","","","","","","","","",""
"","","","","","html-slider-response","159","1550460","0.0-21.0-0.15","41dee2bf-44de-4b95-a0ce-cfd0e8024bf0","1000","
                  <p style=""text-align: center;"">₪4
                                                <br>25%</p>
                  <p id=""wtp"" style=""text-align:center; margin-top: 0px; margin-bottom: 0px; font-size: 40px"";>&ensp;</p>","-","viewing","0","1","6C,29B,30C","","","","","","","","","","","","","","","","","","","",""
"","","","","","html-slider-response","160","1552496","0.0-21.0-1.15","41dee2bf-44de-4b95-a0ce-cfd0e8024bf0","2035","
                  <p style=""text-align: center;"">₪4
                                                <br>25%</p>
                  <p id=""wtp"" style=""text-align:center; margin-top: 0px; margin-bottom: 0px; font-size: 40px"";>מוכנים לשלם: <span id=""c_p_y""></span></p>","20","evaluation","52","1","6C,29B,30C","25","4","20","","","","","","","","","","","","","","","","",""
"","","","","","html-keyboard-response","161","1553266","0.0-21.0-2.15","41dee2bf-44de-4b95-a0ce-cfd0e8024bf0","null","<p style=""text-align: center;"">+</p>","null","fixation","","","","","","","","","","","","","","","","","","","","","","",""
"","","","","","html-slider-response","162","1554274","0.0-21.0-0.16","41dee2bf-44de-4b95-a0ce-cfd0e8024bf0","1000","
                  <p style=""text-align: center;"">₪36
                                                <br>30%</p>
                  <p id=""wtp"" style=""text-align:center; margin-top: 0px; margin-bottom: 0px; font-size: 40px"";>&ensp;</p>","-","viewing","0","11","3C,20A,22A","","","","","","","","","","","","","","","","","","","",""
"","","","","","html-slider-response","163","1555832","0.0-21.0-1.16","41dee2bf-44de-4b95-a0ce-cfd0e8024bf0","1557","
                  <p style=""text-align: center;"">₪36
                                                <br>30%</p>
                  <p id=""wtp"" style=""text-align:center; margin-top: 0px; margin-bottom: 0px; font-size: 40px"";>מוכנים לשלם: <span id=""c_p_y""></span></p>","40","evaluation","34","11","3C,20A,22A","30","36","40","","","","","","","","","","","","","","","","",""
"","","","","","html-keyboard-response","164","1556758","0.0-21.0-2.16","41dee2bf-44de-4b95-a0ce-cfd0e8024bf0","null","<p style=""text-align: center;"">+</p>","null","fixation","","","","","","","","","","","","","","","","","","","","","","",""
"","","","","","html-slider-response","165","1557762","0.0-21.0-0.17","41dee2bf-44de-4b95-a0ce-cfd0e8024bf0","1000","
                  <p style=""text-align: center;"">₪4
                                                <br>50%</p>
                  <p id=""wtp"" style=""text-align:center; margin-top: 0px; margin-bottom: 0px; font-size: 40px"";>&ensp;</p>","-","viewing","0","2","4C,17B","","","","","","","","","","","","","","","","","","","",""
"","","","","","html-slider-response","166","1558816","0.0-21.0-1.17","41dee2bf-44de-4b95-a0ce-cfd0e8024bf0","1053","
                  <p style=""text-align: center;"">₪4
                                                <br>50%</p>
                  <p id=""wtp"" style=""text-align:center; margin-top: 0px; margin-bottom: 0px; font-size: 40px"";>מוכנים לשלם: <span id=""c_p_y""></span></p>","40","evaluation","11","2","4C,17B","50","4","40","","","","","","","","","","","","","","","","",""
"","","","","","html-keyboard-response","167","1560026","0.0-21.0-2.17","41dee2bf-44de-4b95-a0ce-cfd0e8024bf0","null","<p style=""text-align: center;"">+</p>","null","fixation","","","","","","","","","","","","","","","","","","","","","","",""
"","","","","","html-slider-response","168","1561034","0.0-21.0-0.18","41dee2bf-44de-4b95-a0ce-cfd0e8024bf0","1000","
                  <p style=""text-align: center;"">₪11
                                                <br>75%</p>
                  <p id=""wtp"" style=""text-align:center; margin-top: 0px; margin-bottom: 0px; font-size: 40px"";>&ensp;</p>","-","viewing","0","7","6B,18B,22C,24C,29A","","","","","","","","","","","","","","","","","","","",""
"","","","","","html-slider-response","169","1563200","0.0-21.0-1.18","41dee2bf-44de-4b95-a0ce-cfd0e8024bf0","2166","
                  <p style=""text-align: center;"">₪11
                                                <br>75%</p>
                  <p id=""wtp"" style=""text-align:center; margin-top: 0px; margin-bottom: 0px; font-size: 40px"";>מוכנים לשלם: <span id=""c_p_y""></span></p>","60","evaluation","46","7","6B,18B,22C,24C,29A","75","11","60","","","","","","","","","","","","","","","","",""
"","","","","","html-keyboard-response","170","1563932","0.0-21.0-2.18","41dee2bf-44de-4b95-a0ce-cfd0e8024bf0","null","<p style=""text-align: center;"">+</p>","null","fixation","","","","","","","","","","","","","","","","","","","","","","",""
"","","","","","html-slider-response","171","1564934","0.0-21.0-0.19","41dee2bf-44de-4b95-a0ce-cfd0e8024bf0","1000","
                  <p style=""text-align: center;"">₪58
                                                <br>30%</p>
                  <p id=""wtp"" style=""text-align:center; margin-top: 0px; margin-bottom: 0px; font-size: 40px"";>&ensp;</p>","-","viewing","0","19","13C,30A","","","","","","","","","","","","","","","","","","","",""
"","","","","","html-slider-response","172","1567792","0.0-21.0-1.19","41dee2bf-44de-4b95-a0ce-cfd0e8024bf0","2857","
                  <p style=""text-align: center;"">₪58
                                                <br>30%</p>
                  <p id=""wtp"" style=""text-align:center; margin-top: 0px; margin-bottom: 0px; font-size: 40px"";>מוכנים לשלם: <span id=""c_p_y""></span></p>","80","evaluation","17","19","13C,30A","30","58","80","","","","","","","","","","","","","","","","",""
"","","","","","html-keyboard-response","173","1568591","0.0-21.0-2.19","41dee2bf-44de-4b95-a0ce-cfd0e8024bf0","null","<p style=""text-align: center;"">+</p>","null","fixation","","","","","","","","","","","","","","","","","","","","","","",""
"","","","","","html-slider-response","174","1569607","0.0-21.0-0.20","41dee2bf-44de-4b95-a0ce-cfd0e8024bf0","1000","
                  <p style=""text-align: center;"">₪61
                                                <br>55%</p>
                  <p id=""wtp"" style=""text-align:center; margin-top: 0px; margin-bottom: 0px; font-size: 40px"";>&ensp;</p>","-","viewing","0","23","7B,26B","","","","","","","","","","","","","","","","","","","",""
"","","","","","html-slider-response","175","1571976","0.0-21.0-1.20","41dee2bf-44de-4b95-a0ce-cfd0e8024bf0","2368","
                  <p style=""text-align: center;"">₪61
                                                <br>55%</p>
                  <p id=""wtp"" style=""text-align:center; margin-top: 0px; margin-bottom: 0px; font-size: 40px"";>מוכנים לשלם: <span id=""c_p_y""></span></p>","40","evaluation","30","23","7B,26B","55","61","40","","","","","","","","","","","","","","","","",""
"","","","","","html-keyboard-response","176","1572740","0.0-21.0-2.20","41dee2bf-44de-4b95-a0ce-cfd0e8024bf0","null","<p style=""text-align: center;"">+</p>","null","fixation","","","","","","","","","","","","","","","","","","","","","","",""
"","","","","","html-slider-response","177","1573748","0.0-21.0-0.21","41dee2bf-44de-4b95-a0ce-cfd0e8024bf0","1000","
                  <p style=""text-align: center;"">₪4
                                                <br>75%</p>
                  <p id=""wtp"" style=""text-align:center; margin-top: 0px; margin-bottom: 0px; font-size: 40px"";>&ensp;</p>","-","viewing","0","3","12B,20B,23B,27C,29C","","","","","","","","","","","","","","","","","","","",""
"","","","","","html-slider-response","178","1576288","0.0-21.0-1.21","41dee2bf-44de-4b95-a0ce-cfd0e8024bf0","2539","
                  <p style=""text-align: center;"">₪4
                                                <br>75%</p>
                  <p id=""wtp"" style=""text-align:center; margin-top: 0px; margin-bottom: 0px; font-size: 40px"";>מוכנים לשלם: <span id=""c_p_y""></span></p>","40","evaluation","33","3","12B,20B,23B,27C,29C","75","4","40","","","","","","","","","","","","","","","","",""
"","","","","","html-keyboard-response","179","1576955","0.0-21.0-2.21","41dee2bf-44de-4b95-a0ce-cfd0e8024bf0","null","<p style=""text-align: center;"">+</p>","null","fixation","","","","","","","","","","","","","","","","","","","","","","",""
"","","","","","html-slider-response","180","1577965","0.0-21.0-0.22","41dee2bf-44de-4b95-a0ce-cfd0e8024bf0","1000","
                  <p style=""text-align: center;"">₪71
                                                <br>75%</p>
                  <p id=""wtp"" style=""text-align:center; margin-top: 0px; margin-bottom: 0px; font-size: 40px"";>&ensp;</p>","-","viewing","0","28","8B","","","","","","","","","","","","","","","","","","","",""
"","","","","","html-slider-response","181","1579848","0.0-21.0-1.22","41dee2bf-44de-4b95-a0ce-cfd0e8024bf0","1882","
                  <p style=""text-align: center;"">₪71
                                                <br>75%</p>
                  <p id=""wtp"" style=""text-align:center; margin-top: 0px; margin-bottom: 0px; font-size: 40px"";>מוכנים לשלם: <span id=""c_p_y""></span></p>","40","evaluation","62","28","8B","75","71","40","","","","","","","","","","","","","","","","",""
"","","","","","html-keyboard-response","182","1581291","0.0-21.0-2.22","41dee2bf-44de-4b95-a0ce-cfd0e8024bf0","null","<p style=""text-align: center;"">+</p>","null","fixation","","","","","","","","","","","","","","","","","","","","","","",""
"","","","","","html-slider-response","183","1582303","0.0-21.0-0.23","41dee2bf-44de-4b95-a0ce-cfd0e8024bf0","1000","
                  <p style=""text-align: center;"">₪36
                                                <br>70%</p>
                  <p id=""wtp"" style=""text-align:center; margin-top: 0px; margin-bottom: 0px; font-size: 40px"";>&ensp;</p>","-","viewing","0","13","3A,5C,10B","","","","","","","","","","","","","","","","","","","",""
"","","","","","html-slider-response","184","1584696","0.0-21.0-1.23","41dee2bf-44de-4b95-a0ce-cfd0e8024bf0","2393","
                  <p style=""text-align: center;"">₪36
                                                <br>70%</p>
                  <p id=""wtp"" style=""text-align:center; margin-top: 0px; margin-bottom: 0px; font-size: 40px"";>מוכנים לשלם: <span id=""c_p_y""></span></p>","40","evaluation","50","13","3A,5C,10B","70","36","40","","","","","","","","","","","","","","","","",""
"","","","","","html-keyboard-response","185","1585488","0.0-21.0-2.23","41dee2bf-44de-4b95-a0ce-cfd0e8024bf0","null","<p style=""text-align: center;"">+</p>","null","fixation","","","","","","","","","","","","","","","","","","","","","","",""
"","","","","","html-slider-response","186","1586492","0.0-21.0-0.24","41dee2bf-44de-4b95-a0ce-cfd0e8024bf0","1000","
                  <p style=""text-align: center;"">₪18
                                                <br>25%</p>
                  <p id=""wtp"" style=""text-align:center; margin-top: 0px; margin-bottom: 0px; font-size: 40px"";>&ensp;</p>","-","viewing","0","9","14A,23A","","","","","","","","","","","","","","","","","","","",""
"","","","","","html-slider-response","187","1589456","0.0-21.0-1.24","41dee2bf-44de-4b95-a0ce-cfd0e8024bf0","2963","
                  <p style=""text-align: center;"">₪18
                                                <br>25%</p>
                  <p id=""wtp"" style=""text-align:center; margin-top: 0px; margin-bottom: 0px; font-size: 40px"";>מוכנים לשלם: <span id=""c_p_y""></span></p>","60","evaluation","70","9","14A,23A","25","18","60","","","","","","","","","","","","","","","","",""
"","","","","","html-keyboard-response","188","1590153","0.0-21.0-2.24","41dee2bf-44de-4b95-a0ce-cfd0e8024bf0","null","<p style=""text-align: center;"">+</p>","null","fixation","","","","","","","","","","","","","","","","","","","","","","",""
"","","","","","html-slider-response","189","1591166","0.0-21.0-0.25","41dee2bf-44de-4b95-a0ce-cfd0e8024bf0","1000","
                  <p style=""text-align: center;"">₪58
                                                <br>40%</p>
                  <p id=""wtp"" style=""text-align:center; margin-top: 0px; margin-bottom: 0px; font-size: 40px"";>&ensp;</p>","-","viewing","0","20","10C,13A,19C,21B","","","","","","","","","","","","","","","","","","","",""
"","","","","","html-slider-response","190","1594016","0.0-21.0-1.25","41dee2bf-44de-4b95-a0ce-cfd0e8024bf0","2849","
                  <p style=""text-align: center;"">₪58
                                                <br>40%</p>
                  <p id=""wtp"" style=""text-align:center; margin-top: 0px; margin-bottom: 0px; font-size: 40px"";>מוכנים לשלם: <span id=""c_p_y""></span></p>","40","evaluation","55","20","10C,13A,19C,21B","40","58","40","","","","","","","","","","","","","","","","",""
"","","","","","html-keyboard-response","191","1595071","0.0-21.0-2.25","41dee2bf-44de-4b95-a0ce-cfd0e8024bf0","null","<p style=""text-align: center;"">+</p>","null","fixation","","","","","","","","","","","","","","","","","","","","","","",""
"","","","","","html-slider-response","192","1596088","0.0-21.0-0.26","41dee2bf-44de-4b95-a0ce-cfd0e8024bf0","1000","
                  <p style=""text-align: center;"">₪16
                                                <br>20%</p>
                  <p id=""wtp"" style=""text-align:center; margin-top: 0px; margin-bottom: 0px; font-size: 40px"";>&ensp;</p>","-","viewing","0","8","14C,17A,20C,27A","","","","","","","","","","","","","","","","","","","",""
"","","","","","html-slider-response","193","1599608","0.0-21.0-1.26","41dee2bf-44de-4b95-a0ce-cfd0e8024bf0","3519","
                  <p style=""text-align: center;"">₪16
                                                <br>20%</p>
                  <p id=""wtp"" style=""text-align:center; margin-top: 0px; margin-bottom: 0px; font-size: 40px"";>מוכנים לשלם: <span id=""c_p_y""></span></p>","20","evaluation","61","8","14C,17A,20C,27A","20","16","20","","","","","","","","","","","","","","","","",""
"","","","","","html-keyboard-response","194","1600684","0.0-21.0-2.26","41dee2bf-44de-4b95-a0ce-cfd0e8024bf0","null","<p style=""text-align: center;"">+</p>","null","fixation","","","","","","","","","","","","","","","","","","","","","","",""
"","","","","","html-slider-response","195","1601690","0.0-21.0-0.27","41dee2bf-44de-4b95-a0ce-cfd0e8024bf0","1000","
                  <p style=""text-align: center;"">₪64
                                                <br>50%</p>
                  <p id=""wtp"" style=""text-align:center; margin-top: 0px; margin-bottom: 0px; font-size: 40px"";>&ensp;</p>","-","viewing","0","25","1B,3B,4A","","","","","","","","","","","","","","","","","","","",""
"","","","","","html-slider-response","196","1605504","0.0-21.0-1.27","41dee2bf-44de-4b95-a0ce-cfd0e8024bf0","3813","
                  <p style=""text-align: center;"">₪64
                                                <br>50%</p>
                  <p id=""wtp"" style=""text-align:center; margin-top: 0px; margin-bottom: 0px; font-size: 40px"";>מוכנים לשלם: <span id=""c_p_y""></span></p>","40","evaluation","12","25","1B,3B,4A","50","64","40","","","","","","","","","","","","","","","","",""
"","","","","","html-keyboard-response","197","1606543","0.0-21.0-2.27","41dee2bf-44de-4b95-a0ce-cfd0e8024bf0","null","<p style=""text-align: center;"">+</p>","null","fixation","","","","","","","","","","","","","","","","","","","","","","",""
"","","","","","html-slider-response","198","1607542","0.0-21.0-0.28","41dee2bf-44de-4b95-a0ce-cfd0e8024bf0","1000","
                  <p style=""text-align: center;"">₪11
                                                <br>45%</p>
                  <p id=""wtp"" style=""text-align:center; margin-top: 0px; margin-bottom: 0px; font-size: 40px"";>&ensp;</p>","-","viewing","0","6","14B,21C,25C","","","","","","","","","","","","","","","","","","","",""
"","","","","","html-slider-response","199","1610915","0.0-21.0-1.28","41dee2bf-44de-4b95-a0ce-cfd0e8024bf0","3372","
                  <p style=""text-align: center;"">₪11
                                                <br>45%</p>
                  <p id=""wtp"" style=""text-align:center; margin-top: 0px; margin-bottom: 0px; font-size: 40px"";>מוכנים לשלם: <span id=""c_p_y""></span></p>","60","evaluation","7","6","14B,21C,25C","45","11","60","","","","","","","","","","","","","","","","",""
"","","","","","html-keyboard-response","200","1612316","0.0-21.0-2.28","41dee2bf-44de-4b95-a0ce-cfd0e8024bf0","null","<p style=""text-align: center;"">+</p>","null","fixation","","","","","","","","","","","","","","","","","","","","","","",""
"","","","","","html-slider-response","201","1613320","0.0-21.0-0.29","41dee2bf-44de-4b95-a0ce-cfd0e8024bf0","1000","
                  <p style=""text-align: center;"">₪11
                                                <br>20%</p>
                  <p id=""wtp"" style=""text-align:center; margin-top: 0px; margin-bottom: 0px; font-size: 40px"";>&ensp;</p>","-","viewing","0","4","12C,17C,23C,28C","","","","","","","","","","","","","","","","","","","",""
"","","","","","html-slider-response","202","1616172","0.0-21.0-1.29","41dee2bf-44de-4b95-a0ce-cfd0e8024bf0","2850","
                  <p style=""text-align: center;"">₪11
                                                <br>20%</p>
                  <p id=""wtp"" style=""text-align:center; margin-top: 0px; margin-bottom: 0px; font-size: 40px"";>מוכנים לשלם: <span id=""c_p_y""></span></p>","40","evaluation","6","4","12C,17C,23C,28C","20","11","40","","","","","","","","","","","","","","","","",""
"","","","","","html-keyboard-response","203","1617527","0.0-21.0-2.29","41dee2bf-44de-4b95-a0ce-cfd0e8024bf0","null","<p style=""text-align: center;"">+</p>","null","fixation","","","","","","","","","","","","","","","","","","","","","","",""
"","","","","","html-slider-response","204","1618536","0.0-21.0-0.30","41dee2bf-44de-4b95-a0ce-cfd0e8024bf0","1000","
                  <p style=""text-align: center;"">₪76
                                                <br>65%</p>
                  <p id=""wtp"" style=""text-align:center; margin-top: 0px; margin-bottom: 0px; font-size: 40px"";>&ensp;</p>","-","viewing","0","29","8C,19A,24B","","","","","","","","","","","","","","","","","","","",""
"","","","","","html-slider-response","205","1620731","0.0-21.0-1.30","41dee2bf-44de-4b95-a0ce-cfd0e8024bf0","2194","
                  <p style=""text-align: center;"">₪76
                                                <br>65%</p>
                  <p id=""wtp"" style=""text-align:center; margin-top: 0px; margin-bottom: 0px; font-size: 40px"";>מוכנים לשלם: <span id=""c_p_y""></span></p>","40","evaluation","46","29","8C,19A,24B","65","76","40","","","","","","","","","","","","","","","","",""
"","","","","","html-keyboard-response","206","1621596","0.0-21.0-2.30","41dee2bf-44de-4b95-a0ce-cfd0e8024bf0","null","<p style=""text-align: center;"">+</p>","null","fixation","","","","","","","","","","","","","","","","","","","","","","",""
"","","","","","html-keyboard-response","207","1622606","0.0-22.0","41dee2bf-44de-4b95-a0ce-cfd0e8024bf0","null","<p style=""text-align: center;"">+</p>","null","fixation","","","","","","","","","","","","","","","","","","","","","","",""
"","","","","","html-keyboard-response","208","1624171","0.0-23.0","41dee2bf-44de-4b95-a0ce-cfd0e8024bf0","null","<p>הפסקה.
          <br>לחצו כדי להמשיך.</p>","1","scan_wait","","","","","","","","","","","","","","","","","","","","","","",""
"","","","","","html-keyboard-response","209","1625188","0.0-24.0","41dee2bf-44de-4b95-a0ce-cfd0e8024bf0","null","<p style=""text-align: center;"">+</p>","null","fixation","","","","","","","","","","","","","","","","","","","","","","",""
"","","","","","html-slider-response","210","1626200","0.0-25.0-0.0","41dee2bf-44de-4b95-a0ce-cfd0e8024bf0","1000","
                  <p style=""text-align: center;"">₪39
                                                <br>65%</p>
                  <p id=""wtp"" style=""text-align:center; margin-top: 0px; margin-bottom: 0px; font-size: 40px"";>&ensp;</p>","-","viewing","0","16","1A,15A,26C","","","","","","","","","","","","","","","","","","","",""
"","","","","","html-slider-response","211","1630202","0.0-25.0-1.0","41dee2bf-44de-4b95-a0ce-cfd0e8024bf0","null","
                  <p style=""text-align: center;"">₪39
                                                <br>65%</p>
                  <p id=""wtp"" style=""text-align:center; margin-top: 0px; margin-bottom: 0px; font-size: 40px"";>מוכנים לשלם: <span id=""c_p_y""></span></p>","null","evaluation","28","16","1A,15A,26C","65","39","60","","","","","","","","","","","","","","","","",""
"","","","","","html-keyboard-response","212","1631090","0.0-25.0-2.0","41dee2bf-44de-4b95-a0ce-cfd0e8024bf0","null","<p style=""text-align: center;"">+</p>","null","fixation","","","","","","","","","","","","","","","","","","","","","","",""
"","","","","","html-slider-response","213","1632099","0.0-25.0-0.1","41dee2bf-44de-4b95-a0ce-cfd0e8024bf0","1000","
                  <p style=""text-align: center;"">₪58
                                                <br>30%</p>
                  <p id=""wtp"" style=""text-align:center; margin-top: 0px; margin-bottom: 0px; font-size: 40px"";>&ensp;</p>","-","viewing","0","19","13C,30A","","","","","","","","","","","","","","","","","","","",""
"","","","","","html-slider-response","214","1635971","0.0-25.0-1.1","41dee2bf-44de-4b95-a0ce-cfd0e8024bf0","3871","
                  <p style=""text-align: center;"">₪58
                                                <br>30%</p>
                  <p id=""wtp"" style=""text-align:center; margin-top: 0px; margin-bottom: 0px; font-size: 40px"";>מוכנים לשלם: <span id=""c_p_y""></span></p>","60","evaluation","14","19","13C,30A","30","58","60","","","","","","","","","","","","","","","","",""
"","","","","","html-keyboard-response","215","1637331","0.0-25.0-2.1","41dee2bf-44de-4b95-a0ce-cfd0e8024bf0","null","<p style=""text-align: center;"">+</p>","null","fixation","","","","","","","","","","","","","","","","","","","","","","",""
"","","","","","html-slider-response","216","1638334","0.0-25.0-0.2","41dee2bf-44de-4b95-a0ce-cfd0e8024bf0","1000","
                  <p style=""text-align: center;"">₪36
                                                <br>30%</p>
                  <p id=""wtp"" style=""text-align:center; margin-top: 0px; margin-bottom: 0px; font-size: 40px"";>&ensp;</p>","-","viewing","0","11","3C,20A,22A","","","","","","","","","","","","","","","","","","","",""
"","","","","","html-slider-response","217","1641132","0.0-25.0-1.2","41dee2bf-44de-4b95-a0ce-cfd0e8024bf0","2796","
                  <p style=""text-align: center;"">₪36
                                                <br>30%</p>
                  <p id=""wtp"" style=""text-align:center; margin-top: 0px; margin-bottom: 0px; font-size: 40px"";>מוכנים לשלם: <span id=""c_p_y""></span></p>","40","evaluation","7","11","3C,20A,22A","30","36","40","","","","","","","","","","","","","","","","",""
"","","","","","html-keyboard-response","218","1642063","0.0-25.0-2.2","41dee2bf-44de-4b95-a0ce-cfd0e8024bf0","null","<p style=""text-align: center;"">+</p>","null","fixation","","","","","","","","","","","","","","","","","","","","","","",""
"","","","","","html-slider-response","219","1643076","0.0-25.0-0.3","41dee2bf-44de-4b95-a0ce-cfd0e8024bf0","1000","
                  <p style=""text-align: center;"">₪11
                                                <br>75%</p>
                  <p id=""wtp"" style=""text-align:center; margin-top: 0px; margin-bottom: 0px; font-size: 40px"";>&ensp;</p>","-","viewing","0","7","6B,18B,22C,24C,29A","","","","","","","","","","","","","","","","","","","",""
"","","","","","html-slider-response","220","1646099","0.0-25.0-1.3","41dee2bf-44de-4b95-a0ce-cfd0e8024bf0","3023","
                  <p style=""text-align: center;"">₪11
                                                <br>75%</p>
                  <p id=""wtp"" style=""text-align:center; margin-top: 0px; margin-bottom: 0px; font-size: 40px"";>מוכנים לשלם: <span id=""c_p_y""></span></p>","20","evaluation","46","7","6B,18B,22C,24C,29A","75","11","20","","","","","","","","","","","","","","","","",""
"","","","","","html-keyboard-response","221","1647176","0.0-25.0-2.3","41dee2bf-44de-4b95-a0ce-cfd0e8024bf0","null","<p style=""text-align: center;"">+</p>","null","fixation","","","","","","","","","","","","","","","","","","","","","","",""
"","","","","","html-slider-response","222","1648182","0.0-25.0-0.4","41dee2bf-44de-4b95-a0ce-cfd0e8024bf0","1000","
                  <p style=""text-align: center;"">₪36
                                                <br>75%</p>
                  <p id=""wtp"" style=""text-align:center; margin-top: 0px; margin-bottom: 0px; font-size: 40px"";>&ensp;</p>","-","viewing","0","14","4B,5A,13B,16B","","","","","","","","","","","","","","","","","","","",""
"","","","","","html-slider-response","223","1651787","0.0-25.0-1.4","41dee2bf-44de-4b95-a0ce-cfd0e8024bf0","3604","
                  <p style=""text-align: center;"">₪36
                                                <br>75%</p>
                  <p id=""wtp"" style=""text-align:center; margin-top: 0px; margin-bottom: 0px; font-size: 40px"";>מוכנים לשלם: <span id=""c_p_y""></span></p>","60","evaluation","71","14","4B,5A,13B,16B","75","36","60","","","","","","","","","","","","","","","","",""
"","","","","","html-keyboard-response","224","1653030","0.0-25.0-2.4","41dee2bf-44de-4b95-a0ce-cfd0e8024bf0","null","<p style=""text-align: center;"">+</p>","null","fixation","","","","","","","","","","","","","","","","","","","","","","",""
"","","","","","html-slider-response","225","1654038","0.0-25.0-0.5","41dee2bf-44de-4b95-a0ce-cfd0e8024bf0","1000","
                  <p style=""text-align: center;"">₪11
                                                <br>45%</p>
                  <p id=""wtp"" style=""text-align:center; margin-top: 0px; margin-bottom: 0px; font-size: 40px"";>&ensp;</p>","-","viewing","0","6","14B,21C,25C","","","","","","","","","","","","","","","","","","","",""
"","","","","","html-slider-response","226","1656955","0.0-25.0-1.5","41dee2bf-44de-4b95-a0ce-cfd0e8024bf0","2916","
                  <p style=""text-align: center;"">₪11
                                                <br>45%</p>
                  <p id=""wtp"" style=""text-align:center; margin-top: 0px; margin-bottom: 0px; font-size: 40px"";>מוכנים לשלם: <span id=""c_p_y""></span></p>","40","evaluation","50","6","14B,21C,25C","45","11","40","","","","","","","","","","","","","","","","",""
"","","","","","html-keyboard-response","227","1658386","0.0-25.0-2.5","41dee2bf-44de-4b95-a0ce-cfd0e8024bf0","null","<p style=""text-align: center;"">+</p>","null","fixation","","","","","","","","","","","","","","","","","","","","","","",""
"","","","","","html-slider-response","228","1659392","0.0-25.0-0.6","41dee2bf-44de-4b95-a0ce-cfd0e8024bf0","1000","
                  <p style=""text-align: center;"">₪39
                                                <br>60%</p>
                  <p id=""wtp"" style=""text-align:center; margin-top: 0px; margin-bottom: 0px; font-size: 40px"";>&ensp;</p>","-","viewing","0","15","9C,25B","","","","","","","","","","","","","","","","","","","",""
"","","","","","html-slider-response","229","1663011","0.0-25.0-1.6","41dee2bf-44de-4b95-a0ce-cfd0e8024bf0","3618","
                  <p style=""text-align: center;"">₪39
                                                <br>60%</p>
                  <p id=""wtp"" style=""text-align:center; margin-top: 0px; margin-bottom: 0px; font-size: 40px"";>מוכנים לשלם: <span id=""c_p_y""></span></p>","50","evaluation","43","15","9C,25B","60","39","50","","","","","","","","","","","","","","","","",""
"","","","","","html-keyboard-response","230","1663890","0.0-25.0-2.6","41dee2bf-44de-4b95-a0ce-cfd0e8024bf0","null","<p style=""text-align: center;"">+</p>","null","fixation","","","","","","","","","","","","","","","","","","","","","","",""
"","","","","","html-slider-response","231","1664899","0.0-25.0-0.7","41dee2bf-44de-4b95-a0ce-cfd0e8024bf0","1000","
                  <p style=""text-align: center;"">₪64
                                                <br>50%</p>
                  <p id=""wtp"" style=""text-align:center; margin-top: 0px; margin-bottom: 0px; font-size: 40px"";>&ensp;</p>","-","viewing","0","25","1B,3B,4A","","","","","","","","","","","","","","","","","","","",""
"","","","","","html-slider-response","232","1667840","0.0-25.0-1.7","41dee2bf-44de-4b95-a0ce-cfd0e8024bf0","2944","
                  <p style=""text-align: center;"">₪64
                                                <br>50%</p>
                  <p id=""wtp"" style=""text-align:center; margin-top: 0px; margin-bottom: 0px; font-size: 40px"";>מוכנים לשלם: <span id=""c_p_y""></span></p>","40","evaluation","45","25","1B,3B,4A","50","64","40","","","","","","","","","","","","","","","","",""
"","","","","","html-keyboard-response","233","1668763","0.0-25.0-2.7","41dee2bf-44de-4b95-a0ce-cfd0e8024bf0","null","<p style=""text-align: center;"">+</p>","null","fixation","","","","","","","","","","","","","","","","","","","","","","",""
"","","","","","html-slider-response","234","1669765","0.0-25.0-0.8","41dee2bf-44de-4b95-a0ce-cfd0e8024bf0","1000","
                  <p style=""text-align: center;"">₪61
                                                <br>45%</p>
                  <p id=""wtp"" style=""text-align:center; margin-top: 0px; margin-bottom: 0px; font-size: 40px"";>&ensp;</p>","-","viewing","0","22","10A,11A","","","","","","","","","","","","","","","","","","","",""
"","","","","","html-slider-response","235","1673136","0.0-25.0-1.8","41dee2bf-44de-4b95-a0ce-cfd0e8024bf0","3371","
                  <p style=""text-align: center;"">₪61
                                                <br>45%</p>
                  <p id=""wtp"" style=""text-align:center; margin-top: 0px; margin-bottom: 0px; font-size: 40px"";>מוכנים לשלם: <span id=""c_p_y""></span></p>","30","evaluation","4","22","10A,11A","45","61","30","","","","","","","","","","","","","","","","",""
"","","","","","html-keyboard-response","236","1673983","0.0-25.0-2.8","41dee2bf-44de-4b95-a0ce-cfd0e8024bf0","null","<p style=""text-align: center;"">+</p>","null","fixation","","","","","","","","","","","","","","","","","","","","","","",""
"","","","","","html-slider-response","237","1674999","0.0-25.0-0.9","41dee2bf-44de-4b95-a0ce-cfd0e8024bf0","1000","
                  <p style=""text-align: center;"">₪79
                                                <br>40%</p>
                  <p id=""wtp"" style=""text-align:center; margin-top: 0px; margin-bottom: 0px; font-size: 40px"";>&ensp;</p>","-","viewing","0","30","9B","","","","","","","","","","","","","","","","","","","",""
"","","","","","html-slider-response","238","1676920","0.0-25.0-1.9","41dee2bf-44de-4b95-a0ce-cfd0e8024bf0","1920","
                  <p style=""text-align: center;"">₪79
                                                <br>40%</p>
                  <p id=""wtp"" style=""text-align:center; margin-top: 0px; margin-bottom: 0px; font-size: 40px"";>מוכנים לשלם: <span id=""c_p_y""></span></p>","39","evaluation","68","30","9B","40","79","39","","","","","","","","","","","","","","","","",""
"","","","","","html-keyboard-response","239","1677760","0.0-25.0-2.9","41dee2bf-44de-4b95-a0ce-cfd0e8024bf0","null","<p style=""text-align: center;"">+</p>","null","fixation","","","","","","","","","","","","","","","","","","","","","","",""
"","","","","","html-slider-response","240","1678775","0.0-25.0-0.10","41dee2bf-44de-4b95-a0ce-cfd0e8024bf0","1000","
                  <p style=""text-align: center;"">₪16
                                                <br>20%</p>
                  <p id=""wtp"" style=""text-align:center; margin-top: 0px; margin-bottom: 0px; font-size: 40px"";>&ensp;</p>","-","viewing","0","8","14C,17A,20C,27A","","","","","","","","","","","","","","","","","","","",""
"","","","","","html-slider-response","241","1681216","0.0-25.0-1.10","41dee2bf-44de-4b95-a0ce-cfd0e8024bf0","2440","
                  <p style=""text-align: center;"">₪16
                                                <br>20%</p>
                  <p id=""wtp"" style=""text-align:center; margin-top: 0px; margin-bottom: 0px; font-size: 40px"";>מוכנים לשלם: <span id=""c_p_y""></span></p>","16","evaluation","60","8","14C,17A,20C,27A","20","16","16","","","","","","","","","","","","","","","","",""
"","","","","","html-keyboard-response","242","1682321","0.0-25.0-2.10","41dee2bf-44de-4b95-a0ce-cfd0e8024bf0","null","<p style=""text-align: center;"">+</p>","null","fixation","","","","","","","","","","","","","","","","","","","","","","",""
"","","","","","html-slider-response","243","1683333","0.0-25.0-0.11","41dee2bf-44de-4b95-a0ce-cfd0e8024bf0","1000","
                  <p style=""text-align: center;"">₪71
                                                <br>75%</p>
                  <p id=""wtp"" style=""text-align:center; margin-top: 0px; margin-bottom: 0px; font-size: 40px"";>&ensp;</p>","-","viewing","0","28","8B","","","","","","","","","","","","","","","","","","","",""
"","","","","","html-slider-response","244","1685777","0.0-25.0-1.11","41dee2bf-44de-4b95-a0ce-cfd0e8024bf0","2443","
                  <p style=""text-align: center;"">₪71
                                                <br>75%</p>
                  <p id=""wtp"" style=""text-align:center; margin-top: 0px; margin-bottom: 0px; font-size: 40px"";>מוכנים לשלם: <span id=""c_p_y""></span></p>","60","evaluation","33","28","8B","75","71","60","","","","","","","","","","","","","","","","",""
"","","","","","html-keyboard-response","245","1687095","0.0-25.0-2.11","41dee2bf-44de-4b95-a0ce-cfd0e8024bf0","null","<p style=""text-align: center;"">+</p>","null","fixation","","","","","","","","","","","","","","","","","","","","","","",""
"","","","","","html-slider-response","246","1688098","0.0-25.0-0.12","41dee2bf-44de-4b95-a0ce-cfd0e8024bf0","1000","
                  <p style=""text-align: center;"">₪76
                                                <br>65%</p>
                  <p id=""wtp"" style=""text-align:center; margin-top: 0px; margin-bottom: 0px; font-size: 40px"";>&ensp;</p>","-","viewing","0","29","8C,19A,24B","","","","","","","","","","","","","","","","","","","",""
"","","","","","html-slider-response","247","1690072","0.0-25.0-1.12","41dee2bf-44de-4b95-a0ce-cfd0e8024bf0","1973","
                  <p style=""text-align: center;"">₪76
                                                <br>65%</p>
                  <p id=""wtp"" style=""text-align:center; margin-top: 0px; margin-bottom: 0px; font-size: 40px"";>מוכנים לשלם: <span id=""c_p_y""></span></p>","60","evaluation","60","29","8C,19A,24B","65","76","60","","","","","","","","","","","","","","","","",""
