"success","timeout","failed_images","failed_audio","failed_video","trial_type","trial_index","time_elapsed","internal_node_id","subject_id","rt","stimulus","response","part","slider_start","ID","set_ID","prob","amount","last_location","actual_choice","actual_EV","binary_id","trinary_id","catch","A_key","D_key","choice_prob","choice_amount","potential_prize_prob","potential_prize_amount","won_prize","total_prize","remaining_budget","accuracy"
"true","false","[]","[]","[]","preload","0","10","0.0-0.0","e8ebda42-a20e-49f1-aeff-b6c6a1e2d933","","","","","","","","","","","","","","","","","","","","","","","","",""
"","","","","","html-keyboard-response","1","11670","0.0-1.0","e8ebda42-a20e-49f1-aeff-b6c6a1e2d933","null","
          <h1>שלום וברוכים הבאים!</h1>
          <p>לפניכם ניסוי בקבלת החלטות עם שני חלקים.
          <br><br>לחצו על העכבר כדי להמשיך.</p>","0","example","","","","","","","","","","","","","","","","","","","","",""
"","","","","","html-keyboard-response","2","21165","0.0-2.0","e8ebda42-a20e-49f1-aeff-b6c6a1e2d933","null","
        <h1>חלק 1</h1>
        <p>בקרוב יוצגו בפניכם הגרלות.
        <br>עליכם לבחור את המחיר המירבי שתהיו מוכנים לשלם כדי להשתתף בהגרלה שתוצג.
        <br>יש לכם תקציב של ₪80 לכל הגרלה. 
        <br>נסו להעריך כל הגרלה בנפרד ולחשוב כמה היא שווה עבורכם, ₪80 זמינים לכל הגרלה בנפרד.
        <br><br>לחצו על העכבר כדי להמשיך.</p>","1","instructions","","","","","","","","","","","","","","","","","","","","",""
"","","","","","html-keyboard-response","3","23277","0.0-3.0","e8ebda42-a20e-49f1-aeff-b6c6a1e2d933","null","
        <p>בסוף הניסוי, המחשב יבחר את אחת ההגרלות ויקבע מחיר לכרטיס עבורה. 
        <br>במידה והמחיר שבחרתם נמוך מהמחיר שנבחר על ידי המחשב, לא תשתתפו בהגרלה ותשארו עם מלוא התקציב.
        <br>במידה והמחיר שבחרתם גבוה מהמחיר שנבחר על ידי המחשב, תשלמו את המחיר שנקבע ותשתתפו בהגרלה.
        <br><br>לחצו על העכבר כדי להמשיך.</p>","1","instructions","","","","","","","","","","","","","","","","","","","","",""
"","","","","","html-slider-response","4","46773","0.0-4.0","e8ebda42-a20e-49f1-aeff-b6c6a1e2d933","23393","
        <p style=""font-size: 42px;"">נתחיל עם דוגמא: 
        <br>ההגרלה מטה מציעה 65% סיכוי לזכות ב-₪40 
        <br>&emsp;&emsp;&emsp;&emsp;&emsp;&emsp;&emsp;&emsp;&ensp;35% סיכוי לזכות ב-₪0.
        <br><br>מה המחיר המירבי שתהיו מוכנים לשלם על כרטיס להגרלה זו בין 0 ל-₪80?
        <br>הזיזו את העכבר על פני המלבן ולחצו כדי לבצע בחירה.</p>
        
        <p style=""text-align: center;"">₪40<br>65%</p>

        <p id=""wtp"" style=""text-align:center; margin-top: 0px; margin-bottom: 0px; font-size: 40px"";>מוכנים לשלם: <span id=""c_p_y""></span></p>","25","example","59","","","","","","","","","","","","","","","","","","","",""
"","","","","","html-keyboard-response","5","56045","0.0-5.0","e8ebda42-a20e-49f1-aeff-b6c6a1e2d933","null","<p>יפה מאוד!
                <br> בחרתם שתהיו מוכנים לשלם ₪25 כדי להשתתף בהגרלה:
                <br><p style=""text-align: center;"">₪40<br>65%</p>
                <p>נשמע נכון?
                <br>נניח שהגרלה זו נבחרה בסוף הניסוי.
                <br>כעת המחשב יקבע מחיר עבורה באקראי.
                <br>לחצו על העכבר להמשך.</p>","1","example","","","","","","","","","","","","","","","","","","","","",""
"","","","","","html-keyboard-response","6","65878","0.0-6.0","e8ebda42-a20e-49f1-aeff-b6c6a1e2d933","null","<p>המחשב קבע מחיר: ₪27
                <br>ואתם בחרתם לשלם לכל היותר: ₪25
                <br><br>מכיוון שהמחיר שבחרתם נמוך מהמחיר שנקבע, לא תתשתתפו בהגרלה.
                <br>במקרה כזה, בסוף הניסוי תקבלו את כל התקציב ההתחלתי של ₪80.
                <br><br>לחצו על העכבר להמשך.</p>","1","example","","","","","","","","","","","","","","","","","","","","",""
"","","","","","html-slider-response","7","90414","0.0-7.0","e8ebda42-a20e-49f1-aeff-b6c6a1e2d933","24277","<p style=""font-size: 42px;"">הנה עוד דוגמא:
                <br>ההגרלה מטה מציעה 35% סיכוי לזכות ב-₪18 
                <br>&emsp;&emsp;&emsp;&emsp;&emsp;&emsp;&emsp;&emsp;&ensp;65% סיכוי לזכות ב-₪0.</p>
        
                <p style=""text-align: center;"">₪18<br>35%</p>
                <p id=""wtp"" style=""text-align:center; margin-top: 0px; margin-bottom: 0px; font-size: 40px"";>מוכנים לשלם: <span id=""c_p_y""></span></p>","5","example","31","","","","","","","","","","","","","","","","","","","",""
"","","","","","html-keyboard-response","8","93942","0.0-8.0","e8ebda42-a20e-49f1-aeff-b6c6a1e2d933","null","<p>הייתם מוכנים לשלם  ₪5 כדי להשתתף בהגרלה:
                <p style=""text-align: center;"">₪18<br>35%</p>
                <p>כעת נניח שהמחשב בחר את ההגרלה הזו בסוף הניסוי, וקבע עבורה מחיר.
                <br><br>לחצו על העכבר כדי להמשיך.</p>","1","instructions","","","","","","","","","","","","","","","","","","","","",""
"","","","","","html-keyboard-response","9","105398","0.0-9.0","e8ebda42-a20e-49f1-aeff-b6c6a1e2d933","null","<p>המחשב קבע מחיר להגרלה: ₪2<br>ואתם בחרתם לשלם לכל היותר: ₪5
                <br><br>כעת המחיר שנקבע נמוך מזה שבחרתם, אז תשלמו את המחיר שקבע המחשב (₪2) ותשתתפו בהגרלה.
                <br>במקרה כזה, תסיימו את הניסוי עם תקציב של ₪78 ועם סיכוי לזכות ב-₪18 נוספים מההגרלה.
                <br>כלומר, תוכלו לקבל ₪78 אם לא תזכו בהגרלה, או ₪96 אם תזכו בהגרלה.
                <br><br>לחצו על העכבר להמשך.</p>","1","example","","","","","","","","","","","","","","","","","","","","",""
"","","","","","html-keyboard-response","10","115118","0.0-10.0","e8ebda42-a20e-49f1-aeff-b6c6a1e2d933","null","<p>במהלך הניסוי, קודם תראו את ההגרלה ורק לאחר מכן תוכלו לבחור.
                <p>כמו כן, יהיו לכם מספר שניות מוגבל להגיב.
                <p>בואו ננסה זאת עם ההגרלה הקודמת.
                <br>לחצו על העכבר כדי להמשיך.</p>","1","instructions","","","","","","","","","","","","","","","","","","","","",""
"","","","","","html-slider-response","11","116377","0.0-11.0","e8ebda42-a20e-49f1-aeff-b6c6a1e2d933","1000","
                    <p style=""text-align: center;"">₪18<br>35%</p>
                    <p id=""wtp"" style=""text-align:center; margin-top: 0px; margin-bottom: 0px; font-size: 40px"";>&ensp;</p>","23","instructions","0","","","","","","","","","","","","","","","","","","","",""
"","","","","","html-slider-response","12","120632","0.0-12.0","e8ebda42-a20e-49f1-aeff-b6c6a1e2d933","null","
                    <p style=""text-align: center;"">₪18<br>35%</p>
                    <p id=""wtp"" style=""text-align:center; margin-top: 0px; margin-bottom: 0px; font-size: 40px"";>מוכנים לשלם: <span id=""c_p_y""></span></p>","null","instructions","25","","","","","","","","","","","","","","","","","","","",""
"","","","","","html-keyboard-response","13","124573","0.0-13.0","e8ebda42-a20e-49f1-aeff-b6c6a1e2d933","null","<p>לא הגבתם בזמן המוקצב לתגובה. 
                <br>נסו להגיב מהר יותר בפעם הבאה.
                <br><br>לחצו על העכבר כדי להמשיך.</p>","1","instructions","","","","","","","","","","","","","","","","","","","","",""
"","","","","","html-slider-response","14","128838","0.0-14.0-0.0","e8ebda42-a20e-49f1-aeff-b6c6a1e2d933","null","
                    <p style=""text-align: center;"">₪40<br>65%</p>
                    <p id=""wtp"" style=""text-align:center; margin-top: 0px; margin-bottom: 0px; font-size: 40px"";>מוכנים לשלם: <span id=""c_p_y""></span></p>","null","instructions","3","","","","","","","","","","","","","","","","","","","",""
"","","","","","html-keyboard-response","15","133037","0.0-14.0-1.0","e8ebda42-a20e-49f1-aeff-b6c6a1e2d933","null","<p>לא הגבתם בזמן המוקצב לתגובה. 
                <br>נסו להגיב מהר יותר בפעם הבאה.
                <br><br>לחצו על העכבר כדי להמשיך.</p>","1","instructions","","","","","","","","","","","","","","","","","","","","",""
"","","","","","html-keyboard-response","16","142509","0.0-15.0","e8ebda42-a20e-49f1-aeff-b6c6a1e2d933","null","<p>כעת נתחיל את הניסוי.
                <br><br>אתם תראו הגרלות ותתבקשו לבחור כמה תהיו מוכנים לשלם כדי להשתתף בהן.
                <br>יש לכם תקציב של ₪80 עבור כל הגרלה.
                <br>בסוף הניסוי הגרלה אחת תבחר באקראי ותשוחק.
                <br><br>לחצו על העכבר כדי להתחיל את הניסוי.</p>","1","instructions","","","","","","","","","","","","","","","","","","","","",""
"","","","","","html-keyboard-response","17","143768","0.0-16.0","e8ebda42-a20e-49f1-aeff-b6c6a1e2d933","null","<p style=""text-align: center;"">+</p>","null","fixation","","","","","","","","","","","","","","","","","","","","",""
"","","","","","html-slider-response","18","144788","0.0-17.0-0.0","e8ebda42-a20e-49f1-aeff-b6c6a1e2d933","1000","
                  <p style=""text-align: center;"">₪16
                                                <br>20%</p>
                  <p id=""wtp"" style=""text-align:center; margin-top: 0px; margin-bottom: 0px; font-size: 40px"";>&ensp;</p>","-","viewing","0","8","14C,17A,20C,27A","","","","","","","","","","","","","","","","","",""
"","","","","","html-slider-response","19","146117","0.0-17.0-1.0","e8ebda42-a20e-49f1-aeff-b6c6a1e2d933","1328","
                  <p style=""text-align: center;"">₪16
                                                <br>20%</p>
                  <p id=""wtp"" style=""text-align:center; margin-top: 0px; margin-bottom: 0px; font-size: 40px"";>מוכנים לשלם: <span id=""c_p_y""></span></p>","5","evaluation","49","8","14C,17A,20C,27A","20","16","5","","","","","","","","","","","","","","",""
"","","","","","html-keyboard-response","20","147431","0.0-17.0-2.0","e8ebda42-a20e-49f1-aeff-b6c6a1e2d933","null","<p style=""text-align: center;"">+</p>","null","fixation","","","","","","","","","","","","","","","","","","","","",""
"","","","","","html-slider-response","21","148438","0.0-17.0-0.1","e8ebda42-a20e-49f1-aeff-b6c6a1e2d933","1000","
                  <p style=""text-align: center;"">₪11
                                                <br>20%</p>
                  <p id=""wtp"" style=""text-align:center; margin-top: 0px; margin-bottom: 0px; font-size: 40px"";>&ensp;</p>","-","viewing","0","4","12C,17C,23C,28C","","","","","","","","","","","","","","","","","",""
"","","","","","html-slider-response","22","150550","0.0-17.0-1.1","e8ebda42-a20e-49f1-aeff-b6c6a1e2d933","2110","
                  <p style=""text-align: center;"">₪11
                                                <br>20%</p>
                  <p id=""wtp"" style=""text-align:center; margin-top: 0px; margin-bottom: 0px; font-size: 40px"";>מוכנים לשלם: <span id=""c_p_y""></span></p>","2","evaluation","10","4","12C,17C,23C,28C","20","11","3","","","","","","","","","","","","","","",""
"","","","","","html-keyboard-response","23","151840","0.0-17.0-2.1","e8ebda42-a20e-49f1-aeff-b6c6a1e2d933","null","<p style=""text-align: center;"">+</p>","null","fixation","","","","","","","","","","","","","","","","","","","","",""
"","","","","","html-slider-response","24","152850","0.0-17.0-0.2","e8ebda42-a20e-49f1-aeff-b6c6a1e2d933","1000","
                  <p style=""text-align: center;"">₪18
                                                <br>25%</p>
                  <p id=""wtp"" style=""text-align:center; margin-top: 0px; margin-bottom: 0px; font-size: 40px"";>&ensp;</p>","-","viewing","0","9","14A,23A","","","","","","","","","","","","","","","","","",""
"","","","","","html-slider-response","25","155990","0.0-17.0-1.2","e8ebda42-a20e-49f1-aeff-b6c6a1e2d933","3139","
                  <p style=""text-align: center;"">₪18
                                                <br>25%</p>
                  <p id=""wtp"" style=""text-align:center; margin-top: 0px; margin-bottom: 0px; font-size: 40px"";>מוכנים לשלם: <span id=""c_p_y""></span></p>","2","evaluation","50","9","14A,23A","25","18","3","","","","","","","","","","","","","","",""
"","","","","","html-keyboard-response","26","157483","0.0-17.0-2.2","e8ebda42-a20e-49f1-aeff-b6c6a1e2d933","null","<p style=""text-align: center;"">+</p>","null","fixation","","","","","","","","","","","","","","","","","","","","",""
"","","","","","html-slider-response","27","158498","0.0-17.0-0.3","e8ebda42-a20e-49f1-aeff-b6c6a1e2d933","1000","
                  <p style=""text-align: center;"">₪39
                                                <br>60%</p>
                  <p id=""wtp"" style=""text-align:center; margin-top: 0px; margin-bottom: 0px; font-size: 40px"";>&ensp;</p>","-","viewing","0","15","9C,25B","","","","","","","","","","","","","","","","","",""
"","","","","","html-slider-response","28","162365","0.0-17.0-1.3","e8ebda42-a20e-49f1-aeff-b6c6a1e2d933","3866","
                  <p style=""text-align: center;"">₪39
                                                <br>60%</p>
                  <p id=""wtp"" style=""text-align:center; margin-top: 0px; margin-bottom: 0px; font-size: 40px"";>מוכנים לשלם: <span id=""c_p_y""></span></p>","20","evaluation","16","15","9C,25B","60","39","20","","","","","","","","","","","","","","",""
"","","","","","html-keyboard-response","29","163563","0.0-17.0-2.3","e8ebda42-a20e-49f1-aeff-b6c6a1e2d933","null","<p style=""text-align: center;"">+</p>","null","fixation","","","","","","","","","","","","","","","","","","","","",""
"","","","","","html-slider-response","30","164566","0.0-17.0-0.4","e8ebda42-a20e-49f1-aeff-b6c6a1e2d933","1000","
                  <p style=""text-align: center;"">₪58
                                                <br>30%</p>
                  <p id=""wtp"" style=""text-align:center; margin-top: 0px; margin-bottom: 0px; font-size: 40px"";>&ensp;</p>","-","viewing","0","19","13C,30A","","","","","","","","","","","","","","","","","",""
"","","","","","html-slider-response","31","168390","0.0-17.0-1.4","e8ebda42-a20e-49f1-aeff-b6c6a1e2d933","3822","
                  <p style=""text-align: center;"">₪58
                                                <br>30%</p>
                  <p id=""wtp"" style=""text-align:center; margin-top: 0px; margin-bottom: 0px; font-size: 40px"";>מוכנים לשלם: <span id=""c_p_y""></span></p>","13","evaluation","14","19","13C,30A","30","58","13","","","","","","","","","","","","","","",""
"","","","","","html-keyboard-response","32","168924","0.0-17.0-2.4","e8ebda42-a20e-49f1-aeff-b6c6a1e2d933","null","<p style=""text-align: center;"">+</p>","null","fixation","","","","","","","","","","","","","","","","","","","","",""
"","","","","","html-slider-response","33","169928","0.0-17.0-0.5","e8ebda42-a20e-49f1-aeff-b6c6a1e2d933","1000","
                  <p style=""text-align: center;"">₪71
                                                <br>55%</p>
                  <p id=""wtp"" style=""text-align:center; margin-top: 0px; margin-bottom: 0px; font-size: 40px"";>&ensp;</p>","-","viewing","0","27","5B,18A","","","","","","","","","","","","","","","","","",""
"","","","","","html-slider-response","34","172534","0.0-17.0-1.5","e8ebda42-a20e-49f1-aeff-b6c6a1e2d933","2604","
                  <p style=""text-align: center;"">₪71
                                                <br>55%</p>
                  <p id=""wtp"" style=""text-align:center; margin-top: 0px; margin-bottom: 0px; font-size: 40px"";>מוכנים לשלם: <span id=""c_p_y""></span></p>","30","evaluation","59","27","5B,18A","55","71","30","","","","","","","","","","","","","","",""
"","","","","","html-keyboard-response","35","173775","0.0-17.0-2.5","e8ebda42-a20e-49f1-aeff-b6c6a1e2d933","null","<p style=""text-align: center;"">+</p>","null","fixation","","","","","","","","","","","","","","","","","","","","",""
"","","","","","html-slider-response","36","174785","0.0-17.0-0.6","e8ebda42-a20e-49f1-aeff-b6c6a1e2d933","1000","
                  <p style=""text-align: center;"">₪36
                                                <br>70%</p>
                  <p id=""wtp"" style=""text-align:center; margin-top: 0px; margin-bottom: 0px; font-size: 40px"";>&ensp;</p>","-","viewing","0","13","3A,5C,10B","","","","","","","","","","","","","","","","","",""
"","","","","","html-slider-response","37","178787","0.0-17.0-1.6","e8ebda42-a20e-49f1-aeff-b6c6a1e2d933","null","
                  <p style=""text-align: center;"">₪36
                                                <br>70%</p>
                  <p id=""wtp"" style=""text-align:center; margin-top: 0px; margin-bottom: 0px; font-size: 40px"";>מוכנים לשלם: <span id=""c_p_y""></span></p>","null","evaluation","55","13","3A,5C,10B","70","36","21","","","","","","","","","","","","","","",""
"","","","","","html-keyboard-response","38","180197","0.0-17.0-2.6","e8ebda42-a20e-49f1-aeff-b6c6a1e2d933","null","<p style=""text-align: center;"">+</p>","null","fixation","","","","","","","","","","","","","","","","","","","","",""
"","","","","","html-slider-response","39","181208","0.0-17.0-0.7","e8ebda42-a20e-49f1-aeff-b6c6a1e2d933","1000","
                  <p style=""text-align: center;"">₪4
                                                <br>25%</p>
                  <p id=""wtp"" style=""text-align:center; margin-top: 0px; margin-bottom: 0px; font-size: 40px"";>&ensp;</p>","-","viewing","0","1","6C,29B,30C","","","","","","","","","","","","","","","","","",""
"","","","","","html-slider-response","40","184309","0.0-17.0-1.7","e8ebda42-a20e-49f1-aeff-b6c6a1e2d933","3100","
                  <p style=""text-align: center;"">₪4
                                                <br>25%</p>
                  <p id=""wtp"" style=""text-align:center; margin-top: 0px; margin-bottom: 0px; font-size: 40px"";>מוכנים לשלם: <span id=""c_p_y""></span></p>","2","evaluation","43","1","6C,29B,30C","25","4","2","","","","","","","","","","","","","","",""
"","","","","","html-keyboard-response","41","185603","0.0-17.0-2.7","e8ebda42-a20e-49f1-aeff-b6c6a1e2d933","null","<p style=""text-align: center;"">+</p>","null","fixation","","","","","","","","","","","","","","","","","","","","",""
"","","","","","html-slider-response","42","186611","0.0-17.0-0.8","e8ebda42-a20e-49f1-aeff-b6c6a1e2d933","1000","
                  <p style=""text-align: center;"">₪43
                                                <br>75%</p>
                  <p id=""wtp"" style=""text-align:center; margin-top: 0px; margin-bottom: 0px; font-size: 40px"";>&ensp;</p>","-","viewing","0","18","11B,19B,24A,26A","","","","","","","","","","","","","","","","","",""
"","","","","","html-slider-response","43","188837","0.0-17.0-1.8","e8ebda42-a20e-49f1-aeff-b6c6a1e2d933","2225","
                  <p style=""text-align: center;"">₪43
                                                <br>75%</p>
                  <p id=""wtp"" style=""text-align:center; margin-top: 0px; margin-bottom: 0px; font-size: 40px"";>מוכנים לשלם: <span id=""c_p_y""></span></p>","32","evaluation","67","18","11B,19B,24A,26A","75","43","32","","","","","","","","","","","","","","",""
"","","","","","html-keyboard-response","44","189825","0.0-17.0-2.8","e8ebda42-a20e-49f1-aeff-b6c6a1e2d933","null","<p style=""text-align: center;"">+</p>","null","fixation","","","","","","","","","","","","","","","","","","","","",""
"","","","","","html-slider-response","45","190826","0.0-17.0-0.9","e8ebda42-a20e-49f1-aeff-b6c6a1e2d933","1000","
                  <p style=""text-align: center;"">₪61
                                                <br>45%</p>
                  <p id=""wtp"" style=""text-align:center; margin-top: 0px; margin-bottom: 0px; font-size: 40px"";>&ensp;</p>","-","viewing","0","22","10A,11A","","","","","","","","","","","","","","","","","",""
"","","","","","html-slider-response","46","192997","0.0-17.0-1.9","e8ebda42-a20e-49f1-aeff-b6c6a1e2d933","2170","
                  <p style=""text-align: center;"">₪61
                                                <br>45%</p>
                  <p id=""wtp"" style=""text-align:center; margin-top: 0px; margin-bottom: 0px; font-size: 40px"";>מוכנים לשלם: <span id=""c_p_y""></span></p>","18","evaluation","26","22","10A,11A","45","61","19","","","","","","","","","","","","","","",""
"","","","","","html-keyboard-response","47","193934","0.0-17.0-2.9","e8ebda42-a20e-49f1-aeff-b6c6a1e2d933","null","<p style=""text-align: center;"">+</p>","null","fixation","","","","","","","","","","","","","","","","","","","","",""
"","","","","","html-slider-response","48","194937","0.0-17.0-0.10","e8ebda42-a20e-49f1-aeff-b6c6a1e2d933","1000","
                  <p style=""text-align: center;"">₪71
                                                <br>45%</p>
                  <p id=""wtp"" style=""text-align:center; margin-top: 0px; margin-bottom: 0px; font-size: 40px"";>&ensp;</p>","-","viewing","0","26","2B,16A","","","","","","","","","","","","","","","","","",""
"","","","","","html-slider-response","49","197109","0.0-17.0-1.10","e8ebda42-a20e-49f1-aeff-b6c6a1e2d933","2171","
                  <p style=""text-align: center;"">₪71
                                                <br>45%</p>
                  <p id=""wtp"" style=""text-align:center; margin-top: 0px; margin-bottom: 0px; font-size: 40px"";>מוכנים לשלם: <span id=""c_p_y""></span></p>","27","evaluation","39","26","2B,16A","45","71","27","","","","","","","","","","","","","","",""
"","","","","","html-keyboard-response","50","198114","0.0-17.0-2.10","e8ebda42-a20e-49f1-aeff-b6c6a1e2d933","null","<p style=""text-align: center;"">+</p>","null","fixation","","","","","","","","","","","","","","","","","","","","",""
"","","","","","html-slider-response","51","199131","0.0-17.0-0.11","e8ebda42-a20e-49f1-aeff-b6c6a1e2d933","1000","
                  <p style=""text-align: center;"">₪71
                                                <br>75%</p>
                  <p id=""wtp"" style=""text-align:center; margin-top: 0px; margin-bottom: 0px; font-size: 40px"";>&ensp;</p>","-","viewing","0","28","8B","","","","","","","","","","","","","","","","","",""
"","","","","","html-slider-response","52","202005","0.0-17.0-1.11","e8ebda42-a20e-49f1-aeff-b6c6a1e2d933","2873","
                  <p style=""text-align: center;"">₪71
                                                <br>75%</p>
                  <p id=""wtp"" style=""text-align:center; margin-top: 0px; margin-bottom: 0px; font-size: 40px"";>מוכנים לשלם: <span id=""c_p_y""></span></p>","32","evaluation","71","28","8B","75","71","32","","","","","","","","","","","","","","",""
"","","","","","html-keyboard-response","53","203249","0.0-17.0-2.11","e8ebda42-a20e-49f1-aeff-b6c6a1e2d933","null","<p style=""text-align: center;"">+</p>","null","fixation","","","","","","","","","","","","","","","","","","","","",""
"","","","","","html-slider-response","54","204264","0.0-17.0-0.12","e8ebda42-a20e-49f1-aeff-b6c6a1e2d933","1000","
                  <p style=""text-align: center;"">₪76
                                                <br>65%</p>
                  <p id=""wtp"" style=""text-align:center; margin-top: 0px; margin-bottom: 0px; font-size: 40px"";>&ensp;</p>","-","viewing","0","29","8C,19A,24B","","","","","","","","","","","","","","","","","",""
"","","","","","html-slider-response","55","206205","0.0-17.0-1.12","e8ebda42-a20e-49f1-aeff-b6c6a1e2d933","1939","
                  <p style=""text-align: center;"">₪76
                                                <br>65%</p>
                  <p id=""wtp"" style=""text-align:center; margin-top: 0px; margin-bottom: 0px; font-size: 40px"";>מוכנים לשלם: <span id=""c_p_y""></span></p>","43","evaluation","69","29","8C,19A,24B","65","76","42","","","","","","","","","","","","","","",""
"","","","","","html-keyboard-response","56","207163","0.0-17.0-2.12","e8ebda42-a20e-49f1-aeff-b6c6a1e2d933","null","<p style=""text-align: center;"">+</p>","null","fixation","","","","","","","","","","","","","","","","","","","","",""
"","","","","","html-slider-response","57","208176","0.0-17.0-0.13","e8ebda42-a20e-49f1-aeff-b6c6a1e2d933","1000","
                  <p style=""text-align: center;"">₪11
                                                <br>75%</p>
                  <p id=""wtp"" style=""text-align:center; margin-top: 0px; margin-bottom: 0px; font-size: 40px"";>&ensp;</p>","-","viewing","0","7","6B,18B,22C,24C,29A","","","","","","","","","","","","","","","","","",""
"","","","","","html-slider-response","58","210413","0.0-17.0-1.13","e8ebda42-a20e-49f1-aeff-b6c6a1e2d933","2236","
                  <p style=""text-align: center;"">₪11
                                                <br>75%</p>
                  <p id=""wtp"" style=""text-align:center; margin-top: 0px; margin-bottom: 0px; font-size: 40px"";>מוכנים לשלם: <span id=""c_p_y""></span></p>","8","evaluation","0","7","6B,18B,22C,24C,29A","75","11","9","","","","","","","","","","","","","","",""
"","","","","","html-keyboard-response","59","211814","0.0-17.0-2.13","e8ebda42-a20e-49f1-aeff-b6c6a1e2d933","null","<p style=""text-align: center;"">+</p>","null","fixation","","","","","","","","","","","","","","","","","","","","",""
"","","","","","html-slider-response","60","212828","0.0-17.0-0.14","e8ebda42-a20e-49f1-aeff-b6c6a1e2d933","1000","
                  <p style=""text-align: center;"">₪4
                                                <br>50%</p>
                  <p id=""wtp"" style=""text-align:center; margin-top: 0px; margin-bottom: 0px; font-size: 40px"";>&ensp;</p>","-","viewing","0","2","4C,17B","","","","","","","","","","","","","","","","","",""
"","","","","","html-slider-response","61","215021","0.0-17.0-1.14","e8ebda42-a20e-49f1-aeff-b6c6a1e2d933","2192","
                  <p style=""text-align: center;"">₪4
                                                <br>50%</p>
                  <p id=""wtp"" style=""text-align:center; margin-top: 0px; margin-bottom: 0px; font-size: 40px"";>מוכנים לשלם: <span id=""c_p_y""></span></p>","3","evaluation","7","2","4C,17B","50","4","3","","","","","","","","","","","","","","",""
"","","","","","html-keyboard-response","62","216195","0.0-17.0-2.14","e8ebda42-a20e-49f1-aeff-b6c6a1e2d933","null","<p style=""text-align: center;"">+</p>","null","fixation","","","","","","","","","","","","","","","","","","","","",""
"","","","","","html-slider-response","63","217209","0.0-17.0-0.15","e8ebda42-a20e-49f1-aeff-b6c6a1e2d933","1000","
                  <p style=""text-align: center;"">₪36
                                                <br>30%</p>
                  <p id=""wtp"" style=""text-align:center; margin-top: 0px; margin-bottom: 0px; font-size: 40px"";>&ensp;</p>","-","viewing","0","11","3C,20A,22A","","","","","","","","","","","","","","","","","",""
"","","","","","html-slider-response","64","219605","0.0-17.0-1.15","e8ebda42-a20e-49f1-aeff-b6c6a1e2d933","2395","
                  <p style=""text-align: center;"">₪36
                                                <br>30%</p>
                  <p id=""wtp"" style=""text-align:center; margin-top: 0px; margin-bottom: 0px; font-size: 40px"";>מוכנים לשלם: <span id=""c_p_y""></span></p>","2","evaluation","51","11","3C,20A,22A","30","36","2","","","","","","","","","","","","","","",""
"","","","","","html-keyboard-response","65","220314","0.0-17.0-2.15","e8ebda42-a20e-49f1-aeff-b6c6a1e2d933","null","<p style=""text-align: center;"">+</p>","null","fixation","","","","","","","","","","","","","","","","","","","","",""
"","","","","","html-slider-response","66","221325","0.0-17.0-0.16","e8ebda42-a20e-49f1-aeff-b6c6a1e2d933","1000","
                  <p style=""text-align: center;"">₪79
                                                <br>40%</p>
                  <p id=""wtp"" style=""text-align:center; margin-top: 0px; margin-bottom: 0px; font-size: 40px"";>&ensp;</p>","-","viewing","0","30","9B","","","","","","","","","","","","","","","","","",""
"","","","","","html-slider-response","67","224261","0.0-17.0-1.16","e8ebda42-a20e-49f1-aeff-b6c6a1e2d933","2934","
                  <p style=""text-align: center;"">₪79
                                                <br>40%</p>
                  <p id=""wtp"" style=""text-align:center; margin-top: 0px; margin-bottom: 0px; font-size: 40px"";>מוכנים לשלם: <span id=""c_p_y""></span></p>","26","evaluation","13","30","9B","40","79","26","","","","","","","","","","","","","","",""
"","","","","","html-keyboard-response","68","225234","0.0-17.0-2.16","e8ebda42-a20e-49f1-aeff-b6c6a1e2d933","null","<p style=""text-align: center;"">+</p>","null","fixation","","","","","","","","","","","","","","","","","","","","",""
"","","","","","html-slider-response","69","226241","0.0-17.0-0.17","e8ebda42-a20e-49f1-aeff-b6c6a1e2d933","1000","
                  <p style=""text-align: center;"">₪79
                                                <br>65%</p>
                  <p id=""wtp"" style=""text-align:center; margin-top: 0px; margin-bottom: 0px; font-size: 40px"";>&ensp;</p>","-","viewing","0","31","8A","","","","","","","","","","","","","","","","","",""
"","","","","","html-slider-response","70","229261","0.0-17.0-1.17","e8ebda42-a20e-49f1-aeff-b6c6a1e2d933","3018","
                  <p style=""text-align: center;"">₪79
                                                <br>65%</p>
                  <p id=""wtp"" style=""text-align:center; margin-top: 0px; margin-bottom: 0px; font-size: 40px"";>מוכנים לשלם: <span id=""c_p_y""></span></p>","50","evaluation","71","31","8A","65","79","50","","","","","","","","","","","","","","",""
"","","","","","html-keyboard-response","71","230479","0.0-17.0-2.17","e8ebda42-a20e-49f1-aeff-b6c6a1e2d933","null","<p style=""text-align: center;"">+</p>","null","fixation","","","","","","","","","","","","","","","","","","","","",""
"","","","","","html-slider-response","72","231481","0.0-17.0-0.18","e8ebda42-a20e-49f1-aeff-b6c6a1e2d933","1000","
                  <p style=""text-align: center;"">₪61
                                                <br>55%</p>
                  <p id=""wtp"" style=""text-align:center; margin-top: 0px; margin-bottom: 0px; font-size: 40px"";>&ensp;</p>","-","viewing","0","23","7B,26B","","","","","","","","","","","","","","","","","",""
"","","","","","html-slider-response","73","233549","0.0-17.0-1.18","e8ebda42-a20e-49f1-aeff-b6c6a1e2d933","2067","
                  <p style=""text-align: center;"">₪61
                                                <br>55%</p>
                  <p id=""wtp"" style=""text-align:center; margin-top: 0px; margin-bottom: 0px; font-size: 40px"";>מוכנים לשלם: <span id=""c_p_y""></span></p>","22","evaluation","57","23","7B,26B","55","61","23","","","","","","","","","","","","","","",""
"","","","","","html-keyboard-response","74","234391","0.0-17.0-2.18","e8ebda42-a20e-49f1-aeff-b6c6a1e2d933","null","<p style=""text-align: center;"">+</p>","null","fixation","","","","","","","","","","","","","","","","","","","","",""
"","","","","","html-slider-response","75","235404","0.0-17.0-0.19","e8ebda42-a20e-49f1-aeff-b6c6a1e2d933","1000","
                  <p style=""text-align: center;"">₪39
                                                <br>65%</p>
                  <p id=""wtp"" style=""text-align:center; margin-top: 0px; margin-bottom: 0px; font-size: 40px"";>&ensp;</p>","-","viewing","0","16","1A,15A,26C","","","","","","","","","","","","","","","","","",""
"","","","","","html-slider-response","76","237333","0.0-17.0-1.19","e8ebda42-a20e-49f1-aeff-b6c6a1e2d933","1928","
                  <p style=""text-align: center;"">₪39
                                                <br>65%</p>
                  <p id=""wtp"" style=""text-align:center; margin-top: 0px; margin-bottom: 0px; font-size: 40px"";>מוכנים לשלם: <span id=""c_p_y""></span></p>","18","evaluation","27","16","1A,15A,26C","65","39","18","","","","","","","","","","","","","","",""
"","","","","","html-keyboard-response","77","238409","0.0-17.0-2.19","e8ebda42-a20e-49f1-aeff-b6c6a1e2d933","null","<p style=""text-align: center;"">+</p>","null","fixation","","","","","","","","","","","","","","","","","","","","",""
"","","","","","html-slider-response","78","239412","0.0-17.0-0.20","e8ebda42-a20e-49f1-aeff-b6c6a1e2d933","1000","
                  <p style=""text-align: center;"">₪11
                                                <br>25%</p>
                  <p id=""wtp"" style=""text-align:center; margin-top: 0px; margin-bottom: 0px; font-size: 40px"";>&ensp;</p>","-","viewing","0","5","12A,27B,28B,30B","","","","","","","","","","","","","","","","","",""
"","","","","","html-slider-response","79","242085","0.0-17.0-1.20","e8ebda42-a20e-49f1-aeff-b6c6a1e2d933","2672","
                  <p style=""text-align: center;"">₪11
                                                <br>25%</p>
                  <p id=""wtp"" style=""text-align:center; margin-top: 0px; margin-bottom: 0px; font-size: 40px"";>מוכנים לשלם: <span id=""c_p_y""></span></p>","1","evaluation","50","5","12A,27B,28B,30B","25","11","1","","","","","","","","","","","","","","",""
"","","","","","html-keyboard-response","80","243024","0.0-17.0-2.20","e8ebda42-a20e-49f1-aeff-b6c6a1e2d933","null","<p style=""text-align: center;"">+</p>","null","fixation","","","","","","","","","","","","","","","","","","","","",""
"","","","","","html-slider-response","81","244025","0.0-17.0-0.21","e8ebda42-a20e-49f1-aeff-b6c6a1e2d933","1000","
                  <p style=""text-align: center;"">₪43
                                                <br>60%</p>
                  <p id=""wtp"" style=""text-align:center; margin-top: 0px; margin-bottom: 0px; font-size: 40px"";>&ensp;</p>","-","viewing","0","17","2A,7A,9A,15B","","","","","","","","","","","","","","","","","",""
"","","","","","html-slider-response","82","247065","0.0-17.0-1.21","e8ebda42-a20e-49f1-aeff-b6c6a1e2d933","3038","
                  <p style=""text-align: center;"">₪43
                                                <br>60%</p>
                  <p id=""wtp"" style=""text-align:center; margin-top: 0px; margin-bottom: 0px; font-size: 40px"";>מוכנים לשלם: <span id=""c_p_y""></span></p>","17","evaluation","10","17","2A,7A,9A,15B","60","43","17","","","","","","","","","","","","","","",""
"","","","","","html-keyboard-response","83","247568","0.0-17.0-2.21","e8ebda42-a20e-49f1-aeff-b6c6a1e2d933","null","<p style=""text-align: center;"">+</p>","null","fixation","","","","","","","","","","","","","","","","","","","","",""
"","","","","","html-slider-response","84","248572","0.0-17.0-0.22","e8ebda42-a20e-49f1-aeff-b6c6a1e2d933","1000","
                  <p style=""text-align: center;"">₪36
                                                <br>75%</p>
                  <p id=""wtp"" style=""text-align:center; margin-top: 0px; margin-bottom: 0px; font-size: 40px"";>&ensp;</p>","-","viewing","0","14","4B,5A,13B,16B","","","","","","","","","","","","","","","","","",""
"","","","","","html-slider-response","85","250305","0.0-17.0-1.22","e8ebda42-a20e-49f1-aeff-b6c6a1e2d933","1731","
                  <p style=""text-align: center;"">₪36
                                                <br>75%</p>
                  <p id=""wtp"" style=""text-align:center; margin-top: 0px; margin-bottom: 0px; font-size: 40px"";>מוכנים לשלם: <span id=""c_p_y""></span></p>","13","evaluation","9","14","4B,5A,13B,16B","75","36","14","","","","","","","","","","","","","","",""
"","","","","","html-keyboard-response","86","251660","0.0-17.0-2.22","e8ebda42-a20e-49f1-aeff-b6c6a1e2d933","null","<p style=""text-align: center;"">+</p>","null","fixation","","","","","","","","","","","","","","","","","","","","",""
"","","","","","html-slider-response","87","252670","0.0-17.0-0.23","e8ebda42-a20e-49f1-aeff-b6c6a1e2d933","1000","
                  <p style=""text-align: center;"">₪58
                                                <br>40%</p>
                  <p id=""wtp"" style=""text-align:center; margin-top: 0px; margin-bottom: 0px; font-size: 40px"";>&ensp;</p>","-","viewing","0","20","10C,13A,19C,21B","","","","","","","","","","","","","","","","","",""
"","","","","","html-slider-response","88","255312","0.0-17.0-1.23","e8ebda42-a20e-49f1-aeff-b6c6a1e2d933","2641","
                  <p style=""text-align: center;"">₪58
                                                <br>40%</p>
                  <p id=""wtp"" style=""text-align:center; margin-top: 0px; margin-bottom: 0px; font-size: 40px"";>מוכנים לשלם: <span id=""c_p_y""></span></p>","17","evaluation","33","20","10C,13A,19C,21B","40","58","17","","","","","","","","","","","","","","",""
"","","","","","html-keyboard-response","89","256225","0.0-17.0-2.23","e8ebda42-a20e-49f1-aeff-b6c6a1e2d933","null","<p style=""text-align: center;"">+</p>","null","fixation","","","","","","","","","","","","","","","","","","","","",""
"","","","","","html-slider-response","90","257229","0.0-17.0-0.24","e8ebda42-a20e-49f1-aeff-b6c6a1e2d933","1000","
                  <p style=""text-align: center;"">₪64
                                                <br>25%</p>
                  <p id=""wtp"" style=""text-align:center; margin-top: 0px; margin-bottom: 0px; font-size: 40px"";>&ensp;</p>","-","viewing","0","24","6A,21A","","","","","","","","","","","","","","","","","",""
"","","","","","html-slider-response","91","259977","0.0-17.0-1.24","e8ebda42-a20e-49f1-aeff-b6c6a1e2d933","2746","
                  <p style=""text-align: center;"">₪64
                                                <br>25%</p>
                  <p id=""wtp"" style=""text-align:center; margin-top: 0px; margin-bottom: 0px; font-size: 40px"";>מוכנים לשלם: <span id=""c_p_y""></span></p>","15","evaluation","8","24","6A,21A","25","64","15","","","","","","","","","","","","","","",""
"","","","","","html-keyboard-response","92","261211","0.0-17.0-2.24","e8ebda42-a20e-49f1-aeff-b6c6a1e2d933","null","<p style=""text-align: center;"">+</p>","null","fixation","","","","","","","","","","","","","","","","","","","","",""
"","","","","","html-slider-response","93","262218","0.0-17.0-0.25","e8ebda42-a20e-49f1-aeff-b6c6a1e2d933","1000","
                  <p style=""text-align: center;"">₪58
                                                <br>45%</p>
                  <p id=""wtp"" style=""text-align:center; margin-top: 0px; margin-bottom: 0px; font-size: 40px"";>&ensp;</p>","-","viewing","0","21","11C,18C,25A","","","","","","","","","","","","","","","","","",""
"","","","","","html-slider-response","94","265168","0.0-17.0-1.25","e8ebda42-a20e-49f1-aeff-b6c6a1e2d933","2950","
                  <p style=""text-align: center;"">₪58
                                                <br>45%</p>
                  <p id=""wtp"" style=""text-align:center; margin-top: 0px; margin-bottom: 0px; font-size: 40px"";>מוכנים לשלם: <span id=""c_p_y""></span></p>","17","evaluation","51","21","11C,18C,25A","45","58","17","","","","","","","","","","","","","","",""
"","","","","","html-keyboard-response","95","265993","0.0-17.0-2.25","e8ebda42-a20e-49f1-aeff-b6c6a1e2d933","null","<p style=""text-align: center;"">+</p>","null","fixation","","","","","","","","","","","","","","","","","","","","",""
"","","","","","html-slider-response","96","267010","0.0-17.0-0.26","e8ebda42-a20e-49f1-aeff-b6c6a1e2d933","1000","
                  <p style=""text-align: center;"">₪11
                                                <br>45%</p>
                  <p id=""wtp"" style=""text-align:center; margin-top: 0px; margin-bottom: 0px; font-size: 40px"";>&ensp;</p>","-","viewing","0","6","14B,21C,25C","","","","","","","","","","","","","","","","","",""
"","","","","","html-slider-response","97","269393","0.0-17.0-1.26","e8ebda42-a20e-49f1-aeff-b6c6a1e2d933","2381","
                  <p style=""text-align: center;"">₪11
                                                <br>45%</p>
                  <p id=""wtp"" style=""text-align:center; margin-top: 0px; margin-bottom: 0px; font-size: 40px"";>מוכנים לשלם: <span id=""c_p_y""></span></p>","3","evaluation","60","6","14B,21C,25C","45","11","3","","","","","","","","","","","","","","",""
"","","","","","html-keyboard-response","98","269903","0.0-17.0-2.26","e8ebda42-a20e-49f1-aeff-b6c6a1e2d933","null","<p style=""text-align: center;"">+</p>","null","fixation","","","","","","","","","","","","","","","","","","","","",""
"","","","","","html-slider-response","99","270905","0.0-17.0-0.27","e8ebda42-a20e-49f1-aeff-b6c6a1e2d933","1000","
                  <p style=""text-align: center;"">₪36
                                                <br>60%</p>
                  <p id=""wtp"" style=""text-align:center; margin-top: 0px; margin-bottom: 0px; font-size: 40px"";>&ensp;</p>","-","viewing","0","12","1C,7C,15C","","","","","","","","","","","","","","","","","",""
"","","","","","html-slider-response","100","274225","0.0-17.0-1.27","e8ebda42-a20e-49f1-aeff-b6c6a1e2d933","3319","
                  <p style=""text-align: center;"">₪36
                                                <br>60%</p>
                  <p id=""wtp"" style=""text-align:center; margin-top: 0px; margin-bottom: 0px; font-size: 40px"";>מוכנים לשלם: <span id=""c_p_y""></span></p>","12","evaluation","13","12","1C,7C,15C","60","36","13","","","","","","","","","","","","","","",""
"","","","","","html-keyboard-response","101","275069","0.0-17.0-2.27","e8ebda42-a20e-49f1-aeff-b6c6a1e2d933","null","<p style=""text-align: center;"">+</p>","null","fixation","","","","","","","","","","","","","","","","","","","","",""
"","","","","","html-slider-response","102","276086","0.0-17.0-0.28","e8ebda42-a20e-49f1-aeff-b6c6a1e2d933","1000","
                  <p style=""text-align: center;"">₪4
                                                <br>75%</p>
                  <p id=""wtp"" style=""text-align:center; margin-top: 0px; margin-bottom: 0px; font-size: 40px"";>&ensp;</p>","-","viewing","0","3","12B,20B,23B,27C,29C","","","","","","","","","","","","","","","","","",""
"","","","","","html-slider-response","103","278329","0.0-17.0-1.28","e8ebda42-a20e-49f1-aeff-b6c6a1e2d933","2241","
                  <p style=""text-align: center;"">₪4
                                                <br>75%</p>
                  <p id=""wtp"" style=""text-align:center; margin-top: 0px; margin-bottom: 0px; font-size: 40px"";>מוכנים לשלם: <span id=""c_p_y""></span></p>","2","evaluation","56","3","12B,20B,23B,27C,29C","75","4","3","","","","","","","","","","","","","","",""
"","","","","","html-keyboard-response","104","279151","0.0-17.0-2.28","e8ebda42-a20e-49f1-aeff-b6c6a1e2d933","null","<p style=""text-align: center;"">+</p>","null","fixation","","","","","","","","","","","","","","","","","","","","",""
"","","","","","html-slider-response","105","280156","0.0-17.0-0.29","e8ebda42-a20e-49f1-aeff-b6c6a1e2d933","1000","
                  <p style=""text-align: center;"">₪64
                                                <br>50%</p>
                  <p id=""wtp"" style=""text-align:center; margin-top: 0px; margin-bottom: 0px; font-size: 40px"";>&ensp;</p>","-","viewing","0","25","1B,3B,4A","","","","","","","","","","","","","","","","","",""
"","","","","","html-slider-response","106","282640","0.0-17.0-1.29","e8ebda42-a20e-49f1-aeff-b6c6a1e2d933","2483","
                  <p style=""text-align: center;"">₪64
                                                <br>50%</p>
                  <p id=""wtp"" style=""text-align:center; margin-top: 0px; margin-bottom: 0px; font-size: 40px"";>מוכנים לשלם: <span id=""c_p_y""></span></p>","27","evaluation","58","25","1B,3B,4A","50","64","27","","","","","","","","","","","","","","",""
"","","","","","html-keyboard-response","107","283485","0.0-17.0-2.29","e8ebda42-a20e-49f1-aeff-b6c6a1e2d933","null","<p style=""text-align: center;"">+</p>","null","fixation","","","","","","","","","","","","","","","","","","","","",""
"","","","","","html-slider-response","108","284488","0.0-17.0-0.30","e8ebda42-a20e-49f1-aeff-b6c6a1e2d933","1000","
                  <p style=""text-align: center;"">₪18
                                                <br>50%</p>
                  <p id=""wtp"" style=""text-align:center; margin-top: 0px; margin-bottom: 0px; font-size: 40px"";>&ensp;</p>","-","viewing","0","10","2C,16C,22B,28A","","","","","","","","","","","","","","","","","",""
"","","","","","html-slider-response","109","285913","0.0-17.0-1.30","e8ebda42-a20e-49f1-aeff-b6c6a1e2d933","1424","
                  <p style=""text-align: center;"">₪18
                                                <br>50%</p>
                  <p id=""wtp"" style=""text-align:center; margin-top: 0px; margin-bottom: 0px; font-size: 40px"";>מוכנים לשלם: <span id=""c_p_y""></span></p>","8","evaluation","6","10","2C,16C,22B,28A","50","18","9","","","","","","","","","","","","","","",""
"","","","","","html-keyboard-response","110","286834","0.0-17.0-2.30","e8ebda42-a20e-49f1-aeff-b6c6a1e2d933","null","<p style=""text-align: center;"">+</p>","null","fixation","","","","","","","","","","","","","","","","","","","","",""
"","","","","","html-keyboard-response","111","287835","0.0-18.0","e8ebda42-a20e-49f1-aeff-b6c6a1e2d933","null","<p style=""text-align: center;"">+</p>","null","fixation","","","","","","","","","","","","","","","","","","","","",""
"","","","","","html-keyboard-response","112","289880","0.0-19.0","e8ebda42-a20e-49f1-aeff-b6c6a1e2d933","null","<p>הפסקה.
          <br>לחצו כדי להמשיך.</p>","1","scan_wait","","","","","","","","","","","","","","","","","","","","",""
"","","","","","html-keyboard-response","113","290895","0.0-20.0","e8ebda42-a20e-49f1-aeff-b6c6a1e2d933","null","<p style=""text-align: center;"">+</p>","null","fixation","","","","","","","","","","","","","","","","","","","","",""
"","","","","","html-slider-response","114","291903","0.0-21.0-0.0","e8ebda42-a20e-49f1-aeff-b6c6a1e2d933","1000","
                  <p style=""text-align: center;"">₪11
                                                <br>20%</p>
                  <p id=""wtp"" style=""text-align:center; margin-top: 0px; margin-bottom: 0px; font-size: 40px"";>&ensp;</p>","-","viewing","0","4","12C,17C,23C,28C","","","","","","","","","","","","","","","","","",""
"","","","","","html-slider-response","115","293513","0.0-21.0-1.0","e8ebda42-a20e-49f1-aeff-b6c6a1e2d933","1608","
                  <p style=""text-align: center;"">₪11
                                                <br>20%</p>
                  <p id=""wtp"" style=""text-align:center; margin-top: 0px; margin-bottom: 0px; font-size: 40px"";>מוכנים לשלם: <span id=""c_p_y""></span></p>","0","evaluation","31","4","12C,17C,23C,28C","20","11","1","","","","","","","","","","","","","","",""
"","","","","","html-keyboard-response","116","294969","0.0-21.0-2.0","e8ebda42-a20e-49f1-aeff-b6c6a1e2d933","null","<p style=""text-align: center;"">+</p>","null","fixation","","","","","","","","","","","","","","","","","","","","",""
"","","","","","html-slider-response","117","295982","0.0-21.0-0.1","e8ebda42-a20e-49f1-aeff-b6c6a1e2d933","1000","
                  <p style=""text-align: center;"">₪71
                                                <br>75%</p>
                  <p id=""wtp"" style=""text-align:center; margin-top: 0px; margin-bottom: 0px; font-size: 40px"";>&ensp;</p>","-","viewing","0","28","8B","","","","","","","","","","","","","","","","","",""
"","","","","","html-slider-response","118","298457","0.0-21.0-1.1","e8ebda42-a20e-49f1-aeff-b6c6a1e2d933","2474","
                  <p style=""text-align: center;"">₪71
                                                <br>75%</p>
                  <p id=""wtp"" style=""text-align:center; margin-top: 0px; margin-bottom: 0px; font-size: 40px"";>מוכנים לשלם: <span id=""c_p_y""></span></p>","51","evaluation","28","28","8B","75","71","51","","","","","","","","","","","","","","",""
"","","","","","html-keyboard-response","119","299058","0.0-21.0-2.1","e8ebda42-a20e-49f1-aeff-b6c6a1e2d933","null","<p style=""text-align: center;"">+</p>","null","fixation","","","","","","","","","","","","","","","","","","","","",""
"","","","","","html-slider-response","120","300070","0.0-21.0-0.2","e8ebda42-a20e-49f1-aeff-b6c6a1e2d933","1000","
                  <p style=""text-align: center;"">₪4
                                                <br>75%</p>
                  <p id=""wtp"" style=""text-align:center; margin-top: 0px; margin-bottom: 0px; font-size: 40px"";>&ensp;</p>","-","viewing","0","3","12B,20B,23B,27C,29C","","","","","","","","","","","","","","","","","",""
"","","","","","html-slider-response","121","302624","0.0-21.0-1.2","e8ebda42-a20e-49f1-aeff-b6c6a1e2d933","2553","
                  <p style=""text-align: center;"">₪4
                                                <br>75%</p>
                  <p id=""wtp"" style=""text-align:center; margin-top: 0px; margin-bottom: 0px; font-size: 40px"";>מוכנים לשלם: <span id=""c_p_y""></span></p>","2","evaluation","50","3","12B,20B,23B,27C,29C","75","4","3","","","","","","","","","","","","","","",""
"","","","","","html-keyboard-response","122","303358","0.0-21.0-2.2","e8ebda42-a20e-49f1-aeff-b6c6a1e2d933","null","<p style=""text-align: center;"">+</p>","null","fixation","","","","","","","","","","","","","","","","","","","","",""
"","","","","","html-slider-response","123","304364","0.0-21.0-0.3","e8ebda42-a20e-49f1-aeff-b6c6a1e2d933","1000","
                  <p style=""text-align: center;"">₪4
                                                <br>25%</p>
                  <p id=""wtp"" style=""text-align:center; margin-top: 0px; margin-bottom: 0px; font-size: 40px"";>&ensp;</p>","-","viewing","0","1","6C,29B,30C","","","","","","","","","","","","","","","","","",""
"","","","","","html-slider-response","124","305229","0.0-21.0-1.3","e8ebda42-a20e-49f1-aeff-b6c6a1e2d933","865","
                  <p style=""text-align: center;"">₪4
                                                <br>25%</p>
                  <p id=""wtp"" style=""text-align:center; margin-top: 0px; margin-bottom: 0px; font-size: 40px"";>מוכנים לשלם: <span id=""c_p_y""></span></p>","0","evaluation","69","1","6C,29B,30C","25","4","0","","","","","","","","","","","","","","",""
"","","","","","html-keyboard-response","125","306223","0.0-21.0-2.3","e8ebda42-a20e-49f1-aeff-b6c6a1e2d933","null","<p style=""text-align: center;"">+</p>","null","fixation","","","","","","","","","","","","","","","","","","","","",""
"","","","","","html-slider-response","126","307225","0.0-21.0-0.4","e8ebda42-a20e-49f1-aeff-b6c6a1e2d933","1000","
                  <p style=""text-align: center;"">₪61
                                                <br>55%</p>
                  <p id=""wtp"" style=""text-align:center; margin-top: 0px; margin-bottom: 0px; font-size: 40px"";>&ensp;</p>","-","viewing","0","23","7B,26B","","","","","","","","","","","","","","","","","",""
"","","","","","html-slider-response","127","310550","0.0-21.0-1.4","e8ebda42-a20e-49f1-aeff-b6c6a1e2d933","3324","
                  <p style=""text-align: center;"">₪61
                                                <br>55%</p>
                  <p id=""wtp"" style=""text-align:center; margin-top: 0px; margin-bottom: 0px; font-size: 40px"";>מוכנים לשלם: <span id=""c_p_y""></span></p>","21","evaluation","13","23","7B,26B","55","61","21","","","","","","","","","","","","","","",""
"","","","","","html-keyboard-response","128","312024","0.0-21.0-2.4","e8ebda42-a20e-49f1-aeff-b6c6a1e2d933","null","<p style=""text-align: center;"">+</p>","null","fixation","","","","","","","","","","","","","","","","","","","","",""
"","","","","","html-slider-response","129","313029","0.0-21.0-0.5","e8ebda42-a20e-49f1-aeff-b6c6a1e2d933","1000","
                  <p style=""text-align: center;"">₪11
                                                <br>25%</p>
                  <p id=""wtp"" style=""text-align:center; margin-top: 0px; margin-bottom: 0px; font-size: 40px"";>&ensp;</p>","-","viewing","0","5","12A,27B,28B,30B","","","","","","","","","","","","","","","","","",""
"","","","","","html-slider-response","130","314310","0.0-21.0-1.5","e8ebda42-a20e-49f1-aeff-b6c6a1e2d933","1280","
                  <p style=""text-align: center;"">₪11
                                                <br>25%</p>
                  <p id=""wtp"" style=""text-align:center; margin-top: 0px; margin-bottom: 0px; font-size: 40px"";>מוכנים לשלם: <span id=""c_p_y""></span></p>","3","evaluation","11","5","12A,27B,28B,30B","25","11","4","","","","","","","","","","","","","","",""
"","","","","","html-keyboard-response","131","315736","0.0-21.0-2.5","e8ebda42-a20e-49f1-aeff-b6c6a1e2d933","null","<p style=""text-align: center;"">+</p>","null","fixation","","","","","","","","","","","","","","","","","","","","",""
"","","","","","html-slider-response","132","316744","0.0-21.0-0.6","e8ebda42-a20e-49f1-aeff-b6c6a1e2d933","1000","
                  <p style=""text-align: center;"">₪43
                                                <br>60%</p>
                  <p id=""wtp"" style=""text-align:center; margin-top: 0px; margin-bottom: 0px; font-size: 40px"";>&ensp;</p>","-","viewing","0","17","2A,7A,9A,15B","","","","","","","","","","","","","","","","","",""
"","","","","","html-slider-response","133","319797","0.0-21.0-1.6","e8ebda42-a20e-49f1-aeff-b6c6a1e2d933","3052","
                  <p style=""text-align: center;"">₪43
                                                <br>60%</p>
                  <p id=""wtp"" style=""text-align:center; margin-top: 0px; margin-bottom: 0px; font-size: 40px"";>מוכנים לשלם: <span id=""c_p_y""></span></p>","16","evaluation","27","17","2A,7A,9A,15B","60","43","16","","","","","","","","","","","","","","",""
"","","","","","html-keyboard-response","134","320521","0.0-21.0-2.6","e8ebda42-a20e-49f1-aeff-b6c6a1e2d933","null","<p style=""text-align: center;"">+</p>","null","fixation","","","","","","","","","","","","","","","","","","","","",""
"","","","","","html-slider-response","135","321528","0.0-21.0-0.7","e8ebda42-a20e-49f1-aeff-b6c6a1e2d933","1000","
                  <p style=""text-align: center;"">₪79
                                                <br>65%</p>
                  <p id=""wtp"" style=""text-align:center; margin-top: 0px; margin-bottom: 0px; font-size: 40px"";>&ensp;</p>","-","viewing","0","31","8A","","","","","","","","","","","","","","","","","",""
"","","","","","html-slider-response","136","323637","0.0-21.0-1.7","e8ebda42-a20e-49f1-aeff-b6c6a1e2d933","2108","
                  <p style=""text-align: center;"">₪79
                                                <br>65%</p>
                  <p id=""wtp"" style=""text-align:center; margin-top: 0px; margin-bottom: 0px; font-size: 40px"";>מוכנים לשלם: <span id=""c_p_y""></span></p>","40","evaluation","31","31","8A","65","79","40","","","","","","","","","","","","","","",""
"","","","","","html-keyboard-response","137","325129","0.0-21.0-2.7","e8ebda42-a20e-49f1-aeff-b6c6a1e2d933","null","<p style=""text-align: center;"">+</p>","null","fixation","","","","","","","","","","","","","","","","","","","","",""
"","","","","","html-slider-response","138","326145","0.0-21.0-0.8","e8ebda42-a20e-49f1-aeff-b6c6a1e2d933","1000","
                  <p style=""text-align: center;"">₪39
                                                <br>60%</p>
                  <p id=""wtp"" style=""text-align:center; margin-top: 0px; margin-bottom: 0px; font-size: 40px"";>&ensp;</p>","-","viewing","0","15","9C,25B","","","","","","","","","","","","","","","","","",""
"","","","","","html-slider-response","139","328510","0.0-21.0-1.8","e8ebda42-a20e-49f1-aeff-b6c6a1e2d933","2364","
                  <p style=""text-align: center;"">₪39
                                                <br>60%</p>
                  <p id=""wtp"" style=""text-align:center; margin-top: 0px; margin-bottom: 0px; font-size: 40px"";>מוכנים לשלם: <span id=""c_p_y""></span></p>","19","evaluation","13","15","9C,25B","60","39","20","","","","","","","","","","","","","","",""
"","","","","","html-keyboard-response","140","329409","0.0-21.0-2.8","e8ebda42-a20e-49f1-aeff-b6c6a1e2d933","null","<p style=""text-align: center;"">+</p>","null","fixation","","","","","","","","","","","","","","","","","","","","",""
"","","","","","html-slider-response","141","330425","0.0-21.0-0.9","e8ebda42-a20e-49f1-aeff-b6c6a1e2d933","1000","
                  <p style=""text-align: center;"">₪36
                                                <br>30%</p>
                  <p id=""wtp"" style=""text-align:center; margin-top: 0px; margin-bottom: 0px; font-size: 40px"";>&ensp;</p>","-","viewing","0","11","3C,20A,22A","","","","","","","","","","","","","","","","","",""
"","","","","","html-slider-response","142","331958","0.0-21.0-1.9","e8ebda42-a20e-49f1-aeff-b6c6a1e2d933","1531","
                  <p style=""text-align: center;"">₪36
                                                <br>30%</p>
                  <p id=""wtp"" style=""text-align:center; margin-top: 0px; margin-bottom: 0px; font-size: 40px"";>מוכנים לשלם: <span id=""c_p_y""></span></p>","9","evaluation","23","11","3C,20A,22A","30","36","10","","","","","","","","","","","","","","",""
"","","","","","html-keyboard-response","143","333015","0.0-21.0-2.9","e8ebda42-a20e-49f1-aeff-b6c6a1e2d933","null","<p style=""text-align: center;"">+</p>","null","fixation","","","","","","","","","","","","","","","","","","","","",""
"","","","","","html-slider-response","144","334027","0.0-21.0-0.10","e8ebda42-a20e-49f1-aeff-b6c6a1e2d933","1000","
                  <p style=""text-align: center;"">₪58
                                                <br>40%</p>
                  <p id=""wtp"" style=""text-align:center; margin-top: 0px; margin-bottom: 0px; font-size: 40px"";>&ensp;</p>","-","viewing","0","20","10C,13A,19C,21B","","","","","","","","","","","","","","","","","",""
"","","","","","html-slider-response","145","335853","0.0-21.0-1.10","e8ebda42-a20e-49f1-aeff-b6c6a1e2d933","1825","
                  <p style=""text-align: center;"">₪58
                                                <br>40%</p>
                  <p id=""wtp"" style=""text-align:center; margin-top: 0px; margin-bottom: 0px; font-size: 40px"";>מוכנים לשלם: <span id=""c_p_y""></span></p>","16","evaluation","45","20","10C,13A,19C,21B","40","58","16","","","","","","","","","","","","","","",""
"","","","","","html-keyboard-response","146","337254","0.0-21.0-2.10","e8ebda42-a20e-49f1-aeff-b6c6a1e2d933","null","<p style=""text-align: center;"">+</p>","null","fixation","","","","","","","","","","","","","","","","","","","","",""
"","","","","","html-slider-response","147","338262","0.0-21.0-0.11","e8ebda42-a20e-49f1-aeff-b6c6a1e2d933","1000","
                  <p style=""text-align: center;"">₪18
                                                <br>50%</p>
                  <p id=""wtp"" style=""text-align:center; margin-top: 0px; margin-bottom: 0px; font-size: 40px"";>&ensp;</p>","-","viewing","0","10","2C,16C,22B,28A","","","","","","","","","","","","","","","","","",""
"","","","","","html-slider-response","148","339838","0.0-21.0-1.11","e8ebda42-a20e-49f1-aeff-b6c6a1e2d933","1574","
                  <p style=""text-align: center;"">₪18
                                                <br>50%</p>
                  <p id=""wtp"" style=""text-align:center; margin-top: 0px; margin-bottom: 0px; font-size: 40px"";>מוכנים לשלם: <span id=""c_p_y""></span></p>","5","evaluation","37","10","2C,16C,22B,28A","50","18","6","","","","","","","","","","","","","","",""
"","","","","","html-keyboard-response","149","341230","0.0-21.0-2.11","e8ebda42-a20e-49f1-aeff-b6c6a1e2d933","null","<p style=""text-align: center;"">+</p>","null","fixation","","","","","","","","","","","","","","","","","","","","",""
"","","","","","html-slider-response","150","342239","0.0-21.0-0.12","e8ebda42-a20e-49f1-aeff-b6c6a1e2d933","1000","
                  <p style=""text-align: center;"">₪43
                                                <br>75%</p>
                  <p id=""wtp"" style=""text-align:center; margin-top: 0px; margin-bottom: 0px; font-size: 40px"";>&ensp;</p>","-","viewing","0","18","11B,19B,24A,26A","","","","","","","","","","","","","","","","","",""
"","","","","","html-slider-response","151","345318","0.0-21.0-1.12","e8ebda42-a20e-49f1-aeff-b6c6a1e2d933","3078","
                  <p style=""text-align: center;"">₪43
                                                <br>75%</p>
                  <p id=""wtp"" style=""text-align:center; margin-top: 0px; margin-bottom: 0px; font-size: 40px"";>מוכנים לשלם: <span id=""c_p_y""></span></p>","20","evaluation","56","18","11B,19B,24A,26A","75","43","21","","","","","","","","","","","","","","",""
"","","","","","html-keyboard-response","152","346029","0.0-21.0-2.12","e8ebda42-a20e-49f1-aeff-b6c6a1e2d933","null","<p style=""text-align: center;"">+</p>","null","fixation","","","","","","","","","","","","","","","","","","","","",""
"","","","","","html-slider-response","153","347037","0.0-21.0-0.13","e8ebda42-a20e-49f1-aeff-b6c6a1e2d933","1000","
                  <p style=""text-align: center;"">₪36
                                                <br>75%</p>
                  <p id=""wtp"" style=""text-align:center; margin-top: 0px; margin-bottom: 0px; font-size: 40px"";>&ensp;</p>","-","viewing","0","14","4B,5A,13B,16B","","","","","","","","","","","","","","","","","",""
"","","","","","html-slider-response","154","350182","0.0-21.0-1.13","e8ebda42-a20e-49f1-aeff-b6c6a1e2d933","3144","
                  <p style=""text-align: center;"">₪36
                                                <br>75%</p>
                  <p id=""wtp"" style=""text-align:center; margin-top: 0px; margin-bottom: 0px; font-size: 40px"";>מוכנים לשלם: <span id=""c_p_y""></span></p>","22","evaluation","23","14","4B,5A,13B,16B","75","36","22","","","","","","","","","","","","","","",""
"","","","","","html-keyboard-response","155","351638","0.0-21.0-2.13","e8ebda42-a20e-49f1-aeff-b6c6a1e2d933","null","<p style=""text-align: center;"">+</p>","null","fixation","","","","","","","","","","","","","","","","","","","","",""
"","","","","","html-slider-response","156","352648","0.0-21.0-0.14","e8ebda42-a20e-49f1-aeff-b6c6a1e2d933","1000","
                  <p style=""text-align: center;"">₪39
                                                <br>65%</p>
                  <p id=""wtp"" style=""text-align:center; margin-top: 0px; margin-bottom: 0px; font-size: 40px"";>&ensp;</p>","-","viewing","0","16","1A,15A,26C","","","","","","","","","","","","","","","","","",""
"","","","","","html-slider-response","157","355349","0.0-21.0-1.14","e8ebda42-a20e-49f1-aeff-b6c6a1e2d933","2700","
                  <p style=""text-align: center;"">₪39
                                                <br>65%</p>
                  <p id=""wtp"" style=""text-align:center; margin-top: 0px; margin-bottom: 0px; font-size: 40px"";>מוכנים לשלם: <span id=""c_p_y""></span></p>","20","evaluation","14","16","1A,15A,26C","65","39","21","","","","","","","","","","","","","","",""
"","","","","","html-keyboard-response","158","356505","0.0-21.0-2.14","e8ebda42-a20e-49f1-aeff-b6c6a1e2d933","null","<p style=""text-align: center;"">+</p>","null","fixation","","","","","","","","","","","","","","","","","","","","",""
"","","","","","html-slider-response","159","357519","0.0-21.0-0.15","e8ebda42-a20e-49f1-aeff-b6c6a1e2d933","1000","
                  <p style=""text-align: center;"">₪4
                                                <br>50%</p>
                  <p id=""wtp"" style=""text-align:center; margin-top: 0px; margin-bottom: 0px; font-size: 40px"";>&ensp;</p>","-","viewing","0","2","4C,17B","","","","","","","","","","","","","","","","","",""
"","","","","","html-slider-response","160","358958","0.0-21.0-1.15","e8ebda42-a20e-49f1-aeff-b6c6a1e2d933","1438","
                  <p style=""text-align: center;"">₪4
                                                <br>50%</p>
                  <p id=""wtp"" style=""text-align:center; margin-top: 0px; margin-bottom: 0px; font-size: 40px"";>מוכנים לשלם: <span id=""c_p_y""></span></p>","1","evaluation","14","2","4C,17B","50","4","1","","","","","","","","","","","","","","",""
"","","","","","html-keyboard-response","161","359743","0.0-21.0-2.15","e8ebda42-a20e-49f1-aeff-b6c6a1e2d933","null","<p style=""text-align: center;"">+</p>","null","fixation","","","","","","","","","","","","","","","","","","","","",""
"","","","","","html-slider-response","162","360753","0.0-21.0-0.16","e8ebda42-a20e-49f1-aeff-b6c6a1e2d933","1000","
                  <p style=""text-align: center;"">₪64
                                                <br>25%</p>
                  <p id=""wtp"" style=""text-align:center; margin-top: 0px; margin-bottom: 0px; font-size: 40px"";>&ensp;</p>","-","viewing","0","24","6A,21A","","","","","","","","","","","","","","","","","",""
"","","","","","html-slider-response","163","364446","0.0-21.0-1.16","e8ebda42-a20e-49f1-aeff-b6c6a1e2d933","3691","
                  <p style=""text-align: center;"">₪64
                                                <br>25%</p>
                  <p id=""wtp"" style=""text-align:center; margin-top: 0px; margin-bottom: 0px; font-size: 40px"";>מוכנים לשלם: <span id=""c_p_y""></span></p>","14","evaluation","75","24","6A,21A","25","64","14","","","","","","","","","","","","","","",""
"","","","","","html-keyboard-response","164","365906","0.0-21.0-2.16","e8ebda42-a20e-49f1-aeff-b6c6a1e2d933","null","<p style=""text-align: center;"">+</p>","null","fixation","","","","","","","","","","","","","","","","","","","","",""
"","","","","","html-slider-response","165","366923","0.0-21.0-0.17","e8ebda42-a20e-49f1-aeff-b6c6a1e2d933","1000","
                  <p style=""text-align: center;"">₪36
                                                <br>60%</p>
                  <p id=""wtp"" style=""text-align:center; margin-top: 0px; margin-bottom: 0px; font-size: 40px"";>&ensp;</p>","-","viewing","0","12","1C,7C,15C","","","","","","","","","","","","","","","","","",""
"","","","","","html-slider-response","166","369534","0.0-21.0-1.17","e8ebda42-a20e-49f1-aeff-b6c6a1e2d933","2610","
                  <p style=""text-align: center;"">₪36
                                                <br>60%</p>
                  <p id=""wtp"" style=""text-align:center; margin-top: 0px; margin-bottom: 0px; font-size: 40px"";>מוכנים לשלם: <span id=""c_p_y""></span></p>","17","evaluation","39","12","1C,7C,15C","60","36","17","","","","","","","","","","","","","","",""
"","","","","","html-keyboard-response","167","370751","0.0-21.0-2.17","e8ebda42-a20e-49f1-aeff-b6c6a1e2d933","null","<p style=""text-align: center;"">+</p>","null","fixation","","","","","","","","","","","","","","","","","","","","",""
"","","","","","html-slider-response","168","371767","0.0-21.0-0.18","e8ebda42-a20e-49f1-aeff-b6c6a1e2d933","1000","
                  <p style=""text-align: center;"">₪58
                                                <br>45%</p>
                  <p id=""wtp"" style=""text-align:center; margin-top: 0px; margin-bottom: 0px; font-size: 40px"";>&ensp;</p>","-","viewing","0","21","11C,18C,25A","","","","","","","","","","","","","","","","","",""
"","","","","","html-slider-response","169","374166","0.0-21.0-1.18","e8ebda42-a20e-49f1-aeff-b6c6a1e2d933","2398","
                  <p style=""text-align: center;"">₪58
                                                <br>45%</p>
                  <p id=""wtp"" style=""text-align:center; margin-top: 0px; margin-bottom: 0px; font-size: 40px"";>מוכנים לשלם: <span id=""c_p_y""></span></p>","16","evaluation","74","21","11C,18C,25A","45","58","16","","","","","","","","","","","","","","",""
"","","","","","html-keyboard-response","170","375236","0.0-21.0-2.18","e8ebda42-a20e-49f1-aeff-b6c6a1e2d933","null","<p style=""text-align: center;"">+</p>","null","fixation","","","","","","","","","","","","","","","","","","","","",""
"","","","","","html-slider-response","171","376249","0.0-21.0-0.19","e8ebda42-a20e-49f1-aeff-b6c6a1e2d933","1000","
                  <p style=""text-align: center;"">₪16
                                                <br>20%</p>
                  <p id=""wtp"" style=""text-align:center; margin-top: 0px; margin-bottom: 0px; font-size: 40px"";>&ensp;</p>","-","viewing","0","8","14C,17A,20C,27A","","","","","","","","","","","","","","","","","",""
"","","","","","html-slider-response","172","379006","0.0-21.0-1.19","e8ebda42-a20e-49f1-aeff-b6c6a1e2d933","2756","
                  <p style=""text-align: center;"">₪16
                                                <br>20%</p>
                  <p id=""wtp"" style=""text-align:center; margin-top: 0px; margin-bottom: 0px; font-size: 40px"";>מוכנים לשלם: <span id=""c_p_y""></span></p>","3","evaluation","14","8","14C,17A,20C,27A","20","16","4","","","","","","","","","","","","","","",""
"","","","","","html-keyboard-response","173","380198","0.0-21.0-2.19","e8ebda42-a20e-49f1-aeff-b6c6a1e2d933","null","<p style=""text-align: center;"">+</p>","null","fixation","","","","","","","","","","","","","","","","","","","","",""
"","","","","","html-slider-response","174","381211","0.0-21.0-0.20","e8ebda42-a20e-49f1-aeff-b6c6a1e2d933","1000","
                  <p style=""text-align: center;"">₪36
                                                <br>70%</p>
                  <p id=""wtp"" style=""text-align:center; margin-top: 0px; margin-bottom: 0px; font-size: 40px"";>&ensp;</p>","-","viewing","0","13","3A,5C,10B","","","","","","","","","","","","","","","","","",""
"","","","","","html-slider-response","175","384078","0.0-21.0-1.20","e8ebda42-a20e-49f1-aeff-b6c6a1e2d933","2866","
                  <p style=""text-align: center;"">₪36
                                                <br>70%</p>
                  <p id=""wtp"" style=""text-align:center; margin-top: 0px; margin-bottom: 0px; font-size: 40px"";>מוכנים לשלם: <span id=""c_p_y""></span></p>","25","evaluation","50","13","3A,5C,10B","70","36","25","","","","","","","","","","","","","","",""
"","","","","","html-keyboard-response","176","384627","0.0-21.0-2.20","e8ebda42-a20e-49f1-aeff-b6c6a1e2d933","null","<p style=""text-align: center;"">+</p>","null","fixation","","","","","","","","","","","","","","","","","","","","",""
"","","","","","html-slider-response","177","385630","0.0-21.0-0.21","e8ebda42-a20e-49f1-aeff-b6c6a1e2d933","1000","
                  <p style=""text-align: center;"">₪71
                                                <br>55%</p>
                  <p id=""wtp"" style=""text-align:center; margin-top: 0px; margin-bottom: 0px; font-size: 40px"";>&ensp;</p>","-","viewing","0","27","5B,18A","","","","","","","","","","","","","","","","","",""
"","","","","","html-slider-response","178","389632","0.0-21.0-1.21","e8ebda42-a20e-49f1-aeff-b6c6a1e2d933","null","
                  <p style=""text-align: center;"">₪71
                                                <br>55%</p>
                  <p id=""wtp"" style=""text-align:center; margin-top: 0px; margin-bottom: 0px; font-size: 40px"";>מוכנים לשלם: <span id=""c_p_y""></span></p>","null","evaluation","26","27","5B,18A","55","71","25","","","","","","","","","","","","","","",""
"","","","","","html-keyboard-response","179","390383","0.0-21.0-2.21","e8ebda42-a20e-49f1-aeff-b6c6a1e2d933","null","<p style=""text-align: center;"">+</p>","null","fixation","","","","","","","","","","","","","","","","","","","","",""
"","","","","","html-slider-response","180","391397","0.0-21.0-0.22","e8ebda42-a20e-49f1-aeff-b6c6a1e2d933","1000","
                  <p style=""text-align: center;"">₪76
                                                <br>65%</p>
                  <p id=""wtp"" style=""text-align:center; margin-top: 0px; margin-bottom: 0px; font-size: 40px"";>&ensp;</p>","-","viewing","0","29","8C,19A,24B","","","","","","","","","","","","","","","","","",""
"","","","","","html-slider-response","181","394670","0.0-21.0-1.22","e8ebda42-a20e-49f1-aeff-b6c6a1e2d933","3271","
                  <p style=""text-align: center;"">₪76
                                                <br>65%</p>
                  <p id=""wtp"" style=""text-align:center; margin-top: 0px; margin-bottom: 0px; font-size: 40px"";>מוכנים לשלם: <span id=""c_p_y""></span></p>","33","evaluation","46","29","8C,19A,24B","65","76","33","","","","","","","","","","","","","","",""
"","","","","","html-keyboard-response","182","395934","0.0-21.0-2.22","e8ebda42-a20e-49f1-aeff-b6c6a1e2d933","null","<p style=""text-align: center;"">+</p>","null","fixation","","","","","","","","","","","","","","","","","","","","",""
"","","","","","html-slider-response","183","396949","0.0-21.0-0.23","e8ebda42-a20e-49f1-aeff-b6c6a1e2d933","1000","
                  <p style=""text-align: center;"">₪64
                                                <br>50%</p>
                  <p id=""wtp"" style=""text-align:center; margin-top: 0px; margin-bottom: 0px; font-size: 40px"";>&ensp;</p>","-","viewing","0","25","1B,3B,4A","","","","","","","","","","","","","","","","","",""
"","","","","","html-slider-response","184","398638","0.0-21.0-1.23","e8ebda42-a20e-49f1-aeff-b6c6a1e2d933","1687","
                  <p style=""text-align: center;"">₪64
                                                <br>50%</p>
                  <p id=""wtp"" style=""text-align:center; margin-top: 0px; margin-bottom: 0px; font-size: 40px"";>מוכנים לשלם: <span id=""c_p_y""></span></p>","27","evaluation","36","25","1B,3B,4A","50","64","28","","","","","","","","","","","","","","",""
"","","","","","html-keyboard-response","185","399607","0.0-21.0-2.23","e8ebda42-a20e-49f1-aeff-b6c6a1e2d933","null","<p style=""text-align: center;"">+</p>","null","fixation","","","","","","","","","","","","","","","","","","","","",""
"","","","","","html-slider-response","186","400623","0.0-21.0-0.24","e8ebda42-a20e-49f1-aeff-b6c6a1e2d933","1000","
                  <p style=""text-align: center;"">₪61
                                                <br>45%</p>
                  <p id=""wtp"" style=""text-align:center; margin-top: 0px; margin-bottom: 0px; font-size: 40px"";>&ensp;</p>","-","viewing","0","22","10A,11A","","","","","","","","","","","","","","","","","",""
"","","","","","html-slider-response","187","403782","0.0-21.0-1.24","e8ebda42-a20e-49f1-aeff-b6c6a1e2d933","3158","
                  <p style=""text-align: center;"">₪61
                                                <br>45%</p>
                  <p id=""wtp"" style=""text-align:center; margin-top: 0px; margin-bottom: 0px; font-size: 40px"";>מוכנים לשלם: <span id=""c_p_y""></span></p>","27","evaluation","75","22","10A,11A","45","61","27","","","","","","","","","","","","","","",""
"","","","","","html-keyboard-response","188","405092","0.0-21.0-2.24","e8ebda42-a20e-49f1-aeff-b6c6a1e2d933","null","<p style=""text-align: center;"">+</p>","null","fixation","","","","","","","","","","","","","","","","","","","","",""
"","","","","","html-slider-response","189","406101","0.0-21.0-0.25","e8ebda42-a20e-49f1-aeff-b6c6a1e2d933","1000","
                  <p style=""text-align: center;"">₪79
                                                <br>40%</p>
                  <p id=""wtp"" style=""text-align:center; margin-top: 0px; margin-bottom: 0px; font-size: 40px"";>&ensp;</p>","-","viewing","0","30","9B","","","","","","","","","","","","","","","","","",""
"","","","","","html-slider-response","190","409142","0.0-21.0-1.25","e8ebda42-a20e-49f1-aeff-b6c6a1e2d933","3040","
                  <p style=""text-align: center;"">₪79
                                                <br>40%</p>
                  <p id=""wtp"" style=""text-align:center; margin-top: 0px; margin-bottom: 0px; font-size: 40px"";>מוכנים לשלם: <span id=""c_p_y""></span></p>","29","evaluation","40","30","9B","40","79","29","","","","","","","","","","","","","","",""
"","","","","","html-keyboard-response","191","409946","0.0-21.0-2.25","e8ebda42-a20e-49f1-aeff-b6c6a1e2d933","null","<p style=""text-align: center;"">+</p>","null","fixation","","","","","","","","","","","","","","","","","","","","",""
"","","","","","html-slider-response","192","410949","0.0-21.0-0.26","e8ebda42-a20e-49f1-aeff-b6c6a1e2d933","1000","
                  <p style=""text-align: center;"">₪58
                                                <br>30%</p>
                  <p id=""wtp"" style=""text-align:center; margin-top: 0px; margin-bottom: 0px; font-size: 40px"";>&ensp;</p>","-","viewing","0","19","13C,30A","","","","","","","","","","","","","","","","","",""
"","","","","","html-slider-response","193","412030","0.0-21.0-1.26","e8ebda42-a20e-49f1-aeff-b6c6a1e2d933","1080","
                  <p style=""text-align: center;"">₪58
                                                <br>30%</p>
                  <p id=""wtp"" style=""text-align:center; margin-top: 0px; margin-bottom: 0px; font-size: 40px"";>מוכנים לשלם: <span id=""c_p_y""></span></p>","18","evaluation","33","19","13C,30A","30","58","19","","","","","","","","","","","","","","",""
"","","","","","html-keyboard-response","194","412808","0.0-21.0-2.26","e8ebda42-a20e-49f1-aeff-b6c6a1e2d933","null","<p style=""text-align: center;"">+</p>","null","fixation","","","","","","","","","","","","","","","","","","","","",""
"","","","","","html-slider-response","195","413810","0.0-21.0-0.27","e8ebda42-a20e-49f1-aeff-b6c6a1e2d933","1000","
                  <p style=""text-align: center;"">₪18
                                                <br>25%</p>
                  <p id=""wtp"" style=""text-align:center; margin-top: 0px; margin-bottom: 0px; font-size: 40px"";>&ensp;</p>","-","viewing","0","9","14A,23A","","","","","","","","","","","","","","","","","",""
"","","","","","html-slider-response","196","416398","0.0-21.0-1.27","e8ebda42-a20e-49f1-aeff-b6c6a1e2d933","2587","
                  <p style=""text-align: center;"">₪18
                                                <br>25%</p>
                  <p id=""wtp"" style=""text-align:center; margin-top: 0px; margin-bottom: 0px; font-size: 40px"";>מוכנים לשלם: <span id=""c_p_y""></span></p>","6","evaluation","50","9","14A,23A","25","18","7","","","","","","","","","","","","","","",""
"","","","","","html-keyboard-response","197","416935","0.0-21.0-2.27","e8ebda42-a20e-49f1-aeff-b6c6a1e2d933","null","<p style=""text-align: center;"">+</p>","null","fixation","","","","","","","","","","","","","","","","","","","","",""
"","","","","","html-slider-response","198","417948","0.0-21.0-0.28","e8ebda42-a20e-49f1-aeff-b6c6a1e2d933","1000","
                  <p style=""text-align: center;"">₪11
                                                <br>75%</p>
                  <p id=""wtp"" style=""text-align:center; margin-top: 0px; margin-bottom: 0px; font-size: 40px"";>&ensp;</p>","-","viewing","0","7","6B,18B,22C,24C,29A","","","","","","","","","","","","","","","","","",""
"","","","","","html-slider-response","199","420950","0.0-21.0-1.28","e8ebda42-a20e-49f1-aeff-b6c6a1e2d933","3001","
                  <p style=""text-align: center;"">₪11
                                                <br>75%</p>
                  <p id=""wtp"" style=""text-align:center; margin-top: 0px; margin-bottom: 0px; font-size: 40px"";>מוכנים לשלם: <span id=""c_p_y""></span></p>","7","evaluation","32","7","6B,18B,22C,24C,29A","75","11","8","","","","","","","","","","","","","","",""
"","","","","","html-keyboard-response","200","422107","0.0-21.0-2.28","e8ebda42-a20e-49f1-aeff-b6c6a1e2d933","null","<p style=""text-align: center;"">+</p>","null","fixation","","","","","","","","","","","","","","","","","","","","",""
"","","","","","html-slider-response","201","423109","0.0-21.0-0.29","e8ebda42-a20e-49f1-aeff-b6c6a1e2d933","1000","
                  <p style=""text-align: center;"">₪71
                                                <br>45%</p>
                  <p id=""wtp"" style=""text-align:center; margin-top: 0px; margin-bottom: 0px; font-size: 40px"";>&ensp;</p>","-","viewing","0","26","2B,16A","","","","","","","","","","","","","","","","","",""
"","","","","","html-slider-response","202","424862","0.0-21.0-1.29","e8ebda42-a20e-49f1-aeff-b6c6a1e2d933","1752","
                  <p style=""text-align: center;"">₪71
                                                <br>45%</p>
                  <p id=""wtp"" style=""text-align:center; margin-top: 0px; margin-bottom: 0px; font-size: 40px"";>מוכנים לשלם: <span id=""c_p_y""></span></p>","34","evaluation","47","26","2B,16A","45","71","35","","","","","","","","","","","","","","",""
"","","","","","html-keyboard-response","203","425492","0.0-21.0-2.29","e8ebda42-a20e-49f1-aeff-b6c6a1e2d933","null","<p style=""text-align: center;"">+</p>","null","fixation","","","","","","","","","","","","","","","","","","","","",""
"","","","","","html-slider-response","204","426499","0.0-21.0-0.30","e8ebda42-a20e-49f1-aeff-b6c6a1e2d933","1000","
                  <p style=""text-align: center;"">₪11
                                                <br>45%</p>
                  <p id=""wtp"" style=""text-align:center; margin-top: 0px; margin-bottom: 0px; font-size: 40px"";>&ensp;</p>","-","viewing","0","6","14B,21C,25C","","","","","","","","","","","","","","","","","",""
"","","","","","html-slider-response","205","427757","0.0-21.0-1.30","e8ebda42-a20e-49f1-aeff-b6c6a1e2d933","1257","
                  <p style=""text-align: center;"">₪11
                                                <br>45%</p>
                  <p id=""wtp"" style=""text-align:center; margin-top: 0px; margin-bottom: 0px; font-size: 40px"";>מוכנים לשלם: <span id=""c_p_y""></span></p>","7","evaluation","16","6","14B,21C,25C","45","11","7","","","","","","","","","","","","","","",""
"","","","","","html-keyboard-response","206","429195","0.0-21.0-2.30","e8ebda42-a20e-49f1-aeff-b6c6a1e2d933","null","<p style=""text-align: center;"">+</p>","null","fixation","","","","","","","","","","","","","","","","","","","","",""
"","","","","","html-keyboard-response","207","430208","0.0-22.0","e8ebda42-a20e-49f1-aeff-b6c6a1e2d933","null","<p style=""text-align: center;"">+</p>","null","fixation","","","","","","","","","","","","","","","","","","","","",""
"","","","","","html-keyboard-response","208","432325","0.0-23.0","e8ebda42-a20e-49f1-aeff-b6c6a1e2d933","null","<p>הפסקה.
          <br>לחצו כדי להמשיך.</p>","1","scan_wait","","","","","","","","","","","","","","","","","","","","",""
"","","","","","html-keyboard-response","209","433326","0.0-24.0","e8ebda42-a20e-49f1-aeff-b6c6a1e2d933","null","<p style=""text-align: center;"">+</p>","null","fixation","","","","","","","","","","","","","","","","","","","","",""
"","","","","","html-slider-response","210","434328","0.0-25.0-0.0","e8ebda42-a20e-49f1-aeff-b6c6a1e2d933","1000","
                  <p style=""text-align: center;"">₪43
                                                <br>60%</p>
                  <p id=""wtp"" style=""text-align:center; margin-top: 0px; margin-bottom: 0px; font-size: 40px"";>&ensp;</p>","-","viewing","0","17","2A,7A,9A,15B","","","","","","","","","","","","","","","","","",""
"","","","","","html-slider-response","211","435486","0.0-25.0-1.0","e8ebda42-a20e-49f1-aeff-b6c6a1e2d933","1156","
                  <p style=""text-align: center;"">₪43
                                                <br>60%</p>
                  <p id=""wtp"" style=""text-align:center; margin-top: 0px; margin-bottom: 0px; font-size: 40px"";>מוכנים לשלם: <span id=""c_p_y""></span></p>","20","evaluation","61","17","2A,7A,9A,15B","60","43","20","","","","","","","","","","","","","","",""
"","","","","","html-keyboard-response","212","436078","0.0-25.0-2.0","e8ebda42-a20e-49f1-aeff-b6c6a1e2d933","null","<p style=""text-align: center;"">+</p>","null","fixation","","","","","","","","","","","","","","","","","","","","",""
"","","","","","html-slider-response","213","437080","0.0-25.0-0.1","e8ebda42-a20e-49f1-aeff-b6c6a1e2d933","1000","
                  <p style=""text-align: center;"">₪71
                                                <br>55%</p>
                  <p id=""wtp"" style=""text-align:center; margin-top: 0px; margin-bottom: 0px; font-size: 40px"";>&ensp;</p>","-","viewing","0","27","5B,18A","","","","","","","","","","","","","","","","","",""
"","","","","","html-slider-response","214","438638","0.0-25.0-1.1","e8ebda42-a20e-49f1-aeff-b6c6a1e2d933","1556","
                  <p style=""text-align: center;"">₪71
                                                <br>55%</p>
                  <p id=""wtp"" style=""text-align:center; margin-top: 0px; margin-bottom: 0px; font-size: 40px"";>מוכנים לשלם: <span id=""c_p_y""></span></p>","33","evaluation","54","27","5B,18A","55","71","33","","","","","","","","","","","","","","",""
"","","","","","html-keyboard-response","215","439672","0.0-25.0-2.1","e8ebda42-a20e-49f1-aeff-b6c6a1e2d933","null","<p style=""text-align: center;"">+</p>","null","fixation","","","","","","","","","","","","","","","","","","","","",""
"","","","","","html-slider-response","216","440682","0.0-25.0-0.2","e8ebda42-a20e-49f1-aeff-b6c6a1e2d933","1000","
                  <p style=""text-align: center;"">₪64
                                                <br>50%</p>
                  <p id=""wtp"" style=""text-align:center; margin-top: 0px; margin-bottom: 0px; font-size: 40px"";>&ensp;</p>","-","viewing","0","25","1B,3B,4A","","","","","","","","","","","","","","","","","",""
"","","","","","html-slider-response","217","443086","0.0-25.0-1.2","e8ebda42-a20e-49f1-aeff-b6c6a1e2d933","2403","
                  <p style=""text-align: center;"">₪64
                                                <br>50%</p>
                  <p id=""wtp"" style=""text-align:center; margin-top: 0px; margin-bottom: 0px; font-size: 40px"";>מוכנים לשלם: <span id=""c_p_y""></span></p>","33","evaluation","37","25","1B,3B,4A","50","64","33","","","","","","","","","","","","","","",""
"","","","","","html-keyboard-response","218","444171","0.0-25.0-2.2","e8ebda42-a20e-49f1-aeff-b6c6a1e2d933","null","<p style=""text-align: center;"">+</p>","null","fixation","","","","","","","","","","","","","","","","","","","","",""
"","","","","","html-slider-response","219","445188","0.0-25.0-0.3","e8ebda42-a20e-49f1-aeff-b6c6a1e2d933","1000","
                  <p style=""text-align: center;"">₪18
                                                <br>25%</p>
                  <p id=""wtp"" style=""text-align:center; margin-top: 0px; margin-bottom: 0px; font-size: 40px"";>&ensp;</p>","-","viewing","0","9","14A,23A","","","","","","","","","","","","","","","","","",""
"","","","","","html-slider-response","220","446870","0.0-25.0-1.3","e8ebda42-a20e-49f1-aeff-b6c6a1e2d933","1680","
                  <p style=""text-align: center;"">₪18
                                                <br>25%</p>
                  <p id=""wtp"" style=""text-align:center; margin-top: 0px; margin-bottom: 0px; font-size: 40px"";>מוכנים לשלם: <span id=""c_p_y""></span></p>","4","evaluation","50","9","14A,23A","25","18","5","","","","","","","","","","","","","","",""
"","","","","","html-keyboard-response","221","448324","0.0-25.0-2.3","e8ebda42-a20e-49f1-aeff-b6c6a1e2d933","null","<p style=""text-align: center;"">+</p>","null","fixation","","","","","","","","","","","","","","","","","","","","",""
"","","","","","html-slider-response","222","449326","0.0-25.0-0.4","e8ebda42-a20e-49f1-aeff-b6c6a1e2d933","1000","
                  <p style=""text-align: center;"">₪58
                                                <br>40%</p>
                  <p id=""wtp"" style=""text-align:center; margin-top: 0px; margin-bottom: 0px; font-size: 40px"";>&ensp;</p>","-","viewing","0","20","10C,13A,19C,21B","","","","","","","","","","","","","","","","","",""
"","","","","","html-slider-response","223","451806","0.0-25.0-1.4","e8ebda42-a20e-49f1-aeff-b6c6a1e2d933","2478","
                  <p style=""text-align: center;"">₪58
                                                <br>40%</p>
                  <p id=""wtp"" style=""text-align:center; margin-top: 0px; margin-bottom: 0px; font-size: 40px"";>מוכנים לשלם: <span id=""c_p_y""></span></p>","22","evaluation","52","20","10C,13A,19C,21B","40","58","22","","","","","","","","","","","","","","",""
"","","","","","html-keyboard-response","224","452876","0.0-25.0-2.4","e8ebda42-a20e-49f1-aeff-b6c6a1e2d933","null","<p style=""text-align: center;"">+</p>","null","fixation","","","","","","","","","","","","","","","","","","","","",""
"","","","","","html-slider-response","225","453888","0.0-25.0-0.5","e8ebda42-a20e-49f1-aeff-b6c6a1e2d933","1000","
                  <p style=""text-align: center;"">₪16
                                                <br>20%</p>
                  <p id=""wtp"" style=""text-align:center; margin-top: 0px; margin-bottom: 0px; font-size: 40px"";>&ensp;</p>","-","viewing","0","8","14C,17A,20C,27A","","","","","","","","","","","","","","","","","",""
"","","","","","html-slider-response","226","455933","0.0-25.0-1.5","e8ebda42-a20e-49f1-aeff-b6c6a1e2d933","2044","
                  <p style=""text-align: center;"">₪16
                                                <br>20%</p>
                  <p id=""wtp"" style=""text-align:center; margin-top: 0px; margin-bottom: 0px; font-size: 40px"";>מוכנים לשלם: <span id=""c_p_y""></span></p>","4","evaluation","32","8","14C,17A,20C,27A","20","16","5","","","","","","","","","","","","","","",""
"","","","","","html-keyboard-response","227","457262","0.0-25.0-2.5","e8ebda42-a20e-49f1-aeff-b6c6a1e2d933","null","<p style=""text-align: center;"">+</p>","null","fixation","","","","","","","","","","","","","","","","","","","","",""
"","","","","","html-slider-response","228","458268","0.0-25.0-0.6","e8ebda42-a20e-49f1-aeff-b6c6a1e2d933","1000","
                  <p style=""text-align: center;"">₪61
                                                <br>55%</p>
                  <p id=""wtp"" style=""text-align:center; margin-top: 0px; margin-bottom: 0px; font-size: 40px"";>&ensp;</p>","-","viewing","0","23","7B,26B","","","","","","","","","","","","","","","","","",""
"","","","","","html-slider-response","229","459678","0.0-25.0-1.6","e8ebda42-a20e-49f1-aeff-b6c6a1e2d933","1409","
                  <p style=""text-align: center;"">₪61
                                                <br>55%</p>
                  <p id=""wtp"" style=""text-align:center; margin-top: 0px; margin-bottom: 0px; font-size: 40px"";>מוכנים לשלם: <span id=""c_p_y""></span></p>","30","evaluation","29","23","7B,26B","55","61","30","","","","","","","","","","","","","","",""
"","","","","","html-keyboard-response","230","461013","0.0-25.0-2.6","e8ebda42-a20e-49f1-aeff-b6c6a1e2d933","null","<p style=""text-align: center;"">+</p>","null","fixation","","","","","","","","","","","","","","","","","","","","",""
"","","","","","html-slider-response","231","462030","0.0-25.0-0.7","e8ebda42-a20e-49f1-aeff-b6c6a1e2d933","1000","
                  <p style=""text-align: center;"">₪4
                                                <br>50%</p>
                  <p id=""wtp"" style=""text-align:center; margin-top: 0px; margin-bottom: 0px; font-size: 40px"";>&ensp;</p>","-","viewing","0","2","4C,17B","","","","","","","","","","","","","","","","","",""
"","","","","","html-slider-response","232","463806","0.0-25.0-1.7","e8ebda42-a20e-49f1-aeff-b6c6a1e2d933","1775","
                  <p style=""text-align: center;"">₪4
                                                <br>50%</p>
                  <p id=""wtp"" style=""text-align:center; margin-top: 0px; margin-bottom: 0px; font-size: 40px"";>מוכנים לשלם: <span id=""c_p_y""></span></p>","1","evaluation","0","2","4C,17B","50","4","1","","","","","","","","","","","","","","",""
"","","","","","html-keyboard-response","233","465177","0.0-25.0-2.7","e8ebda42-a20e-49f1-aeff-b6c6a1e2d933","null","<p style=""text-align: center;"">+</p>","null","fixation","","","","","","","","","","","","","","","","","","","","",""
"","","","","","html-slider-response","234","466179","0.0-25.0-0.8","e8ebda42-a20e-49f1-aeff-b6c6a1e2d933","1000","
                  <p style=""text-align: center;"">₪58
                                                <br>45%</p>
                  <p id=""wtp"" style=""text-align:center; margin-top: 0px; margin-bottom: 0px; font-size: 40px"";>&ensp;</p>","-","viewing","0","21","11C,18C,25A","","","","","","","","","","","","","","","","","",""
"","","","","","html-slider-response","235","468614","0.0-25.0-1.8","e8ebda42-a20e-49f1-aeff-b6c6a1e2d933","2433","
                  <p style=""text-align: center;"">₪58
                                                <br>45%</p>
                  <p id=""wtp"" style=""text-align:center; margin-top: 0px; margin-bottom: 0px; font-size: 40px"";>מוכנים לשלם: <span id=""c_p_y""></span></p>","24","evaluation","66","21","11C,18C,25A","45","58","24","","","","","","","","","","","","","","",""
"","","","","","html-keyboard-response","236","469179","0.0-25.0-2.8","e8ebda42-a20e-49f1-aeff-b6c6a1e2d933","null","<p style=""text-align: center;"">+</p>","null","fixation","","","","","","","","","","","","","","","","","","","","",""
"","","","","","html-slider-response","237","470182","0.0-25.0-0.9","e8ebda42-a20e-49f1-aeff-b6c6a1e2d933","1000","
                  <p style=""text-align: center;"">₪79
                                                <br>65%</p>
                  <p id=""wtp"" style=""text-align:center; margin-top: 0px; margin-bottom: 0px; font-size: 40px"";>&ensp;</p>","-","viewing","0","31","8A","","","","","","","","","","","","","","","","","",""
"","","","","","html-slider-response","238","472430","0.0-25.0-1.9","e8ebda42-a20e-49f1-aeff-b6c6a1e2d933","2247","
                  <p style=""text-align: center;"">₪79
                                                <br>65%</p>
                  <p id=""wtp"" style=""text-align:center; margin-top: 0px; margin-bottom: 0px; font-size: 40px"";>מוכנים לשלם: <span id=""c_p_y""></span></p>","56","evaluation","57","31","8A","65","79","56","","","","","","","","","","","","","","",""
"","","","","","html-keyboard-response","239","473103","0.0-25.0-2.9","e8ebda42-a20e-49f1-aeff-b6c6a1e2d933","null","<p style=""text-align: center;"">+</p>","null","fixation","","","","","","","","","","","","","","","","","","","","",""
"","","","","","html-slider-response","240","474113","0.0-25.0-0.10","e8ebda42-a20e-49f1-aeff-b6c6a1e2d933","1000","
                  <p style=""text-align: center;"">₪36
                                                <br>70%</p>
                  <p id=""wtp"" style=""text-align:center; margin-top: 0px; margin-bottom: 0px; font-size: 40px"";>&ensp;</p>","-","viewing","0","13","3A,5C,10B","","","","","","","","","","","","","","","","","",""
"","","","","","html-slider-response","241","478119","0.0-25.0-1.10","e8ebda42-a20e-49f1-aeff-b6c6a1e2d933","null","
                  <p style=""text-align: center;"">₪36
                                                <br>70%</p>
                  <p id=""wtp"" style=""text-align:center; margin-top: 0px; margin-bottom: 0px; font-size: 40px"";>מוכנים לשלם: <span id=""c_p_y""></span></p>","null","evaluation","65","13","3A,5C,10B","70","36","48","","","","","","","","","","","","","","",""
"","","","","","html-keyboard-response","242","478749","0.0-25.0-2.10","e8ebda42-a20e-49f1-aeff-b6c6a1e2d933","null","<p style=""text-align: center;"">+</p>","null","fixation","","","","","","","","","","","","","","","","","","","","",""
"","","","","","html-slider-response","243","479760","0.0-25.0-0.11","e8ebda42-a20e-49f1-aeff-b6c6a1e2d933","1000","
                  <p style=""text-align: center;"">₪11
                                                <br>25%</p>
                  <p id=""wtp"" style=""text-align:center; margin-top: 0px; margin-bottom: 0px; font-size: 40px"";>&ensp;</p>","-","viewing","0","5","12A,27B,28B,30B","","","","","","","","","","","","","","","","","",""
"","","","","","html-slider-response","244","481190","0.0-25.0-1.11","e8ebda42-a20e-49f1-aeff-b6c6a1e2d933","1429","
                  <p style=""text-align: center;"">₪11
                                                <br>25%</p>
                  <p id=""wtp"" style=""text-align:center; margin-top: 0px; margin-bottom: 0px; font-size: 40px"";>מוכנים לשלם: <span id=""c_p_y""></span></p>","3","evaluation","31","5","12A,27B,28B,30B","25","11","4","","","","","","","","","","","","","","",""
"","","","","","html-keyboard-response","245","482162","0.0-25.0-2.11","e8ebda42-a20e-49f1-aeff-b6c6a1e2d933","null","<p style=""text-align: center;"">+</p>","null","fixation","","","","","","","","","","","","","","","","","","","","",""
"","","","","","html-slider-response","246","483164","0.0-25.0-0.12","e8ebda42-a20e-49f1-aeff-b6c6a1e2d933","1000","
                  <p style=""text-align: center;"">₪61
                                                <br>45%</p>
                  <p id=""wtp"" style=""text-align:center; margin-top: 0px; margin-bottom: 0px; font-size: 40px"";>&ensp;</p>","-","viewing","0","22","10A,11A","","","","","","","","","","","","","","","","","",""
"","","","","","html-slider-response","247","484773","0.0-25.0-1.12","e8ebda42-a20e-49f1-aeff-b6c6a1e2d933","1608","
                  <p style=""text-align: center;"">₪61
                                                <br>45%</p>
                  <p id=""wtp"" style=""text-align:center; margin-top: 0px; margin-bottom: 0px; font-size: 40px"";>מוכנים לשלם: <span id=""c_p_y""></span></p>","25","evaluation","34","22","10A,11A","45","61","25","","","","","","","","","","","","","","",""
"","","","","","html-keyboard-response","248","485463","0.0-25.0-2.12","e8ebda42-a20e-49f1-aeff-b6c6a1e2d933","null","<p style=""text-align: center;"">+</p>","null","fixation","","","","","","","","","","","","","","","","","","","","",""
"","","","","","html-slider-response","249","486476","0.0-25.0-0.13","e8ebda42-a20e-49f1-aeff-b6c6a1e2d933","1000","
                  <p style=""text-align: center;"">₪4
                                                <br>75%</p>
                  <p id=""wtp"" style=""text-align:center; margin-top: 0px; margin-bottom: 0px; font-size: 40px"";>&ensp;</p>","-","viewing","0","3","12B,20B,23B,27C,29C","","","","","","","","","","","","","","","","","",""
"","","","","","html-slider-response","250","489918","0.0-25.0-1.13","e8ebda42-a20e-49f1-aeff-b6c6a1e2d933","3440","
                  <p style=""text-align: center;"">₪4
                                                <br>75%</p>
                  <p id=""wtp"" style=""text-align:center; margin-top: 0px; margin-bottom: 0px; font-size: 40px"";>מוכנים לשלם: <span id=""c_p_y""></span></p>","2","evaluation","21","3","12B,20B,23B,27C,29C","75","4","3","","","","","","","","","","","","","","",""
"","","","","","html-keyboard-response","251","491237","0.0-25.0-2.13","e8ebda42-a20e-49f1-aeff-b6c6a1e2d933","null","<p style=""text-align: center;"">+</p>","null","fixation","","","","","","","","","","","","","","","","","","","","",""
"","","","","","html-slider-response","252","492241","0.0-25.0-0.14","e8ebda42-a20e-49f1-aeff-b6c6a1e2d933","1000","
                  <p style=""text-align: center;"">₪11
                                                <br>20%</p>
                  <p id=""wtp"" style=""text-align:center; margin-top: 0px; margin-bottom: 0px; font-size: 40px"";>&ensp;</p>","-","viewing","0","4","12C,17C,23C,28C","","","","","","","","","","","","","","","","","",""
