"success","timeout","failed_images","failed_audio","failed_video","trial_type","trial_index","time_elapsed","internal_node_id","subject_id","rt","stimulus","response","part","slider_start","ID","set_ID","prob","amount","last_location","actual_choice","actual_EV","binary_id","trinary_id","catch","A_key","D_key","choice_prob","choice_amount","potential_prize_prob","potential_prize_amount","won_prize","total_prize","remaining_budget","accuracy"
"true","false","[]","[]","[]","preload","0","6","0.0-0.0","db1c6c1b-8e99-41cf-9b98-c9c736aa8335","","","","","","","","","","","","","","","","","","","","","","","","",""
"","","","","","html-keyboard-response","1","298870","0.0-1.0","db1c6c1b-8e99-41cf-9b98-c9c736aa8335","null","
          <h1>שלום וברוכים הבאים!</h1>
          <p>לפניכם ניסוי בקבלת החלטות עם שני חלקים.
          <br><br>לחצו על העכבר כדי להמשיך.</p>","0","example","","","","","","","","","","","","","","","","","","","","",""
"","","","","","html-keyboard-response","2","364022","0.0-2.0","db1c6c1b-8e99-41cf-9b98-c9c736aa8335","null","
        <h1>חלק 1</h1>
        <p>בקרוב יוצגו בפניכם הגרלות.
        <br>עליכם לבחור את המחיר המירבי שתהיו מוכנים לשלם כדי להשתתף בהגרלה שתוצג.
        <br>יש לכם תקציב של ₪80 לכל הגרלה. 
        <br>נסו להעריך כל הגרלה בנפרד ולחשוב כמה היא שווה עבורכם, ₪80 זמינים לכל הגרלה בנפרד.
        <br><br>לחצו על העכבר כדי להמשיך.</p>","1","instructions","","","","","","","","","","","","","","","","","","","","",""
"","","","","","html-keyboard-response","3","373254","0.0-3.0","db1c6c1b-8e99-41cf-9b98-c9c736aa8335","null","
        <p>בסוף הניסוי, המחשב יבחר את אחת ההגרלות ויקבע מחיר לכרטיס עבורה. 
        <br>במידה והמחיר שבחרתם נמוך מהמחיר שנבחר על ידי המחשב, לא תשתתפו בהגרלה ותשארו עם מלוא התקציב.
        <br>במידה והמחיר שבחרתם גבוה מהמחיר שנבחר על ידי המחשב, תשלמו את המחיר שנקבע ותשתתפו בהגרלה.
        <br><br>לחצו על העכבר כדי להמשיך.</p>","1","instructions","","","","","","","","","","","","","","","","","","","","",""
"","","","","","html-slider-response","4","392814","0.0-4.0","db1c6c1b-8e99-41cf-9b98-c9c736aa8335","19448","
        <p style=""font-size: 42px;"">נתחיל עם דוגמא: 
        <br>ההגרלה מטה מציעה 65% סיכוי לזכות ב-₪40 
        <br>&emsp;&emsp;&emsp;&emsp;&emsp;&emsp;&emsp;&emsp;&ensp;35% סיכוי לזכות ב-₪0.
        <br><br>מה המחיר המירבי שתהיו מוכנים לשלם על כרטיס להגרלה זו בין 0 ל-₪80?
        <br>הזיזו את העכבר על פני המלבן ולחצו כדי לבצע בחירה.</p>
        
        <p style=""text-align: center;"">₪40<br>65%</p>

        <p id=""wtp"" style=""text-align:center; margin-top: 0px; margin-bottom: 0px; font-size: 40px"";>מוכנים לשלם: <span id=""c_p_y""></span></p>","15","example","33","","","","","","","","","","","","","","","","","","","",""
"","","","","","html-keyboard-response","5","401990","0.0-5.0","db1c6c1b-8e99-41cf-9b98-c9c736aa8335","null","<p>יפה מאוד!
                <br> בחרתם שתהיו מוכנים לשלם ₪15 כדי להשתתף בהגרלה:
                <br><p style=""text-align: center;"">₪40<br>65%</p>
                <p>נשמע נכון?
                <br>נניח שהגרלה זו נבחרה בסוף הניסוי.
                <br>כעת המחשב יקבע מחיר עבורה באקראי.
                <br>לחצו על העכבר להמשך.</p>","1","example","","","","","","","","","","","","","","","","","","","","",""
"","","","","","html-keyboard-response","6","412814","0.0-6.0","db1c6c1b-8e99-41cf-9b98-c9c736aa8335","null","<p>המחשב קבע מחיר: ₪20
                <br>ואתם בחרתם לשלם לכל היותר: ₪15
                <br><br>מכיוון שהמחיר שבחרתם נמוך מהמחיר שנקבע, לא תתשתתפו בהגרלה.
                <br>במקרה כזה, בסוף הניסוי תקבלו את כל התקציב ההתחלתי של ₪80.
                <br><br>לחצו על העכבר להמשך.</p>","1","example","","","","","","","","","","","","","","","","","","","","",""
"","","","","","html-slider-response","7","419262","0.0-7.0","db1c6c1b-8e99-41cf-9b98-c9c736aa8335","6188","<p style=""font-size: 42px;"">הנה עוד דוגמא:
                <br>ההגרלה מטה מציעה 35% סיכוי לזכות ב-₪18 
                <br>&emsp;&emsp;&emsp;&emsp;&emsp;&emsp;&emsp;&emsp;&ensp;65% סיכוי לזכות ב-₪0.</p>
        
                <p style=""text-align: center;"">₪18<br>35%</p>
                <p id=""wtp"" style=""text-align:center; margin-top: 0px; margin-bottom: 0px; font-size: 40px"";>מוכנים לשלם: <span id=""c_p_y""></span></p>","0","example","30","","","","","","","","","","","","","","","","","","","",""
"","","","","","html-keyboard-response","8","421342","0.0-8.0","db1c6c1b-8e99-41cf-9b98-c9c736aa8335","null","<p>הייתם מוכנים לשלם  ₪0 כדי להשתתף בהגרלה:
                <p style=""text-align: center;"">₪18<br>35%</p>
                <p>כעת נניח שהמחשב בחר את ההגרלה הזו בסוף הניסוי, וקבע עבורה מחיר.
                <br><br>לחצו על העכבר כדי להמשיך.</p>","1","instructions","","","","","","","","","","","","","","","","","","","","",""
"","","","","","html-keyboard-response","9","438590","0.0-9.0","db1c6c1b-8e99-41cf-9b98-c9c736aa8335","null","<p>המחשב קבע מחיר להגרלה: ₪0
                <br>ואתם בחרתם לשלם לכל היותר: ₪0
                <br><br>כעת המחיר שנקבע זהה לזה שבחרתם, אז תשלמו את המחיר שקבע המחשב (₪0) ותשתתפו בהגרלה.
                <br>במקרה כזה, תסיימו את הניסוי עם תקציב של ₪80 ועם סיכוי לזכות ב-₪18 נוספים מההגרלה.
                <br>כלומר, תוכלו לקבל ₪80 אם לא תזכו בהגרלה, או ₪98 אם תזכו בהגרלה.
                <br><br>לחצו על העכבר להמשך.</p>","1","example","","","","","","","","","","","","","","","","","","","","",""
"","","","","","html-keyboard-response","10","453718","0.0-10.0","db1c6c1b-8e99-41cf-9b98-c9c736aa8335","null","<p>במהלך הניסוי, קודם תראו את ההגרלה ורק לאחר מכן תוכלו לבחור.
                <p>כמו כן, יהיו לכם מספר שניות מוגבל להגיב.
                <p>בואו ננסה זאת עם ההגרלה הקודמת.
                <br>לחצו על העכבר כדי להמשיך.</p>","1","instructions","","","","","","","","","","","","","","","","","","","","",""
"","","","","","html-slider-response","11","454988","0.0-11.0","db1c6c1b-8e99-41cf-9b98-c9c736aa8335","1000","
                    <p style=""text-align: center;"">₪18<br>35%</p>
                    <p id=""wtp"" style=""text-align:center; margin-top: 0px; margin-bottom: 0px; font-size: 40px"";>&ensp;</p>","73","instructions","0","","","","","","","","","","","","","","","","","","","",""
"","","","","","html-slider-response","12","457502","0.0-12.0","db1c6c1b-8e99-41cf-9b98-c9c736aa8335","2248","
                    <p style=""text-align: center;"">₪18<br>35%</p>
                    <p id=""wtp"" style=""text-align:center; margin-top: 0px; margin-bottom: 0px; font-size: 40px"";>מוכנים לשלם: <span id=""c_p_y""></span></p>","0","instructions","13","","","","","","","","","","","","","","","","","","","",""
"","","","","","html-keyboard-response","13","460494","0.0-13.0","db1c6c1b-8e99-41cf-9b98-c9c736aa8335","null","<p>יפה. הפעם בחרתם לשלם לכל היותר ₪0.
                <br><br>לחצו על העכבר כדי להמשיך.</p>","1","instructions","","","","","","","","","","","","","","","","","","","","",""
"","","","","","html-keyboard-response","14","475910","0.0-15.0","db1c6c1b-8e99-41cf-9b98-c9c736aa8335","null","<p>כעת נתחיל את הניסוי.
                <br><br>אתם תראו הגרלות ותתבקשו לבחור כמה תהיו מוכנים לשלם כדי להשתתף בהן.
                <br>יש לכם תקציב של ₪80 עבור כל הגרלה.
                <br>בסוף הניסוי הגרלה אחת תבחר באקראי ותשוחק.
                <br><br>לחצו על העכבר כדי להתחיל את הניסוי.</p>","1","instructions","","","","","","","","","","","","","","","","","","","","",""
"","","","","","html-keyboard-response","15","477184","0.0-16.0","db1c6c1b-8e99-41cf-9b98-c9c736aa8335","null","<p style=""text-align: center;"">+</p>","null","fixation","","","","","","","","","","","","","","","","","","","","",""
"","","","","","html-slider-response","16","478191","0.0-17.0-0.0","db1c6c1b-8e99-41cf-9b98-c9c736aa8335","1000","
                  <p style=""text-align: center;"">₪39
                                                <br>65%</p>
                  <p id=""wtp"" style=""text-align:center; margin-top: 0px; margin-bottom: 0px; font-size: 40px"";>&ensp;</p>","-","viewing","0","16","1A,15A,26C","","","","","","","","","","","","","","","","","",""
"","","","","","html-slider-response","17","482193","0.0-17.0-1.0","db1c6c1b-8e99-41cf-9b98-c9c736aa8335","null","
                  <p style=""text-align: center;"">₪39
                                                <br>65%</p>
                  <p id=""wtp"" style=""text-align:center; margin-top: 0px; margin-bottom: 0px; font-size: 40px"";>מוכנים לשלם: <span id=""c_p_y""></span></p>","null","evaluation","8","16","1A,15A,26C","65","39","8","","","","","","","","","","","","","","",""
"","","","","","html-keyboard-response","18","482834","0.0-17.0-2.0","db1c6c1b-8e99-41cf-9b98-c9c736aa8335","null","<p style=""text-align: center;"">+</p>","null","fixation","","","","","","","","","","","","","","","","","","","","",""
"","","","","","html-slider-response","19","483843","0.0-17.0-0.1","db1c6c1b-8e99-41cf-9b98-c9c736aa8335","1000","
                  <p style=""text-align: center;"">₪4
                                                <br>75%</p>
                  <p id=""wtp"" style=""text-align:center; margin-top: 0px; margin-bottom: 0px; font-size: 40px"";>&ensp;</p>","-","viewing","0","3","12B,20B,23B,27C,29C","","","","","","","","","","","","","","","","","",""
"","","","","","html-slider-response","20","487850","0.0-17.0-1.1","db1c6c1b-8e99-41cf-9b98-c9c736aa8335","null","
                  <p style=""text-align: center;"">₪4
                                                <br>75%</p>
                  <p id=""wtp"" style=""text-align:center; margin-top: 0px; margin-bottom: 0px; font-size: 40px"";>מוכנים לשלם: <span id=""c_p_y""></span></p>","null","evaluation","48","3","12B,20B,23B,27C,29C","75","4","0","","","","","","","","","","","","","","",""
"","","","","","html-keyboard-response","21","488839","0.0-17.0-2.1","db1c6c1b-8e99-41cf-9b98-c9c736aa8335","null","<p style=""text-align: center;"">+</p>","null","fixation","","","","","","","","","","","","","","","","","","","","",""
"","","","","","html-slider-response","22","489842","0.0-17.0-0.2","db1c6c1b-8e99-41cf-9b98-c9c736aa8335","1000","
                  <p style=""text-align: center;"">₪18
                                                <br>50%</p>
                  <p id=""wtp"" style=""text-align:center; margin-top: 0px; margin-bottom: 0px; font-size: 40px"";>&ensp;</p>","-","viewing","0","10","2C,16C,22B,28A","","","","","","","","","","","","","","","","","",""
"","","","","","html-slider-response","23","493844","0.0-17.0-1.2","db1c6c1b-8e99-41cf-9b98-c9c736aa8335","null","
                  <p style=""text-align: center;"">₪18
                                                <br>50%</p>
                  <p id=""wtp"" style=""text-align:center; margin-top: 0px; margin-bottom: 0px; font-size: 40px"";>מוכנים לשלם: <span id=""c_p_y""></span></p>","null","evaluation","37","10","2C,16C,22B,28A","50","18","12","","","","","","","","","","","","","","",""
"","","","","","html-keyboard-response","24","495311","0.0-17.0-2.2","db1c6c1b-8e99-41cf-9b98-c9c736aa8335","null","<p style=""text-align: center;"">+</p>","null","fixation","","","","","","","","","","","","","","","","","","","","",""
"","","","","","html-slider-response","25","496312","0.0-17.0-0.3","db1c6c1b-8e99-41cf-9b98-c9c736aa8335","1000","
                  <p style=""text-align: center;"">₪71
                                                <br>75%</p>
                  <p id=""wtp"" style=""text-align:center; margin-top: 0px; margin-bottom: 0px; font-size: 40px"";>&ensp;</p>","-","viewing","0","28","8B","","","","","","","","","","","","","","","","","",""
"","","","","","html-slider-response","26","499373","0.0-17.0-1.3","db1c6c1b-8e99-41cf-9b98-c9c736aa8335","3060","
                  <p style=""text-align: center;"">₪71
                                                <br>75%</p>
                  <p id=""wtp"" style=""text-align:center; margin-top: 0px; margin-bottom: 0px; font-size: 40px"";>מוכנים לשלם: <span id=""c_p_y""></span></p>","31","evaluation","37","28","8B","75","71","31","","","","","","","","","","","","","","",""
"","","","","","html-keyboard-response","27","500379","0.0-17.0-2.3","db1c6c1b-8e99-41cf-9b98-c9c736aa8335","null","<p style=""text-align: center;"">+</p>","null","fixation","","","","","","","","","","","","","","","","","","","","",""
"","","","","","html-slider-response","28","501387","0.0-17.0-0.4","db1c6c1b-8e99-41cf-9b98-c9c736aa8335","1000","
                  <p style=""text-align: center;"">₪64
                                                <br>50%</p>
                  <p id=""wtp"" style=""text-align:center; margin-top: 0px; margin-bottom: 0px; font-size: 40px"";>&ensp;</p>","-","viewing","0","25","1B,3B,4A","","","","","","","","","","","","","","","","","",""
"","","","","","html-slider-response","29","505062","0.0-17.0-1.4","db1c6c1b-8e99-41cf-9b98-c9c736aa8335","3673","
                  <p style=""text-align: center;"">₪64
                                                <br>50%</p>
                  <p id=""wtp"" style=""text-align:center; margin-top: 0px; margin-bottom: 0px; font-size: 40px"";>מוכנים לשלם: <span id=""c_p_y""></span></p>","30","evaluation","16","25","1B,3B,4A","50","64","30","","","","","","","","","","","","","","",""
"","","","","","html-keyboard-response","30","506508","0.0-17.0-2.4","db1c6c1b-8e99-41cf-9b98-c9c736aa8335","null","<p style=""text-align: center;"">+</p>","null","fixation","","","","","","","","","","","","","","","","","","","","",""
"","","","","","html-slider-response","31","507516","0.0-17.0-0.5","db1c6c1b-8e99-41cf-9b98-c9c736aa8335","1000","
                  <p style=""text-align: center;"">₪79
                                                <br>65%</p>
                  <p id=""wtp"" style=""text-align:center; margin-top: 0px; margin-bottom: 0px; font-size: 40px"";>&ensp;</p>","-","viewing","0","31","8A","","","","","","","","","","","","","","","","","",""
"","","","","","html-slider-response","32","511527","0.0-17.0-1.5","db1c6c1b-8e99-41cf-9b98-c9c736aa8335","null","
                  <p style=""text-align: center;"">₪79
                                                <br>65%</p>
                  <p id=""wtp"" style=""text-align:center; margin-top: 0px; margin-bottom: 0px; font-size: 40px"";>מוכנים לשלם: <span id=""c_p_y""></span></p>","null","evaluation","10","31","8A","65","79","37","","","","","","","","","","","","","","",""
"","","","","","html-keyboard-response","33","512275","0.0-17.0-2.5","db1c6c1b-8e99-41cf-9b98-c9c736aa8335","null","<p style=""text-align: center;"">+</p>","null","fixation","","","","","","","","","","","","","","","","","","","","",""
"","","","","","html-slider-response","34","513278","0.0-17.0-0.6","db1c6c1b-8e99-41cf-9b98-c9c736aa8335","1000","
                  <p style=""text-align: center;"">₪4
                                                <br>25%</p>
                  <p id=""wtp"" style=""text-align:center; margin-top: 0px; margin-bottom: 0px; font-size: 40px"";>&ensp;</p>","-","viewing","0","1","6C,29B,30C","","","","","","","","","","","","","","","","","",""
"","","","","","html-slider-response","35","514997","0.0-17.0-1.6","db1c6c1b-8e99-41cf-9b98-c9c736aa8335","1719","
                  <p style=""text-align: center;"">₪4
                                                <br>25%</p>
                  <p id=""wtp"" style=""text-align:center; margin-top: 0px; margin-bottom: 0px; font-size: 40px"";>מוכנים לשלם: <span id=""c_p_y""></span></p>","0","evaluation","48","1","6C,29B,30C","25","4","0","","","","","","","","","","","","","","",""
"","","","","","html-keyboard-response","36","516425","0.0-17.0-2.6","db1c6c1b-8e99-41cf-9b98-c9c736aa8335","null","<p style=""text-align: center;"">+</p>","null","fixation","","","","","","","","","","","","","","","","","","","","",""
"","","","","","html-slider-response","37","517433","0.0-17.0-0.7","db1c6c1b-8e99-41cf-9b98-c9c736aa8335","1000","
                  <p style=""text-align: center;"">₪43
                                                <br>60%</p>
                  <p id=""wtp"" style=""text-align:center; margin-top: 0px; margin-bottom: 0px; font-size: 40px"";>&ensp;</p>","-","viewing","0","17","2A,7A,9A,15B","","","","","","","","","","","","","","","","","",""
"","","","","","html-slider-response","38","519517","0.0-17.0-1.7","db1c6c1b-8e99-41cf-9b98-c9c736aa8335","2082","
                  <p style=""text-align: center;"">₪43
                                                <br>60%</p>
                  <p id=""wtp"" style=""text-align:center; margin-top: 0px; margin-bottom: 0px; font-size: 40px"";>מוכנים לשלם: <span id=""c_p_y""></span></p>","12","evaluation","51","17","2A,7A,9A,15B","60","43","13","","","","","","","","","","","","","","",""
"","","","","","html-keyboard-response","39","520649","0.0-17.0-2.7","db1c6c1b-8e99-41cf-9b98-c9c736aa8335","null","<p style=""text-align: center;"">+</p>","null","fixation","","","","","","","","","","","","","","","","","","","","",""
"","","","","","html-slider-response","40","521664","0.0-17.0-0.8","db1c6c1b-8e99-41cf-9b98-c9c736aa8335","1000","
                  <p style=""text-align: center;"">₪11
                                                <br>25%</p>
                  <p id=""wtp"" style=""text-align:center; margin-top: 0px; margin-bottom: 0px; font-size: 40px"";>&ensp;</p>","-","viewing","0","5","12A,27B,28B,30B","","","","","","","","","","","","","","","","","",""
"","","","","","html-slider-response","41","522957","0.0-17.0-1.8","db1c6c1b-8e99-41cf-9b98-c9c736aa8335","1292","
                  <p style=""text-align: center;"">₪11
                                                <br>25%</p>
                  <p id=""wtp"" style=""text-align:center; margin-top: 0px; margin-bottom: 0px; font-size: 40px"";>מוכנים לשלם: <span id=""c_p_y""></span></p>","0","evaluation","40","5","12A,27B,28B,30B","25","11","0","","","","","","","","","","","","","","",""
"","","","","","html-keyboard-response","42","523584","0.0-17.0-2.8","db1c6c1b-8e99-41cf-9b98-c9c736aa8335","null","<p style=""text-align: center;"">+</p>","null","fixation","","","","","","","","","","","","","","","","","","","","",""
"","","","","","html-slider-response","43","524586","0.0-17.0-0.9","db1c6c1b-8e99-41cf-9b98-c9c736aa8335","1000","
                  <p style=""text-align: center;"">₪76
                                                <br>65%</p>
                  <p id=""wtp"" style=""text-align:center; margin-top: 0px; margin-bottom: 0px; font-size: 40px"";>&ensp;</p>","-","viewing","0","29","8C,19A,24B","","","","","","","","","","","","","","","","","",""
"","","","","","html-slider-response","44","526573","0.0-17.0-1.9","db1c6c1b-8e99-41cf-9b98-c9c736aa8335","1986","
                  <p style=""text-align: center;"">₪76
                                                <br>65%</p>
                  <p id=""wtp"" style=""text-align:center; margin-top: 0px; margin-bottom: 0px; font-size: 40px"";>מוכנים לשלם: <span id=""c_p_y""></span></p>","30","evaluation","46","29","8C,19A,24B","65","76","30","","","","","","","","","","","","","","",""
"","","","","","html-keyboard-response","45","527936","0.0-17.0-2.9","db1c6c1b-8e99-41cf-9b98-c9c736aa8335","null","<p style=""text-align: center;"">+</p>","null","fixation","","","","","","","","","","","","","","","","","","","","",""
"","","","","","html-slider-response","46","528941","0.0-17.0-0.10","db1c6c1b-8e99-41cf-9b98-c9c736aa8335","1000","
                  <p style=""text-align: center;"">₪36
                                                <br>75%</p>
                  <p id=""wtp"" style=""text-align:center; margin-top: 0px; margin-bottom: 0px; font-size: 40px"";>&ensp;</p>","-","viewing","0","14","4B,5A,13B,16B","","","","","","","","","","","","","","","","","",""
"","","","","","html-slider-response","47","530661","0.0-17.0-1.10","db1c6c1b-8e99-41cf-9b98-c9c736aa8335","1719","
                  <p style=""text-align: center;"">₪36
                                                <br>75%</p>
                  <p id=""wtp"" style=""text-align:center; margin-top: 0px; margin-bottom: 0px; font-size: 40px"";>מוכנים לשלם: <span id=""c_p_y""></span></p>","10","evaluation","53","14","4B,5A,13B,16B","75","36","10","","","","","","","","","","","","","","",""
"","","","","","html-keyboard-response","48","531446","0.0-17.0-2.10","db1c6c1b-8e99-41cf-9b98-c9c736aa8335","null","<p style=""text-align: center;"">+</p>","null","fixation","","","","","","","","","","","","","","","","","","","","",""
"","","","","","html-slider-response","49","532456","0.0-17.0-0.11","db1c6c1b-8e99-41cf-9b98-c9c736aa8335","1000","
                  <p style=""text-align: center;"">₪18
                                                <br>25%</p>
                  <p id=""wtp"" style=""text-align:center; margin-top: 0px; margin-bottom: 0px; font-size: 40px"";>&ensp;</p>","-","viewing","0","9","14A,23A","","","","","","","","","","","","","","","","","",""
"","","","","","html-slider-response","50","533349","0.0-17.0-1.11","db1c6c1b-8e99-41cf-9b98-c9c736aa8335","892","
                  <p style=""text-align: center;"">₪18
                                                <br>25%</p>
                  <p id=""wtp"" style=""text-align:center; margin-top: 0px; margin-bottom: 0px; font-size: 40px"";>מוכנים לשלם: <span id=""c_p_y""></span></p>","0","evaluation","40","9","14A,23A","25","18","0","","","","","","","","","","","","","","",""
"","","","","","html-keyboard-response","51","534711","0.0-17.0-2.11","db1c6c1b-8e99-41cf-9b98-c9c736aa8335","null","<p style=""text-align: center;"">+</p>","null","fixation","","","","","","","","","","","","","","","","","","","","",""
"","","","","","html-slider-response","52","535713","0.0-17.0-0.12","db1c6c1b-8e99-41cf-9b98-c9c736aa8335","1000","
                  <p style=""text-align: center;"">₪16
                                                <br>20%</p>
                  <p id=""wtp"" style=""text-align:center; margin-top: 0px; margin-bottom: 0px; font-size: 40px"";>&ensp;</p>","-","viewing","0","8","14C,17A,20C,27A","","","","","","","","","","","","","","","","","",""
"","","","","","html-slider-response","53","537453","0.0-17.0-1.12","db1c6c1b-8e99-41cf-9b98-c9c736aa8335","1739","
                  <p style=""text-align: center;"">₪16
                                                <br>20%</p>
                  <p id=""wtp"" style=""text-align:center; margin-top: 0px; margin-bottom: 0px; font-size: 40px"";>מוכנים לשלם: <span id=""c_p_y""></span></p>","0","evaluation","30","8","14C,17A,20C,27A","20","16","0","","","","","","","","","","","","","","",""
"","","","","","html-keyboard-response","54","538750","0.0-17.0-2.12","db1c6c1b-8e99-41cf-9b98-c9c736aa8335","null","<p style=""text-align: center;"">+</p>","null","fixation","","","","","","","","","","","","","","","","","","","","",""
"","","","","","html-slider-response","55","539763","0.0-17.0-0.13","db1c6c1b-8e99-41cf-9b98-c9c736aa8335","1000","
                  <p style=""text-align: center;"">₪71
                                                <br>55%</p>
                  <p id=""wtp"" style=""text-align:center; margin-top: 0px; margin-bottom: 0px; font-size: 40px"";>&ensp;</p>","-","viewing","0","27","5B,18A","","","","","","","","","","","","","","","","","",""
"","","","","","html-slider-response","56","541445","0.0-17.0-1.13","db1c6c1b-8e99-41cf-9b98-c9c736aa8335","1681","
                  <p style=""text-align: center;"">₪71
                                                <br>55%</p>
                  <p id=""wtp"" style=""text-align:center; margin-top: 0px; margin-bottom: 0px; font-size: 40px"";>מוכנים לשלם: <span id=""c_p_y""></span></p>","34","evaluation","56","27","5B,18A","55","71","34","","","","","","","","","","","","","","",""
"","","","","","html-keyboard-response","57","542928","0.0-17.0-2.13","db1c6c1b-8e99-41cf-9b98-c9c736aa8335","null","<p style=""text-align: center;"">+</p>","null","fixation","","","","","","","","","","","","","","","","","","","","",""
"","","","","","html-slider-response","58","543930","0.0-17.0-0.14","db1c6c1b-8e99-41cf-9b98-c9c736aa8335","1000","
                  <p style=""text-align: center;"">₪61
                                                <br>45%</p>
                  <p id=""wtp"" style=""text-align:center; margin-top: 0px; margin-bottom: 0px; font-size: 40px"";>&ensp;</p>","-","viewing","0","22","10A,11A","","","","","","","","","","","","","","","","","",""
"","","","","","html-slider-response","59","545534","0.0-17.0-1.14","db1c6c1b-8e99-41cf-9b98-c9c736aa8335","1602","
                  <p style=""text-align: center;"">₪61
                                                <br>45%</p>
                  <p id=""wtp"" style=""text-align:center; margin-top: 0px; margin-bottom: 0px; font-size: 40px"";>מוכנים לשלם: <span id=""c_p_y""></span></p>","35","evaluation","7","22","10A,11A","45","61","35","","","","","","","","","","","","","","",""
"","","","","","html-keyboard-response","60","546772","0.0-17.0-2.14","db1c6c1b-8e99-41cf-9b98-c9c736aa8335","null","<p style=""text-align: center;"">+</p>","null","fixation","","","","","","","","","","","","","","","","","","","","",""
"","","","","","html-slider-response","61","547783","0.0-17.0-0.15","db1c6c1b-8e99-41cf-9b98-c9c736aa8335","1000","
                  <p style=""text-align: center;"">₪58
                                                <br>30%</p>
                  <p id=""wtp"" style=""text-align:center; margin-top: 0px; margin-bottom: 0px; font-size: 40px"";>&ensp;</p>","-","viewing","0","19","13C,30A","","","","","","","","","","","","","","","","","",""
"","","","","","html-slider-response","62","550677","0.0-17.0-1.15","db1c6c1b-8e99-41cf-9b98-c9c736aa8335","2893","
                  <p style=""text-align: center;"">₪58
                                                <br>30%</p>
                  <p id=""wtp"" style=""text-align:center; margin-top: 0px; margin-bottom: 0px; font-size: 40px"";>מוכנים לשלם: <span id=""c_p_y""></span></p>","0","evaluation","12","19","13C,30A","30","58","0","","","","","","","","","","","","","","",""
"","","","","","html-keyboard-response","63","551852","0.0-17.0-2.15","db1c6c1b-8e99-41cf-9b98-c9c736aa8335","null","<p style=""text-align: center;"">+</p>","null","fixation","","","","","","","","","","","","","","","","","","","","",""
"","","","","","html-slider-response","64","552856","0.0-17.0-0.16","db1c6c1b-8e99-41cf-9b98-c9c736aa8335","1000","
                  <p style=""text-align: center;"">₪58
                                                <br>40%</p>
                  <p id=""wtp"" style=""text-align:center; margin-top: 0px; margin-bottom: 0px; font-size: 40px"";>&ensp;</p>","-","viewing","0","20","10C,13A,19C,21B","","","","","","","","","","","","","","","","","",""
"","","","","","html-slider-response","65","554606","0.0-17.0-1.16","db1c6c1b-8e99-41cf-9b98-c9c736aa8335","1749","
                  <p style=""text-align: center;"">₪58
                                                <br>40%</p>
                  <p id=""wtp"" style=""text-align:center; margin-top: 0px; margin-bottom: 0px; font-size: 40px"";>מוכנים לשלם: <span id=""c_p_y""></span></p>","7","evaluation","29","20","10C,13A,19C,21B","40","58","7","","","","","","","","","","","","","","",""
"","","","","","html-keyboard-response","66","555838","0.0-17.0-2.16","db1c6c1b-8e99-41cf-9b98-c9c736aa8335","null","<p style=""text-align: center;"">+</p>","null","fixation","","","","","","","","","","","","","","","","","","","","",""
"","","","","","html-slider-response","67","556845","0.0-17.0-0.17","db1c6c1b-8e99-41cf-9b98-c9c736aa8335","1000","
                  <p style=""text-align: center;"">₪39
                                                <br>60%</p>
                  <p id=""wtp"" style=""text-align:center; margin-top: 0px; margin-bottom: 0px; font-size: 40px"";>&ensp;</p>","-","viewing","0","15","9C,25B","","","","","","","","","","","","","","","","","",""
"","","","","","html-slider-response","68","558822","0.0-17.0-1.17","db1c6c1b-8e99-41cf-9b98-c9c736aa8335","1976","
                  <p style=""text-align: center;"">₪39
                                                <br>60%</p>
                  <p id=""wtp"" style=""text-align:center; margin-top: 0px; margin-bottom: 0px; font-size: 40px"";>מוכנים לשלם: <span id=""c_p_y""></span></p>","11","evaluation","71","15","9C,25B","60","39","11","","","","","","","","","","","","","","",""
"","","","","","html-keyboard-response","69","560235","0.0-17.0-2.17","db1c6c1b-8e99-41cf-9b98-c9c736aa8335","null","<p style=""text-align: center;"">+</p>","null","fixation","","","","","","","","","","","","","","","","","","","","",""
"","","","","","html-slider-response","70","561245","0.0-17.0-0.18","db1c6c1b-8e99-41cf-9b98-c9c736aa8335","1000","
                  <p style=""text-align: center;"">₪36
                                                <br>60%</p>
                  <p id=""wtp"" style=""text-align:center; margin-top: 0px; margin-bottom: 0px; font-size: 40px"";>&ensp;</p>","-","viewing","0","12","1C,7C,15C","","","","","","","","","","","","","","","","","",""
"","","","","","html-slider-response","71","562646","0.0-17.0-1.18","db1c6c1b-8e99-41cf-9b98-c9c736aa8335","1400","
                  <p style=""text-align: center;"">₪36
                                                <br>60%</p>
                  <p id=""wtp"" style=""text-align:center; margin-top: 0px; margin-bottom: 0px; font-size: 40px"";>מוכנים לשלם: <span id=""c_p_y""></span></p>","10","evaluation","14","12","1C,7C,15C","60","36","10","","","","","","","","","","","","","","",""
"","","","","","html-keyboard-response","72","564111","0.0-17.0-2.18","db1c6c1b-8e99-41cf-9b98-c9c736aa8335","null","<p style=""text-align: center;"">+</p>","null","fixation","","","","","","","","","","","","","","","","","","","","",""
"","","","","","html-slider-response","73","565118","0.0-17.0-0.19","db1c6c1b-8e99-41cf-9b98-c9c736aa8335","1000","
                  <p style=""text-align: center;"">₪11
                                                <br>75%</p>
                  <p id=""wtp"" style=""text-align:center; margin-top: 0px; margin-bottom: 0px; font-size: 40px"";>&ensp;</p>","-","viewing","0","7","6B,18B,22C,24C,29A","","","","","","","","","","","","","","","","","",""
"","","","","","html-slider-response","74","567550","0.0-17.0-1.19","db1c6c1b-8e99-41cf-9b98-c9c736aa8335","2431","
                  <p style=""text-align: center;"">₪11
                                                <br>75%</p>
                  <p id=""wtp"" style=""text-align:center; margin-top: 0px; margin-bottom: 0px; font-size: 40px"";>מוכנים לשלם: <span id=""c_p_y""></span></p>","2","evaluation","9","7","6B,18B,22C,24C,29A","75","11","3","","","","","","","","","","","","","","",""
"","","","","","html-keyboard-response","75","568359","0.0-17.0-2.19","db1c6c1b-8e99-41cf-9b98-c9c736aa8335","null","<p style=""text-align: center;"">+</p>","null","fixation","","","","","","","","","","","","","","","","","","","","",""
"","","","","","html-slider-response","76","569370","0.0-17.0-0.20","db1c6c1b-8e99-41cf-9b98-c9c736aa8335","1000","
                  <p style=""text-align: center;"">₪4
                                                <br>50%</p>
                  <p id=""wtp"" style=""text-align:center; margin-top: 0px; margin-bottom: 0px; font-size: 40px"";>&ensp;</p>","-","viewing","0","2","4C,17B","","","","","","","","","","","","","","","","","",""
"","","","","","html-slider-response","77","570158","0.0-17.0-1.20","db1c6c1b-8e99-41cf-9b98-c9c736aa8335","787","
                  <p style=""text-align: center;"">₪4
                                                <br>50%</p>
                  <p id=""wtp"" style=""text-align:center; margin-top: 0px; margin-bottom: 0px; font-size: 40px"";>מוכנים לשלם: <span id=""c_p_y""></span></p>","0","evaluation","29","2","4C,17B","50","4","0","","","","","","","","","","","","","","",""
"","","","","","html-keyboard-response","78","571639","0.0-17.0-2.20","db1c6c1b-8e99-41cf-9b98-c9c736aa8335","null","<p style=""text-align: center;"">+</p>","null","fixation","","","","","","","","","","","","","","","","","","","","",""
"","","","","","html-slider-response","79","572653","0.0-17.0-0.21","db1c6c1b-8e99-41cf-9b98-c9c736aa8335","1000","
                  <p style=""text-align: center;"">₪11
                                                <br>45%</p>
                  <p id=""wtp"" style=""text-align:center; margin-top: 0px; margin-bottom: 0px; font-size: 40px"";>&ensp;</p>","-","viewing","0","6","14B,21C,25C","","","","","","","","","","","","","","","","","",""
"","","","","","html-slider-response","80","573230","0.0-17.0-1.21","db1c6c1b-8e99-41cf-9b98-c9c736aa8335","576","
                  <p style=""text-align: center;"">₪11
                                                <br>45%</p>
                  <p id=""wtp"" style=""text-align:center; margin-top: 0px; margin-bottom: 0px; font-size: 40px"";>מוכנים לשלם: <span id=""c_p_y""></span></p>","0","evaluation","23","6","14B,21C,25C","45","11","0","","","","","","","","","","","","","","",""
"","","","","","html-keyboard-response","81","573925","0.0-17.0-2.21","db1c6c1b-8e99-41cf-9b98-c9c736aa8335","null","<p style=""text-align: center;"">+</p>","null","fixation","","","","","","","","","","","","","","","","","","","","",""
"","","","","","html-slider-response","82","574937","0.0-17.0-0.22","db1c6c1b-8e99-41cf-9b98-c9c736aa8335","1000","
                  <p style=""text-align: center;"">₪36
                                                <br>70%</p>
                  <p id=""wtp"" style=""text-align:center; margin-top: 0px; margin-bottom: 0px; font-size: 40px"";>&ensp;</p>","-","viewing","0","13","3A,5C,10B","","","","","","","","","","","","","","","","","",""
"","","","","","html-slider-response","83","576502","0.0-17.0-1.22","db1c6c1b-8e99-41cf-9b98-c9c736aa8335","1564","
                  <p style=""text-align: center;"">₪36
                                                <br>70%</p>
                  <p id=""wtp"" style=""text-align:center; margin-top: 0px; margin-bottom: 0px; font-size: 40px"";>מוכנים לשלם: <span id=""c_p_y""></span></p>","10","evaluation","48","13","3A,5C,10B","70","36","10","","","","","","","","","","","","","","",""
"","","","","","html-keyboard-response","84","577223","0.0-17.0-2.22","db1c6c1b-8e99-41cf-9b98-c9c736aa8335","null","<p style=""text-align: center;"">+</p>","null","fixation","","","","","","","","","","","","","","","","","","","","",""
"","","","","","html-slider-response","85","578235","0.0-17.0-0.23","db1c6c1b-8e99-41cf-9b98-c9c736aa8335","1000","
                  <p style=""text-align: center;"">₪58
                                                <br>45%</p>
                  <p id=""wtp"" style=""text-align:center; margin-top: 0px; margin-bottom: 0px; font-size: 40px"";>&ensp;</p>","-","viewing","0","21","11C,18C,25A","","","","","","","","","","","","","","","","","",""
"","","","","","html-slider-response","86","580190","0.0-17.0-1.23","db1c6c1b-8e99-41cf-9b98-c9c736aa8335","1954","
                  <p style=""text-align: center;"">₪58
                                                <br>45%</p>
                  <p id=""wtp"" style=""text-align:center; margin-top: 0px; margin-bottom: 0px; font-size: 40px"";>מוכנים לשלם: <span id=""c_p_y""></span></p>","26","evaluation","63","21","11C,18C,25A","45","58","26","","","","","","","","","","","","","","",""
"","","","","","html-keyboard-response","87","581191","0.0-17.0-2.23","db1c6c1b-8e99-41cf-9b98-c9c736aa8335","null","<p style=""text-align: center;"">+</p>","null","fixation","","","","","","","","","","","","","","","","","","","","",""
"","","","","","html-slider-response","88","582193","0.0-17.0-0.24","db1c6c1b-8e99-41cf-9b98-c9c736aa8335","1000","
                  <p style=""text-align: center;"">₪11
                                                <br>20%</p>
                  <p id=""wtp"" style=""text-align:center; margin-top: 0px; margin-bottom: 0px; font-size: 40px"";>&ensp;</p>","-","viewing","0","4","12C,17C,23C,28C","","","","","","","","","","","","","","","","","",""
"","","","","","html-slider-response","89","583118","0.0-17.0-1.24","db1c6c1b-8e99-41cf-9b98-c9c736aa8335","924","
                  <p style=""text-align: center;"">₪11
                                                <br>20%</p>
                  <p id=""wtp"" style=""text-align:center; margin-top: 0px; margin-bottom: 0px; font-size: 40px"";>מוכנים לשלם: <span id=""c_p_y""></span></p>","0","evaluation","20","4","12C,17C,23C,28C","20","11","0","","","","","","","","","","","","","","",""
"","","","","","html-keyboard-response","90","584185","0.0-17.0-2.24","db1c6c1b-8e99-41cf-9b98-c9c736aa8335","null","<p style=""text-align: center;"">+</p>","null","fixation","","","","","","","","","","","","","","","","","","","","",""
"","","","","","html-slider-response","91","585186","0.0-17.0-0.25","db1c6c1b-8e99-41cf-9b98-c9c736aa8335","1000","
                  <p style=""text-align: center;"">₪43
                                                <br>75%</p>
                  <p id=""wtp"" style=""text-align:center; margin-top: 0px; margin-bottom: 0px; font-size: 40px"";>&ensp;</p>","-","viewing","0","18","11B,19B,24A,26A","","","","","","","","","","","","","","","","","",""
"","","","","","html-slider-response","92","586734","0.0-17.0-1.25","db1c6c1b-8e99-41cf-9b98-c9c736aa8335","1547","
                  <p style=""text-align: center;"">₪43
                                                <br>75%</p>
                  <p id=""wtp"" style=""text-align:center; margin-top: 0px; margin-bottom: 0px; font-size: 40px"";>מוכנים לשלם: <span id=""c_p_y""></span></p>","28","evaluation","79","18","11B,19B,24A,26A","75","43","28","","","","","","","","","","","","","","",""
"","","","","","html-keyboard-response","93","587356","0.0-17.0-2.25","db1c6c1b-8e99-41cf-9b98-c9c736aa8335","null","<p style=""text-align: center;"">+</p>","null","fixation","","","","","","","","","","","","","","","","","","","","",""
"","","","","","html-slider-response","94","588363","0.0-17.0-0.26","db1c6c1b-8e99-41cf-9b98-c9c736aa8335","1000","
                  <p style=""text-align: center;"">₪79
                                                <br>40%</p>
                  <p id=""wtp"" style=""text-align:center; margin-top: 0px; margin-bottom: 0px; font-size: 40px"";>&ensp;</p>","-","viewing","0","30","9B","","","","","","","","","","","","","","","","","",""
"","","","","","html-slider-response","95","590254","0.0-17.0-1.26","db1c6c1b-8e99-41cf-9b98-c9c736aa8335","1889","
                  <p style=""text-align: center;"">₪79
                                                <br>40%</p>
                  <p id=""wtp"" style=""text-align:center; margin-top: 0px; margin-bottom: 0px; font-size: 40px"";>מוכנים לשלם: <span id=""c_p_y""></span></p>","32","evaluation","47","30","9B","40","79","32","","","","","","","","","","","","","","",""
"","","","","","html-keyboard-response","96","591350","0.0-17.0-2.26","db1c6c1b-8e99-41cf-9b98-c9c736aa8335","null","<p style=""text-align: center;"">+</p>","null","fixation","","","","","","","","","","","","","","","","","","","","",""
"","","","","","html-slider-response","97","592367","0.0-17.0-0.27","db1c6c1b-8e99-41cf-9b98-c9c736aa8335","1000","
                  <p style=""text-align: center;"">₪64
                                                <br>25%</p>
                  <p id=""wtp"" style=""text-align:center; margin-top: 0px; margin-bottom: 0px; font-size: 40px"";>&ensp;</p>","-","viewing","0","24","6A,21A","","","","","","","","","","","","","","","","","",""
"","","","","","html-slider-response","98","593846","0.0-17.0-1.27","db1c6c1b-8e99-41cf-9b98-c9c736aa8335","1478","
                  <p style=""text-align: center;"">₪64
                                                <br>25%</p>
                  <p id=""wtp"" style=""text-align:center; margin-top: 0px; margin-bottom: 0px; font-size: 40px"";>מוכנים לשלם: <span id=""c_p_y""></span></p>","0","evaluation","38","24","6A,21A","25","64","0","","","","","","","","","","","","","","",""
"","","","","","html-keyboard-response","99","594606","0.0-17.0-2.27","db1c6c1b-8e99-41cf-9b98-c9c736aa8335","null","<p style=""text-align: center;"">+</p>","null","fixation","","","","","","","","","","","","","","","","","","","","",""
"","","","","","html-slider-response","100","595619","0.0-17.0-0.28","db1c6c1b-8e99-41cf-9b98-c9c736aa8335","1000","
                  <p style=""text-align: center;"">₪36
                                                <br>30%</p>
                  <p id=""wtp"" style=""text-align:center; margin-top: 0px; margin-bottom: 0px; font-size: 40px"";>&ensp;</p>","-","viewing","0","11","3C,20A,22A","","","","","","","","","","","","","","","","","",""
"","","","","","html-slider-response","101","596382","0.0-17.0-1.28","db1c6c1b-8e99-41cf-9b98-c9c736aa8335","762","
                  <p style=""text-align: center;"">₪36
                                                <br>30%</p>
                  <p id=""wtp"" style=""text-align:center; margin-top: 0px; margin-bottom: 0px; font-size: 40px"";>מוכנים לשלם: <span id=""c_p_y""></span></p>","0","evaluation","0","11","3C,20A,22A","30","36","0","","","","","","","","","","","","","","",""
"","","","","","html-keyboard-response","102","597359","0.0-17.0-2.28","db1c6c1b-8e99-41cf-9b98-c9c736aa8335","null","<p style=""text-align: center;"">+</p>","null","fixation","","","","","","","","","","","","","","","","","","","","",""
"","","","","","html-slider-response","103","598371","0.0-17.0-0.29","db1c6c1b-8e99-41cf-9b98-c9c736aa8335","1000","
                  <p style=""text-align: center;"">₪61
                                                <br>55%</p>
                  <p id=""wtp"" style=""text-align:center; margin-top: 0px; margin-bottom: 0px; font-size: 40px"";>&ensp;</p>","-","viewing","0","23","7B,26B","","","","","","","","","","","","","","","","","",""
"","","","","","html-slider-response","104","599446","0.0-17.0-1.29","db1c6c1b-8e99-41cf-9b98-c9c736aa8335","1074","
                  <p style=""text-align: center;"">₪61
                                                <br>55%</p>
                  <p id=""wtp"" style=""text-align:center; margin-top: 0px; margin-bottom: 0px; font-size: 40px"";>מוכנים לשלם: <span id=""c_p_y""></span></p>","20","evaluation","40","23","7B,26B","55","61","20","","","","","","","","","","","","","","",""
"","","","","","html-keyboard-response","105","600195","0.0-17.0-2.29","db1c6c1b-8e99-41cf-9b98-c9c736aa8335","null","<p style=""text-align: center;"">+</p>","null","fixation","","","","","","","","","","","","","","","","","","","","",""
"","","","","","html-slider-response","106","601209","0.0-17.0-0.30","db1c6c1b-8e99-41cf-9b98-c9c736aa8335","1000","
                  <p style=""text-align: center;"">₪71
                                                <br>45%</p>
                  <p id=""wtp"" style=""text-align:center; margin-top: 0px; margin-bottom: 0px; font-size: 40px"";>&ensp;</p>","-","viewing","0","26","2B,16A","","","","","","","","","","","","","","","","","",""
"","","","","","html-slider-response","107","602926","0.0-17.0-1.30","db1c6c1b-8e99-41cf-9b98-c9c736aa8335","1716","
                  <p style=""text-align: center;"">₪71
                                                <br>45%</p>
                  <p id=""wtp"" style=""text-align:center; margin-top: 0px; margin-bottom: 0px; font-size: 40px"";>מוכנים לשלם: <span id=""c_p_y""></span></p>","30","evaluation","67","26","2B,16A","45","71","30","","","","","","","","","","","","","","",""
"","","","","","html-keyboard-response","108","604191","0.0-17.0-2.30","db1c6c1b-8e99-41cf-9b98-c9c736aa8335","null","<p style=""text-align: center;"">+</p>","null","fixation","","","","","","","","","","","","","","","","","","","","",""
"","","","","","html-keyboard-response","109","605198","0.0-18.0","db1c6c1b-8e99-41cf-9b98-c9c736aa8335","null","<p style=""text-align: center;"">+</p>","null","fixation","","","","","","","","","","","","","","","","","","","","",""
"","","","","","html-keyboard-response","110","607294","0.0-19.0","db1c6c1b-8e99-41cf-9b98-c9c736aa8335","null","<p>הפסקה.
          <br>לחצו כדי להמשיך.</p>","1","scan_wait","","","","","","","","","","","","","","","","","","","","",""
"","","","","","html-keyboard-response","111","608295","0.0-20.0","db1c6c1b-8e99-41cf-9b98-c9c736aa8335","null","<p style=""text-align: center;"">+</p>","null","fixation","","","","","","","","","","","","","","","","","","","","",""
"","","","","","html-slider-response","112","609298","0.0-21.0-0.0","db1c6c1b-8e99-41cf-9b98-c9c736aa8335","1000","
                  <p style=""text-align: center;"">₪4
                                                <br>75%</p>
                  <p id=""wtp"" style=""text-align:center; margin-top: 0px; margin-bottom: 0px; font-size: 40px"";>&ensp;</p>","-","viewing","0","3","12B,20B,23B,27C,29C","","","","","","","","","","","","","","","","","",""
"","","","","","html-slider-response","113","610342","0.0-21.0-1.0","db1c6c1b-8e99-41cf-9b98-c9c736aa8335","1042","
                  <p style=""text-align: center;"">₪4
                                                <br>75%</p>
                  <p id=""wtp"" style=""text-align:center; margin-top: 0px; margin-bottom: 0px; font-size: 40px"";>מוכנים לשלם: <span id=""c_p_y""></span></p>","0","evaluation","50","3","12B,20B,23B,27C,29C","75","4","0","","","","","","","","","","","","","","",""
"","","","","","html-keyboard-response","114","611473","0.0-21.0-2.0","db1c6c1b-8e99-41cf-9b98-c9c736aa8335","null","<p style=""text-align: center;"">+</p>","null","fixation","","","","","","","","","","","","","","","","","","","","",""
"","","","","","html-slider-response","115","612478","0.0-21.0-0.1","db1c6c1b-8e99-41cf-9b98-c9c736aa8335","1000","
                  <p style=""text-align: center;"">₪76
                                                <br>65%</p>
                  <p id=""wtp"" style=""text-align:center; margin-top: 0px; margin-bottom: 0px; font-size: 40px"";>&ensp;</p>","-","viewing","0","29","8C,19A,24B","","","","","","","","","","","","","","","","","",""
"","","","","","html-slider-response","116","614582","0.0-21.0-1.1","db1c6c1b-8e99-41cf-9b98-c9c736aa8335","2102","
                  <p style=""text-align: center;"">₪76
                                                <br>65%</p>
                  <p id=""wtp"" style=""text-align:center; margin-top: 0px; margin-bottom: 0px; font-size: 40px"";>מוכנים לשלם: <span id=""c_p_y""></span></p>","31","evaluation","22","29","8C,19A,24B","65","76","31","","","","","","","","","","","","","","",""
"","","","","","html-keyboard-response","117","615759","0.0-21.0-2.1","db1c6c1b-8e99-41cf-9b98-c9c736aa8335","null","<p style=""text-align: center;"">+</p>","null","fixation","","","","","","","","","","","","","","","","","","","","",""
"","","","","","html-slider-response","118","616766","0.0-21.0-0.2","db1c6c1b-8e99-41cf-9b98-c9c736aa8335","1000","
                  <p style=""text-align: center;"">₪71
                                                <br>55%</p>
                  <p id=""wtp"" style=""text-align:center; margin-top: 0px; margin-bottom: 0px; font-size: 40px"";>&ensp;</p>","-","viewing","0","27","5B,18A","","","","","","","","","","","","","","","","","",""
"","","","","","html-slider-response","119","618190","0.0-21.0-1.2","db1c6c1b-8e99-41cf-9b98-c9c736aa8335","1423","
                  <p style=""text-align: center;"">₪71
                                                <br>55%</p>
                  <p id=""wtp"" style=""text-align:center; margin-top: 0px; margin-bottom: 0px; font-size: 40px"";>מוכנים לשלם: <span id=""c_p_y""></span></p>","28","evaluation","18","27","5B,18A","55","71","28","","","","","","","","","","","","","","",""
"","","","","","html-keyboard-response","120","619085","0.0-21.0-2.2","db1c6c1b-8e99-41cf-9b98-c9c736aa8335","null","<p style=""text-align: center;"">+</p>","null","fixation","","","","","","","","","","","","","","","","","","","","",""
"","","","","","html-slider-response","121","620086","0.0-21.0-0.3","db1c6c1b-8e99-41cf-9b98-c9c736aa8335","1000","
                  <p style=""text-align: center;"">₪4
                                                <br>25%</p>
                  <p id=""wtp"" style=""text-align:center; margin-top: 0px; margin-bottom: 0px; font-size: 40px"";>&ensp;</p>","-","viewing","0","1","6C,29B,30C","","","","","","","","","","","","","","","","","",""
"","","","","","html-slider-response","122","620910","0.0-21.0-1.3","db1c6c1b-8e99-41cf-9b98-c9c736aa8335","822","
                  <p style=""text-align: center;"">₪4
                                                <br>25%</p>
                  <p id=""wtp"" style=""text-align:center; margin-top: 0px; margin-bottom: 0px; font-size: 40px"";>מוכנים לשלם: <span id=""c_p_y""></span></p>","0","evaluation","49","1","6C,29B,30C","25","4","0","","","","","","","","","","","","","","",""
"","","","","","html-keyboard-response","123","621756","0.0-21.0-2.3","db1c6c1b-8e99-41cf-9b98-c9c736aa8335","null","<p style=""text-align: center;"">+</p>","null","fixation","","","","","","","","","","","","","","","","","","","","",""
"","","","","","html-slider-response","124","622760","0.0-21.0-0.4","db1c6c1b-8e99-41cf-9b98-c9c736aa8335","1000","
                  <p style=""text-align: center;"">₪39
                                                <br>60%</p>
                  <p id=""wtp"" style=""text-align:center; margin-top: 0px; margin-bottom: 0px; font-size: 40px"";>&ensp;</p>","-","viewing","0","15","9C,25B","","","","","","","","","","","","","","","","","",""
"","","","","","html-slider-response","125","624646","0.0-21.0-1.4","db1c6c1b-8e99-41cf-9b98-c9c736aa8335","1885","
                  <p style=""text-align: center;"">₪39
                                                <br>60%</p>
                  <p id=""wtp"" style=""text-align:center; margin-top: 0px; margin-bottom: 0px; font-size: 40px"";>מוכנים לשלם: <span id=""c_p_y""></span></p>","7","evaluation","50","15","9C,25B","60","39","8","","","","","","","","","","","","","","",""
"","","","","","html-keyboard-response","126","625635","0.0-21.0-2.4","db1c6c1b-8e99-41cf-9b98-c9c736aa8335","null","<p style=""text-align: center;"">+</p>","null","fixation","","","","","","","","","","","","","","","","","","","","",""
"","","","","","html-slider-response","127","626646","0.0-21.0-0.5","db1c6c1b-8e99-41cf-9b98-c9c736aa8335","1000","
                  <p style=""text-align: center;"">₪64
                                                <br>50%</p>
                  <p id=""wtp"" style=""text-align:center; margin-top: 0px; margin-bottom: 0px; font-size: 40px"";>&ensp;</p>","-","viewing","0","25","1B,3B,4A","","","","","","","","","","","","","","","","","",""
"","","","","","html-slider-response","128","628606","0.0-21.0-1.5","db1c6c1b-8e99-41cf-9b98-c9c736aa8335","1958","
                  <p style=""text-align: center;"">₪64
                                                <br>50%</p>
                  <p id=""wtp"" style=""text-align:center; margin-top: 0px; margin-bottom: 0px; font-size: 40px"";>מוכנים לשלם: <span id=""c_p_y""></span></p>","25","evaluation","40","25","1B,3B,4A","50","64","25","","","","","","","","","","","","","","",""
"","","","","","html-keyboard-response","129","629470","0.0-21.0-2.5","db1c6c1b-8e99-41cf-9b98-c9c736aa8335","null","<p style=""text-align: center;"">+</p>","null","fixation","","","","","","","","","","","","","","","","","","","","",""
"","","","","","html-slider-response","130","630486","0.0-21.0-0.6","db1c6c1b-8e99-41cf-9b98-c9c736aa8335","1000","
                  <p style=""text-align: center;"">₪79
                                                <br>65%</p>
                  <p id=""wtp"" style=""text-align:center; margin-top: 0px; margin-bottom: 0px; font-size: 40px"";>&ensp;</p>","-","viewing","0","31","8A","","","","","","","","","","","","","","","","","",""
"","","","","","html-slider-response","131","631838","0.0-21.0-1.6","db1c6c1b-8e99-41cf-9b98-c9c736aa8335","1351","
                  <p style=""text-align: center;"">₪79
                                                <br>65%</p>
                  <p id=""wtp"" style=""text-align:center; margin-top: 0px; margin-bottom: 0px; font-size: 40px"";>מוכנים לשלם: <span id=""c_p_y""></span></p>","30","evaluation","30","31","8A","65","79","30","","","","","","","","","","","","","","",""
"","","","","","html-keyboard-response","132","633163","0.0-21.0-2.6","db1c6c1b-8e99-41cf-9b98-c9c736aa8335","null","<p style=""text-align: center;"">+</p>","null","fixation","","","","","","","","","","","","","","","","","","","","",""
"","","","","","html-slider-response","133","634168","0.0-21.0-0.7","db1c6c1b-8e99-41cf-9b98-c9c736aa8335","1000","
                  <p style=""text-align: center;"">₪79
                                                <br>40%</p>
                  <p id=""wtp"" style=""text-align:center; margin-top: 0px; margin-bottom: 0px; font-size: 40px"";>&ensp;</p>","-","viewing","0","30","9B","","","","","","","","","","","","","","","","","",""
"","","","","","html-slider-response","134","635621","0.0-21.0-1.7","db1c6c1b-8e99-41cf-9b98-c9c736aa8335","1453","
                  <p style=""text-align: center;"">₪79
                                                <br>40%</p>
                  <p id=""wtp"" style=""text-align:center; margin-top: 0px; margin-bottom: 0px; font-size: 40px"";>מוכנים לשלם: <span id=""c_p_y""></span></p>","27","evaluation","36","30","9B","40","79","27","","","","","","","","","","","","","","",""
"","","","","","html-keyboard-response","135","636311","0.0-21.0-2.7","db1c6c1b-8e99-41cf-9b98-c9c736aa8335","null","<p style=""text-align: center;"">+</p>","null","fixation","","","","","","","","","","","","","","","","","","","","",""
"","","","","","html-slider-response","136","637320","0.0-21.0-0.8","db1c6c1b-8e99-41cf-9b98-c9c736aa8335","1000","
                  <p style=""text-align: center;"">₪36
                                                <br>30%</p>
                  <p id=""wtp"" style=""text-align:center; margin-top: 0px; margin-bottom: 0px; font-size: 40px"";>&ensp;</p>","-","viewing","0","11","3C,20A,22A","","","","","","","","","","","","","","","","","",""
"","","","","","html-slider-response","137","638582","0.0-21.0-1.8","db1c6c1b-8e99-41cf-9b98-c9c736aa8335","1260","
                  <p style=""text-align: center;"">₪36
                                                <br>30%</p>
                  <p id=""wtp"" style=""text-align:center; margin-top: 0px; margin-bottom: 0px; font-size: 40px"";>מוכנים לשלם: <span id=""c_p_y""></span></p>","6","evaluation","70","11","3C,20A,22A","30","36","7","","","","","","","","","","","","","","",""
"","","","","","html-keyboard-response","138","639908","0.0-21.0-2.8","db1c6c1b-8e99-41cf-9b98-c9c736aa8335","null","<p style=""text-align: center;"">+</p>","null","fixation","","","","","","","","","","","","","","","","","","","","",""
"","","","","","html-slider-response","139","640909","0.0-21.0-0.9","db1c6c1b-8e99-41cf-9b98-c9c736aa8335","1000","
                  <p style=""text-align: center;"">₪4
                                                <br>50%</p>
                  <p id=""wtp"" style=""text-align:center; margin-top: 0px; margin-bottom: 0px; font-size: 40px"";>&ensp;</p>","-","viewing","0","2","4C,17B","","","","","","","","","","","","","","","","","",""
"","","","","","html-slider-response","140","641686","0.0-21.0-1.9","db1c6c1b-8e99-41cf-9b98-c9c736aa8335","775","
                  <p style=""text-align: center;"">₪4
                                                <br>50%</p>
                  <p id=""wtp"" style=""text-align:center; margin-top: 0px; margin-bottom: 0px; font-size: 40px"";>מוכנים לשלם: <span id=""c_p_y""></span></p>","0","evaluation","69","2","4C,17B","50","4","0","","","","","","","","","","","","","","",""
"","","","","","html-keyboard-response","141","642329","0.0-21.0-2.9","db1c6c1b-8e99-41cf-9b98-c9c736aa8335","null","<p style=""text-align: center;"">+</p>","null","fixation","","","","","","","","","","","","","","","","","","","","",""
"","","","","","html-slider-response","142","643342","0.0-21.0-0.10","db1c6c1b-8e99-41cf-9b98-c9c736aa8335","1000","
                  <p style=""text-align: center;"">₪11
                                                <br>45%</p>
                  <p id=""wtp"" style=""text-align:center; margin-top: 0px; margin-bottom: 0px; font-size: 40px"";>&ensp;</p>","-","viewing","0","6","14B,21C,25C","","","","","","","","","","","","","","","","","",""
"","","","","","html-slider-response","143","644358","0.0-21.0-1.10","db1c6c1b-8e99-41cf-9b98-c9c736aa8335","1014","
                  <p style=""text-align: center;"">₪11
                                                <br>45%</p>
                  <p id=""wtp"" style=""text-align:center; margin-top: 0px; margin-bottom: 0px; font-size: 40px"";>מוכנים לשלם: <span id=""c_p_y""></span></p>","0","evaluation","46","6","14B,21C,25C","45","11","0","","","","","","","","","","","","","","",""
"","","","","","html-keyboard-response","144","644888","0.0-21.0-2.10","db1c6c1b-8e99-41cf-9b98-c9c736aa8335","null","<p style=""text-align: center;"">+</p>","null","fixation","","","","","","","","","","","","","","","","","","","","",""
"","","","","","html-slider-response","145","645892","0.0-21.0-0.11","db1c6c1b-8e99-41cf-9b98-c9c736aa8335","1000","
                  <p style=""text-align: center;"">₪18
                                                <br>25%</p>
                  <p id=""wtp"" style=""text-align:center; margin-top: 0px; margin-bottom: 0px; font-size: 40px"";>&ensp;</p>","-","viewing","0","9","14A,23A","","","","","","","","","","","","","","","","","",""
"","","","","","html-slider-response","146","647926","0.0-21.0-1.11","db1c6c1b-8e99-41cf-9b98-c9c736aa8335","2033","
                  <p style=""text-align: center;"">₪18
                                                <br>25%</p>
                  <p id=""wtp"" style=""text-align:center; margin-top: 0px; margin-bottom: 0px; font-size: 40px"";>מוכנים לשלם: <span id=""c_p_y""></span></p>","0","evaluation","64","9","14A,23A","25","18","0","","","","","","","","","","","","","","",""
"","","","","","html-keyboard-response","147","648844","0.0-21.0-2.11","db1c6c1b-8e99-41cf-9b98-c9c736aa8335","null","<p style=""text-align: center;"">+</p>","null","fixation","","","","","","","","","","","","","","","","","","","","",""
"","","","","","html-slider-response","148","649846","0.0-21.0-0.12","db1c6c1b-8e99-41cf-9b98-c9c736aa8335","1000","
                  <p style=""text-align: center;"">₪64
                                                <br>25%</p>
                  <p id=""wtp"" style=""text-align:center; margin-top: 0px; margin-bottom: 0px; font-size: 40px"";>&ensp;</p>","-","viewing","0","24","6A,21A","","","","","","","","","","","","","","","","","",""
"","","","","","html-slider-response","149","652774","0.0-21.0-1.12","db1c6c1b-8e99-41cf-9b98-c9c736aa8335","2927","
                  <p style=""text-align: center;"">₪64
                                                <br>25%</p>
                  <p id=""wtp"" style=""text-align:center; margin-top: 0px; margin-bottom: 0px; font-size: 40px"";>מוכנים לשלם: <span id=""c_p_y""></span></p>","15","evaluation","44","24","6A,21A","25","64","15","","","","","","","","","","","","","","",""
"","","","","","html-keyboard-response","150","653459","0.0-21.0-2.12","db1c6c1b-8e99-41cf-9b98-c9c736aa8335","null","<p style=""text-align: center;"">+</p>","null","fixation","","","","","","","","","","","","","","","","","","","","",""
"","","","","","html-slider-response","151","654470","0.0-21.0-0.13","db1c6c1b-8e99-41cf-9b98-c9c736aa8335","1000","
                  <p style=""text-align: center;"">₪11
                                                <br>25%</p>
                  <p id=""wtp"" style=""text-align:center; margin-top: 0px; margin-bottom: 0px; font-size: 40px"";>&ensp;</p>","-","viewing","0","5","12A,27B,28B,30B","","","","","","","","","","","","","","","","","",""
"","","","","","html-slider-response","152","655973","0.0-21.0-1.13","db1c6c1b-8e99-41cf-9b98-c9c736aa8335","1503","
                  <p style=""text-align: center;"">₪11
                                                <br>25%</p>
                  <p id=""wtp"" style=""text-align:center; margin-top: 0px; margin-bottom: 0px; font-size: 40px"";>מוכנים לשלם: <span id=""c_p_y""></span></p>","0","evaluation","5","5","12A,27B,28B,30B","25","11","0","","","","","","","","","","","","","","",""
"","","","","","html-keyboard-response","153","656630","0.0-21.0-2.13","db1c6c1b-8e99-41cf-9b98-c9c736aa8335","null","<p style=""text-align: center;"">+</p>","null","fixation","","","","","","","","","","","","","","","","","","","","",""
"","","","","","html-slider-response","154","657643","0.0-21.0-0.14","db1c6c1b-8e99-41cf-9b98-c9c736aa8335","1000","
                  <p style=""text-align: center;"">₪36
                                                <br>60%</p>
                  <p id=""wtp"" style=""text-align:center; margin-top: 0px; margin-bottom: 0px; font-size: 40px"";>&ensp;</p>","-","viewing","0","12","1C,7C,15C","","","","","","","","","","","","","","","","","",""
"","","","","","html-slider-response","155","660302","0.0-21.0-1.14","db1c6c1b-8e99-41cf-9b98-c9c736aa8335","2657","
                  <p style=""text-align: center;"">₪36
                                                <br>60%</p>
                  <p id=""wtp"" style=""text-align:center; margin-top: 0px; margin-bottom: 0px; font-size: 40px"";>מוכנים לשלם: <span id=""c_p_y""></span></p>","6","evaluation","16","12","1C,7C,15C","60","36","6","","","","","","","","","","","","","","",""
"","","","","","html-keyboard-response","156","661605","0.0-21.0-2.14","db1c6c1b-8e99-41cf-9b98-c9c736aa8335","null","<p style=""text-align: center;"">+</p>","null","fixation","","","","","","","","","","","","","","","","","","","","",""
"","","","","","html-slider-response","157","662607","0.0-21.0-0.15","db1c6c1b-8e99-41cf-9b98-c9c736aa8335","1000","
                  <p style=""text-align: center;"">₪11
                                                <br>75%</p>
                  <p id=""wtp"" style=""text-align:center; margin-top: 0px; margin-bottom: 0px; font-size: 40px"";>&ensp;</p>","-","viewing","0","7","6B,18B,22C,24C,29A","","","","","","","","","","","","","","","","","",""
"","","","","","html-slider-response","158","663430","0.0-21.0-1.15","db1c6c1b-8e99-41cf-9b98-c9c736aa8335","821","
                  <p style=""text-align: center;"">₪11
                                                <br>75%</p>
                  <p id=""wtp"" style=""text-align:center; margin-top: 0px; margin-bottom: 0px; font-size: 40px"";>מוכנים לשלם: <span id=""c_p_y""></span></p>","0","evaluation","4","7","6B,18B,22C,24C,29A","75","11","0","","","","","","","","","","","","","","",""
"","","","","","html-keyboard-response","159","664195","0.0-21.0-2.15","db1c6c1b-8e99-41cf-9b98-c9c736aa8335","null","<p style=""text-align: center;"">+</p>","null","fixation","","","","","","","","","","","","","","","","","","","","",""
"","","","","","html-slider-response","160","665202","0.0-21.0-0.16","db1c6c1b-8e99-41cf-9b98-c9c736aa8335","1000","
                  <p style=""text-align: center;"">₪43
                                                <br>75%</p>
                  <p id=""wtp"" style=""text-align:center; margin-top: 0px; margin-bottom: 0px; font-size: 40px"";>&ensp;</p>","-","viewing","0","18","11B,19B,24A,26A","","","","","","","","","","","","","","","","","",""
"","","","","","html-slider-response","161","668461","0.0-21.0-1.16","db1c6c1b-8e99-41cf-9b98-c9c736aa8335","3258","
                  <p style=""text-align: center;"">₪43
                                                <br>75%</p>
                  <p id=""wtp"" style=""text-align:center; margin-top: 0px; margin-bottom: 0px; font-size: 40px"";>מוכנים לשלם: <span id=""c_p_y""></span></p>","20","evaluation","24","18","11B,19B,24A,26A","75","43","20","","","","","","","","","","","","","","",""
"","","","","","html-keyboard-response","162","669719","0.0-21.0-2.16","db1c6c1b-8e99-41cf-9b98-c9c736aa8335","null","<p style=""text-align: center;"">+</p>","null","fixation","","","","","","","","","","","","","","","","","","","","",""
"","","","","","html-slider-response","163","670721","0.0-21.0-0.17","db1c6c1b-8e99-41cf-9b98-c9c736aa8335","1000","
                  <p style=""text-align: center;"">₪16
                                                <br>20%</p>
                  <p id=""wtp"" style=""text-align:center; margin-top: 0px; margin-bottom: 0px; font-size: 40px"";>&ensp;</p>","-","viewing","0","8","14C,17A,20C,27A","","","","","","","","","","","","","","","","","",""
"","","","","","html-slider-response","164","671421","0.0-21.0-1.17","db1c6c1b-8e99-41cf-9b98-c9c736aa8335","699","
                  <p style=""text-align: center;"">₪16
                                                <br>20%</p>
                  <p id=""wtp"" style=""text-align:center; margin-top: 0px; margin-bottom: 0px; font-size: 40px"";>מוכנים לשלם: <span id=""c_p_y""></span></p>","0","evaluation","10","8","14C,17A,20C,27A","20","16","0","","","","","","","","","","","","","","",""
"","","","","","html-keyboard-response","165","672082","0.0-21.0-2.17","db1c6c1b-8e99-41cf-9b98-c9c736aa8335","null","<p style=""text-align: center;"">+</p>","null","fixation","","","","","","","","","","","","","","","","","","","","",""
"","","","","","html-slider-response","166","673086","0.0-21.0-0.18","db1c6c1b-8e99-41cf-9b98-c9c736aa8335","1000","
                  <p style=""text-align: center;"">₪61
                                                <br>45%</p>
                  <p id=""wtp"" style=""text-align:center; margin-top: 0px; margin-bottom: 0px; font-size: 40px"";>&ensp;</p>","-","viewing","0","22","10A,11A","","","","","","","","","","","","","","","","","",""
"","","","","","html-slider-response","167","676774","0.0-21.0-1.18","db1c6c1b-8e99-41cf-9b98-c9c736aa8335","3687","
                  <p style=""text-align: center;"">₪61
                                                <br>45%</p>
                  <p id=""wtp"" style=""text-align:center; margin-top: 0px; margin-bottom: 0px; font-size: 40px"";>מוכנים לשלם: <span id=""c_p_y""></span></p>","31","evaluation","48","22","10A,11A","45","61","31","","","","","","","","","","","","","","",""
"","","","","","html-keyboard-response","168","678038","0.0-21.0-2.18","db1c6c1b-8e99-41cf-9b98-c9c736aa8335","null","<p style=""text-align: center;"">+</p>","null","fixation","","","","","","","","","","","","","","","","","","","","",""
"","","","","","html-slider-response","169","679045","0.0-21.0-0.19","db1c6c1b-8e99-41cf-9b98-c9c736aa8335","1000","
                  <p style=""text-align: center;"">₪36
                                                <br>75%</p>
                  <p id=""wtp"" style=""text-align:center; margin-top: 0px; margin-bottom: 0px; font-size: 40px"";>&ensp;</p>","-","viewing","0","14","4B,5A,13B,16B","","","","","","","","","","","","","","","","","",""
"","","","","","html-slider-response","170","682270","0.0-21.0-1.19","db1c6c1b-8e99-41cf-9b98-c9c736aa8335","3223","
                  <p style=""text-align: center;"">₪36
                                                <br>75%</p>
                  <p id=""wtp"" style=""text-align:center; margin-top: 0px; margin-bottom: 0px; font-size: 40px"";>מוכנים לשלם: <span id=""c_p_y""></span></p>","4","evaluation","4","14","4B,5A,13B,16B","75","36","5","","","","","","","","","","","","","","",""
"","","","","","html-keyboard-response","171","683355","0.0-21.0-2.19","db1c6c1b-8e99-41cf-9b98-c9c736aa8335","null","<p style=""text-align: center;"">+</p>","null","fixation","","","","","","","","","","","","","","","","","","","","",""
"","","","","","html-slider-response","172","684370","0.0-21.0-0.20","db1c6c1b-8e99-41cf-9b98-c9c736aa8335","1000","
                  <p style=""text-align: center;"">₪61
                                                <br>55%</p>
                  <p id=""wtp"" style=""text-align:center; margin-top: 0px; margin-bottom: 0px; font-size: 40px"";>&ensp;</p>","-","viewing","0","23","7B,26B","","","","","","","","","","","","","","","","","",""
"","","","","","html-slider-response","173","687102","0.0-21.0-1.20","db1c6c1b-8e99-41cf-9b98-c9c736aa8335","2730","
                  <p style=""text-align: center;"">₪61
                                                <br>55%</p>
                  <p id=""wtp"" style=""text-align:center; margin-top: 0px; margin-bottom: 0px; font-size: 40px"";>מוכנים לשלם: <span id=""c_p_y""></span></p>","23","evaluation","60","23","7B,26B","55","61","23","","","","","","","","","","","","","","",""
"","","","","","html-keyboard-response","174","687818","0.0-21.0-2.20","db1c6c1b-8e99-41cf-9b98-c9c736aa8335","null","<p style=""text-align: center;"">+</p>","null","fixation","","","","","","","","","","","","","","","","","","","","",""
"","","","","","html-slider-response","175","688833","0.0-21.0-0.21","db1c6c1b-8e99-41cf-9b98-c9c736aa8335","1000","
                  <p style=""text-align: center;"">₪58
                                                <br>40%</p>
                  <p id=""wtp"" style=""text-align:center; margin-top: 0px; margin-bottom: 0px; font-size: 40px"";>&ensp;</p>","-","viewing","0","20","10C,13A,19C,21B","","","","","","","","","","","","","","","","","",""
"","","","","","html-slider-response","176","691742","0.0-21.0-1.21","db1c6c1b-8e99-41cf-9b98-c9c736aa8335","2908","
                  <p style=""text-align: center;"">₪58
                                                <br>40%</p>
                  <p id=""wtp"" style=""text-align:center; margin-top: 0px; margin-bottom: 0px; font-size: 40px"";>מוכנים לשלם: <span id=""c_p_y""></span></p>","21","evaluation","11","20","10C,13A,19C,21B","40","58","21","","","","","","","","","","","","","","",""
"","","","","","html-keyboard-response","177","692379","0.0-21.0-2.21","db1c6c1b-8e99-41cf-9b98-c9c736aa8335","null","<p style=""text-align: center;"">+</p>","null","fixation","","","","","","","","","","","","","","","","","","","","",""
"","","","","","html-slider-response","178","693393","0.0-21.0-0.22","db1c6c1b-8e99-41cf-9b98-c9c736aa8335","1000","
                  <p style=""text-align: center;"">₪58
                                                <br>30%</p>
                  <p id=""wtp"" style=""text-align:center; margin-top: 0px; margin-bottom: 0px; font-size: 40px"";>&ensp;</p>","-","viewing","0","19","13C,30A","","","","","","","","","","","","","","","","","",""
"","","","","","html-slider-response","179","696006","0.0-21.0-1.22","db1c6c1b-8e99-41cf-9b98-c9c736aa8335","2612","
                  <p style=""text-align: center;"">₪58
                                                <br>30%</p>
                  <p id=""wtp"" style=""text-align:center; margin-top: 0px; margin-bottom: 0px; font-size: 40px"";>מוכנים לשלם: <span id=""c_p_y""></span></p>","10","evaluation","67","19","13C,30A","30","58","10","","","","","","","","","","","","","","",""
"","","","","","html-keyboard-response","180","697226","0.0-21.0-2.22","db1c6c1b-8e99-41cf-9b98-c9c736aa8335","null","<p style=""text-align: center;"">+</p>","null","fixation","","","","","","","","","","","","","","","","","","","","",""
"","","","","","html-slider-response","181","698242","0.0-21.0-0.23","db1c6c1b-8e99-41cf-9b98-c9c736aa8335","1000","
                  <p style=""text-align: center;"">₪11
                                                <br>20%</p>
                  <p id=""wtp"" style=""text-align:center; margin-top: 0px; margin-bottom: 0px; font-size: 40px"";>&ensp;</p>","-","viewing","0","4","12C,17C,23C,28C","","","","","","","","","","","","","","","","","",""
"","","","","","html-slider-response","182","699613","0.0-21.0-1.23","db1c6c1b-8e99-41cf-9b98-c9c736aa8335","1371","
                  <p style=""text-align: center;"">₪11
                                                <br>20%</p>
                  <p id=""wtp"" style=""text-align:center; margin-top: 0px; margin-bottom: 0px; font-size: 40px"";>מוכנים לשלם: <span id=""c_p_y""></span></p>","0","evaluation","36","4","12C,17C,23C,28C","20","11","0","","","","","","","","","","","","","","",""
"","","","","","html-keyboard-response","183","701042","0.0-21.0-2.23","db1c6c1b-8e99-41cf-9b98-c9c736aa8335","null","<p style=""text-align: center;"">+</p>","null","fixation","","","","","","","","","","","","","","","","","","","","",""
"","","","","","html-slider-response","184","702043","0.0-21.0-0.24","db1c6c1b-8e99-41cf-9b98-c9c736aa8335","1000","
                  <p style=""text-align: center;"">₪71
                                                <br>75%</p>
                  <p id=""wtp"" style=""text-align:center; margin-top: 0px; margin-bottom: 0px; font-size: 40px"";>&ensp;</p>","-","viewing","0","28","8B","","","","","","","","","","","","","","","","","",""
"","","","","","html-slider-response","185","704334","0.0-21.0-1.24","db1c6c1b-8e99-41cf-9b98-c9c736aa8335","2289","
                  <p style=""text-align: center;"">₪71
                                                <br>75%</p>
                  <p id=""wtp"" style=""text-align:center; margin-top: 0px; margin-bottom: 0px; font-size: 40px"";>מוכנים לשלם: <span id=""c_p_y""></span></p>","33","evaluation","25","28","8B","75","71","33","","","","","","","","","","","","","","",""
"","","","","","html-keyboard-response","186","704898","0.0-21.0-2.24","db1c6c1b-8e99-41cf-9b98-c9c736aa8335","null","<p style=""text-align: center;"">+</p>","null","fixation","","","","","","","","","","","","","","","","","","","","",""
"","","","","","html-slider-response","187","705899","0.0-21.0-0.25","db1c6c1b-8e99-41cf-9b98-c9c736aa8335","1000","
                  <p style=""text-align: center;"">₪43
                                                <br>60%</p>
                  <p id=""wtp"" style=""text-align:center; margin-top: 0px; margin-bottom: 0px; font-size: 40px"";>&ensp;</p>","-","viewing","0","17","2A,7A,9A,15B","","","","","","","","","","","","","","","","","",""
"","","","","","html-slider-response","188","707382","0.0-21.0-1.25","db1c6c1b-8e99-41cf-9b98-c9c736aa8335","1482","
                  <p style=""text-align: center;"">₪43
                                                <br>60%</p>
                  <p id=""wtp"" style=""text-align:center; margin-top: 0px; margin-bottom: 0px; font-size: 40px"";>מוכנים לשלם: <span id=""c_p_y""></span></p>","21","evaluation","15","17","2A,7A,9A,15B","60","43","21","","","","","","","","","","","","","","",""
"","","","","","html-keyboard-response","189","708797","0.0-21.0-2.25","db1c6c1b-8e99-41cf-9b98-c9c736aa8335","null","<p style=""text-align: center;"">+</p>","null","fixation","","","","","","","","","","","","","","","","","","","","",""
"","","","","","html-slider-response","190","709800","0.0-21.0-0.26","db1c6c1b-8e99-41cf-9b98-c9c736aa8335","1000","
                  <p style=""text-align: center;"">₪18
                                                <br>50%</p>
                  <p id=""wtp"" style=""text-align:center; margin-top: 0px; margin-bottom: 0px; font-size: 40px"";>&ensp;</p>","-","viewing","0","10","2C,16C,22B,28A","","","","","","","","","","","","","","","","","",""
"","","","","","html-slider-response","191","711086","0.0-21.0-1.26","db1c6c1b-8e99-41cf-9b98-c9c736aa8335","1284","
                  <p style=""text-align: center;"">₪18
                                                <br>50%</p>
                  <p id=""wtp"" style=""text-align:center; margin-top: 0px; margin-bottom: 0px; font-size: 40px"";>מוכנים לשלם: <span id=""c_p_y""></span></p>","0","evaluation","34","10","2C,16C,22B,28A","50","18","0","","","","","","","","","","","","","","",""
"","","","","","html-keyboard-response","192","712298","0.0-21.0-2.26","db1c6c1b-8e99-41cf-9b98-c9c736aa8335","null","<p style=""text-align: center;"">+</p>","null","fixation","","","","","","","","","","","","","","","","","","","","",""
"","","","","","html-slider-response","193","713313","0.0-21.0-0.27","db1c6c1b-8e99-41cf-9b98-c9c736aa8335","1000","
                  <p style=""text-align: center;"">₪39
                                                <br>65%</p>
                  <p id=""wtp"" style=""text-align:center; margin-top: 0px; margin-bottom: 0px; font-size: 40px"";>&ensp;</p>","-","viewing","0","16","1A,15A,26C","","","","","","","","","","","","","","","","","",""
"","","","","","html-slider-response","194","714710","0.0-21.0-1.27","db1c6c1b-8e99-41cf-9b98-c9c736aa8335","1395","
                  <p style=""text-align: center;"">₪39
                                                <br>65%</p>
                  <p id=""wtp"" style=""text-align:center; margin-top: 0px; margin-bottom: 0px; font-size: 40px"";>מוכנים לשלם: <span id=""c_p_y""></span></p>","4","evaluation","54","16","1A,15A,26C","65","39","4","","","","","","","","","","","","","","",""
"","","","","","html-keyboard-response","195","715895","0.0-21.0-2.27","db1c6c1b-8e99-41cf-9b98-c9c736aa8335","null","<p style=""text-align: center;"">+</p>","null","fixation","","","","","","","","","","","","","","","","","","","","",""
"","","","","","html-slider-response","196","716899","0.0-21.0-0.28","db1c6c1b-8e99-41cf-9b98-c9c736aa8335","1000","
                  <p style=""text-align: center;"">₪36
                                                <br>70%</p>
                  <p id=""wtp"" style=""text-align:center; margin-top: 0px; margin-bottom: 0px; font-size: 40px"";>&ensp;</p>","-","viewing","0","13","3A,5C,10B","","","","","","","","","","","","","","","","","",""
"","","","","","html-slider-response","197","717477","0.0-21.0-1.28","db1c6c1b-8e99-41cf-9b98-c9c736aa8335","578","
                  <p style=""text-align: center;"">₪36
                                                <br>70%</p>
                  <p id=""wtp"" style=""text-align:center; margin-top: 0px; margin-bottom: 0px; font-size: 40px"";>מוכנים לשלם: <span id=""c_p_y""></span></p>","0","evaluation","0","13","3A,5C,10B","70","36","0","","","","","","","","","","","","","","",""
"","","","","","html-keyboard-response","198","718333","0.0-21.0-2.28","db1c6c1b-8e99-41cf-9b98-c9c736aa8335","null","<p style=""text-align: center;"">+</p>","null","fixation","","","","","","","","","","","","","","","","","","","","",""
"","","","","","html-slider-response","199","719337","0.0-21.0-0.29","db1c6c1b-8e99-41cf-9b98-c9c736aa8335","1000","
                  <p style=""text-align: center;"">₪71
                                                <br>45%</p>
                  <p id=""wtp"" style=""text-align:center; margin-top: 0px; margin-bottom: 0px; font-size: 40px"";>&ensp;</p>","-","viewing","0","26","2B,16A","","","","","","","","","","","","","","","","","",""
"","","","","","html-slider-response","200","721422","0.0-21.0-1.29","db1c6c1b-8e99-41cf-9b98-c9c736aa8335","2084","
                  <p style=""text-align: center;"">₪71
                                                <br>45%</p>
                  <p id=""wtp"" style=""text-align:center; margin-top: 0px; margin-bottom: 0px; font-size: 40px"";>מוכנים לשלם: <span id=""c_p_y""></span></p>","29","evaluation","24","26","2B,16A","45","71","29","","","","","","","","","","","","","","",""
"","","","","","html-keyboard-response","201","722031","0.0-21.0-2.29","db1c6c1b-8e99-41cf-9b98-c9c736aa8335","null","<p style=""text-align: center;"">+</p>","null","fixation","","","","","","","","","","","","","","","","","","","","",""
"","","","","","html-slider-response","202","723038","0.0-21.0-0.30","db1c6c1b-8e99-41cf-9b98-c9c736aa8335","1000","
                  <p style=""text-align: center;"">₪58
                                                <br>45%</p>
                  <p id=""wtp"" style=""text-align:center; margin-top: 0px; margin-bottom: 0px; font-size: 40px"";>&ensp;</p>","-","viewing","0","21","11C,18C,25A","","","","","","","","","","","","","","","","","",""
"","","","","","html-slider-response","203","724150","0.0-21.0-1.30","db1c6c1b-8e99-41cf-9b98-c9c736aa8335","1110","
                  <p style=""text-align: center;"">₪58
                                                <br>45%</p>
                  <p id=""wtp"" style=""text-align:center; margin-top: 0px; margin-bottom: 0px; font-size: 40px"";>מוכנים לשלם: <span id=""c_p_y""></span></p>","19","evaluation","22","21","11C,18C,25A","45","58","20","","","","","","","","","","","","","","",""
"","","","","","html-keyboard-response","204","724720","0.0-21.0-2.30","db1c6c1b-8e99-41cf-9b98-c9c736aa8335","null","<p style=""text-align: center;"">+</p>","null","fixation","","","","","","","","","","","","","","","","","","","","",""
"","","","","","html-keyboard-response","205","725732","0.0-22.0","db1c6c1b-8e99-41cf-9b98-c9c736aa8335","null","<p style=""text-align: center;"">+</p>","null","fixation","","","","","","","","","","","","","","","","","","","","",""
"","","","","","html-keyboard-response","206","727069","0.0-23.0","db1c6c1b-8e99-41cf-9b98-c9c736aa8335","null","<p>הפסקה.
          <br>לחצו כדי להמשיך.</p>","1","scan_wait","","","","","","","","","","","","","","","","","","","","",""
"","","","","","html-keyboard-response","207","728070","0.0-24.0","db1c6c1b-8e99-41cf-9b98-c9c736aa8335","null","<p style=""text-align: center;"">+</p>","null","fixation","","","","","","","","","","","","","","","","","","","","",""
"","","","","","html-slider-response","208","729073","0.0-25.0-0.0","db1c6c1b-8e99-41cf-9b98-c9c736aa8335","1000","
                  <p style=""text-align: center;"">₪11
                                                <br>45%</p>
                  <p id=""wtp"" style=""text-align:center; margin-top: 0px; margin-bottom: 0px; font-size: 40px"";>&ensp;</p>","-","viewing","0","6","14B,21C,25C","","","","","","","","","","","","","","","","","",""
"","","","","","html-slider-response","209","729886","0.0-25.0-1.0","db1c6c1b-8e99-41cf-9b98-c9c736aa8335","812","
                  <p style=""text-align: center;"">₪11
                                                <br>45%</p>
                  <p id=""wtp"" style=""text-align:center; margin-top: 0px; margin-bottom: 0px; font-size: 40px"";>מוכנים לשלם: <span id=""c_p_y""></span></p>","0","evaluation","73","6","14B,21C,25C","45","11","0","","","","","","","","","","","","","","",""
"","","","","","html-keyboard-response","210","730881","0.0-25.0-2.0","db1c6c1b-8e99-41cf-9b98-c9c736aa8335","null","<p style=""text-align: center;"">+</p>","null","fixation","","","","","","","","","","","","","","","","","","","","",""
"","","","","","html-slider-response","211","731883","0.0-25.0-0.1","db1c6c1b-8e99-41cf-9b98-c9c736aa8335","1000","
                  <p style=""text-align: center;"">₪36
                                                <br>75%</p>
                  <p id=""wtp"" style=""text-align:center; margin-top: 0px; margin-bottom: 0px; font-size: 40px"";>&ensp;</p>","-","viewing","0","14","4B,5A,13B,16B","","","","","","","","","","","","","","","","","",""
"","","","","","html-slider-response","212","732997","0.0-25.0-1.1","db1c6c1b-8e99-41cf-9b98-c9c736aa8335","1113","
                  <p style=""text-align: center;"">₪36
                                                <br>75%</p>
                  <p id=""wtp"" style=""text-align:center; margin-top: 0px; margin-bottom: 0px; font-size: 40px"";>מוכנים לשלם: <span id=""c_p_y""></span></p>","6","evaluation","32","14","4B,5A,13B,16B","75","36","6","","","","","","","","","","","","","","",""
"","","","","","html-keyboard-response","213","734243","0.0-25.0-2.1","db1c6c1b-8e99-41cf-9b98-c9c736aa8335","null","<p style=""text-align: center;"">+</p>","null","fixation","","","","","","","","","","","","","","","","","","","","",""
"","","","","","html-slider-response","214","735249","0.0-25.0-0.2","db1c6c1b-8e99-41cf-9b98-c9c736aa8335","1000","
                  <p style=""text-align: center;"">₪11
                                                <br>25%</p>
                  <p id=""wtp"" style=""text-align:center; margin-top: 0px; margin-bottom: 0px; font-size: 40px"";>&ensp;</p>","-","viewing","0","5","12A,27B,28B,30B","","","","","","","","","","","","","","","","","",""
"","","","","","html-slider-response","215","736229","0.0-25.0-1.2","db1c6c1b-8e99-41cf-9b98-c9c736aa8335","979","
                  <p style=""text-align: center;"">₪11
                                                <br>25%</p>
                  <p id=""wtp"" style=""text-align:center; margin-top: 0px; margin-bottom: 0px; font-size: 40px"";>מוכנים לשלם: <span id=""c_p_y""></span></p>","0","evaluation","11","5","12A,27B,28B,30B","25","11","0","","","","","","","","","","","","","","",""
"","","","","","html-keyboard-response","216","737259","0.0-25.0-2.2","db1c6c1b-8e99-41cf-9b98-c9c736aa8335","null","<p style=""text-align: center;"">+</p>","null","fixation","","","","","","","","","","","","","","","","","","","","",""
"","","","","","html-slider-response","217","738262","0.0-25.0-0.3","db1c6c1b-8e99-41cf-9b98-c9c736aa8335","1000","
                  <p style=""text-align: center;"">₪36
                                                <br>60%</p>
                  <p id=""wtp"" style=""text-align:center; margin-top: 0px; margin-bottom: 0px; font-size: 40px"";>&ensp;</p>","-","viewing","0","12","1C,7C,15C","","","","","","","","","","","","","","","","","",""
"","","","","","html-slider-response","218","739341","0.0-25.0-1.3","db1c6c1b-8e99-41cf-9b98-c9c736aa8335","1079","
                  <p style=""text-align: center;"">₪36
                                                <br>60%</p>
                  <p id=""wtp"" style=""text-align:center; margin-top: 0px; margin-bottom: 0px; font-size: 40px"";>מוכנים לשלם: <span id=""c_p_y""></span></p>","5","evaluation","3","12","1C,7C,15C","60","36","5","","","","","","","","","","","","","","",""
"","","","","","html-keyboard-response","219","740089","0.0-25.0-2.3","db1c6c1b-8e99-41cf-9b98-c9c736aa8335","null","<p style=""text-align: center;"">+</p>","null","fixation","","","","","","","","","","","","","","","","","","","","",""
"","","","","","html-slider-response","220","741090","0.0-25.0-0.4","db1c6c1b-8e99-41cf-9b98-c9c736aa8335","1000","
                  <p style=""text-align: center;"">₪71
                                                <br>75%</p>
                  <p id=""wtp"" style=""text-align:center; margin-top: 0px; margin-bottom: 0px; font-size: 40px"";>&ensp;</p>","-","viewing","0","28","8B","","","","","","","","","","","","","","","","","",""
"","","","","","html-slider-response","221","743069","0.0-25.0-1.4","db1c6c1b-8e99-41cf-9b98-c9c736aa8335","1979","
                  <p style=""text-align: center;"">₪71
                                                <br>75%</p>
                  <p id=""wtp"" style=""text-align:center; margin-top: 0px; margin-bottom: 0px; font-size: 40px"";>מוכנים לשלם: <span id=""c_p_y""></span></p>","30","evaluation","75","28","8B","75","71","30","","","","","","","","","","","","","","",""
"","","","","","html-keyboard-response","222","744380","0.0-25.0-2.4","db1c6c1b-8e99-41cf-9b98-c9c736aa8335","null","<p style=""text-align: center;"">+</p>","null","fixation","","","","","","","","","","","","","","","","","","","","",""
"","","","","","html-slider-response","223","745396","0.0-25.0-0.5","db1c6c1b-8e99-41cf-9b98-c9c736aa8335","1000","
                  <p style=""text-align: center;"">₪18
                                                <br>50%</p>
                  <p id=""wtp"" style=""text-align:center; margin-top: 0px; margin-bottom: 0px; font-size: 40px"";>&ensp;</p>","-","viewing","0","10","2C,16C,22B,28A","","","","","","","","","","","","","","","","","",""
"","","","","","html-slider-response","224","747685","0.0-25.0-1.5","db1c6c1b-8e99-41cf-9b98-c9c736aa8335","2289","
                  <p style=""text-align: center;"">₪18
                                                <br>50%</p>
                  <p id=""wtp"" style=""text-align:center; margin-top: 0px; margin-bottom: 0px; font-size: 40px"";>מוכנים לשלם: <span id=""c_p_y""></span></p>","0","evaluation","8","10","2C,16C,22B,28A","50","18","0","","","","","","","","","","","","","","",""
"","","","","","html-keyboard-response","225","748438","0.0-25.0-2.5","db1c6c1b-8e99-41cf-9b98-c9c736aa8335","null","<p style=""text-align: center;"">+</p>","null","fixation","","","","","","","","","","","","","","","","","","","","",""
"","","","","","html-slider-response","226","749455","0.0-25.0-0.6","db1c6c1b-8e99-41cf-9b98-c9c736aa8335","1000","
                  <p style=""text-align: center;"">₪36
                                                <br>70%</p>
                  <p id=""wtp"" style=""text-align:center; margin-top: 0px; margin-bottom: 0px; font-size: 40px"";>&ensp;</p>","-","viewing","0","13","3A,5C,10B","","","","","","","","","","","","","","","","","",""
"","","","","","html-slider-response","227","752029","0.0-25.0-1.6","db1c6c1b-8e99-41cf-9b98-c9c736aa8335","2574","
                  <p style=""text-align: center;"">₪36
                                                <br>70%</p>
                  <p id=""wtp"" style=""text-align:center; margin-top: 0px; margin-bottom: 0px; font-size: 40px"";>מוכנים לשלם: <span id=""c_p_y""></span></p>","10","evaluation","17","13","3A,5C,10B","70","36","10","","","","","","","","","","","","","","",""
"","","","","","html-keyboard-response","228","752938","0.0-25.0-2.6","db1c6c1b-8e99-41cf-9b98-c9c736aa8335","null","<p style=""text-align: center;"">+</p>","null","fixation","","","","","","","","","","","","","","","","","","","","",""
"","","","","","html-slider-response","229","753945","0.0-25.0-0.7","db1c6c1b-8e99-41cf-9b98-c9c736aa8335","1000","
                  <p style=""text-align: center;"">₪4
                                                <br>75%</p>
                  <p id=""wtp"" style=""text-align:center; margin-top: 0px; margin-bottom: 0px; font-size: 40px"";>&ensp;</p>","-","viewing","0","3","12B,20B,23B,27C,29C","","","","","","","","","","","","","","","","","",""
"","","","","","html-slider-response","230","754813","0.0-25.0-1.7","db1c6c1b-8e99-41cf-9b98-c9c736aa8335","867","
                  <p style=""text-align: center;"">₪4
                                                <br>75%</p>
                  <p id=""wtp"" style=""text-align:center; margin-top: 0px; margin-bottom: 0px; font-size: 40px"";>מוכנים לשלם: <span id=""c_p_y""></span></p>","0","evaluation","36","3","12B,20B,23B,27C,29C","75","4","0","","","","","","","","","","","","","","",""
"","","","","","html-keyboard-response","231","756135","0.0-25.0-2.7","db1c6c1b-8e99-41cf-9b98-c9c736aa8335","null","<p style=""text-align: center;"">+</p>","null","fixation","","","","","","","","","","","","","","","","","","","","",""
"","","","","","html-slider-response","232","757153","0.0-25.0-0.8","db1c6c1b-8e99-41cf-9b98-c9c736aa8335","1000","
                  <p style=""text-align: center;"">₪64
                                                <br>25%</p>
                  <p id=""wtp"" style=""text-align:center; margin-top: 0px; margin-bottom: 0px; font-size: 40px"";>&ensp;</p>","-","viewing","0","24","6A,21A","","","","","","","","","","","","","","","","","",""
"","","","","","html-slider-response","233","760541","0.0-25.0-1.8","db1c6c1b-8e99-41cf-9b98-c9c736aa8335","3387","
                  <p style=""text-align: center;"">₪64
                                                <br>25%</p>
                  <p id=""wtp"" style=""text-align:center; margin-top: 0px; margin-bottom: 0px; font-size: 40px"";>מוכנים לשלם: <span id=""c_p_y""></span></p>","29","evaluation","56","24","6A,21A","25","64","29","","","","","","","","","","","","","","",""
"","","","","","html-keyboard-response","234","761744","0.0-25.0-2.8","db1c6c1b-8e99-41cf-9b98-c9c736aa8335","null","<p style=""text-align: center;"">+</p>","null","fixation","","","","","","","","","","","","","","","","","","","","",""
"","","","","","html-slider-response","235","762746","0.0-25.0-0.9","db1c6c1b-8e99-41cf-9b98-c9c736aa8335","1000","
                  <p style=""text-align: center;"">₪43
                                                <br>75%</p>
                  <p id=""wtp"" style=""text-align:center; margin-top: 0px; margin-bottom: 0px; font-size: 40px"";>&ensp;</p>","-","viewing","0","18","11B,19B,24A,26A","","","","","","","","","","","","","","","","","",""
"","","","","","html-slider-response","236","764789","0.0-25.0-1.9","db1c6c1b-8e99-41cf-9b98-c9c736aa8335","2042","
                  <p style=""text-align: center;"">₪43
                                                <br>75%</p>
                  <p id=""wtp"" style=""text-align:center; margin-top: 0px; margin-bottom: 0px; font-size: 40px"";>מוכנים לשלם: <span id=""c_p_y""></span></p>","20","evaluation","65","18","11B,19B,24A,26A","75","43","20","","","","","","","","","","","","","","",""
"","","","","","html-keyboard-response","237","765331","0.0-25.0-2.9","db1c6c1b-8e99-41cf-9b98-c9c736aa8335","null","<p style=""text-align: center;"">+</p>","null","fixation","","","","","","","","","","","","","","","","","","","","",""
"","","","","","html-slider-response","238","766334","0.0-25.0-0.10","db1c6c1b-8e99-41cf-9b98-c9c736aa8335","1000","
                  <p style=""text-align: center;"">₪4
                                                <br>25%</p>
                  <p id=""wtp"" style=""text-align:center; margin-top: 0px; margin-bottom: 0px; font-size: 40px"";>&ensp;</p>","-","viewing","0","1","6C,29B,30C","","","","","","","","","","","","","","","","","",""
"","","","","","html-slider-response","239","767085","0.0-25.0-1.10","db1c6c1b-8e99-41cf-9b98-c9c736aa8335","750","
                  <p style=""text-align: center;"">₪4
                                                <br>25%</p>
                  <p id=""wtp"" style=""text-align:center; margin-top: 0px; margin-bottom: 0px; font-size: 40px"";>מוכנים לשלם: <span id=""c_p_y""></span></p>","0","evaluation","71","1","6C,29B,30C","25","4","0","","","","","","","","","","","","","","",""
"","","","","","html-keyboard-response","240","767947","0.0-25.0-2.10","db1c6c1b-8e99-41cf-9b98-c9c736aa8335","null","<p style=""text-align: center;"">+</p>","null","fixation","","","","","","","","","","","","","","","","","","","","",""
"","","","","","html-slider-response","241","768949","0.0-25.0-0.11","db1c6c1b-8e99-41cf-9b98-c9c736aa8335","1000","
                  <p style=""text-align: center;"">₪71
                                                <br>45%</p>
                  <p id=""wtp"" style=""text-align:center; margin-top: 0px; margin-bottom: 0px; font-size: 40px"";>&ensp;</p>","-","viewing","0","26","2B,16A","","","","","","","","","","","","","","","","","",""
"","","","","","html-slider-response","242","770845","0.0-25.0-1.11","db1c6c1b-8e99-41cf-9b98-c9c736aa8335","1895","
                  <p style=""text-align: center;"">₪71
                                                <br>45%</p>
                  <p id=""wtp"" style=""text-align:center; margin-top: 0px; margin-bottom: 0px; font-size: 40px"";>מוכנים לשלם: <span id=""c_p_y""></span></p>","26","evaluation","58","26","2B,16A","45","71","26","","","","","","","","","","","","","","",""
"","","","","","html-keyboard-response","243","772195","0.0-25.0-2.11","db1c6c1b-8e99-41cf-9b98-c9c736aa8335","null","<p style=""text-align: center;"">+</p>","null","fixation","","","","","","","","","","","","","","","","","","","","",""
"","","","","","html-slider-response","244","773206","0.0-25.0-0.12","db1c6c1b-8e99-41cf-9b98-c9c736aa8335","1000","
                  <p style=""text-align: center;"">₪79
                                                <br>65%</p>
                  <p id=""wtp"" style=""text-align:center; margin-top: 0px; margin-bottom: 0px; font-size: 40px"";>&ensp;</p>","-","viewing","0","31","8A","","","","","","","","","","","","","","","","","",""
"","","","","","html-slider-response","245","775317","0.0-25.0-1.12","db1c6c1b-8e99-41cf-9b98-c9c736aa8335","2111","
                  <p style=""text-align: center;"">₪79
                                                <br>65%</p>
                  <p id=""wtp"" style=""text-align:center; margin-top: 0px; margin-bottom: 0px; font-size: 40px"";>מוכנים לשלם: <span id=""c_p_y""></span></p>","33","evaluation","29","31","8A","65","79","33","","","","","","","","","","","","","","",""
"","","","","","html-keyboard-response","246","776647","0.0-25.0-2.12","db1c6c1b-8e99-41cf-9b98-c9c736aa8335","null","<p style=""text-align: center;"">+</p>","null","fixation","","","","","","","","","","","","","","","","","","","","",""
"","","","","","html-slider-response","247","777649","0.0-25.0-0.13","db1c6c1b-8e99-41cf-9b98-c9c736aa8335","1000","
                  <p style=""text-align: center;"">₪11
                                                <br>20%</p>
                  <p id=""wtp"" style=""text-align:center; margin-top: 0px; margin-bottom: 0px; font-size: 40px"";>&ensp;</p>","-","viewing","0","4","12C,17C,23C,28C","","","","","","","","","","","","","","","","","",""
"","","","","","html-slider-response","248","778493","0.0-25.0-1.13","db1c6c1b-8e99-41cf-9b98-c9c736aa8335","842","
                  <p style=""text-align: center;"">₪11
                                                <br>20%</p>
                  <p id=""wtp"" style=""text-align:center; margin-top: 0px; margin-bottom: 0px; font-size: 40px"";>מוכנים לשלם: <span id=""c_p_y""></span></p>","0","evaluation","7","4","12C,17C,23C,28C","20","11","0","","","","","","","","","","","","","","",""
"","","","","","html-keyboard-response","249","779660","0.0-25.0-2.13","db1c6c1b-8e99-41cf-9b98-c9c736aa8335","null","<p style=""text-align: center;"">+</p>","null","fixation","","","","","","","","","","","","","","","","","","","","",""
"","","","","","html-slider-response","250","780662","0.0-25.0-0.14","db1c6c1b-8e99-41cf-9b98-c9c736aa8335","1000","
                  <p style=""text-align: center;"">₪58
                                                <br>45%</p>
                  <p id=""wtp"" style=""text-align:center; margin-top: 0px; margin-bottom: 0px; font-size: 40px"";>&ensp;</p>","-","viewing","0","21","11C,18C,25A","","","","","","","","","","","","","","","","","",""
"","","","","","html-slider-response","251","781877","0.0-25.0-1.14","db1c6c1b-8e99-41cf-9b98-c9c736aa8335","1213","
                  <p style=""text-align: center;"">₪58
                                                <br>45%</p>
                  <p id=""wtp"" style=""text-align:center; margin-top: 0px; margin-bottom: 0px; font-size: 40px"";>מוכנים לשלם: <span id=""c_p_y""></span></p>","21","evaluation","7","21","11C,18C,25A","45","58","21","","","","","","","","","","","","","","",""
"","","","","","html-keyboard-response","252","783288","0.0-25.0-2.14","db1c6c1b-8e99-41cf-9b98-c9c736aa8335","null","<p style=""text-align: center;"">+</p>","null","fixation","","","","","","","","","","","","","","","","","","","","",""
