"success","timeout","failed_images","failed_audio","failed_video","trial_type","trial_index","time_elapsed","internal_node_id","subject_id","rt","stimulus","response","part","slider_start","ID","set_ID","prob","amount","last_location","actual_choice","actual_EV","binary_id","trinary_id","catch","direction","A_key","S_key","D_key","choice_prob","choice_amount","chosen_part","potential_prize_prob","potential_prize_amount","won_prize","total_prize","prize_cost","accuracy"
"true","false","[]","[]","[]","preload","0","130","0.0-0.0","5f64f9d2-9afc-4ce5-8201-31c26c727e85","","","","","","","","","","","","","","","","","","","","","","","","","","","",""
"","","","","","html-keyboard-response","1","1030461","0.0-1.0","5f64f9d2-9afc-4ce5-8201-31c26c727e85","null","
          <h1>שלום וברוכים הבאים!</h1>
          <p>לפניכם ניסוי בקבלת החלטות עם שני חלקים.
          <br><br>לחצו על העכבר כדי להמשיך.</p>","0","example","","","","","","","","","","","","","","","","","","","","","","","",""
"","","","","","html-keyboard-response","2","1043813","0.0-2.0","5f64f9d2-9afc-4ce5-8201-31c26c727e85","null","
        <h1>חלק 1</h1>
        <p>בקרוב יוצגו בפניכם הגרלות.
        <br>עליכם לבחור את המחיר המירבי שתהיו מוכנים לשלם כדי להשתתף בהגרלה שתוצג.
        <br>יש לכם תקציב של ₪80 לכל הגרלה. 
        <br>נסו להעריך כל הגרלה בנפרד ולחשוב כמה היא שווה עבורכם, ₪80 זמינים לכל הגרלה בנפרד.
        <br><br>לחצו על העכבר כדי להמשיך.</p>","1","instructions","","","","","","","","","","","","","","","","","","","","","","","",""
"","","","","","html-keyboard-response","3","1049461","0.0-3.0","5f64f9d2-9afc-4ce5-8201-31c26c727e85","null","
        <p>בסוף הניסוי, המחשב יבחר את אחת ההגרלות ויקבע מחיר לכרטיס עבורה. 
        <br>במידה והמחיר שבחרתם נמוך מהמחיר שנבחר על ידי המחשב, לא תשתתפו בהגרלה ותשארו עם מלוא התקציב.
        <br>במידה והמחיר שבחרתם גבוה מהמחיר שנבחר על ידי המחשב, תשלמו את המחיר שנקבע ותשתתפו בהגרלה.
        <br><br>לחצו על העכבר כדי להמשיך.</p>","1","instructions","","","","","","","","","","","","","","","","","","","","","","","",""
"","","","","","html-slider-response","4","1072037","0.0-4.0","5f64f9d2-9afc-4ce5-8201-31c26c727e85","22461","
        <p style=""font-size: 42px;"">נתחיל עם דוגמא: 
        <br>ההגרלה מטה מציעה 65% סיכוי לזכות ב-₪40 
        <br>&emsp;&emsp;&emsp;&emsp;&emsp;&emsp;&emsp;&emsp;&ensp;35% סיכוי לזכות ב-₪0.
        <br><br>מה המחיר המירבי שתהיו מוכנים לשלם על כרטיס להגרלה זו בין 0 ל-₪80?
        <br>הזיזו את העכבר על פני המלבן ולחצו כדי לבצע בחירה.</p>
        
        <p style=""text-align: center;"">₪40<br>65%</p>

        <p id=""wtp"" style=""text-align:center; margin-top: 0px; margin-bottom: 0px; font-size: 40px"";>מוכנים לשלם: <span id=""c_p_y""></span></p>","20","example","31","","","","","","","","","","","","","","","","","","","","","","",""
"","","","","","html-keyboard-response","5","1080701","0.0-5.0","5f64f9d2-9afc-4ce5-8201-31c26c727e85","null","<p>יפה מאוד!
                <br> בחרתם שתהיו מוכנים לשלם ₪20 כדי להשתתף בהגרלה:
                <br><p style=""text-align: center;"">₪40<br>65%</p>
                <p>נשמע נכון?
                <br>נניח שהגרלה זו נבחרה בסוף הניסוי.
                <br>כעת המחשב יקבע מחיר עבורה באקראי.
                <br>לחצו על העכבר להמשך.</p>","1","example","","","","","","","","","","","","","","","","","","","","","","","",""
"","","","","","html-keyboard-response","6","1090133","0.0-6.0","5f64f9d2-9afc-4ce5-8201-31c26c727e85","null","<p>המחשב קבע מחיר: ₪29
                <br>ואתם בחרתם לשלם לכל היותר: ₪20
                <br><br>מכיוון שהמחיר שבחרתם נמוך מהמחיר שנקבע, לא תתשתתפו בהגרלה.
                <br>במקרה כזה, בסוף הניסוי תקבלו את כל התקציב ההתחלתי של ₪80.
                <br><br>לחצו על העכבר להמשך.</p>","1","example","","","","","","","","","","","","","","","","","","","","","","","",""
"","","","","","html-slider-response","7","1110293","0.0-7.0","5f64f9d2-9afc-4ce5-8201-31c26c727e85","19904","<p style=""font-size: 42px;"">הנה עוד דוגמא:
                <br>ההגרלה מטה מציעה 35% סיכוי לזכות ב-₪18 
                <br>&emsp;&emsp;&emsp;&emsp;&emsp;&emsp;&emsp;&emsp;&ensp;65% סיכוי לזכות ב-₪0.</p>
        
                <p style=""text-align: center;"">₪18<br>35%</p>
                <p id=""wtp"" style=""text-align:center; margin-top: 0px; margin-bottom: 0px; font-size: 40px"";>מוכנים לשלם: <span id=""c_p_y""></span></p>","10","example","46","","","","","","","","","","","","","","","","","","","","","","",""
"","","","","","html-keyboard-response","8","1112917","0.0-8.0","5f64f9d2-9afc-4ce5-8201-31c26c727e85","null","<p>הייתם מוכנים לשלם  ₪10 כדי להשתתף בהגרלה:
                <p style=""text-align: center;"">₪18<br>35%</p>
                <p>כעת נניח שהמחשב בחר את ההגרלה הזו בסוף הניסוי, וקבע עבורה מחיר.
                <br><br>לחצו על העכבר כדי להמשיך.</p>","1","instructions","","","","","","","","","","","","","","","","","","","","","","","",""
"","","","","","html-keyboard-response","9","1133045","0.0-9.0","5f64f9d2-9afc-4ce5-8201-31c26c727e85","null","<p>המחשב קבע מחיר להגרלה: ₪6<br>ואתם בחרתם לשלם לכל היותר: ₪10
                <br><br>כעת המחיר שנקבע נמוך מזה שבחרתם, אז תשלמו את המחיר שקבע המחשב (₪6) ותשתתפו בהגרלה.
                <br>במקרה כזה, תסיימו את הניסוי עם תקציב של ₪74 ועם סיכוי לזכות ב-₪18 נוספים מההגרלה.
                <br>כלומר, תוכלו לקבל ₪74 אם לא תזכו בהגרלה, או ₪92 אם תזכו בהגרלה.
                <br><br>לחצו על העכבר להמשך.</p>","1","example","","","","","","","","","","","","","","","","","","","","","","","",""
"","","","","","html-keyboard-response","10","1142405","0.0-10.0","5f64f9d2-9afc-4ce5-8201-31c26c727e85","null","<p>במהלך הניסוי, קודם תראו את ההגרלה ורק לאחר מכן תוכלו לבחור.
                <p>כמו כן, יהיו לכם מספר שניות מוגבל להגיב.
                <p>בואו ננסה זאת עם ההגרלה הקודמת.
                <br>לחצו על העכבר כדי להמשיך.</p>","1","instructions","","","","","","","","","","","","","","","","","","","","","","","",""
"","","","","","html-slider-response","11","1143671","0.0-11.0","5f64f9d2-9afc-4ce5-8201-31c26c727e85","1000","
                    <p style=""text-align: center;"">₪18<br>35%</p>
                    <p id=""wtp"" style=""text-align:center; margin-top: 0px; margin-bottom: 0px; font-size: 40px"";>&ensp;</p>","80","instructions","0","","","","","","","","","","","","","","","","","","","","","","",""
"","","","","","html-slider-response","12","1147936","0.0-12.0","5f64f9d2-9afc-4ce5-8201-31c26c727e85","null","
                    <p style=""text-align: center;"">₪18<br>35%</p>
                    <p id=""wtp"" style=""text-align:center; margin-top: 0px; margin-bottom: 0px; font-size: 40px"";>מוכנים לשלם: <span id=""c_p_y""></span></p>","null","instructions","3","","","","","","","","","","","","","","","","","","","","","","",""
"","","","","","html-keyboard-response","13","1152989","0.0-13.0","5f64f9d2-9afc-4ce5-8201-31c26c727e85","null","<p>לא הגבתם בזמן המוקצב לתגובה. 
                <br>נסו להגיב מהר יותר בפעם הבאה.
                <br><br>לחצו על העכבר כדי להמשיך.</p>","1","instructions","","","","","","","","","","","","","","","","","","","","","","","",""
"","","","","","html-slider-response","14","1155581","0.0-14.0-0.0","5f64f9d2-9afc-4ce5-8201-31c26c727e85","2329","
                    <p style=""text-align: center;"">₪40<br>65%</p>
                    <p id=""wtp"" style=""text-align:center; margin-top: 0px; margin-bottom: 0px; font-size: 40px"";>מוכנים לשלם: <span id=""c_p_y""></span></p>","6","instructions","20","","","","","","","","","","","","","","","","","","","","","","",""
"","","","","","html-keyboard-response","15","1168101","0.0-14.0-1.0","5f64f9d2-9afc-4ce5-8201-31c26c727e85","null","<p>יפה. הפעם בחרתם לשלם לכל היותר ₪6.
                <br><br>לחצו על העכבר כדי להמשיך.</p>","1","instructions","","","","","","","","","","","","","","","","","","","","","","","",""
"","","","","","html-keyboard-response","16","1177509","0.0-15.0","5f64f9d2-9afc-4ce5-8201-31c26c727e85","null","<p>כעת נתחיל את הניסוי.
                <br><br>אתם תראו הגרלות ותתבקשו לבחור כמה תהיו מוכנים לשלם כדי להשתתף בהן.
                <br>יש לכם תקציב של ₪80 עבור כל הגרלה.
                <br>בסוף הניסוי הגרלה אחת תבחר באקראי ותשוחק.
                <br><br>לחצו על העכבר כדי להתחיל את הניסוי.</p>","1","instructions","","","","","","","","","","","","","","","","","","","","","","","",""
"","","","","","html-keyboard-response","17","1178761","0.0-16.0","5f64f9d2-9afc-4ce5-8201-31c26c727e85","null","<p style=""text-align: center;"">+</p>","null","fixation","","","","","","","","","","","","","","","","","","","","","","","",""
"","","","","","html-slider-response","18","1179770","0.0-17.0-0.0","5f64f9d2-9afc-4ce5-8201-31c26c727e85","1000","
                  <p style=""text-align: center;"">₪43
                                                <br>60%</p>
                  <p id=""wtp"" style=""text-align:center; margin-top: 0px; margin-bottom: 0px; font-size: 40px"";>&ensp;</p>","-","viewing","0","17","2A,7A,9A,15B","","","","","","","","","","","","","","","","","","","","",""
"","","","","","html-slider-response","19","1182701","0.0-17.0-1.0","5f64f9d2-9afc-4ce5-8201-31c26c727e85","2930","
                  <p style=""text-align: center;"">₪43
                                                <br>60%</p>
                  <p id=""wtp"" style=""text-align:center; margin-top: 0px; margin-bottom: 0px; font-size: 40px"";>מוכנים לשלם: <span id=""c_p_y""></span></p>","29","evaluation","0","17","2A,7A,9A,15B","60","43","29","","","","","","","","","","","","","","","","","",""
"","","","","","html-keyboard-response","20","1184062","0.0-17.0-2.0","5f64f9d2-9afc-4ce5-8201-31c26c727e85","null","<p style=""text-align: center;"">+</p>","null","fixation","","","","","","","","","","","","","","","","","","","","","","","",""
"","","","","","html-slider-response","21","1185064","0.0-17.0-0.1","5f64f9d2-9afc-4ce5-8201-31c26c727e85","1000","
                  <p style=""text-align: center;"">₪11
                                                <br>25%</p>
                  <p id=""wtp"" style=""text-align:center; margin-top: 0px; margin-bottom: 0px; font-size: 40px"";>&ensp;</p>","-","viewing","0","5","12A,27B,28B,30B","","","","","","","","","","","","","","","","","","","","",""
"","","","","","html-slider-response","22","1188813","0.0-17.0-1.1","5f64f9d2-9afc-4ce5-8201-31c26c727e85","3748","
                  <p style=""text-align: center;"">₪11
                                                <br>25%</p>
                  <p id=""wtp"" style=""text-align:center; margin-top: 0px; margin-bottom: 0px; font-size: 40px"";>מוכנים לשלם: <span id=""c_p_y""></span></p>","3","evaluation","58","5","12A,27B,28B,30B","25","11","4","","","","","","","","","","","","","","","","","",""
"","","","","","html-keyboard-response","23","1189653","0.0-17.0-2.1","5f64f9d2-9afc-4ce5-8201-31c26c727e85","null","<p style=""text-align: center;"">+</p>","null","fixation","","","","","","","","","","","","","","","","","","","","","","","",""
"","","","","","html-slider-response","24","1190654","0.0-17.0-0.2","5f64f9d2-9afc-4ce5-8201-31c26c727e85","1000","
                  <p style=""text-align: center;"">₪4
                                                <br>25%</p>
                  <p id=""wtp"" style=""text-align:center; margin-top: 0px; margin-bottom: 0px; font-size: 40px"";>&ensp;</p>","-","viewing","0","1","6C,29B,30C","","","","","","","","","","","","","","","","","","","","",""
"","","","","","html-slider-response","25","1194656","0.0-17.0-1.2","5f64f9d2-9afc-4ce5-8201-31c26c727e85","null","
                  <p style=""text-align: center;"">₪4
                                                <br>25%</p>
                  <p id=""wtp"" style=""text-align:center; margin-top: 0px; margin-bottom: 0px; font-size: 40px"";>מוכנים לשלם: <span id=""c_p_y""></span></p>","null","evaluation","52","1","6C,29B,30C","25","4","23","","","","","","","","","","","","","","","","","",""
"","","","","","html-keyboard-response","26","1195274","0.0-17.0-2.2","5f64f9d2-9afc-4ce5-8201-31c26c727e85","null","<p style=""text-align: center;"">+</p>","null","fixation","","","","","","","","","","","","","","","","","","","","","","","",""
"","","","","","html-slider-response","27","1196284","0.0-17.0-0.3","5f64f9d2-9afc-4ce5-8201-31c26c727e85","1000","
                  <p style=""text-align: center;"">₪43
                                                <br>75%</p>
                  <p id=""wtp"" style=""text-align:center; margin-top: 0px; margin-bottom: 0px; font-size: 40px"";>&ensp;</p>","-","viewing","0","18","11B,19B,24A,26A","","","","","","","","","","","","","","","","","","","","",""
"","","","","","html-slider-response","28","1199789","0.0-17.0-1.3","5f64f9d2-9afc-4ce5-8201-31c26c727e85","3505","
                  <p style=""text-align: center;"">₪43
                                                <br>75%</p>
                  <p id=""wtp"" style=""text-align:center; margin-top: 0px; margin-bottom: 0px; font-size: 40px"";>מוכנים לשלם: <span id=""c_p_y""></span></p>","31","evaluation","62","18","11B,19B,24A,26A","75","43","31","","","","","","","","","","","","","","","","","",""
"","","","","","html-keyboard-response","29","1200908","0.0-17.0-2.3","5f64f9d2-9afc-4ce5-8201-31c26c727e85","null","<p style=""text-align: center;"">+</p>","null","fixation","","","","","","","","","","","","","","","","","","","","","","","",""
"","","","","","html-slider-response","30","1201918","0.0-17.0-0.4","5f64f9d2-9afc-4ce5-8201-31c26c727e85","1000","
                  <p style=""text-align: center;"">₪36
                                                <br>30%</p>
                  <p id=""wtp"" style=""text-align:center; margin-top: 0px; margin-bottom: 0px; font-size: 40px"";>&ensp;</p>","-","viewing","0","11","3C,20A,22A","","","","","","","","","","","","","","","","","","","","",""
"","","","","","html-slider-response","31","1205781","0.0-17.0-1.4","5f64f9d2-9afc-4ce5-8201-31c26c727e85","3862","
                  <p style=""text-align: center;"">₪36
                                                <br>30%</p>
                  <p id=""wtp"" style=""text-align:center; margin-top: 0px; margin-bottom: 0px; font-size: 40px"";>מוכנים לשלם: <span id=""c_p_y""></span></p>","5","evaluation","48","11","3C,20A,22A","30","36","5","","","","","","","","","","","","","","","","","",""
"","","","","","html-keyboard-response","32","1206860","0.0-17.0-2.4","5f64f9d2-9afc-4ce5-8201-31c26c727e85","null","<p style=""text-align: center;"">+</p>","null","fixation","","","","","","","","","","","","","","","","","","","","","","","",""
"","","","","","html-slider-response","33","1207878","0.0-17.0-0.5","5f64f9d2-9afc-4ce5-8201-31c26c727e85","1000","
                  <p style=""text-align: center;"">₪64
                                                <br>50%</p>
                  <p id=""wtp"" style=""text-align:center; margin-top: 0px; margin-bottom: 0px; font-size: 40px"";>&ensp;</p>","-","viewing","0","25","1B,3B,4A","","","","","","","","","","","","","","","","","","","","",""
"","","","","","html-slider-response","34","1211892","0.0-17.0-1.5","5f64f9d2-9afc-4ce5-8201-31c26c727e85","null","
                  <p style=""text-align: center;"">₪64
                                                <br>50%</p>
                  <p id=""wtp"" style=""text-align:center; margin-top: 0px; margin-bottom: 0px; font-size: 40px"";>מוכנים לשלם: <span id=""c_p_y""></span></p>","null","evaluation","56","25","1B,3B,4A","50","64","24","","","","","","","","","","","","","","","","","",""
"","","","","","html-keyboard-response","35","1213165","0.0-17.0-2.5","5f64f9d2-9afc-4ce5-8201-31c26c727e85","null","<p style=""text-align: center;"">+</p>","null","fixation","","","","","","","","","","","","","","","","","","","","","","","",""
"","","","","","html-slider-response","36","1214178","0.0-17.0-0.6","5f64f9d2-9afc-4ce5-8201-31c26c727e85","1000","
                  <p style=""text-align: center;"">₪4
                                                <br>75%</p>
                  <p id=""wtp"" style=""text-align:center; margin-top: 0px; margin-bottom: 0px; font-size: 40px"";>&ensp;</p>","-","viewing","0","3","12B,20B,23B,27C,29C","","","","","","","","","","","","","","","","","","","","",""
"","","","","","html-slider-response","37","1217229","0.0-17.0-1.6","5f64f9d2-9afc-4ce5-8201-31c26c727e85","3050","
                  <p style=""text-align: center;"">₪4
                                                <br>75%</p>
                  <p id=""wtp"" style=""text-align:center; margin-top: 0px; margin-bottom: 0px; font-size: 40px"";>מוכנים לשלם: <span id=""c_p_y""></span></p>","4","evaluation","72","3","12B,20B,23B,27C,29C","75","4","4","","","","","","","","","","","","","","","","","",""
"","","","","","html-keyboard-response","38","1218286","0.0-17.0-2.6","5f64f9d2-9afc-4ce5-8201-31c26c727e85","null","<p style=""text-align: center;"">+</p>","null","fixation","","","","","","","","","","","","","","","","","","","","","","","",""
"","","","","","html-slider-response","39","1219294","0.0-17.0-0.7","5f64f9d2-9afc-4ce5-8201-31c26c727e85","1000","
                  <p style=""text-align: center;"">₪79
                                                <br>40%</p>
                  <p id=""wtp"" style=""text-align:center; margin-top: 0px; margin-bottom: 0px; font-size: 40px"";>&ensp;</p>","-","viewing","0","30","9B","","","","","","","","","","","","","","","","","","","","",""
"","","","","","html-slider-response","40","1222381","0.0-17.0-1.7","5f64f9d2-9afc-4ce5-8201-31c26c727e85","3086","
                  <p style=""text-align: center;"">₪79
                                                <br>40%</p>
                  <p id=""wtp"" style=""text-align:center; margin-top: 0px; margin-bottom: 0px; font-size: 40px"";>מוכנים לשלם: <span id=""c_p_y""></span></p>","25","evaluation","55","30","9B","40","79","25","","","","","","","","","","","","","","","","","",""
"","","","","","html-keyboard-response","41","1222917","0.0-17.0-2.7","5f64f9d2-9afc-4ce5-8201-31c26c727e85","null","<p style=""text-align: center;"">+</p>","null","fixation","","","","","","","","","","","","","","","","","","","","","","","",""
"","","","","","html-slider-response","42","1223929","0.0-17.0-0.8","5f64f9d2-9afc-4ce5-8201-31c26c727e85","1000","
                  <p style=""text-align: center;"">₪39
                                                <br>65%</p>
                  <p id=""wtp"" style=""text-align:center; margin-top: 0px; margin-bottom: 0px; font-size: 40px"";>&ensp;</p>","-","viewing","0","16","1A,15A,26C","","","","","","","","","","","","","","","","","","","","",""
"","","","","","html-slider-response","43","1227931","0.0-17.0-1.8","5f64f9d2-9afc-4ce5-8201-31c26c727e85","null","
                  <p style=""text-align: center;"">₪39
                                                <br>65%</p>
                  <p id=""wtp"" style=""text-align:center; margin-top: 0px; margin-bottom: 0px; font-size: 40px"";>מוכנים לשלם: <span id=""c_p_y""></span></p>","null","evaluation","34","16","1A,15A,26C","65","39","24","","","","","","","","","","","","","","","","","",""
"","","","","","html-keyboard-response","44","1229102","0.0-17.0-2.8","5f64f9d2-9afc-4ce5-8201-31c26c727e85","null","<p style=""text-align: center;"">+</p>","null","fixation","","","","","","","","","","","","","","","","","","","","","","","",""
"","","","","","html-slider-response","45","1230104","0.0-17.0-0.9","5f64f9d2-9afc-4ce5-8201-31c26c727e85","1000","
                  <p style=""text-align: center;"">₪71
                                                <br>55%</p>
                  <p id=""wtp"" style=""text-align:center; margin-top: 0px; margin-bottom: 0px; font-size: 40px"";>&ensp;</p>","-","viewing","0","27","5B,18A","","","","","","","","","","","","","","","","","","","","",""
"","","","","","html-slider-response","46","1233805","0.0-17.0-1.9","5f64f9d2-9afc-4ce5-8201-31c26c727e85","3699","
                  <p style=""text-align: center;"">₪71
                                                <br>55%</p>
                  <p id=""wtp"" style=""text-align:center; margin-top: 0px; margin-bottom: 0px; font-size: 40px"";>מוכנים לשלם: <span id=""c_p_y""></span></p>","27","evaluation","58","27","5B,18A","55","71","27","","","","","","","","","","","","","","","","","",""
"","","","","","html-keyboard-response","47","1235278","0.0-17.0-2.9","5f64f9d2-9afc-4ce5-8201-31c26c727e85","null","<p style=""text-align: center;"">+</p>","null","fixation","","","","","","","","","","","","","","","","","","","","","","","",""
"","","","","","html-slider-response","48","1236291","0.0-17.0-0.10","5f64f9d2-9afc-4ce5-8201-31c26c727e85","1000","
                  <p style=""text-align: center;"">₪36
                                                <br>60%</p>
                  <p id=""wtp"" style=""text-align:center; margin-top: 0px; margin-bottom: 0px; font-size: 40px"";>&ensp;</p>","-","viewing","0","12","1C,7C,15C","","","","","","","","","","","","","","","","","","","","",""
"","","","","","html-slider-response","49","1238861","0.0-17.0-1.10","5f64f9d2-9afc-4ce5-8201-31c26c727e85","2569","
                  <p style=""text-align: center;"">₪36
                                                <br>60%</p>
                  <p id=""wtp"" style=""text-align:center; margin-top: 0px; margin-bottom: 0px; font-size: 40px"";>מוכנים לשלם: <span id=""c_p_y""></span></p>","14","evaluation","42","12","1C,7C,15C","60","36","14","","","","","","","","","","","","","","","","","",""
"","","","","","html-keyboard-response","50","1240249","0.0-17.0-2.10","5f64f9d2-9afc-4ce5-8201-31c26c727e85","null","<p style=""text-align: center;"">+</p>","null","fixation","","","","","","","","","","","","","","","","","","","","","","","",""
"","","","","","html-slider-response","51","1241251","0.0-17.0-0.11","5f64f9d2-9afc-4ce5-8201-31c26c727e85","1000","
                  <p style=""text-align: center;"">₪11
                                                <br>45%</p>
                  <p id=""wtp"" style=""text-align:center; margin-top: 0px; margin-bottom: 0px; font-size: 40px"";>&ensp;</p>","-","viewing","0","6","14B,21C,25C","","","","","","","","","","","","","","","","","","","","",""
"","","","","","html-slider-response","52","1244941","0.0-17.0-1.11","5f64f9d2-9afc-4ce5-8201-31c26c727e85","3689","
                  <p style=""text-align: center;"">₪11
                                                <br>45%</p>
                  <p id=""wtp"" style=""text-align:center; margin-top: 0px; margin-bottom: 0px; font-size: 40px"";>מוכנים לשלם: <span id=""c_p_y""></span></p>","8","evaluation","7","6","14B,21C,25C","45","11","8","","","","","","","","","","","","","","","","","",""
"","","","","","html-keyboard-response","53","1246342","0.0-17.0-2.11","5f64f9d2-9afc-4ce5-8201-31c26c727e85","null","<p style=""text-align: center;"">+</p>","null","fixation","","","","","","","","","","","","","","","","","","","","","","","",""
"","","","","","html-slider-response","54","1247353","0.0-17.0-0.12","5f64f9d2-9afc-4ce5-8201-31c26c727e85","1000","
                  <p style=""text-align: center;"">₪11
                                                <br>20%</p>
                  <p id=""wtp"" style=""text-align:center; margin-top: 0px; margin-bottom: 0px; font-size: 40px"";>&ensp;</p>","-","viewing","0","4","12C,17C,23C,28C","","","","","","","","","","","","","","","","","","","","",""
"","","","","","html-slider-response","55","1251356","0.0-17.0-1.12","5f64f9d2-9afc-4ce5-8201-31c26c727e85","null","
                  <p style=""text-align: center;"">₪11
                                                <br>20%</p>
                  <p id=""wtp"" style=""text-align:center; margin-top: 0px; margin-bottom: 0px; font-size: 40px"";>מוכנים לשלם: <span id=""c_p_y""></span></p>","null","evaluation","9","4","12C,17C,23C,28C","20","11","17","","","","","","","","","","","","","","","","","",""
"","","","","","html-keyboard-response","56","1251882","0.0-17.0-2.12","5f64f9d2-9afc-4ce5-8201-31c26c727e85","null","<p style=""text-align: center;"">+</p>","null","fixation","","","","","","","","","","","","","","","","","","","","","","","",""
"","","","","","html-slider-response","57","1252885","0.0-17.0-0.13","5f64f9d2-9afc-4ce5-8201-31c26c727e85","1000","
                  <p style=""text-align: center;"">₪58
                                                <br>40%</p>
                  <p id=""wtp"" style=""text-align:center; margin-top: 0px; margin-bottom: 0px; font-size: 40px"";>&ensp;</p>","-","viewing","0","20","10C,13A,19C,21B","","","","","","","","","","","","","","","","","","","","",""
"","","","","","html-slider-response","58","1255757","0.0-17.0-1.13","5f64f9d2-9afc-4ce5-8201-31c26c727e85","2871","
                  <p style=""text-align: center;"">₪58
                                                <br>40%</p>
                  <p id=""wtp"" style=""text-align:center; margin-top: 0px; margin-bottom: 0px; font-size: 40px"";>מוכנים לשלם: <span id=""c_p_y""></span></p>","17","evaluation","68","20","10C,13A,19C,21B","40","58","17","","","","","","","","","","","","","","","","","",""
"","","","","","html-keyboard-response","59","1256360","0.0-17.0-2.13","5f64f9d2-9afc-4ce5-8201-31c26c727e85","null","<p style=""text-align: center;"">+</p>","null","fixation","","","","","","","","","","","","","","","","","","","","","","","",""
"","","","","","html-slider-response","60","1257365","0.0-17.0-0.14","5f64f9d2-9afc-4ce5-8201-31c26c727e85","1000","
                  <p style=""text-align: center;"">₪39
                                                <br>60%</p>
                  <p id=""wtp"" style=""text-align:center; margin-top: 0px; margin-bottom: 0px; font-size: 40px"";>&ensp;</p>","-","viewing","0","15","9C,25B","","","","","","","","","","","","","","","","","","","","",""
"","","","","","html-slider-response","61","1260197","0.0-17.0-1.14","5f64f9d2-9afc-4ce5-8201-31c26c727e85","2831","
                  <p style=""text-align: center;"">₪39
                                                <br>60%</p>
                  <p id=""wtp"" style=""text-align:center; margin-top: 0px; margin-bottom: 0px; font-size: 40px"";>מוכנים לשלם: <span id=""c_p_y""></span></p>","20","evaluation","49","15","9C,25B","60","39","21","","","","","","","","","","","","","","","","","",""
"","","","","","html-keyboard-response","62","1260790","0.0-17.0-2.14","5f64f9d2-9afc-4ce5-8201-31c26c727e85","null","<p style=""text-align: center;"">+</p>","null","fixation","","","","","","","","","","","","","","","","","","","","","","","",""
"","","","","","html-slider-response","63","1261791","0.0-17.0-0.15","5f64f9d2-9afc-4ce5-8201-31c26c727e85","1000","
                  <p style=""text-align: center;"">₪36
                                                <br>75%</p>
                  <p id=""wtp"" style=""text-align:center; margin-top: 0px; margin-bottom: 0px; font-size: 40px"";>&ensp;</p>","-","viewing","0","14","4B,5A,13B,16B","","","","","","","","","","","","","","","","","","","","",""
"","","","","","html-slider-response","64","1265157","0.0-17.0-1.15","5f64f9d2-9afc-4ce5-8201-31c26c727e85","3365","
                  <p style=""text-align: center;"">₪36
                                                <br>75%</p>
                  <p id=""wtp"" style=""text-align:center; margin-top: 0px; margin-bottom: 0px; font-size: 40px"";>מוכנים לשלם: <span id=""c_p_y""></span></p>","23","evaluation","43","14","4B,5A,13B,16B","75","36","23","","","","","","","","","","","","","","","","","",""
"","","","","","html-keyboard-response","65","1266310","0.0-17.0-2.15","5f64f9d2-9afc-4ce5-8201-31c26c727e85","null","<p style=""text-align: center;"">+</p>","null","fixation","","","","","","","","","","","","","","","","","","","","","","","",""
"","","","","","html-slider-response","66","1267325","0.0-17.0-0.16","5f64f9d2-9afc-4ce5-8201-31c26c727e85","1000","
                  <p style=""text-align: center;"">₪76
                                                <br>65%</p>
                  <p id=""wtp"" style=""text-align:center; margin-top: 0px; margin-bottom: 0px; font-size: 40px"";>&ensp;</p>","-","viewing","0","29","8C,19A,24B","","","","","","","","","","","","","","","","","","","","",""
"","","","","","html-slider-response","67","1271327","0.0-17.0-1.16","5f64f9d2-9afc-4ce5-8201-31c26c727e85","null","
                  <p style=""text-align: center;"">₪76
                                                <br>65%</p>
                  <p id=""wtp"" style=""text-align:center; margin-top: 0px; margin-bottom: 0px; font-size: 40px"";>מוכנים לשלם: <span id=""c_p_y""></span></p>","null","evaluation","62","29","8C,19A,24B","65","76","32","","","","","","","","","","","","","","","","","",""
"","","","","","html-keyboard-response","68","1272826","0.0-17.0-2.16","5f64f9d2-9afc-4ce5-8201-31c26c727e85","null","<p style=""text-align: center;"">+</p>","null","fixation","","","","","","","","","","","","","","","","","","","","","","","",""
"","","","","","html-slider-response","69","1273828","0.0-17.0-0.17","5f64f9d2-9afc-4ce5-8201-31c26c727e85","1000","
                  <p style=""text-align: center;"">₪61
                                                <br>45%</p>
                  <p id=""wtp"" style=""text-align:center; margin-top: 0px; margin-bottom: 0px; font-size: 40px"";>&ensp;</p>","-","viewing","0","22","10A,11A","","","","","","","","","","","","","","","","","","","","",""
"","","","","","html-slider-response","70","1276773","0.0-17.0-1.17","5f64f9d2-9afc-4ce5-8201-31c26c727e85","2944","
                  <p style=""text-align: center;"">₪61
                                                <br>45%</p>
                  <p id=""wtp"" style=""text-align:center; margin-top: 0px; margin-bottom: 0px; font-size: 40px"";>מוכנים לשלם: <span id=""c_p_y""></span></p>","19","evaluation","20","22","10A,11A","45","61","19","","","","","","","","","","","","","","","","","",""
"","","","","","html-keyboard-response","71","1277773","0.0-17.0-2.17","5f64f9d2-9afc-4ce5-8201-31c26c727e85","null","<p style=""text-align: center;"">+</p>","null","fixation","","","","","","","","","","","","","","","","","","","","","","","",""
"","","","","","html-slider-response","72","1278787","0.0-17.0-0.18","5f64f9d2-9afc-4ce5-8201-31c26c727e85","1000","
                  <p style=""text-align: center;"">₪61
                                                <br>55%</p>
                  <p id=""wtp"" style=""text-align:center; margin-top: 0px; margin-bottom: 0px; font-size: 40px"";>&ensp;</p>","-","viewing","0","23","7B,26B","","","","","","","","","","","","","","","","","","","","",""
"","","","","","html-slider-response","73","1282253","0.0-17.0-1.18","5f64f9d2-9afc-4ce5-8201-31c26c727e85","3466","
                  <p style=""text-align: center;"">₪61
                                                <br>55%</p>
                  <p id=""wtp"" style=""text-align:center; margin-top: 0px; margin-bottom: 0px; font-size: 40px"";>מוכנים לשלם: <span id=""c_p_y""></span></p>","24","evaluation","10","23","7B,26B","55","61","24","","","","","","","","","","","","","","","","","",""
"","","","","","html-keyboard-response","74","1283128","0.0-17.0-2.18","5f64f9d2-9afc-4ce5-8201-31c26c727e85","null","<p style=""text-align: center;"">+</p>","null","fixation","","","","","","","","","","","","","","","","","","","","","","","",""
"","","","","","html-slider-response","75","1284130","0.0-17.0-0.19","5f64f9d2-9afc-4ce5-8201-31c26c727e85","1000","
                  <p style=""text-align: center;"">₪71
                                                <br>45%</p>
                  <p id=""wtp"" style=""text-align:center; margin-top: 0px; margin-bottom: 0px; font-size: 40px"";>&ensp;</p>","-","viewing","0","26","2B,16A","","","","","","","","","","","","","","","","","","","","",""
"","","","","","html-slider-response","76","1288133","0.0-17.0-1.19","5f64f9d2-9afc-4ce5-8201-31c26c727e85","null","
                  <p style=""text-align: center;"">₪71
                                                <br>45%</p>
                  <p id=""wtp"" style=""text-align:center; margin-top: 0px; margin-bottom: 0px; font-size: 40px"";>מוכנים לשלם: <span id=""c_p_y""></span></p>","null","evaluation","56","26","2B,16A","45","71","17","","","","","","","","","","","","","","","","","",""
"","","","","","html-keyboard-response","77","1289272","0.0-17.0-2.19","5f64f9d2-9afc-4ce5-8201-31c26c727e85","null","<p style=""text-align: center;"">+</p>","null","fixation","","","","","","","","","","","","","","","","","","","","","","","",""
"","","","","","html-slider-response","78","1290275","0.0-17.0-0.20","5f64f9d2-9afc-4ce5-8201-31c26c727e85","1000","
                  <p style=""text-align: center;"">₪58
                                                <br>45%</p>
                  <p id=""wtp"" style=""text-align:center; margin-top: 0px; margin-bottom: 0px; font-size: 40px"";>&ensp;</p>","-","viewing","0","21","11C,18C,25A","","","","","","","","","","","","","","","","","","","","",""
"","","","","","html-slider-response","79","1294053","0.0-17.0-1.20","5f64f9d2-9afc-4ce5-8201-31c26c727e85","3778","
                  <p style=""text-align: center;"">₪58
                                                <br>45%</p>
                  <p id=""wtp"" style=""text-align:center; margin-top: 0px; margin-bottom: 0px; font-size: 40px"";>מוכנים לשלם: <span id=""c_p_y""></span></p>","13","evaluation","41","21","11C,18C,25A","45","58","14","","","","","","","","","","","","","","","","","",""
"","","","","","html-keyboard-response","80","1295020","0.0-17.0-2.20","5f64f9d2-9afc-4ce5-8201-31c26c727e85","null","<p style=""text-align: center;"">+</p>","null","fixation","","","","","","","","","","","","","","","","","","","","","","","",""
"","","","","","html-slider-response","81","1296026","0.0-17.0-0.21","5f64f9d2-9afc-4ce5-8201-31c26c727e85","1000","
                  <p style=""text-align: center;"">₪36
                                                <br>70%</p>
                  <p id=""wtp"" style=""text-align:center; margin-top: 0px; margin-bottom: 0px; font-size: 40px"";>&ensp;</p>","-","viewing","0","13","3A,5C,10B","","","","","","","","","","","","","","","","","","","","",""
"","","","","","html-slider-response","82","1298325","0.0-17.0-1.21","5f64f9d2-9afc-4ce5-8201-31c26c727e85","2298","
                  <p style=""text-align: center;"">₪36
                                                <br>70%</p>
                  <p id=""wtp"" style=""text-align:center; margin-top: 0px; margin-bottom: 0px; font-size: 40px"";>מוכנים לשלם: <span id=""c_p_y""></span></p>","25","evaluation","17","13","3A,5C,10B","70","36","25","","","","","","","","","","","","","","","","","",""
"","","","","","html-keyboard-response","83","1299004","0.0-17.0-2.21","5f64f9d2-9afc-4ce5-8201-31c26c727e85","null","<p style=""text-align: center;"">+</p>","null","fixation","","","","","","","","","","","","","","","","","","","","","","","",""
"","","","","","html-slider-response","84","1300015","0.0-17.0-0.22","5f64f9d2-9afc-4ce5-8201-31c26c727e85","1000","
                  <p style=""text-align: center;"">₪79
                                                <br>65%</p>
                  <p id=""wtp"" style=""text-align:center; margin-top: 0px; margin-bottom: 0px; font-size: 40px"";>&ensp;</p>","-","viewing","0","31","8A","","","","","","","","","","","","","","","","","","","","",""
"","","","","","html-slider-response","85","1303525","0.0-17.0-1.22","5f64f9d2-9afc-4ce5-8201-31c26c727e85","3510","
                  <p style=""text-align: center;"">₪79
                                                <br>65%</p>
                  <p id=""wtp"" style=""text-align:center; margin-top: 0px; margin-bottom: 0px; font-size: 40px"";>מוכנים לשלם: <span id=""c_p_y""></span></p>","26","evaluation","6","31","8A","65","79","26","","","","","","","","","","","","","","","","","",""
"","","","","","html-keyboard-response","86","1304612","0.0-17.0-2.22","5f64f9d2-9afc-4ce5-8201-31c26c727e85","null","<p style=""text-align: center;"">+</p>","null","fixation","","","","","","","","","","","","","","","","","","","","","","","",""
"","","","","","html-slider-response","87","1305629","0.0-17.0-0.23","5f64f9d2-9afc-4ce5-8201-31c26c727e85","1000","
                  <p style=""text-align: center;"">₪11
                                                <br>75%</p>
                  <p id=""wtp"" style=""text-align:center; margin-top: 0px; margin-bottom: 0px; font-size: 40px"";>&ensp;</p>","-","viewing","0","7","6B,18B,22C,24C,29A","","","","","","","","","","","","","","","","","","","","",""
"","","","","","html-slider-response","88","1309485","0.0-17.0-1.23","5f64f9d2-9afc-4ce5-8201-31c26c727e85","3855","
                  <p style=""text-align: center;"">₪11
                                                <br>75%</p>
                  <p id=""wtp"" style=""text-align:center; margin-top: 0px; margin-bottom: 0px; font-size: 40px"";>מוכנים לשלם: <span id=""c_p_y""></span></p>","10","evaluation","69","7","6B,18B,22C,24C,29A","75","11","10","","","","","","","","","","","","","","","","","",""
"","","","","","html-keyboard-response","89","1310939","0.0-17.0-2.23","5f64f9d2-9afc-4ce5-8201-31c26c727e85","null","<p style=""text-align: center;"">+</p>","null","fixation","","","","","","","","","","","","","","","","","","","","","","","",""
"","","","","","html-slider-response","90","1311955","0.0-17.0-0.24","5f64f9d2-9afc-4ce5-8201-31c26c727e85","1000","
                  <p style=""text-align: center;"">₪71
                                                <br>75%</p>
                  <p id=""wtp"" style=""text-align:center; margin-top: 0px; margin-bottom: 0px; font-size: 40px"";>&ensp;</p>","-","viewing","0","28","8B","","","","","","","","","","","","","","","","","","","","",""
"","","","","","html-slider-response","91","1314981","0.0-17.0-1.24","5f64f9d2-9afc-4ce5-8201-31c26c727e85","3025","
                  <p style=""text-align: center;"">₪71
                                                <br>75%</p>
                  <p id=""wtp"" style=""text-align:center; margin-top: 0px; margin-bottom: 0px; font-size: 40px"";>מוכנים לשלם: <span id=""c_p_y""></span></p>","30","evaluation","22","28","8B","75","71","30","","","","","","","","","","","","","","","","","",""
"","","","","","html-keyboard-response","92","1315938","0.0-17.0-2.24","5f64f9d2-9afc-4ce5-8201-31c26c727e85","null","<p style=""text-align: center;"">+</p>","null","fixation","","","","","","","","","","","","","","","","","","","","","","","",""
"","","","","","html-slider-response","93","1316947","0.0-17.0-0.25","5f64f9d2-9afc-4ce5-8201-31c26c727e85","1000","
                  <p style=""text-align: center;"">₪18
                                                <br>50%</p>
                  <p id=""wtp"" style=""text-align:center; margin-top: 0px; margin-bottom: 0px; font-size: 40px"";>&ensp;</p>","-","viewing","0","10","2C,16C,22B,28A","","","","","","","","","","","","","","","","","","","","",""
"","","","","","html-slider-response","94","1320397","0.0-17.0-1.25","5f64f9d2-9afc-4ce5-8201-31c26c727e85","3450","
                  <p style=""text-align: center;"">₪18
                                                <br>50%</p>
                  <p id=""wtp"" style=""text-align:center; margin-top: 0px; margin-bottom: 0px; font-size: 40px"";>מוכנים לשלם: <span id=""c_p_y""></span></p>","8","evaluation","7","10","2C,16C,22B,28A","50","18","8","","","","","","","","","","","","","","","","","",""
"","","","","","html-keyboard-response","95","1321800","0.0-17.0-2.25","5f64f9d2-9afc-4ce5-8201-31c26c727e85","null","<p style=""text-align: center;"">+</p>","null","fixation","","","","","","","","","","","","","","","","","","","","","","","",""
"","","","","","html-slider-response","96","1322805","0.0-17.0-0.26","5f64f9d2-9afc-4ce5-8201-31c26c727e85","1000","
                  <p style=""text-align: center;"">₪58
                                                <br>30%</p>
                  <p id=""wtp"" style=""text-align:center; margin-top: 0px; margin-bottom: 0px; font-size: 40px"";>&ensp;</p>","-","viewing","0","19","13C,30A","","","","","","","","","","","","","","","","","","","","",""
"","","","","","html-slider-response","97","1325757","0.0-17.0-1.26","5f64f9d2-9afc-4ce5-8201-31c26c727e85","2952","
                  <p style=""text-align: center;"">₪58
                                                <br>30%</p>
                  <p id=""wtp"" style=""text-align:center; margin-top: 0px; margin-bottom: 0px; font-size: 40px"";>מוכנים לשלם: <span id=""c_p_y""></span></p>","8","evaluation","1","19","13C,30A","30","58","8","","","","","","","","","","","","","","","","","",""
"","","","","","html-keyboard-response","98","1327255","0.0-17.0-2.26","5f64f9d2-9afc-4ce5-8201-31c26c727e85","null","<p style=""text-align: center;"">+</p>","null","fixation","","","","","","","","","","","","","","","","","","","","","","","",""
"","","","","","html-slider-response","99","1328257","0.0-17.0-0.27","5f64f9d2-9afc-4ce5-8201-31c26c727e85","1000","
                  <p style=""text-align: center;"">₪4
                                                <br>50%</p>
                  <p id=""wtp"" style=""text-align:center; margin-top: 0px; margin-bottom: 0px; font-size: 40px"";>&ensp;</p>","-","viewing","0","2","4C,17B","","","","","","","","","","","","","","","","","","","","",""
"","","","","","html-slider-response","100","1331237","0.0-17.0-1.27","5f64f9d2-9afc-4ce5-8201-31c26c727e85","2980","
                  <p style=""text-align: center;"">₪4
                                                <br>50%</p>
                  <p id=""wtp"" style=""text-align:center; margin-top: 0px; margin-bottom: 0px; font-size: 40px"";>מוכנים לשלם: <span id=""c_p_y""></span></p>","2","evaluation","42","2","4C,17B","50","4","2","","","","","","","","","","","","","","","","","",""
"","","","","","html-keyboard-response","101","1331777","0.0-17.0-2.27","5f64f9d2-9afc-4ce5-8201-31c26c727e85","null","<p style=""text-align: center;"">+</p>","null","fixation","","","","","","","","","","","","","","","","","","","","","","","",""
"","","","","","html-slider-response","102","1332779","0.0-17.0-0.28","5f64f9d2-9afc-4ce5-8201-31c26c727e85","1000","
                  <p style=""text-align: center;"">₪64
                                                <br>25%</p>
                  <p id=""wtp"" style=""text-align:center; margin-top: 0px; margin-bottom: 0px; font-size: 40px"";>&ensp;</p>","-","viewing","0","24","6A,21A","","","","","","","","","","","","","","","","","","","","",""
"","","","","","html-slider-response","103","1336792","0.0-17.0-1.28","5f64f9d2-9afc-4ce5-8201-31c26c727e85","null","
                  <p style=""text-align: center;"">₪64
                                                <br>25%</p>
                  <p id=""wtp"" style=""text-align:center; margin-top: 0px; margin-bottom: 0px; font-size: 40px"";>מוכנים לשלם: <span id=""c_p_y""></span></p>","null","evaluation","49","24","6A,21A","25","64","4","","","","","","","","","","","","","","","","","",""
"","","","","","html-keyboard-response","104","1337669","0.0-17.0-2.28","5f64f9d2-9afc-4ce5-8201-31c26c727e85","null","<p style=""text-align: center;"">+</p>","null","fixation","","","","","","","","","","","","","","","","","","","","","","","",""
"","","","","","html-slider-response","105","1338682","0.0-17.0-0.29","5f64f9d2-9afc-4ce5-8201-31c26c727e85","1000","
                  <p style=""text-align: center;"">₪18
                                                <br>25%</p>
                  <p id=""wtp"" style=""text-align:center; margin-top: 0px; margin-bottom: 0px; font-size: 40px"";>&ensp;</p>","-","viewing","0","9","14A,23A","","","","","","","","","","","","","","","","","","","","",""
"","","","","","html-slider-response","106","1341261","0.0-17.0-1.29","5f64f9d2-9afc-4ce5-8201-31c26c727e85","2578","
                  <p style=""text-align: center;"">₪18
                                                <br>25%</p>
                  <p id=""wtp"" style=""text-align:center; margin-top: 0px; margin-bottom: 0px; font-size: 40px"";>מוכנים לשלם: <span id=""c_p_y""></span></p>","5","evaluation","75","9","14A,23A","25","18","5","","","","","","","","","","","","","","","","","",""
"","","","","","html-keyboard-response","107","1342763","0.0-17.0-2.29","5f64f9d2-9afc-4ce5-8201-31c26c727e85","null","<p style=""text-align: center;"">+</p>","null","fixation","","","","","","","","","","","","","","","","","","","","","","","",""
"","","","","","html-slider-response","108","1343772","0.0-17.0-0.30","5f64f9d2-9afc-4ce5-8201-31c26c727e85","1000","
                  <p style=""text-align: center;"">₪16
                                                <br>20%</p>
                  <p id=""wtp"" style=""text-align:center; margin-top: 0px; margin-bottom: 0px; font-size: 40px"";>&ensp;</p>","-","viewing","0","8","14C,17A,20C,27A","","","","","","","","","","","","","","","","","","","","",""
"","","","","","html-slider-response","109","1346597","0.0-17.0-1.30","5f64f9d2-9afc-4ce5-8201-31c26c727e85","2825","
                  <p style=""text-align: center;"">₪16
                                                <br>20%</p>
                  <p id=""wtp"" style=""text-align:center; margin-top: 0px; margin-bottom: 0px; font-size: 40px"";>מוכנים לשלם: <span id=""c_p_y""></span></p>","9","evaluation","69","8","14C,17A,20C,27A","20","16","10","","","","","","","","","","","","","","","","","",""
"","","","","","html-keyboard-response","110","1347526","0.0-17.0-2.30","5f64f9d2-9afc-4ce5-8201-31c26c727e85","null","<p style=""text-align: center;"">+</p>","null","fixation","","","","","","","","","","","","","","","","","","","","","","","",""
"","","","","","html-keyboard-response","111","1348527","0.0-18.0","5f64f9d2-9afc-4ce5-8201-31c26c727e85","null","<p style=""text-align: center;"">+</p>","null","fixation","","","","","","","","","","","","","","","","","","","","","","","",""
"","","","","","html-keyboard-response","112","1360989","0.0-19.0","5f64f9d2-9afc-4ce5-8201-31c26c727e85","null","<p>הפסקה.
          <br>לחצו כדי להמשיך.</p>","1","scan_wait","","","","","","","","","","","","","","","","","","","","","","","",""
"","","","","","html-keyboard-response","113","1361991","0.0-20.0","5f64f9d2-9afc-4ce5-8201-31c26c727e85","null","<p style=""text-align: center;"">+</p>","null","fixation","","","","","","","","","","","","","","","","","","","","","","","",""
"","","","","","html-slider-response","114","1362993","0.0-21.0-0.0","5f64f9d2-9afc-4ce5-8201-31c26c727e85","1000","
                  <p style=""text-align: center;"">₪71
                                                <br>55%</p>
                  <p id=""wtp"" style=""text-align:center; margin-top: 0px; margin-bottom: 0px; font-size: 40px"";>&ensp;</p>","-","viewing","0","27","5B,18A","","","","","","","","","","","","","","","","","","","","",""
"","","","","","html-slider-response","115","1364541","0.0-21.0-1.0","5f64f9d2-9afc-4ce5-8201-31c26c727e85","1548","
                  <p style=""text-align: center;"">₪71
                                                <br>55%</p>
                  <p id=""wtp"" style=""text-align:center; margin-top: 0px; margin-bottom: 0px; font-size: 40px"";>מוכנים לשלם: <span id=""c_p_y""></span></p>","20","evaluation","2","27","5B,18A","55","71","21","","","","","","","","","","","","","","","","","",""
"","","","","","html-keyboard-response","116","1365057","0.0-21.0-2.0","5f64f9d2-9afc-4ce5-8201-31c26c727e85","null","<p style=""text-align: center;"">+</p>","null","fixation","","","","","","","","","","","","","","","","","","","","","","","",""
"","","","","","html-slider-response","117","1366060","0.0-21.0-0.1","5f64f9d2-9afc-4ce5-8201-31c26c727e85","1000","
                  <p style=""text-align: center;"">₪71
                                                <br>75%</p>
                  <p id=""wtp"" style=""text-align:center; margin-top: 0px; margin-bottom: 0px; font-size: 40px"";>&ensp;</p>","-","viewing","0","28","8B","","","","","","","","","","","","","","","","","","","","",""
"","","","","","html-slider-response","118","1368213","0.0-21.0-1.1","5f64f9d2-9afc-4ce5-8201-31c26c727e85","2153","
                  <p style=""text-align: center;"">₪71
                                                <br>75%</p>
                  <p id=""wtp"" style=""text-align:center; margin-top: 0px; margin-bottom: 0px; font-size: 40px"";>מוכנים לשלם: <span id=""c_p_y""></span></p>","31","evaluation","51","28","8B","75","71","31","","","","","","","","","","","","","","","","","",""
"","","","","","html-keyboard-response","119","1369411","0.0-21.0-2.1","5f64f9d2-9afc-4ce5-8201-31c26c727e85","null","<p style=""text-align: center;"">+</p>","null","fixation","","","","","","","","","","","","","","","","","","","","","","","",""
"","","","","","html-slider-response","120","1370415","0.0-21.0-0.2","5f64f9d2-9afc-4ce5-8201-31c26c727e85","1000","
                  <p style=""text-align: center;"">₪58
                                                <br>45%</p>
                  <p id=""wtp"" style=""text-align:center; margin-top: 0px; margin-bottom: 0px; font-size: 40px"";>&ensp;</p>","-","viewing","0","21","11C,18C,25A","","","","","","","","","","","","","","","","","","","","",""
"","","","","","html-slider-response","121","1372941","0.0-21.0-1.2","5f64f9d2-9afc-4ce5-8201-31c26c727e85","2525","
                  <p style=""text-align: center;"">₪58
                                                <br>45%</p>
                  <p id=""wtp"" style=""text-align:center; margin-top: 0px; margin-bottom: 0px; font-size: 40px"";>מוכנים לשלם: <span id=""c_p_y""></span></p>","21","evaluation","69","21","11C,18C,25A","45","58","22","","","","","","","","","","","","","","","","","",""
"","","","","","html-keyboard-response","122","1374051","0.0-21.0-2.2","5f64f9d2-9afc-4ce5-8201-31c26c727e85","null","<p style=""text-align: center;"">+</p>","null","fixation","","","","","","","","","","","","","","","","","","","","","","","",""
"","","","","","html-slider-response","123","1375054","0.0-21.0-0.3","5f64f9d2-9afc-4ce5-8201-31c26c727e85","1000","
                  <p style=""text-align: center;"">₪43
                                                <br>75%</p>
                  <p id=""wtp"" style=""text-align:center; margin-top: 0px; margin-bottom: 0px; font-size: 40px"";>&ensp;</p>","-","viewing","0","18","11B,19B,24A,26A","","","","","","","","","","","","","","","","","","","","",""
"","","","","","html-slider-response","124","1379059","0.0-21.0-1.3","5f64f9d2-9afc-4ce5-8201-31c26c727e85","null","
                  <p style=""text-align: center;"">₪43
                                                <br>75%</p>
                  <p id=""wtp"" style=""text-align:center; margin-top: 0px; margin-bottom: 0px; font-size: 40px"";>מוכנים לשלם: <span id=""c_p_y""></span></p>","null","evaluation","79","18","11B,19B,24A,26A","75","43","25","","","","","","","","","","","","","","","","","",""
"","","","","","html-keyboard-response","125","1379990","0.0-21.0-2.3","5f64f9d2-9afc-4ce5-8201-31c26c727e85","null","<p style=""text-align: center;"">+</p>","null","fixation","","","","","","","","","","","","","","","","","","","","","","","",""
"","","","","","html-slider-response","126","1380992","0.0-21.0-0.4","5f64f9d2-9afc-4ce5-8201-31c26c727e85","1000","
                  <p style=""text-align: center;"">₪64
                                                <br>25%</p>
                  <p id=""wtp"" style=""text-align:center; margin-top: 0px; margin-bottom: 0px; font-size: 40px"";>&ensp;</p>","-","viewing","0","24","6A,21A","","","","","","","","","","","","","","","","","","","","",""
"","","","","","html-slider-response","127","1383093","0.0-21.0-1.4","5f64f9d2-9afc-4ce5-8201-31c26c727e85","2100","
                  <p style=""text-align: center;"">₪64
                                                <br>25%</p>
                  <p id=""wtp"" style=""text-align:center; margin-top: 0px; margin-bottom: 0px; font-size: 40px"";>מוכנים לשלם: <span id=""c_p_y""></span></p>","8","evaluation","16","24","6A,21A","25","64","9","","","","","","","","","","","","","","","","","",""
"","","","","","html-keyboard-response","128","1384225","0.0-21.0-2.4","5f64f9d2-9afc-4ce5-8201-31c26c727e85","null","<p style=""text-align: center;"">+</p>","null","fixation","","","","","","","","","","","","","","","","","","","","","","","",""
"","","","","","html-slider-response","129","1385238","0.0-21.0-0.5","5f64f9d2-9afc-4ce5-8201-31c26c727e85","1000","
                  <p style=""text-align: center;"">₪36
                                                <br>60%</p>
                  <p id=""wtp"" style=""text-align:center; margin-top: 0px; margin-bottom: 0px; font-size: 40px"";>&ensp;</p>","-","viewing","0","12","1C,7C,15C","","","","","","","","","","","","","","","","","","","","",""
"","","","","","html-slider-response","130","1389069","0.0-21.0-1.5","5f64f9d2-9afc-4ce5-8201-31c26c727e85","3830","
                  <p style=""text-align: center;"">₪36
                                                <br>60%</p>
                  <p id=""wtp"" style=""text-align:center; margin-top: 0px; margin-bottom: 0px; font-size: 40px"";>מוכנים לשלם: <span id=""c_p_y""></span></p>","21","evaluation","15","12","1C,7C,15C","60","36","21","","","","","","","","","","","","","","","","","",""
"","","","","","html-keyboard-response","131","1389911","0.0-21.0-2.5","5f64f9d2-9afc-4ce5-8201-31c26c727e85","null","<p style=""text-align: center;"">+</p>","null","fixation","","","","","","","","","","","","","","","","","","","","","","","",""
"","","","","","html-slider-response","132","1390912","0.0-21.0-0.6","5f64f9d2-9afc-4ce5-8201-31c26c727e85","1000","
                  <p style=""text-align: center;"">₪43
                                                <br>60%</p>
                  <p id=""wtp"" style=""text-align:center; margin-top: 0px; margin-bottom: 0px; font-size: 40px"";>&ensp;</p>","-","viewing","0","17","2A,7A,9A,15B","","","","","","","","","","","","","","","","","","","","",""
"","","","","","html-slider-response","133","1392718","0.0-21.0-1.6","5f64f9d2-9afc-4ce5-8201-31c26c727e85","1804","
                  <p style=""text-align: center;"">₪43
                                                <br>60%</p>
                  <p id=""wtp"" style=""text-align:center; margin-top: 0px; margin-bottom: 0px; font-size: 40px"";>מוכנים לשלם: <span id=""c_p_y""></span></p>","20","evaluation","61","17","2A,7A,9A,15B","60","43","20","","","","","","","","","","","","","","","","","",""
"","","","","","html-keyboard-response","134","1394013","0.0-21.0-2.6","5f64f9d2-9afc-4ce5-8201-31c26c727e85","null","<p style=""text-align: center;"">+</p>","null","fixation","","","","","","","","","","","","","","","","","","","","","","","",""
"","","","","","html-slider-response","135","1395020","0.0-21.0-0.7","5f64f9d2-9afc-4ce5-8201-31c26c727e85","1000","
                  <p style=""text-align: center;"">₪61
                                                <br>55%</p>
                  <p id=""wtp"" style=""text-align:center; margin-top: 0px; margin-bottom: 0px; font-size: 40px"";>&ensp;</p>","-","viewing","0","23","7B,26B","","","","","","","","","","","","","","","","","","","","",""
"","","","","","html-slider-response","136","1398908","0.0-21.0-1.7","5f64f9d2-9afc-4ce5-8201-31c26c727e85","3888","
                  <p style=""text-align: center;"">₪61
                                                <br>55%</p>
                  <p id=""wtp"" style=""text-align:center; margin-top: 0px; margin-bottom: 0px; font-size: 40px"";>מוכנים לשלם: <span id=""c_p_y""></span></p>","24","evaluation","12","23","7B,26B","55","61","24","","","","","","","","","","","","","","","","","",""
"","","","","","html-keyboard-response","137","1399525","0.0-21.0-2.7","5f64f9d2-9afc-4ce5-8201-31c26c727e85","null","<p style=""text-align: center;"">+</p>","null","fixation","","","","","","","","","","","","","","","","","","","","","","","",""
"","","","","","html-slider-response","138","1400533","0.0-21.0-0.8","5f64f9d2-9afc-4ce5-8201-31c26c727e85","1000","
                  <p style=""text-align: center;"">₪39
                                                <br>65%</p>
                  <p id=""wtp"" style=""text-align:center; margin-top: 0px; margin-bottom: 0px; font-size: 40px"";>&ensp;</p>","-","viewing","0","16","1A,15A,26C","","","","","","","","","","","","","","","","","","","","",""
"","","","","","html-slider-response","139","1404546","0.0-21.0-1.8","5f64f9d2-9afc-4ce5-8201-31c26c727e85","null","
                  <p style=""text-align: center;"">₪39
                                                <br>65%</p>
                  <p id=""wtp"" style=""text-align:center; margin-top: 0px; margin-bottom: 0px; font-size: 40px"";>מוכנים לשלם: <span id=""c_p_y""></span></p>","null","evaluation","70","16","1A,15A,26C","65","39","16","","","","","","","","","","","","","","","","","",""
"","","","","","html-keyboard-response","140","1405122","0.0-21.0-2.8","5f64f9d2-9afc-4ce5-8201-31c26c727e85","null","<p style=""text-align: center;"">+</p>","null","fixation","","","","","","","","","","","","","","","","","","","","","","","",""
"","","","","","html-slider-response","141","1406125","0.0-21.0-0.9","5f64f9d2-9afc-4ce5-8201-31c26c727e85","1000","
                  <p style=""text-align: center;"">₪11
                                                <br>20%</p>
                  <p id=""wtp"" style=""text-align:center; margin-top: 0px; margin-bottom: 0px; font-size: 40px"";>&ensp;</p>","-","viewing","0","4","12C,17C,23C,28C","","","","","","","","","","","","","","","","","","","","",""
"","","","","","html-slider-response","142","1407812","0.0-21.0-1.9","5f64f9d2-9afc-4ce5-8201-31c26c727e85","1686","
                  <p style=""text-align: center;"">₪11
                                                <br>20%</p>
                  <p id=""wtp"" style=""text-align:center; margin-top: 0px; margin-bottom: 0px; font-size: 40px"";>מוכנים לשלם: <span id=""c_p_y""></span></p>","2","evaluation","9","4","12C,17C,23C,28C","20","11","3","","","","","","","","","","","","","","","","","",""
"","","","","","html-keyboard-response","143","1408386","0.0-21.0-2.9","5f64f9d2-9afc-4ce5-8201-31c26c727e85","null","<p style=""text-align: center;"">+</p>","null","fixation","","","","","","","","","","","","","","","","","","","","","","","",""
"","","","","","html-slider-response","144","1409389","0.0-21.0-0.10","5f64f9d2-9afc-4ce5-8201-31c26c727e85","1000","
                  <p style=""text-align: center;"">₪76
                                                <br>65%</p>
                  <p id=""wtp"" style=""text-align:center; margin-top: 0px; margin-bottom: 0px; font-size: 40px"";>&ensp;</p>","-","viewing","0","29","8C,19A,24B","","","","","","","","","","","","","","","","","","","","",""
"","","","","","html-slider-response","145","1412068","0.0-21.0-1.10","5f64f9d2-9afc-4ce5-8201-31c26c727e85","2679","
                  <p style=""text-align: center;"">₪76
                                                <br>65%</p>
                  <p id=""wtp"" style=""text-align:center; margin-top: 0px; margin-bottom: 0px; font-size: 40px"";>מוכנים לשלם: <span id=""c_p_y""></span></p>","34","evaluation","42","29","8C,19A,24B","65","76","34","","","","","","","","","","","","","","","","","",""
"","","","","","html-keyboard-response","146","1412818","0.0-21.0-2.10","5f64f9d2-9afc-4ce5-8201-31c26c727e85","null","<p style=""text-align: center;"">+</p>","null","fixation","","","","","","","","","","","","","","","","","","","","","","","",""
"","","","","","html-slider-response","147","1413822","0.0-21.0-0.11","5f64f9d2-9afc-4ce5-8201-31c26c727e85","1000","
                  <p style=""text-align: center;"">₪4
                                                <br>50%</p>
                  <p id=""wtp"" style=""text-align:center; margin-top: 0px; margin-bottom: 0px; font-size: 40px"";>&ensp;</p>","-","viewing","0","2","4C,17B","","","","","","","","","","","","","","","","","","","","",""
"","","","","","html-slider-response","148","1416756","0.0-21.0-1.11","5f64f9d2-9afc-4ce5-8201-31c26c727e85","2933","
                  <p style=""text-align: center;"">₪4
                                                <br>50%</p>
                  <p id=""wtp"" style=""text-align:center; margin-top: 0px; margin-bottom: 0px; font-size: 40px"";>מוכנים לשלם: <span id=""c_p_y""></span></p>","2","evaluation","68","2","4C,17B","50","4","2","","","","","","","","","","","","","","","","","",""
"","","","","","html-keyboard-response","149","1417370","0.0-21.0-2.11","5f64f9d2-9afc-4ce5-8201-31c26c727e85","null","<p style=""text-align: center;"">+</p>","null","fixation","","","","","","","","","","","","","","","","","","","","","","","",""
"","","","","","html-slider-response","150","1418387","0.0-21.0-0.12","5f64f9d2-9afc-4ce5-8201-31c26c727e85","1000","
                  <p style=""text-align: center;"">₪16
                                                <br>20%</p>
                  <p id=""wtp"" style=""text-align:center; margin-top: 0px; margin-bottom: 0px; font-size: 40px"";>&ensp;</p>","-","viewing","0","8","14C,17A,20C,27A","","","","","","","","","","","","","","","","","","","","",""
"","","","","","html-slider-response","151","1421068","0.0-21.0-1.12","5f64f9d2-9afc-4ce5-8201-31c26c727e85","2680","
                  <p style=""text-align: center;"">₪16
                                                <br>20%</p>
                  <p id=""wtp"" style=""text-align:center; margin-top: 0px; margin-bottom: 0px; font-size: 40px"";>מוכנים לשלם: <span id=""c_p_y""></span></p>","4","evaluation","30","8","14C,17A,20C,27A","20","16","4","","","","","","","","","","","","","","","","","",""
"","","","","","html-keyboard-response","152","1421699","0.0-21.0-2.12","5f64f9d2-9afc-4ce5-8201-31c26c727e85","null","<p style=""text-align: center;"">+</p>","null","fixation","","","","","","","","","","","","","","","","","","","","","","","",""
"","","","","","html-slider-response","153","1422708","0.0-21.0-0.13","5f64f9d2-9afc-4ce5-8201-31c26c727e85","1000","
                  <p style=""text-align: center;"">₪39
                                                <br>60%</p>
                  <p id=""wtp"" style=""text-align:center; margin-top: 0px; margin-bottom: 0px; font-size: 40px"";>&ensp;</p>","-","viewing","0","15","9C,25B","","","","","","","","","","","","","","","","","","","","",""
"","","","","","html-slider-response","154","1426711","0.0-21.0-1.13","5f64f9d2-9afc-4ce5-8201-31c26c727e85","null","
                  <p style=""text-align: center;"">₪39
                                                <br>60%</p>
                  <p id=""wtp"" style=""text-align:center; margin-top: 0px; margin-bottom: 0px; font-size: 40px"";>מוכנים לשלם: <span id=""c_p_y""></span></p>","null","evaluation","68","15","9C,25B","60","39","17","","","","","","","","","","","","","","","","","",""
"","","","","","html-keyboard-response","155","1427587","0.0-21.0-2.13","5f64f9d2-9afc-4ce5-8201-31c26c727e85","null","<p style=""text-align: center;"">+</p>","null","fixation","","","","","","","","","","","","","","","","","","","","","","","",""
"","","","","","html-slider-response","156","1428601","0.0-21.0-0.14","5f64f9d2-9afc-4ce5-8201-31c26c727e85","1000","
                  <p style=""text-align: center;"">₪18
                                                <br>25%</p>
                  <p id=""wtp"" style=""text-align:center; margin-top: 0px; margin-bottom: 0px; font-size: 40px"";>&ensp;</p>","-","viewing","0","9","14A,23A","","","","","","","","","","","","","","","","","","","","",""
"","","","","","html-slider-response","157","1431036","0.0-21.0-1.14","5f64f9d2-9afc-4ce5-8201-31c26c727e85","2434","
                  <p style=""text-align: center;"">₪18
                                                <br>25%</p>
                  <p id=""wtp"" style=""text-align:center; margin-top: 0px; margin-bottom: 0px; font-size: 40px"";>מוכנים לשלם: <span id=""c_p_y""></span></p>","4","evaluation","33","9","14A,23A","25","18","4","","","","","","","","","","","","","","","","","",""
"","","","","","html-keyboard-response","158","1431687","0.0-21.0-2.14","5f64f9d2-9afc-4ce5-8201-31c26c727e85","null","<p style=""text-align: center;"">+</p>","null","fixation","","","","","","","","","","","","","","","","","","","","","","","",""
"","","","","","html-slider-response","159","1432692","0.0-21.0-0.15","5f64f9d2-9afc-4ce5-8201-31c26c727e85","1000","
                  <p style=""text-align: center;"">₪11
                                                <br>25%</p>
                  <p id=""wtp"" style=""text-align:center; margin-top: 0px; margin-bottom: 0px; font-size: 40px"";>&ensp;</p>","-","viewing","0","5","12A,27B,28B,30B","","","","","","","","","","","","","","","","","","","","",""
"","","","","","html-slider-response","160","1436701","0.0-21.0-1.15","5f64f9d2-9afc-4ce5-8201-31c26c727e85","null","
                  <p style=""text-align: center;"">₪11
                                                <br>25%</p>
                  <p id=""wtp"" style=""text-align:center; margin-top: 0px; margin-bottom: 0px; font-size: 40px"";>מוכנים לשלם: <span id=""c_p_y""></span></p>","null","evaluation","18","5","12A,27B,28B,30B","25","11","3","","","","","","","","","","","","","","","","","",""
"","","","","","html-keyboard-response","161","1437749","0.0-21.0-2.15","5f64f9d2-9afc-4ce5-8201-31c26c727e85","null","<p style=""text-align: center;"">+</p>","null","fixation","","","","","","","","","","","","","","","","","","","","","","","",""
"","","","","","html-slider-response","162","1438751","0.0-21.0-0.16","5f64f9d2-9afc-4ce5-8201-31c26c727e85","1000","
                  <p style=""text-align: center;"">₪11
                                                <br>75%</p>
                  <p id=""wtp"" style=""text-align:center; margin-top: 0px; margin-bottom: 0px; font-size: 40px"";>&ensp;</p>","-","viewing","0","7","6B,18B,22C,24C,29A","","","","","","","","","","","","","","","","","","","","",""
"","","","","","html-slider-response","163","1441020","0.0-21.0-1.16","5f64f9d2-9afc-4ce5-8201-31c26c727e85","2268","
                  <p style=""text-align: center;"">₪11
                                                <br>75%</p>
                  <p id=""wtp"" style=""text-align:center; margin-top: 0px; margin-bottom: 0px; font-size: 40px"";>מוכנים לשלם: <span id=""c_p_y""></span></p>","8","evaluation","58","7","6B,18B,22C,24C,29A","75","11","8","","","","","","","","","","","","","","","","","",""
"","","","","","html-keyboard-response","164","1441806","0.0-21.0-2.16","5f64f9d2-9afc-4ce5-8201-31c26c727e85","null","<p style=""text-align: center;"">+</p>","null","fixation","","","","","","","","","","","","","","","","","","","","","","","",""
"","","","","","html-slider-response","165","1442812","0.0-21.0-0.17","5f64f9d2-9afc-4ce5-8201-31c26c727e85","1000","
                  <p style=""text-align: center;"">₪4
                                                <br>75%</p>
                  <p id=""wtp"" style=""text-align:center; margin-top: 0px; margin-bottom: 0px; font-size: 40px"";>&ensp;</p>","-","viewing","0","3","12B,20B,23B,27C,29C","","","","","","","","","","","","","","","","","","","","",""
"","","","","","html-slider-response","166","1446817","0.0-21.0-1.17","5f64f9d2-9afc-4ce5-8201-31c26c727e85","null","
                  <p style=""text-align: center;"">₪4
                                                <br>75%</p>
                  <p id=""wtp"" style=""text-align:center; margin-top: 0px; margin-bottom: 0px; font-size: 40px"";>מוכנים לשלם: <span id=""c_p_y""></span></p>","null","evaluation","69","3","12B,20B,23B,27C,29C","75","4","3","","","","","","","","","","","","","","","","","",""
"","","","","","html-keyboard-response","167","1447655","0.0-21.0-2.17","5f64f9d2-9afc-4ce5-8201-31c26c727e85","null","<p style=""text-align: center;"">+</p>","null","fixation","","","","","","","","","","","","","","","","","","","","","","","",""
"","","","","","html-slider-response","168","1448661","0.0-21.0-0.18","5f64f9d2-9afc-4ce5-8201-31c26c727e85","1000","
                  <p style=""text-align: center;"">₪11
                                                <br>45%</p>
                  <p id=""wtp"" style=""text-align:center; margin-top: 0px; margin-bottom: 0px; font-size: 40px"";>&ensp;</p>","-","viewing","0","6","14B,21C,25C","","","","","","","","","","","","","","","","","","","","",""
"","","","","","html-slider-response","169","1452668","0.0-21.0-1.18","5f64f9d2-9afc-4ce5-8201-31c26c727e85","null","
                  <p style=""text-align: center;"">₪11
                                                <br>45%</p>
                  <p id=""wtp"" style=""text-align:center; margin-top: 0px; margin-bottom: 0px; font-size: 40px"";>מוכנים לשלם: <span id=""c_p_y""></span></p>","null","evaluation","17","6","14B,21C,25C","45","11","4","","","","","","","","","","","","","","","","","",""
"","","","","","html-keyboard-response","170","1453661","0.0-21.0-2.18","5f64f9d2-9afc-4ce5-8201-31c26c727e85","null","<p style=""text-align: center;"">+</p>","null","fixation","","","","","","","","","","","","","","","","","","","","","","","",""
"","","","","","html-slider-response","171","1454669","0.0-21.0-0.19","5f64f9d2-9afc-4ce5-8201-31c26c727e85","1000","
                  <p style=""text-align: center;"">₪64
                                                <br>50%</p>
                  <p id=""wtp"" style=""text-align:center; margin-top: 0px; margin-bottom: 0px; font-size: 40px"";>&ensp;</p>","-","viewing","0","25","1B,3B,4A","","","","","","","","","","","","","","","","","","","","",""
"","","","","","html-slider-response","172","1458597","0.0-21.0-1.19","5f64f9d2-9afc-4ce5-8201-31c26c727e85","3927","
                  <p style=""text-align: center;"">₪64
                                                <br>50%</p>
                  <p id=""wtp"" style=""text-align:center; margin-top: 0px; margin-bottom: 0px; font-size: 40px"";>מוכנים לשלם: <span id=""c_p_y""></span></p>","11","evaluation","67","25","1B,3B,4A","50","64","12","","","","","","","","","","","","","","","","","",""
"","","","","","html-keyboard-response","173","1459853","0.0-21.0-2.19","5f64f9d2-9afc-4ce5-8201-31c26c727e85","null","<p style=""text-align: center;"">+</p>","null","fixation","","","","","","","","","","","","","","","","","","","","","","","",""
"","","","","","html-slider-response","174","1460866","0.0-21.0-0.20","5f64f9d2-9afc-4ce5-8201-31c26c727e85","1000","
                  <p style=""text-align: center;"">₪58
                                                <br>30%</p>
                  <p id=""wtp"" style=""text-align:center; margin-top: 0px; margin-bottom: 0px; font-size: 40px"";>&ensp;</p>","-","viewing","0","19","13C,30A","","","","","","","","","","","","","","","","","","","","",""
"","","","","","html-slider-response","175","1463509","0.0-21.0-1.20","5f64f9d2-9afc-4ce5-8201-31c26c727e85","2641","
                  <p style=""text-align: center;"">₪58
                                                <br>30%</p>
                  <p id=""wtp"" style=""text-align:center; margin-top: 0px; margin-bottom: 0px; font-size: 40px"";>מוכנים לשלם: <span id=""c_p_y""></span></p>","9","evaluation","36","19","13C,30A","30","58","10","","","","","","","","","","","","","","","","","",""
"","","","","","html-keyboard-response","176","1464075","0.0-21.0-2.20","5f64f9d2-9afc-4ce5-8201-31c26c727e85","null","<p style=""text-align: center;"">+</p>","null","fixation","","","","","","","","","","","","","","","","","","","","","","","",""
"","","","","","html-slider-response","177","1465078","0.0-21.0-0.21","5f64f9d2-9afc-4ce5-8201-31c26c727e85","1000","
                  <p style=""text-align: center;"">₪36
                                                <br>30%</p>
                  <p id=""wtp"" style=""text-align:center; margin-top: 0px; margin-bottom: 0px; font-size: 40px"";>&ensp;</p>","-","viewing","0","11","3C,20A,22A","","","","","","","","","","","","","","","","","","","","",""
"","","","","","html-slider-response","178","1468037","0.0-21.0-1.21","5f64f9d2-9afc-4ce5-8201-31c26c727e85","2958","
                  <p style=""text-align: center;"">₪36
                                                <br>30%</p>
                  <p id=""wtp"" style=""text-align:center; margin-top: 0px; margin-bottom: 0px; font-size: 40px"";>מוכנים לשלם: <span id=""c_p_y""></span></p>","6","evaluation","9","11","3C,20A,22A","30","36","7","","","","","","","","","","","","","","","","","",""
"","","","","","html-keyboard-response","179","1468770","0.0-21.0-2.21","5f64f9d2-9afc-4ce5-8201-31c26c727e85","null","<p style=""text-align: center;"">+</p>","null","fixation","","","","","","","","","","","","","","","","","","","","","","","",""
"","","","","","html-slider-response","180","1469778","0.0-21.0-0.22","5f64f9d2-9afc-4ce5-8201-31c26c727e85","1000","
                  <p style=""text-align: center;"">₪18
                                                <br>50%</p>
                  <p id=""wtp"" style=""text-align:center; margin-top: 0px; margin-bottom: 0px; font-size: 40px"";>&ensp;</p>","-","viewing","0","10","2C,16C,22B,28A","","","","","","","","","","","","","","","","","","","","",""
"","","","","","html-slider-response","181","1472981","0.0-21.0-1.22","5f64f9d2-9afc-4ce5-8201-31c26c727e85","3202","
                  <p style=""text-align: center;"">₪18
                                                <br>50%</p>
                  <p id=""wtp"" style=""text-align:center; margin-top: 0px; margin-bottom: 0px; font-size: 40px"";>מוכנים לשלם: <span id=""c_p_y""></span></p>","8","evaluation","26","10","2C,16C,22B,28A","50","18","9","","","","","","","","","","","","","","","","","",""
"","","","","","html-keyboard-response","182","1473709","0.0-21.0-2.22","5f64f9d2-9afc-4ce5-8201-31c26c727e85","null","<p style=""text-align: center;"">+</p>","null","fixation","","","","","","","","","","","","","","","","","","","","","","","",""
"","","","","","html-slider-response","183","1474720","0.0-21.0-0.23","5f64f9d2-9afc-4ce5-8201-31c26c727e85","1000","
                  <p style=""text-align: center;"">₪36
                                                <br>75%</p>
                  <p id=""wtp"" style=""text-align:center; margin-top: 0px; margin-bottom: 0px; font-size: 40px"";>&ensp;</p>","-","viewing","0","14","4B,5A,13B,16B","","","","","","","","","","","","","","","","","","","","",""
"","","","","","html-slider-response","184","1477997","0.0-21.0-1.23","5f64f9d2-9afc-4ce5-8201-31c26c727e85","3276","
                  <p style=""text-align: center;"">₪36
                                                <br>75%</p>
                  <p id=""wtp"" style=""text-align:center; margin-top: 0px; margin-bottom: 0px; font-size: 40px"";>מוכנים לשלם: <span id=""c_p_y""></span></p>","19","evaluation","45","14","4B,5A,13B,16B","75","36","19","","","","","","","","","","","","","","","","","",""
"","","","","","html-keyboard-response","185","1479255","0.0-21.0-2.23","5f64f9d2-9afc-4ce5-8201-31c26c727e85","null","<p style=""text-align: center;"">+</p>","null","fixation","","","","","","","","","","","","","","","","","","","","","","","",""
"","","","","","html-slider-response","186","1480257","0.0-21.0-0.24","5f64f9d2-9afc-4ce5-8201-31c26c727e85","1000","
                  <p style=""text-align: center;"">₪79
                                                <br>65%</p>
                  <p id=""wtp"" style=""text-align:center; margin-top: 0px; margin-bottom: 0px; font-size: 40px"";>&ensp;</p>","-","viewing","0","31","8A","","","","","","","","","","","","","","","","","","","","",""
"","","","","","html-slider-response","187","1484261","0.0-21.0-1.24","5f64f9d2-9afc-4ce5-8201-31c26c727e85","null","
                  <p style=""text-align: center;"">₪79
                                                <br>65%</p>
                  <p id=""wtp"" style=""text-align:center; margin-top: 0px; margin-bottom: 0px; font-size: 40px"";>מוכנים לשלם: <span id=""c_p_y""></span></p>","null","evaluation","13","31","8A","65","79","16","","","","","","","","","","","","","","","","","",""
"","","","","","html-keyboard-response","188","1485253","0.0-21.0-2.24","5f64f9d2-9afc-4ce5-8201-31c26c727e85","null","<p style=""text-align: center;"">+</p>","null","fixation","","","","","","","","","","","","","","","","","","","","","","","",""
"","","","","","html-slider-response","189","1486261","0.0-21.0-0.25","5f64f9d2-9afc-4ce5-8201-31c26c727e85","1000","
                  <p style=""text-align: center;"">₪58
                                                <br>40%</p>
                  <p id=""wtp"" style=""text-align:center; margin-top: 0px; margin-bottom: 0px; font-size: 40px"";>&ensp;</p>","-","viewing","0","20","10C,13A,19C,21B","","","","","","","","","","","","","","","","","","","","",""
"","","","","","html-slider-response","190","1489541","0.0-21.0-1.25","5f64f9d2-9afc-4ce5-8201-31c26c727e85","3279","
                  <p style=""text-align: center;"">₪58
                                                <br>40%</p>
                  <p id=""wtp"" style=""text-align:center; margin-top: 0px; margin-bottom: 0px; font-size: 40px"";>מוכנים לשלם: <span id=""c_p_y""></span></p>","10","evaluation","5","20","10C,13A,19C,21B","40","58","10","","","","","","","","","","","","","","","","","",""
"","","","","","html-keyboard-response","191","1490868","0.0-21.0-2.25","5f64f9d2-9afc-4ce5-8201-31c26c727e85","null","<p style=""text-align: center;"">+</p>","null","fixation","","","","","","","","","","","","","","","","","","","","","","","",""
"","","","","","html-slider-response","192","1491870","0.0-21.0-0.26","5f64f9d2-9afc-4ce5-8201-31c26c727e85","1000","
                  <p style=""text-align: center;"">₪4
                                                <br>25%</p>
                  <p id=""wtp"" style=""text-align:center; margin-top: 0px; margin-bottom: 0px; font-size: 40px"";>&ensp;</p>","-","viewing","0","1","6C,29B,30C","","","","","","","","","","","","","","","","","","","","",""
"","","","","","html-slider-response","193","1494357","0.0-21.0-1.26","5f64f9d2-9afc-4ce5-8201-31c26c727e85","2486","
                  <p style=""text-align: center;"">₪4
                                                <br>25%</p>
                  <p id=""wtp"" style=""text-align:center; margin-top: 0px; margin-bottom: 0px; font-size: 40px"";>מוכנים לשלם: <span id=""c_p_y""></span></p>","0","evaluation","36","1","6C,29B,30C","25","4","1","","","","","","","","","","","","","","","","","",""
"","","","","","html-keyboard-response","194","1495560","0.0-21.0-2.26","5f64f9d2-9afc-4ce5-8201-31c26c727e85","null","<p style=""text-align: center;"">+</p>","null","fixation","","","","","","","","","","","","","","","","","","","","","","","",""
"","","","","","html-slider-response","195","1496575","0.0-21.0-0.27","5f64f9d2-9afc-4ce5-8201-31c26c727e85","1000","
                  <p style=""text-align: center;"">₪61
                                                <br>45%</p>
                  <p id=""wtp"" style=""text-align:center; margin-top: 0px; margin-bottom: 0px; font-size: 40px"";>&ensp;</p>","-","viewing","0","22","10A,11A","","","","","","","","","","","","","","","","","","","","",""
"","","","","","html-slider-response","196","1500585","0.0-21.0-1.27","5f64f9d2-9afc-4ce5-8201-31c26c727e85","null","
                  <p style=""text-align: center;"">₪61
                                                <br>45%</p>
                  <p id=""wtp"" style=""text-align:center; margin-top: 0px; margin-bottom: 0px; font-size: 40px"";>מוכנים לשלם: <span id=""c_p_y""></span></p>","null","evaluation","29","22","10A,11A","45","61","15","","","","","","","","","","","","","","","","","",""
"","","","","","html-keyboard-response","197","1501275","0.0-21.0-2.27","5f64f9d2-9afc-4ce5-8201-31c26c727e85","null","<p style=""text-align: center;"">+</p>","null","fixation","","","","","","","","","","","","","","","","","","","","","","","",""
"","","","","","html-slider-response","198","1502283","0.0-21.0-0.28","5f64f9d2-9afc-4ce5-8201-31c26c727e85","1000","
                  <p style=""text-align: center;"">₪79
                                                <br>40%</p>
                  <p id=""wtp"" style=""text-align:center; margin-top: 0px; margin-bottom: 0px; font-size: 40px"";>&ensp;</p>","-","viewing","0","30","9B","","","","","","","","","","","","","","","","","","","","",""
"","","","","","html-slider-response","199","1504893","0.0-21.0-1.28","5f64f9d2-9afc-4ce5-8201-31c26c727e85","2609","
                  <p style=""text-align: center;"">₪79
                                                <br>40%</p>
                  <p id=""wtp"" style=""text-align:center; margin-top: 0px; margin-bottom: 0px; font-size: 40px"";>מוכנים לשלם: <span id=""c_p_y""></span></p>","20","evaluation","32","30","9B","40","79","20","","","","","","","","","","","","","","","","","",""
"","","","","","html-keyboard-response","200","1505737","0.0-21.0-2.28","5f64f9d2-9afc-4ce5-8201-31c26c727e85","null","<p style=""text-align: center;"">+</p>","null","fixation","","","","","","","","","","","","","","","","","","","","","","","",""
"","","","","","html-slider-response","201","1506753","0.0-21.0-0.29","5f64f9d2-9afc-4ce5-8201-31c26c727e85","1000","
                  <p style=""text-align: center;"">₪71
                                                <br>45%</p>
                  <p id=""wtp"" style=""text-align:center; margin-top: 0px; margin-bottom: 0px; font-size: 40px"";>&ensp;</p>","-","viewing","0","26","2B,16A","","","","","","","","","","","","","","","","","","","","",""
"","","","","","html-slider-response","202","1508973","0.0-21.0-1.29","5f64f9d2-9afc-4ce5-8201-31c26c727e85","2219","
                  <p style=""text-align: center;"">₪71
                                                <br>45%</p>
                  <p id=""wtp"" style=""text-align:center; margin-top: 0px; margin-bottom: 0px; font-size: 40px"";>מוכנים לשלם: <span id=""c_p_y""></span></p>","20","evaluation","41","26","2B,16A","45","71","20","","","","","","","","","","","","","","","","","",""
"","","","","","html-keyboard-response","203","1509646","0.0-21.0-2.29","5f64f9d2-9afc-4ce5-8201-31c26c727e85","null","<p style=""text-align: center;"">+</p>","null","fixation","","","","","","","","","","","","","","","","","","","","","","","",""
"","","","","","html-slider-response","204","1510658","0.0-21.0-0.30","5f64f9d2-9afc-4ce5-8201-31c26c727e85","1000","
                  <p style=""text-align: center;"">₪36
                                                <br>70%</p>
                  <p id=""wtp"" style=""text-align:center; margin-top: 0px; margin-bottom: 0px; font-size: 40px"";>&ensp;</p>","-","viewing","0","13","3A,5C,10B","","","","","","","","","","","","","","","","","","","","",""
"","","","","","html-slider-response","205","1512965","0.0-21.0-1.30","5f64f9d2-9afc-4ce5-8201-31c26c727e85","2307","
                  <p style=""text-align: center;"">₪36
                                                <br>70%</p>
                  <p id=""wtp"" style=""text-align:center; margin-top: 0px; margin-bottom: 0px; font-size: 40px"";>מוכנים לשלם: <span id=""c_p_y""></span></p>","20","evaluation","10","13","3A,5C,10B","70","36","20","","","","","","","","","","","","","","","","","",""
"","","","","","html-keyboard-response","206","1514337","0.0-21.0-2.30","5f64f9d2-9afc-4ce5-8201-31c26c727e85","null","<p style=""text-align: center;"">+</p>","null","fixation","","","","","","","","","","","","","","","","","","","","","","","",""
"","","","","","html-keyboard-response","207","1515346","0.0-22.0","5f64f9d2-9afc-4ce5-8201-31c26c727e85","null","<p style=""text-align: center;"">+</p>","null","fixation","","","","","","","","","","","","","","","","","","","","","","","",""
"","","","","","html-keyboard-response","208","1523045","0.0-23.0","5f64f9d2-9afc-4ce5-8201-31c26c727e85","null","<p>הפסקה.
          <br>לחצו כדי להמשיך.</p>","1","scan_wait","","","","","","","","","","","","","","","","","","","","","","","",""
"","","","","","html-keyboard-response","209","1524053","0.0-24.0","5f64f9d2-9afc-4ce5-8201-31c26c727e85","null","<p style=""text-align: center;"">+</p>","null","fixation","","","","","","","","","","","","","","","","","","","","","","","",""
"","","","","","html-slider-response","210","1525056","0.0-25.0-0.0","5f64f9d2-9afc-4ce5-8201-31c26c727e85","1000","
                  <p style=""text-align: center;"">₪79
                                                <br>40%</p>
                  <p id=""wtp"" style=""text-align:center; margin-top: 0px; margin-bottom: 0px; font-size: 40px"";>&ensp;</p>","-","viewing","0","30","9B","","","","","","","","","","","","","","","","","","","","",""
"","","","","","html-slider-response","211","1527877","0.0-25.0-1.0","5f64f9d2-9afc-4ce5-8201-31c26c727e85","2820","
                  <p style=""text-align: center;"">₪79
                                                <br>40%</p>
                  <p id=""wtp"" style=""text-align:center; margin-top: 0px; margin-bottom: 0px; font-size: 40px"";>מוכנים לשלם: <span id=""c_p_y""></span></p>","15","evaluation","27","30","9B","40","79","15","","","","","","","","","","","","","","","","","",""
"","","","","","html-keyboard-response","212","1528696","0.0-25.0-2.0","5f64f9d2-9afc-4ce5-8201-31c26c727e85","null","<p style=""text-align: center;"">+</p>","null","fixation","","","","","","","","","","","","","","","","","","","","","","","",""
"","","","","","html-slider-response","213","1529707","0.0-25.0-0.1","5f64f9d2-9afc-4ce5-8201-31c26c727e85","1000","
                  <p style=""text-align: center;"">₪58
                                                <br>30%</p>
                  <p id=""wtp"" style=""text-align:center; margin-top: 0px; margin-bottom: 0px; font-size: 40px"";>&ensp;</p>","-","viewing","0","19","13C,30A","","","","","","","","","","","","","","","","","","","","",""
"","","","","","html-slider-response","214","1533708","0.0-25.0-1.1","5f64f9d2-9afc-4ce5-8201-31c26c727e85","null","
                  <p style=""text-align: center;"">₪58
                                                <br>30%</p>
                  <p id=""wtp"" style=""text-align:center; margin-top: 0px; margin-bottom: 0px; font-size: 40px"";>מוכנים לשלם: <span id=""c_p_y""></span></p>","null","evaluation","42","19","13C,30A","30","58","18","","","","","","","","","","","","","","","","","",""
"","","","","","html-keyboard-response","215","1534688","0.0-25.0-2.1","5f64f9d2-9afc-4ce5-8201-31c26c727e85","null","<p style=""text-align: center;"">+</p>","null","fixation","","","","","","","","","","","","","","","","","","","","","","","",""
"","","","","","html-slider-response","216","1535690","0.0-25.0-0.2","5f64f9d2-9afc-4ce5-8201-31c26c727e85","1000","
                  <p style=""text-align: center;"">₪76
                                                <br>65%</p>
                  <p id=""wtp"" style=""text-align:center; margin-top: 0px; margin-bottom: 0px; font-size: 40px"";>&ensp;</p>","-","viewing","0","29","8C,19A,24B","","","","","","","","","","","","","","","","","","","","",""
"","","","","","html-slider-response","217","1537485","0.0-25.0-1.2","5f64f9d2-9afc-4ce5-8201-31c26c727e85","1794","
                  <p style=""text-align: center;"">₪76
                                                <br>65%</p>
                  <p id=""wtp"" style=""text-align:center; margin-top: 0px; margin-bottom: 0px; font-size: 40px"";>מוכנים לשלם: <span id=""c_p_y""></span></p>","30","evaluation","43","29","8C,19A,24B","65","76","30","","","","","","","","","","","","","","","","","",""
"","","","","","html-keyboard-response","218","1538314","0.0-25.0-2.2","5f64f9d2-9afc-4ce5-8201-31c26c727e85","null","<p style=""text-align: center;"">+</p>","null","fixation","","","","","","","","","","","","","","","","","","","","","","","",""
"","","","","","html-slider-response","219","1539317","0.0-25.0-0.3","5f64f9d2-9afc-4ce5-8201-31c26c727e85","1000","
                  <p style=""text-align: center;"">₪18
                                                <br>50%</p>
                  <p id=""wtp"" style=""text-align:center; margin-top: 0px; margin-bottom: 0px; font-size: 40px"";>&ensp;</p>","-","viewing","0","10","2C,16C,22B,28A","","","","","","","","","","","","","","","","","","","","",""
"","","","","","html-slider-response","220","1542789","0.0-25.0-1.3","5f64f9d2-9afc-4ce5-8201-31c26c727e85","3471","
                  <p style=""text-align: center;"">₪18
                                                <br>50%</p>
                  <p id=""wtp"" style=""text-align:center; margin-top: 0px; margin-bottom: 0px; font-size: 40px"";>מוכנים לשלם: <span id=""c_p_y""></span></p>","10","evaluation","30","10","2C,16C,22B,28A","50","18","10","","","","","","","","","","","","","","","","","",""
"","","","","","html-keyboard-response","221","1543374","0.0-25.0-2.3","5f64f9d2-9afc-4ce5-8201-31c26c727e85","null","<p style=""text-align: center;"">+</p>","null","fixation","","","","","","","","","","","","","","","","","","","","","","","",""
"","","","","","html-slider-response","222","1544384","0.0-25.0-0.4","5f64f9d2-9afc-4ce5-8201-31c26c727e85","1000","
                  <p style=""text-align: center;"">₪71
                                                <br>45%</p>
                  <p id=""wtp"" style=""text-align:center; margin-top: 0px; margin-bottom: 0px; font-size: 40px"";>&ensp;</p>","-","viewing","0","26","2B,16A","","","","","","","","","","","","","","","","","","","","",""
"","","","","","html-slider-response","223","1546613","0.0-25.0-1.4","5f64f9d2-9afc-4ce5-8201-31c26c727e85","2228","
                  <p style=""text-align: center;"">₪71
                                                <br>45%</p>
                  <p id=""wtp"" style=""text-align:center; margin-top: 0px; margin-bottom: 0px; font-size: 40px"";>מוכנים לשלם: <span id=""c_p_y""></span></p>","27","evaluation","7","26","2B,16A","45","71","27","","","","","","","","","","","","","","","","","",""
"","","","","","html-keyboard-response","224","1547737","0.0-25.0-2.4","5f64f9d2-9afc-4ce5-8201-31c26c727e85","null","<p style=""text-align: center;"">+</p>","null","fixation","","","","","","","","","","","","","","","","","","","","","","","",""
"","","","","","html-slider-response","225","1548747","0.0-25.0-0.5","5f64f9d2-9afc-4ce5-8201-31c26c727e85","1000","
                  <p style=""text-align: center;"">₪43
                                                <br>60%</p>
                  <p id=""wtp"" style=""text-align:center; margin-top: 0px; margin-bottom: 0px; font-size: 40px"";>&ensp;</p>","-","viewing","0","17","2A,7A,9A,15B","","","","","","","","","","","","","","","","","","","","",""
"","","","","","html-slider-response","226","1550917","0.0-25.0-1.5","5f64f9d2-9afc-4ce5-8201-31c26c727e85","2169","
                  <p style=""text-align: center;"">₪43
                                                <br>60%</p>
                  <p id=""wtp"" style=""text-align:center; margin-top: 0px; margin-bottom: 0px; font-size: 40px"";>מוכנים לשלם: <span id=""c_p_y""></span></p>","21","evaluation","17","17","2A,7A,9A,15B","60","43","21","","","","","","","","","","","","","","","","","",""
"","","","","","html-keyboard-response","227","1551959","0.0-25.0-2.5","5f64f9d2-9afc-4ce5-8201-31c26c727e85","null","<p style=""text-align: center;"">+</p>","null","fixation","","","","","","","","","","","","","","","","","","","","","","","",""
"","","","","","html-slider-response","228","1552964","0.0-25.0-0.6","5f64f9d2-9afc-4ce5-8201-31c26c727e85","1000","
                  <p style=""text-align: center;"">₪36
                                                <br>30%</p>
                  <p id=""wtp"" style=""text-align:center; margin-top: 0px; margin-bottom: 0px; font-size: 40px"";>&ensp;</p>","-","viewing","0","11","3C,20A,22A","","","","","","","","","","","","","","","","","","","","",""
"","","","","","html-slider-response","229","1555197","0.0-25.0-1.6","5f64f9d2-9afc-4ce5-8201-31c26c727e85","2232","
                  <p style=""text-align: center;"">₪36
                                                <br>30%</p>
                  <p id=""wtp"" style=""text-align:center; margin-top: 0px; margin-bottom: 0px; font-size: 40px"";>מוכנים לשלם: <span id=""c_p_y""></span></p>","10","evaluation","43","11","3C,20A,22A","30","36","11","","","","","","","","","","","","","","","","","",""
"","","","","","html-keyboard-response","230","1556090","0.0-25.0-2.6","5f64f9d2-9afc-4ce5-8201-31c26c727e85","null","<p style=""text-align: center;"">+</p>","null","fixation","","","","","","","","","","","","","","","","","","","","","","","",""
"","","","","","html-slider-response","231","1557094","0.0-25.0-0.7","5f64f9d2-9afc-4ce5-8201-31c26c727e85","1000","
                  <p style=""text-align: center;"">₪16
                                                <br>20%</p>
                  <p id=""wtp"" style=""text-align:center; margin-top: 0px; margin-bottom: 0px; font-size: 40px"";>&ensp;</p>","-","viewing","0","8","14C,17A,20C,27A","","","","","","","","","","","","","","","","","","","","",""
"","","","","","html-slider-response","232","1560093","0.0-25.0-1.7","5f64f9d2-9afc-4ce5-8201-31c26c727e85","2998","
                  <p style=""text-align: center;"">₪16
                                                <br>20%</p>
                  <p id=""wtp"" style=""text-align:center; margin-top: 0px; margin-bottom: 0px; font-size: 40px"";>מוכנים לשלם: <span id=""c_p_y""></span></p>","2","evaluation","38","8","14C,17A,20C,27A","20","16","2","","","","","","","","","","","","","","","","","",""
"","","","","","html-keyboard-response","233","1560694","0.0-25.0-2.7","5f64f9d2-9afc-4ce5-8201-31c26c727e85","null","<p style=""text-align: center;"">+</p>","null","fixation","","","","","","","","","","","","","","","","","","","","","","","",""
"","","","","","html-slider-response","234","1561696","0.0-25.0-0.8","5f64f9d2-9afc-4ce5-8201-31c26c727e85","1000","
                  <p style=""text-align: center;"">₪11
                                                <br>25%</p>
                  <p id=""wtp"" style=""text-align:center; margin-top: 0px; margin-bottom: 0px; font-size: 40px"";>&ensp;</p>","-","viewing","0","5","12A,27B,28B,30B","","","","","","","","","","","","","","","","","","","","",""
"","","","","","html-slider-response","235","1563197","0.0-25.0-1.8","5f64f9d2-9afc-4ce5-8201-31c26c727e85","1500","
                  <p style=""text-align: center;"">₪11
                                                <br>25%</p>
                  <p id=""wtp"" style=""text-align:center; margin-top: 0px; margin-bottom: 0px; font-size: 40px"";>מוכנים לשלם: <span id=""c_p_y""></span></p>","2","evaluation","67","5","12A,27B,28B,30B","25","11","2","","","","","","","","","","","","","","","","","",""
"","","","","","html-keyboard-response","236","1563750","0.0-25.0-2.8","5f64f9d2-9afc-4ce5-8201-31c26c727e85","null","<p style=""text-align: center;"">+</p>","null","fixation","","","","","","","","","","","","","","","","","","","","","","","",""
"","","","","","html-slider-response","237","1564764","0.0-25.0-0.9","5f64f9d2-9afc-4ce5-8201-31c26c727e85","1000","
                  <p style=""text-align: center;"">₪64
                                                <br>50%</p>
                  <p id=""wtp"" style=""text-align:center; margin-top: 0px; margin-bottom: 0px; font-size: 40px"";>&ensp;</p>","-","viewing","0","25","1B,3B,4A","","","","","","","","","","","","","","","","","","","","",""
"","","","","","html-slider-response","238","1568768","0.0-25.0-1.9","5f64f9d2-9afc-4ce5-8201-31c26c727e85","null","
                  <p style=""text-align: center;"">₪64
                                                <br>50%</p>
                  <p id=""wtp"" style=""text-align:center; margin-top: 0px; margin-bottom: 0px; font-size: 40px"";>מוכנים לשלם: <span id=""c_p_y""></span></p>","null","evaluation","35","25","1B,3B,4A","50","64","26","","","","","","","","","","","","","","","","","",""
"","","","","","html-keyboard-response","239","1569544","0.0-25.0-2.9","5f64f9d2-9afc-4ce5-8201-31c26c727e85","null","<p style=""text-align: center;"">+</p>","null","fixation","","","","","","","","","","","","","","","","","","","","","","","",""
"","","","","","html-slider-response","240","1570546","0.0-25.0-0.10","5f64f9d2-9afc-4ce5-8201-31c26c727e85","1000","
                  <p style=""text-align: center;"">₪61
                                                <br>45%</p>
                  <p id=""wtp"" style=""text-align:center; margin-top: 0px; margin-bottom: 0px; font-size: 40px"";>&ensp;</p>","-","viewing","0","22","10A,11A","","","","","","","","","","","","","","","","","","","","",""
"","","","","","html-slider-response","241","1573197","0.0-25.0-1.10","5f64f9d2-9afc-4ce5-8201-31c26c727e85","2650","
                  <p style=""text-align: center;"">₪61
                                                <br>45%</p>
                  <p id=""wtp"" style=""text-align:center; margin-top: 0px; margin-bottom: 0px; font-size: 40px"";>מוכנים לשלם: <span id=""c_p_y""></span></p>","23","evaluation","71","22","10A,11A","45","61","23","","","","","","","","","","","","","","","","","",""
"","","","","","html-keyboard-response","242","1574249","0.0-25.0-2.10","5f64f9d2-9afc-4ce5-8201-31c26c727e85","null","<p style=""text-align: center;"">+</p>","null","fixation","","","","","","","","","","","","","","","","","","","","","","","",""
"","","","","","html-slider-response","243","1575256","0.0-25.0-0.11","5f64f9d2-9afc-4ce5-8201-31c26c727e85","1000","
                  <p style=""text-align: center;"">₪36
                                                <br>70%</p>
                  <p id=""wtp"" style=""text-align:center; margin-top: 0px; margin-bottom: 0px; font-size: 40px"";>&ensp;</p>","-","viewing","0","13","3A,5C,10B","","","","","","","","","","","","","","","","","","","","",""
"","","","","","html-slider-response","244","1577117","0.0-25.0-1.11","5f64f9d2-9afc-4ce5-8201-31c26c727e85","1860","
                  <p style=""text-align: center;"">₪36
                                                <br>70%</p>
                  <p id=""wtp"" style=""text-align:center; margin-top: 0px; margin-bottom: 0px; font-size: 40px"";>מוכנים לשלם: <span id=""c_p_y""></span></p>","25","evaluation","77","13","3A,5C,10B","70","36","25","","","","","","","","","","","","","","","","","",""
"","","","","","html-keyboard-response","245","1577814","0.0-25.0-2.11","5f64f9d2-9afc-4ce5-8201-31c26c727e85","null","<p style=""text-align: center;"">+</p>","null","fixation","","","","","","","","","","","","","","","","","","","","","","","",""
"","","","","","html-slider-response","246","1578823","0.0-25.0-0.12","5f64f9d2-9afc-4ce5-8201-31c26c727e85","1000","
                  <p style=""text-align: center;"">₪43
                                                <br>75%</p>
                  <p id=""wtp"" style=""text-align:center; margin-top: 0px; margin-bottom: 0px; font-size: 40px"";>&ensp;</p>","-","viewing","0","18","11B,19B,24A,26A","","","","","","","","","","","","","","","","","","","","",""
"","","","","","html-slider-response","247","1581685","0.0-25.0-1.12","5f64f9d2-9afc-4ce5-8201-31c26c727e85","2860","
