"success","timeout","failed_images","failed_audio","failed_video","trial_type","trial_index","time_elapsed","internal_node_id","subject_id","rt","stimulus","response","part","slider_start","ID","set_ID","prob","amount","last_location","actual_choice","actual_EV","binary_id","trinary_id","catch","A_key","D_key","choice_prob","choice_amount","chosen_part","potential_prize_prob","potential_prize_amount","won_prize","total_prize","prize_cost","remaining_budget","accuracy"
"true","false","[]","[]","[]","preload","0","93","0.0-0.0","e59cfa13-2515-44e3-a0bd-39b5674668d1","","","","","","","","","","","","","","","","","","","","","","","","","","",""
"","","","","","html-keyboard-response","1","911608","0.0-1.0","e59cfa13-2515-44e3-a0bd-39b5674668d1","null","
          <h1>שלום וברוכים הבאים!</h1>
          <p>לפניכם ניסוי בקבלת החלטות עם שני חלקים.
          <br><br>לחצו על העכבר כדי להמשיך.</p>","0","example","","","","","","","","","","","","","","","","","","","","","","",""
"","","","","","html-keyboard-response","2","918392","0.0-2.0","e59cfa13-2515-44e3-a0bd-39b5674668d1","null","
        <h1>חלק 1</h1>
        <p>בקרוב יוצגו בפניכם הגרלות.
        <br>עליכם לבחור את המחיר המירבי שתהיו מוכנים לשלם כדי להשתתף בהגרלה שתוצג.
        <br>יש לכם תקציב של ₪80 לכל הגרלה. 
        <br>נסו להעריך כל הגרלה בנפרד ולחשוב כמה היא שווה עבורכם, ₪80 זמינים לכל הגרלה בנפרד.
        <br><br>לחצו על העכבר כדי להמשיך.</p>","1","instructions","","","","","","","","","","","","","","","","","","","","","","",""
"","","","","","html-keyboard-response","3","929000","0.0-3.0","e59cfa13-2515-44e3-a0bd-39b5674668d1","null","
        <p>בסוף הניסוי, המחשב יבחר את אחת ההגרלות ויקבע מחיר לכרטיס עבורה. 
        <br>במידה והמחיר שבחרתם נמוך מהמחיר שנבחר על ידי המחשב, לא תשתתפו בהגרלה ותשארו עם מלוא התקציב.
        <br>במידה והמחיר שבחרתם גבוה מהמחיר שנבחר על ידי המחשב, תשלמו את המחיר שנקבע ותשתתפו בהגרלה.
        <br><br>לחצו על העכבר כדי להמשיך.</p>","1","instructions","","","","","","","","","","","","","","","","","","","","","","",""
"","","","","","html-slider-response","4","944720","0.0-4.0","e59cfa13-2515-44e3-a0bd-39b5674668d1","15613","
        <p style=""font-size: 42px;"">נתחיל עם דוגמא: 
        <br>ההגרלה מטה מציעה 65% סיכוי לזכות ב-₪40 
        <br>&emsp;&emsp;&emsp;&emsp;&emsp;&emsp;&emsp;&emsp;&ensp;35% סיכוי לזכות ב-₪0.
        <br><br>מה המחיר המירבי שתהיו מוכנים לשלם על כרטיס להגרלה זו בין 0 ל-₪80?
        <br>הזיזו את העכבר על פני המלבן ולחצו כדי לבצע בחירה.</p>
        
        <p style=""text-align: center;"">₪40<br>65%</p>

        <p id=""wtp"" style=""text-align:center; margin-top: 0px; margin-bottom: 0px; font-size: 40px"";>מוכנים לשלם: <span id=""c_p_y""></span></p>","15","example","25","","","","","","","","","","","","","","","","","","","","","",""
"","","","","","html-keyboard-response","5","951576","0.0-5.0","e59cfa13-2515-44e3-a0bd-39b5674668d1","null","<p>יפה מאוד!
                <br> בחרתם שתהיו מוכנים לשלם ₪15 כדי להשתתף בהגרלה:
                <br><p style=""text-align: center;"">₪40<br>65%</p>
                <p>נשמע נכון?
                <br>נניח שהגרלה זו נבחרה בסוף הניסוי.
                <br>כעת המחשב יקבע מחיר עבורה באקראי.
                <br>לחצו על העכבר להמשך.</p>","1","example","","","","","","","","","","","","","","","","","","","","","","",""
"","","","","","html-keyboard-response","6","961208","0.0-6.0","e59cfa13-2515-44e3-a0bd-39b5674668d1","null","<p>המחשב קבע מחיר: ₪26
                <br>ואתם בחרתם לשלם לכל היותר: ₪15
                <br><br>מכיוון שהמחיר שבחרתם נמוך מהמחיר שנקבע, לא תתשתתפו בהגרלה.
                <br>במקרה כזה, בסוף הניסוי תקבלו את כל התקציב ההתחלתי של ₪80.
                <br><br>לחצו על העכבר להמשך.</p>","1","example","","","","","","","","","","","","","","","","","","","","","","",""
"","","","","","html-slider-response","7","969617","0.0-7.0","e59cfa13-2515-44e3-a0bd-39b5674668d1","8154","<p style=""font-size: 42px;"">הנה עוד דוגמא:
                <br>ההגרלה מטה מציעה 35% סיכוי לזכות ב-₪18 
                <br>&emsp;&emsp;&emsp;&emsp;&emsp;&emsp;&emsp;&emsp;&ensp;65% סיכוי לזכות ב-₪0.</p>
        
                <p style=""text-align: center;"">₪18<br>35%</p>
                <p id=""wtp"" style=""text-align:center; margin-top: 0px; margin-bottom: 0px; font-size: 40px"";>מוכנים לשלם: <span id=""c_p_y""></span></p>","3","example","25","","","","","","","","","","","","","","","","","","","","","",""
"","","","","","html-keyboard-response","8","974351","0.0-8.0","e59cfa13-2515-44e3-a0bd-39b5674668d1","null","<p>הייתם מוכנים לשלם  ₪3 כדי להשתתף בהגרלה:
                <p style=""text-align: center;"">₪18<br>35%</p>
                <p>כעת נניח שהמחשב בחר את ההגרלה הזו בסוף הניסוי, וקבע עבורה מחיר.
                <br><br>לחצו על העכבר כדי להמשיך.</p>","1","instructions","","","","","","","","","","","","","","","","","","","","","","",""
"","","","","","html-keyboard-response","9","983767","0.0-9.0","e59cfa13-2515-44e3-a0bd-39b5674668d1","null","<p>המחשב קבע מחיר להגרלה: ₪1<br>ואתם בחרתם לשלם לכל היותר: ₪3
                <br><br>כעת המחיר שנקבע נמוך מזה שבחרתם, אז תשלמו את המחיר שקבע המחשב (₪1) ותשתתפו בהגרלה.
                <br>במקרה כזה, תסיימו את הניסוי עם תקציב של ₪79 ועם סיכוי לזכות ב-₪18 נוספים מההגרלה.
                <br>כלומר, תוכלו לקבל ₪79 אם לא תזכו בהגרלה, או ₪97 אם תזכו בהגרלה.
                <br><br>לחצו על העכבר להמשך.</p>","1","example","","","","","","","","","","","","","","","","","","","","","","",""
"","","","","","html-keyboard-response","10","993071","0.0-10.0","e59cfa13-2515-44e3-a0bd-39b5674668d1","null","<p>במהלך הניסוי, קודם תראו את ההגרלה ורק לאחר מכן תוכלו לבחור.
                <p>כמו כן, יהיו לכם מספר שניות מוגבל להגיב.
                <p>בואו ננסה זאת עם ההגרלה הקודמת.
                <br>לחצו על העכבר כדי להמשיך.</p>","1","instructions","","","","","","","","","","","","","","","","","","","","","","",""
"","","","","","html-slider-response","11","994341","0.0-11.0","e59cfa13-2515-44e3-a0bd-39b5674668d1","1000","
                    <p style=""text-align: center;"">₪18<br>35%</p>
                    <p id=""wtp"" style=""text-align:center; margin-top: 0px; margin-bottom: 0px; font-size: 40px"";>&ensp;</p>","67","instructions","0","","","","","","","","","","","","","","","","","","","","","",""
"","","","","","html-slider-response","12","998055","0.0-12.0","e59cfa13-2515-44e3-a0bd-39b5674668d1","3456","
                    <p style=""text-align: center;"">₪18<br>35%</p>
                    <p id=""wtp"" style=""text-align:center; margin-top: 0px; margin-bottom: 0px; font-size: 40px"";>מוכנים לשלם: <span id=""c_p_y""></span></p>","3","instructions","21","","","","","","","","","","","","","","","","","","","","","",""
"","","","","","html-keyboard-response","13","1000247","0.0-13.0","e59cfa13-2515-44e3-a0bd-39b5674668d1","null","<p>יפה. הפעם בחרתם לשלם לכל היותר ₪3.
                <br><br>לחצו על העכבר כדי להמשיך.</p>","1","instructions","","","","","","","","","","","","","","","","","","","","","","",""
"","","","","","html-keyboard-response","14","1004311","0.0-15.0","e59cfa13-2515-44e3-a0bd-39b5674668d1","null","<p>כעת נתחיל את הניסוי.
                <br><br>אתם תראו הגרלות ותתבקשו לבחור כמה תהיו מוכנים לשלם כדי להשתתף בהן.
                <br>יש לכם תקציב של ₪80 עבור כל הגרלה.
                <br>בסוף הניסוי הגרלה אחת תבחר באקראי ותשוחק.
                <br><br>לחצו על העכבר כדי להתחיל את הניסוי.</p>","1","instructions","","","","","","","","","","","","","","","","","","","","","","",""
"","","","","","html-keyboard-response","15","1005570","0.0-16.0","e59cfa13-2515-44e3-a0bd-39b5674668d1","null","<p style=""text-align: center;"">+</p>","null","fixation","","","","","","","","","","","","","","","","","","","","","","",""
"","","","","","html-slider-response","16","1006586","0.0-17.0-0.0","e59cfa13-2515-44e3-a0bd-39b5674668d1","1000","
                  <p style=""text-align: center;"">₪4
                                                <br>75%</p>
                  <p id=""wtp"" style=""text-align:center; margin-top: 0px; margin-bottom: 0px; font-size: 40px"";>&ensp;</p>","-","viewing","0","3","12B,20B,23B,27C,29C","","","","","","","","","","","","","","","","","","","",""
"","","","","","html-slider-response","17","1010589","0.0-17.0-1.0","e59cfa13-2515-44e3-a0bd-39b5674668d1","null","
                  <p style=""text-align: center;"">₪4
                                                <br>75%</p>
                  <p id=""wtp"" style=""text-align:center; margin-top: 0px; margin-bottom: 0px; font-size: 40px"";>מוכנים לשלם: <span id=""c_p_y""></span></p>","null","evaluation","63","3","12B,20B,23B,27C,29C","75","4","2","","","","","","","","","","","","","","","","",""
"","","","","","html-keyboard-response","18","1011987","0.0-17.0-2.0","e59cfa13-2515-44e3-a0bd-39b5674668d1","null","<p style=""text-align: center;"">+</p>","null","fixation","","","","","","","","","","","","","","","","","","","","","","",""
"","","","","","html-slider-response","19","1012990","0.0-17.0-0.1","e59cfa13-2515-44e3-a0bd-39b5674668d1","1000","
                  <p style=""text-align: center;"">₪64
                                                <br>25%</p>
                  <p id=""wtp"" style=""text-align:center; margin-top: 0px; margin-bottom: 0px; font-size: 40px"";>&ensp;</p>","-","viewing","0","24","6A,21A","","","","","","","","","","","","","","","","","","","",""
"","","","","","html-slider-response","20","1015399","0.0-17.0-1.1","e59cfa13-2515-44e3-a0bd-39b5674668d1","2407","
                  <p style=""text-align: center;"">₪64
                                                <br>25%</p>
                  <p id=""wtp"" style=""text-align:center; margin-top: 0px; margin-bottom: 0px; font-size: 40px"";>מוכנים לשלם: <span id=""c_p_y""></span></p>","6","evaluation","34","24","6A,21A","25","64","6","","","","","","","","","","","","","","","","",""
"","","","","","html-keyboard-response","21","1016867","0.0-17.0-2.1","e59cfa13-2515-44e3-a0bd-39b5674668d1","null","<p style=""text-align: center;"">+</p>","null","fixation","","","","","","","","","","","","","","","","","","","","","","",""
"","","","","","html-slider-response","22","1017880","0.0-17.0-0.2","e59cfa13-2515-44e3-a0bd-39b5674668d1","1000","
                  <p style=""text-align: center;"">₪43
                                                <br>60%</p>
                  <p id=""wtp"" style=""text-align:center; margin-top: 0px; margin-bottom: 0px; font-size: 40px"";>&ensp;</p>","-","viewing","0","17","2A,7A,9A,15B","","","","","","","","","","","","","","","","","","","",""
"","","","","","html-slider-response","23","1021447","0.0-17.0-1.2","e59cfa13-2515-44e3-a0bd-39b5674668d1","3566","
                  <p style=""text-align: center;"">₪43
                                                <br>60%</p>
                  <p id=""wtp"" style=""text-align:center; margin-top: 0px; margin-bottom: 0px; font-size: 40px"";>מוכנים לשלם: <span id=""c_p_y""></span></p>","13","evaluation","41","17","2A,7A,9A,15B","60","43","13","","","","","","","","","","","","","","","","",""
"","","","","","html-keyboard-response","24","1022929","0.0-17.0-2.2","e59cfa13-2515-44e3-a0bd-39b5674668d1","null","<p style=""text-align: center;"">+</p>","null","fixation","","","","","","","","","","","","","","","","","","","","","","",""
"","","","","","html-slider-response","25","1023939","0.0-17.0-0.3","e59cfa13-2515-44e3-a0bd-39b5674668d1","1000","
                  <p style=""text-align: center;"">₪11
                                                <br>25%</p>
                  <p id=""wtp"" style=""text-align:center; margin-top: 0px; margin-bottom: 0px; font-size: 40px"";>&ensp;</p>","-","viewing","0","5","12A,27B,28B,30B","","","","","","","","","","","","","","","","","","","",""
"","","","","","html-slider-response","26","1025927","0.0-17.0-1.3","e59cfa13-2515-44e3-a0bd-39b5674668d1","1987","
                  <p style=""text-align: center;"">₪11
                                                <br>25%</p>
                  <p id=""wtp"" style=""text-align:center; margin-top: 0px; margin-bottom: 0px; font-size: 40px"";>מוכנים לשלם: <span id=""c_p_y""></span></p>","2","evaluation","48","5","12A,27B,28B,30B","25","11","2","","","","","","","","","","","","","","","","",""
"","","","","","html-keyboard-response","27","1026535","0.0-17.0-2.3","e59cfa13-2515-44e3-a0bd-39b5674668d1","null","<p style=""text-align: center;"">+</p>","null","fixation","","","","","","","","","","","","","","","","","","","","","","",""
"","","","","","html-slider-response","28","1027538","0.0-17.0-0.4","e59cfa13-2515-44e3-a0bd-39b5674668d1","1000","
                  <p style=""text-align: center;"">₪36
                                                <br>60%</p>
                  <p id=""wtp"" style=""text-align:center; margin-top: 0px; margin-bottom: 0px; font-size: 40px"";>&ensp;</p>","-","viewing","0","12","1C,7C,15C","","","","","","","","","","","","","","","","","","","",""
"","","","","","html-slider-response","29","1029886","0.0-17.0-1.4","e59cfa13-2515-44e3-a0bd-39b5674668d1","2347","
                  <p style=""text-align: center;"">₪36
                                                <br>60%</p>
                  <p id=""wtp"" style=""text-align:center; margin-top: 0px; margin-bottom: 0px; font-size: 40px"";>מוכנים לשלם: <span id=""c_p_y""></span></p>","12","evaluation","65","12","1C,7C,15C","60","36","12","","","","","","","","","","","","","","","","",""
"","","","","","html-keyboard-response","30","1030627","0.0-17.0-2.4","e59cfa13-2515-44e3-a0bd-39b5674668d1","null","<p style=""text-align: center;"">+</p>","null","fixation","","","","","","","","","","","","","","","","","","","","","","",""
"","","","","","html-slider-response","31","1031643","0.0-17.0-0.5","e59cfa13-2515-44e3-a0bd-39b5674668d1","1000","
                  <p style=""text-align: center;"">₪36
                                                <br>70%</p>
                  <p id=""wtp"" style=""text-align:center; margin-top: 0px; margin-bottom: 0px; font-size: 40px"";>&ensp;</p>","-","viewing","0","13","3A,5C,10B","","","","","","","","","","","","","","","","","","","",""
"","","","","","html-slider-response","32","1032821","0.0-17.0-1.5","e59cfa13-2515-44e3-a0bd-39b5674668d1","1177","
                  <p style=""text-align: center;"">₪36
                                                <br>70%</p>
                  <p id=""wtp"" style=""text-align:center; margin-top: 0px; margin-bottom: 0px; font-size: 40px"";>מוכנים לשלם: <span id=""c_p_y""></span></p>","15","evaluation","61","13","3A,5C,10B","70","36","15","","","","","","","","","","","","","","","","",""
"","","","","","html-keyboard-response","33","1033922","0.0-17.0-2.5","e59cfa13-2515-44e3-a0bd-39b5674668d1","null","<p style=""text-align: center;"">+</p>","null","fixation","","","","","","","","","","","","","","","","","","","","","","",""
"","","","","","html-slider-response","34","1034924","0.0-17.0-0.6","e59cfa13-2515-44e3-a0bd-39b5674668d1","1000","
                  <p style=""text-align: center;"">₪71
                                                <br>75%</p>
                  <p id=""wtp"" style=""text-align:center; margin-top: 0px; margin-bottom: 0px; font-size: 40px"";>&ensp;</p>","-","viewing","0","28","8B","","","","","","","","","","","","","","","","","","","",""
"","","","","","html-slider-response","35","1037045","0.0-17.0-1.6","e59cfa13-2515-44e3-a0bd-39b5674668d1","2120","
                  <p style=""text-align: center;"">₪71
                                                <br>75%</p>
                  <p id=""wtp"" style=""text-align:center; margin-top: 0px; margin-bottom: 0px; font-size: 40px"";>מוכנים לשלם: <span id=""c_p_y""></span></p>","24","evaluation","48","28","8B","75","71","24","","","","","","","","","","","","","","","","",""
"","","","","","html-keyboard-response","36","1038348","0.0-17.0-2.6","e59cfa13-2515-44e3-a0bd-39b5674668d1","null","<p style=""text-align: center;"">+</p>","null","fixation","","","","","","","","","","","","","","","","","","","","","","",""
"","","","","","html-slider-response","37","1039360","0.0-17.0-0.7","e59cfa13-2515-44e3-a0bd-39b5674668d1","1000","
                  <p style=""text-align: center;"">₪11
                                                <br>75%</p>
                  <p id=""wtp"" style=""text-align:center; margin-top: 0px; margin-bottom: 0px; font-size: 40px"";>&ensp;</p>","-","viewing","0","7","6B,18B,22C,24C,29A","","","","","","","","","","","","","","","","","","","",""
"","","","","","html-slider-response","38","1041278","0.0-17.0-1.7","e59cfa13-2515-44e3-a0bd-39b5674668d1","1916","
                  <p style=""text-align: center;"">₪11
                                                <br>75%</p>
                  <p id=""wtp"" style=""text-align:center; margin-top: 0px; margin-bottom: 0px; font-size: 40px"";>מוכנים לשלם: <span id=""c_p_y""></span></p>","8","evaluation","50","7","6B,18B,22C,24C,29A","75","11","9","","","","","","","","","","","","","","","","",""
"","","","","","html-keyboard-response","39","1042063","0.0-17.0-2.7","e59cfa13-2515-44e3-a0bd-39b5674668d1","null","<p style=""text-align: center;"">+</p>","null","fixation","","","","","","","","","","","","","","","","","","","","","","",""
"","","","","","html-slider-response","40","1043073","0.0-17.0-0.8","e59cfa13-2515-44e3-a0bd-39b5674668d1","1000","
                  <p style=""text-align: center;"">₪61
                                                <br>55%</p>
                  <p id=""wtp"" style=""text-align:center; margin-top: 0px; margin-bottom: 0px; font-size: 40px"";>&ensp;</p>","-","viewing","0","23","7B,26B","","","","","","","","","","","","","","","","","","","",""
"","","","","","html-slider-response","41","1045518","0.0-17.0-1.8","e59cfa13-2515-44e3-a0bd-39b5674668d1","2443","
                  <p style=""text-align: center;"">₪61
                                                <br>55%</p>
                  <p id=""wtp"" style=""text-align:center; margin-top: 0px; margin-bottom: 0px; font-size: 40px"";>מוכנים לשלם: <span id=""c_p_y""></span></p>","30","evaluation","46","23","7B,26B","55","61","30","","","","","","","","","","","","","","","","",""
"","","","","","html-keyboard-response","42","1046356","0.0-17.0-2.8","e59cfa13-2515-44e3-a0bd-39b5674668d1","null","<p style=""text-align: center;"">+</p>","null","fixation","","","","","","","","","","","","","","","","","","","","","","",""
"","","","","","html-slider-response","43","1047358","0.0-17.0-0.9","e59cfa13-2515-44e3-a0bd-39b5674668d1","1000","
                  <p style=""text-align: center;"">₪71
                                                <br>45%</p>
                  <p id=""wtp"" style=""text-align:center; margin-top: 0px; margin-bottom: 0px; font-size: 40px"";>&ensp;</p>","-","viewing","0","26","2B,16A","","","","","","","","","","","","","","","","","","","",""
"","","","","","html-slider-response","44","1049349","0.0-17.0-1.9","e59cfa13-2515-44e3-a0bd-39b5674668d1","1990","
                  <p style=""text-align: center;"">₪71
                                                <br>45%</p>
                  <p id=""wtp"" style=""text-align:center; margin-top: 0px; margin-bottom: 0px; font-size: 40px"";>מוכנים לשלם: <span id=""c_p_y""></span></p>","28","evaluation","77","26","2B,16A","45","71","28","","","","","","","","","","","","","","","","",""
"","","","","","html-keyboard-response","45","1050117","0.0-17.0-2.9","e59cfa13-2515-44e3-a0bd-39b5674668d1","null","<p style=""text-align: center;"">+</p>","null","fixation","","","","","","","","","","","","","","","","","","","","","","",""
"","","","","","html-slider-response","46","1051122","0.0-17.0-0.10","e59cfa13-2515-44e3-a0bd-39b5674668d1","1000","
                  <p style=""text-align: center;"">₪4
                                                <br>50%</p>
                  <p id=""wtp"" style=""text-align:center; margin-top: 0px; margin-bottom: 0px; font-size: 40px"";>&ensp;</p>","-","viewing","0","2","4C,17B","","","","","","","","","","","","","","","","","","","",""
"","","","","","html-slider-response","47","1052989","0.0-17.0-1.10","e59cfa13-2515-44e3-a0bd-39b5674668d1","1866","
                  <p style=""text-align: center;"">₪4
                                                <br>50%</p>
                  <p id=""wtp"" style=""text-align:center; margin-top: 0px; margin-bottom: 0px; font-size: 40px"";>מוכנים לשלם: <span id=""c_p_y""></span></p>","3","evaluation","20","2","4C,17B","50","4","4","","","","","","","","","","","","","","","","",""
"","","","","","html-keyboard-response","48","1053837","0.0-17.0-2.10","e59cfa13-2515-44e3-a0bd-39b5674668d1","null","<p style=""text-align: center;"">+</p>","null","fixation","","","","","","","","","","","","","","","","","","","","","","",""
"","","","","","html-slider-response","49","1054848","0.0-17.0-0.11","e59cfa13-2515-44e3-a0bd-39b5674668d1","1000","
                  <p style=""text-align: center;"">₪18
                                                <br>25%</p>
                  <p id=""wtp"" style=""text-align:center; margin-top: 0px; margin-bottom: 0px; font-size: 40px"";>&ensp;</p>","-","viewing","0","9","14A,23A","","","","","","","","","","","","","","","","","","","",""
"","","","","","html-slider-response","50","1057021","0.0-17.0-1.11","e59cfa13-2515-44e3-a0bd-39b5674668d1","2172","
                  <p style=""text-align: center;"">₪18
                                                <br>25%</p>
                  <p id=""wtp"" style=""text-align:center; margin-top: 0px; margin-bottom: 0px; font-size: 40px"";>מוכנים לשלם: <span id=""c_p_y""></span></p>","6","evaluation","61","9","14A,23A","25","18","6","","","","","","","","","","","","","","","","",""
"","","","","","html-keyboard-response","51","1058309","0.0-17.0-2.11","e59cfa13-2515-44e3-a0bd-39b5674668d1","null","<p style=""text-align: center;"">+</p>","null","fixation","","","","","","","","","","","","","","","","","","","","","","",""
"","","","","","html-slider-response","52","1059312","0.0-17.0-0.12","e59cfa13-2515-44e3-a0bd-39b5674668d1","1000","
                  <p style=""text-align: center;"">₪76
                                                <br>65%</p>
                  <p id=""wtp"" style=""text-align:center; margin-top: 0px; margin-bottom: 0px; font-size: 40px"";>&ensp;</p>","-","viewing","0","29","8C,19A,24B","","","","","","","","","","","","","","","","","","","",""
"","","","","","html-slider-response","53","1060885","0.0-17.0-1.12","e59cfa13-2515-44e3-a0bd-39b5674668d1","1572","
                  <p style=""text-align: center;"">₪76
                                                <br>65%</p>
                  <p id=""wtp"" style=""text-align:center; margin-top: 0px; margin-bottom: 0px; font-size: 40px"";>מוכנים לשלם: <span id=""c_p_y""></span></p>","36","evaluation","56","29","8C,19A,24B","65","76","36","","","","","","","","","","","","","","","","",""
"","","","","","html-keyboard-response","54","1061628","0.0-17.0-2.12","e59cfa13-2515-44e3-a0bd-39b5674668d1","null","<p style=""text-align: center;"">+</p>","null","fixation","","","","","","","","","","","","","","","","","","","","","","",""
"","","","","","html-slider-response","55","1062638","0.0-17.0-0.13","e59cfa13-2515-44e3-a0bd-39b5674668d1","1000","
                  <p style=""text-align: center;"">₪79
                                                <br>65%</p>
                  <p id=""wtp"" style=""text-align:center; margin-top: 0px; margin-bottom: 0px; font-size: 40px"";>&ensp;</p>","-","viewing","0","31","8A","","","","","","","","","","","","","","","","","","","",""
"","","","","","html-slider-response","56","1063566","0.0-17.0-1.13","e59cfa13-2515-44e3-a0bd-39b5674668d1","927","
                  <p style=""text-align: center;"">₪79
                                                <br>65%</p>
                  <p id=""wtp"" style=""text-align:center; margin-top: 0px; margin-bottom: 0px; font-size: 40px"";>מוכנים לשלם: <span id=""c_p_y""></span></p>","39","evaluation","43","31","8A","65","79","39","","","","","","","","","","","","","","","","",""
"","","","","","html-keyboard-response","57","1064967","0.0-17.0-2.13","e59cfa13-2515-44e3-a0bd-39b5674668d1","null","<p style=""text-align: center;"">+</p>","null","fixation","","","","","","","","","","","","","","","","","","","","","","",""
"","","","","","html-slider-response","58","1065969","0.0-17.0-0.14","e59cfa13-2515-44e3-a0bd-39b5674668d1","1000","
                  <p style=""text-align: center;"">₪36
                                                <br>75%</p>
                  <p id=""wtp"" style=""text-align:center; margin-top: 0px; margin-bottom: 0px; font-size: 40px"";>&ensp;</p>","-","viewing","0","14","4B,5A,13B,16B","","","","","","","","","","","","","","","","","","","",""
"","","","","","html-slider-response","59","1067693","0.0-17.0-1.14","e59cfa13-2515-44e3-a0bd-39b5674668d1","1724","
                  <p style=""text-align: center;"">₪36
                                                <br>75%</p>
                  <p id=""wtp"" style=""text-align:center; margin-top: 0px; margin-bottom: 0px; font-size: 40px"";>מוכנים לשלם: <span id=""c_p_y""></span></p>","16","evaluation","61","14","4B,5A,13B,16B","75","36","16","","","","","","","","","","","","","","","","",""
"","","","","","html-keyboard-response","60","1068596","0.0-17.0-2.14","e59cfa13-2515-44e3-a0bd-39b5674668d1","null","<p style=""text-align: center;"">+</p>","null","fixation","","","","","","","","","","","","","","","","","","","","","","",""
"","","","","","html-slider-response","61","1069597","0.0-17.0-0.15","e59cfa13-2515-44e3-a0bd-39b5674668d1","1000","
                  <p style=""text-align: center;"">₪39
                                                <br>65%</p>
                  <p id=""wtp"" style=""text-align:center; margin-top: 0px; margin-bottom: 0px; font-size: 40px"";>&ensp;</p>","-","viewing","0","16","1A,15A,26C","","","","","","","","","","","","","","","","","","","",""
"","","","","","html-slider-response","62","1070797","0.0-17.0-1.15","e59cfa13-2515-44e3-a0bd-39b5674668d1","1199","
                  <p style=""text-align: center;"">₪39
                                                <br>65%</p>
                  <p id=""wtp"" style=""text-align:center; margin-top: 0px; margin-bottom: 0px; font-size: 40px"";>מוכנים לשלם: <span id=""c_p_y""></span></p>","17","evaluation","53","16","1A,15A,26C","65","39","17","","","","","","","","","","","","","","","","",""
"","","","","","html-keyboard-response","63","1071798","0.0-17.0-2.15","e59cfa13-2515-44e3-a0bd-39b5674668d1","null","<p style=""text-align: center;"">+</p>","null","fixation","","","","","","","","","","","","","","","","","","","","","","",""
"","","","","","html-slider-response","64","1072813","0.0-17.0-0.16","e59cfa13-2515-44e3-a0bd-39b5674668d1","1000","
                  <p style=""text-align: center;"">₪64
                                                <br>50%</p>
                  <p id=""wtp"" style=""text-align:center; margin-top: 0px; margin-bottom: 0px; font-size: 40px"";>&ensp;</p>","-","viewing","0","25","1B,3B,4A","","","","","","","","","","","","","","","","","","","",""
"","","","","","html-slider-response","65","1073894","0.0-17.0-1.16","e59cfa13-2515-44e3-a0bd-39b5674668d1","1080","
                  <p style=""text-align: center;"">₪64
                                                <br>50%</p>
                  <p id=""wtp"" style=""text-align:center; margin-top: 0px; margin-bottom: 0px; font-size: 40px"";>מוכנים לשלם: <span id=""c_p_y""></span></p>","27","evaluation","37","25","1B,3B,4A","50","64","27","","","","","","","","","","","","","","","","",""
"","","","","","html-keyboard-response","66","1074808","0.0-17.0-2.16","e59cfa13-2515-44e3-a0bd-39b5674668d1","null","<p style=""text-align: center;"">+</p>","null","fixation","","","","","","","","","","","","","","","","","","","","","","",""
"","","","","","html-slider-response","67","1075816","0.0-17.0-0.17","e59cfa13-2515-44e3-a0bd-39b5674668d1","1000","
                  <p style=""text-align: center;"">₪16
                                                <br>20%</p>
                  <p id=""wtp"" style=""text-align:center; margin-top: 0px; margin-bottom: 0px; font-size: 40px"";>&ensp;</p>","-","viewing","0","8","14C,17A,20C,27A","","","","","","","","","","","","","","","","","","","",""
"","","","","","html-slider-response","68","1076846","0.0-17.0-1.17","e59cfa13-2515-44e3-a0bd-39b5674668d1","1028","
                  <p style=""text-align: center;"">₪16
                                                <br>20%</p>
                  <p id=""wtp"" style=""text-align:center; margin-top: 0px; margin-bottom: 0px; font-size: 40px"";>מוכנים לשלם: <span id=""c_p_y""></span></p>","3","evaluation","8","8","14C,17A,20C,27A","20","16","4","","","","","","","","","","","","","","","","",""
"","","","","","html-keyboard-response","69","1078204","0.0-17.0-2.17","e59cfa13-2515-44e3-a0bd-39b5674668d1","null","<p style=""text-align: center;"">+</p>","null","fixation","","","","","","","","","","","","","","","","","","","","","","",""
"","","","","","html-slider-response","70","1079206","0.0-17.0-0.18","e59cfa13-2515-44e3-a0bd-39b5674668d1","1000","
                  <p style=""text-align: center;"">₪58
                                                <br>30%</p>
                  <p id=""wtp"" style=""text-align:center; margin-top: 0px; margin-bottom: 0px; font-size: 40px"";>&ensp;</p>","-","viewing","0","19","13C,30A","","","","","","","","","","","","","","","","","","","",""
"","","","","","html-slider-response","71","1080734","0.0-17.0-1.18","e59cfa13-2515-44e3-a0bd-39b5674668d1","1526","
                  <p style=""text-align: center;"">₪58
                                                <br>30%</p>
                  <p id=""wtp"" style=""text-align:center; margin-top: 0px; margin-bottom: 0px; font-size: 40px"";>מוכנים לשלם: <span id=""c_p_y""></span></p>","13","evaluation","66","19","13C,30A","30","58","14","","","","","","","","","","","","","","","","",""
"","","","","","html-keyboard-response","72","1081540","0.0-17.0-2.18","e59cfa13-2515-44e3-a0bd-39b5674668d1","null","<p style=""text-align: center;"">+</p>","null","fixation","","","","","","","","","","","","","","","","","","","","","","",""
"","","","","","html-slider-response","73","1082543","0.0-17.0-0.19","e59cfa13-2515-44e3-a0bd-39b5674668d1","1000","
                  <p style=""text-align: center;"">₪11
                                                <br>45%</p>
                  <p id=""wtp"" style=""text-align:center; margin-top: 0px; margin-bottom: 0px; font-size: 40px"";>&ensp;</p>","-","viewing","0","6","14B,21C,25C","","","","","","","","","","","","","","","","","","","",""
"","","","","","html-slider-response","74","1083998","0.0-17.0-1.19","e59cfa13-2515-44e3-a0bd-39b5674668d1","1453","
                  <p style=""text-align: center;"">₪11
                                                <br>45%</p>
                  <p id=""wtp"" style=""text-align:center; margin-top: 0px; margin-bottom: 0px; font-size: 40px"";>מוכנים לשלם: <span id=""c_p_y""></span></p>","5","evaluation","36","6","14B,21C,25C","45","11","5","","","","","","","","","","","","","","","","",""
"","","","","","html-keyboard-response","75","1084866","0.0-17.0-2.19","e59cfa13-2515-44e3-a0bd-39b5674668d1","null","<p style=""text-align: center;"">+</p>","null","fixation","","","","","","","","","","","","","","","","","","","","","","",""
"","","","","","html-slider-response","76","1085873","0.0-17.0-0.20","e59cfa13-2515-44e3-a0bd-39b5674668d1","1000","
                  <p style=""text-align: center;"">₪18
                                                <br>50%</p>
                  <p id=""wtp"" style=""text-align:center; margin-top: 0px; margin-bottom: 0px; font-size: 40px"";>&ensp;</p>","-","viewing","0","10","2C,16C,22B,28A","","","","","","","","","","","","","","","","","","","",""
"","","","","","html-slider-response","77","1087213","0.0-17.0-1.20","e59cfa13-2515-44e3-a0bd-39b5674668d1","1339","
                  <p style=""text-align: center;"">₪18
                                                <br>50%</p>
                  <p id=""wtp"" style=""text-align:center; margin-top: 0px; margin-bottom: 0px; font-size: 40px"";>מוכנים לשלם: <span id=""c_p_y""></span></p>","6","evaluation","76","10","2C,16C,22B,28A","50","18","6","","","","","","","","","","","","","","","","",""
"","","","","","html-keyboard-response","78","1087805","0.0-17.0-2.20","e59cfa13-2515-44e3-a0bd-39b5674668d1","null","<p style=""text-align: center;"">+</p>","null","fixation","","","","","","","","","","","","","","","","","","","","","","",""
"","","","","","html-slider-response","79","1088816","0.0-17.0-0.21","e59cfa13-2515-44e3-a0bd-39b5674668d1","1000","
                  <p style=""text-align: center;"">₪58
                                                <br>40%</p>
                  <p id=""wtp"" style=""text-align:center; margin-top: 0px; margin-bottom: 0px; font-size: 40px"";>&ensp;</p>","-","viewing","0","20","10C,13A,19C,21B","","","","","","","","","","","","","","","","","","","",""
"","","","","","html-slider-response","80","1090789","0.0-17.0-1.21","e59cfa13-2515-44e3-a0bd-39b5674668d1","1972","
                  <p style=""text-align: center;"">₪58
                                                <br>40%</p>
                  <p id=""wtp"" style=""text-align:center; margin-top: 0px; margin-bottom: 0px; font-size: 40px"";>מוכנים לשלם: <span id=""c_p_y""></span></p>","9","evaluation","53","20","10C,13A,19C,21B","40","58","9","","","","","","","","","","","","","","","","",""
"","","","","","html-keyboard-response","81","1091368","0.0-17.0-2.21","e59cfa13-2515-44e3-a0bd-39b5674668d1","null","<p style=""text-align: center;"">+</p>","null","fixation","","","","","","","","","","","","","","","","","","","","","","",""
"","","","","","html-slider-response","82","1092374","0.0-17.0-0.22","e59cfa13-2515-44e3-a0bd-39b5674668d1","1000","
                  <p style=""text-align: center;"">₪43
                                                <br>75%</p>
                  <p id=""wtp"" style=""text-align:center; margin-top: 0px; margin-bottom: 0px; font-size: 40px"";>&ensp;</p>","-","viewing","0","18","11B,19B,24A,26A","","","","","","","","","","","","","","","","","","","",""
"","","","","","html-slider-response","83","1093821","0.0-17.0-1.22","e59cfa13-2515-44e3-a0bd-39b5674668d1","1445","
                  <p style=""text-align: center;"">₪43
                                                <br>75%</p>
                  <p id=""wtp"" style=""text-align:center; margin-top: 0px; margin-bottom: 0px; font-size: 40px"";>מוכנים לשלם: <span id=""c_p_y""></span></p>","18","evaluation","44","18","11B,19B,24A,26A","75","43","18","","","","","","","","","","","","","","","","",""
"","","","","","html-keyboard-response","84","1094897","0.0-17.0-2.22","e59cfa13-2515-44e3-a0bd-39b5674668d1","null","<p style=""text-align: center;"">+</p>","null","fixation","","","","","","","","","","","","","","","","","","","","","","",""
"","","","","","html-slider-response","85","1095899","0.0-17.0-0.23","e59cfa13-2515-44e3-a0bd-39b5674668d1","1000","
                  <p style=""text-align: center;"">₪4
                                                <br>25%</p>
                  <p id=""wtp"" style=""text-align:center; margin-top: 0px; margin-bottom: 0px; font-size: 40px"";>&ensp;</p>","-","viewing","0","1","6C,29B,30C","","","","","","","","","","","","","","","","","","","",""
"","","","","","html-slider-response","86","1097013","0.0-17.0-1.23","e59cfa13-2515-44e3-a0bd-39b5674668d1","1113","
                  <p style=""text-align: center;"">₪4
                                                <br>25%</p>
                  <p id=""wtp"" style=""text-align:center; margin-top: 0px; margin-bottom: 0px; font-size: 40px"";>מוכנים לשלם: <span id=""c_p_y""></span></p>","3","evaluation","29","1","6C,29B,30C","25","4","3","","","","","","","","","","","","","","","","",""
"","","","","","html-keyboard-response","87","1097706","0.0-17.0-2.23","e59cfa13-2515-44e3-a0bd-39b5674668d1","null","<p style=""text-align: center;"">+</p>","null","fixation","","","","","","","","","","","","","","","","","","","","","","",""
"","","","","","html-slider-response","88","1098708","0.0-17.0-0.24","e59cfa13-2515-44e3-a0bd-39b5674668d1","1000","
                  <p style=""text-align: center;"">₪36
                                                <br>30%</p>
                  <p id=""wtp"" style=""text-align:center; margin-top: 0px; margin-bottom: 0px; font-size: 40px"";>&ensp;</p>","-","viewing","0","11","3C,20A,22A","","","","","","","","","","","","","","","","","","","",""
"","","","","","html-slider-response","89","1100885","0.0-17.0-1.24","e59cfa13-2515-44e3-a0bd-39b5674668d1","2176","
                  <p style=""text-align: center;"">₪36
                                                <br>30%</p>
                  <p id=""wtp"" style=""text-align:center; margin-top: 0px; margin-bottom: 0px; font-size: 40px"";>מוכנים לשלם: <span id=""c_p_y""></span></p>","8","evaluation","35","11","3C,20A,22A","30","36","8","","","","","","","","","","","","","","","","",""
"","","","","","html-keyboard-response","90","1101888","0.0-17.0-2.24","e59cfa13-2515-44e3-a0bd-39b5674668d1","null","<p style=""text-align: center;"">+</p>","null","fixation","","","","","","","","","","","","","","","","","","","","","","",""
"","","","","","html-slider-response","91","1102903","0.0-17.0-0.25","e59cfa13-2515-44e3-a0bd-39b5674668d1","1000","
                  <p style=""text-align: center;"">₪61
                                                <br>45%</p>
                  <p id=""wtp"" style=""text-align:center; margin-top: 0px; margin-bottom: 0px; font-size: 40px"";>&ensp;</p>","-","viewing","0","22","10A,11A","","","","","","","","","","","","","","","","","","","",""
"","","","","","html-slider-response","92","1104805","0.0-17.0-1.25","e59cfa13-2515-44e3-a0bd-39b5674668d1","1901","
                  <p style=""text-align: center;"">₪61
                                                <br>45%</p>
                  <p id=""wtp"" style=""text-align:center; margin-top: 0px; margin-bottom: 0px; font-size: 40px"";>מוכנים לשלם: <span id=""c_p_y""></span></p>","20","evaluation","65","22","10A,11A","45","61","20","","","","","","","","","","","","","","","","",""
"","","","","","html-keyboard-response","93","1105633","0.0-17.0-2.25","e59cfa13-2515-44e3-a0bd-39b5674668d1","null","<p style=""text-align: center;"">+</p>","null","fixation","","","","","","","","","","","","","","","","","","","","","","",""
"","","","","","html-slider-response","94","1106647","0.0-17.0-0.26","e59cfa13-2515-44e3-a0bd-39b5674668d1","1000","
                  <p style=""text-align: center;"">₪71
                                                <br>55%</p>
                  <p id=""wtp"" style=""text-align:center; margin-top: 0px; margin-bottom: 0px; font-size: 40px"";>&ensp;</p>","-","viewing","0","27","5B,18A","","","","","","","","","","","","","","","","","","","",""
"","","","","","html-slider-response","95","1108981","0.0-17.0-1.26","e59cfa13-2515-44e3-a0bd-39b5674668d1","2333","
                  <p style=""text-align: center;"">₪71
                                                <br>55%</p>
                  <p id=""wtp"" style=""text-align:center; margin-top: 0px; margin-bottom: 0px; font-size: 40px"";>מוכנים לשלם: <span id=""c_p_y""></span></p>","25","evaluation","44","27","5B,18A","55","71","25","","","","","","","","","","","","","","","","",""
"","","","","","html-keyboard-response","96","1109624","0.0-17.0-2.26","e59cfa13-2515-44e3-a0bd-39b5674668d1","null","<p style=""text-align: center;"">+</p>","null","fixation","","","","","","","","","","","","","","","","","","","","","","",""
"","","","","","html-slider-response","97","1110630","0.0-17.0-0.27","e59cfa13-2515-44e3-a0bd-39b5674668d1","1000","
                  <p style=""text-align: center;"">₪11
                                                <br>20%</p>
                  <p id=""wtp"" style=""text-align:center; margin-top: 0px; margin-bottom: 0px; font-size: 40px"";>&ensp;</p>","-","viewing","0","4","12C,17C,23C,28C","","","","","","","","","","","","","","","","","","","",""
"","","","","","html-slider-response","98","1112637","0.0-17.0-1.27","e59cfa13-2515-44e3-a0bd-39b5674668d1","2006","
                  <p style=""text-align: center;"">₪11
                                                <br>20%</p>
                  <p id=""wtp"" style=""text-align:center; margin-top: 0px; margin-bottom: 0px; font-size: 40px"";>מוכנים לשלם: <span id=""c_p_y""></span></p>","2","evaluation","66","4","12C,17C,23C,28C","20","11","3","","","","","","","","","","","","","","","","",""
"","","","","","html-keyboard-response","99","1113419","0.0-17.0-2.27","e59cfa13-2515-44e3-a0bd-39b5674668d1","null","<p style=""text-align: center;"">+</p>","null","fixation","","","","","","","","","","","","","","","","","","","","","","",""
"","","","","","html-slider-response","100","1114431","0.0-17.0-0.28","e59cfa13-2515-44e3-a0bd-39b5674668d1","1000","
                  <p style=""text-align: center;"">₪79
                                                <br>40%</p>
                  <p id=""wtp"" style=""text-align:center; margin-top: 0px; margin-bottom: 0px; font-size: 40px"";>&ensp;</p>","-","viewing","0","30","9B","","","","","","","","","","","","","","","","","","","",""
"","","","","","html-slider-response","101","1115901","0.0-17.0-1.28","e59cfa13-2515-44e3-a0bd-39b5674668d1","1469","
                  <p style=""text-align: center;"">₪79
                                                <br>40%</p>
                  <p id=""wtp"" style=""text-align:center; margin-top: 0px; margin-bottom: 0px; font-size: 40px"";>מוכנים לשלם: <span id=""c_p_y""></span></p>","24","evaluation","35","30","9B","40","79","24","","","","","","","","","","","","","","","","",""
"","","","","","html-keyboard-response","102","1116549","0.0-17.0-2.28","e59cfa13-2515-44e3-a0bd-39b5674668d1","null","<p style=""text-align: center;"">+</p>","null","fixation","","","","","","","","","","","","","","","","","","","","","","",""
"","","","","","html-slider-response","103","1117559","0.0-17.0-0.29","e59cfa13-2515-44e3-a0bd-39b5674668d1","1000","
                  <p style=""text-align: center;"">₪39
                                                <br>60%</p>
                  <p id=""wtp"" style=""text-align:center; margin-top: 0px; margin-bottom: 0px; font-size: 40px"";>&ensp;</p>","-","viewing","0","15","9C,25B","","","","","","","","","","","","","","","","","","","",""
"","","","","","html-slider-response","104","1118813","0.0-17.0-1.29","e59cfa13-2515-44e3-a0bd-39b5674668d1","1254","
                  <p style=""text-align: center;"">₪39
                                                <br>60%</p>
                  <p id=""wtp"" style=""text-align:center; margin-top: 0px; margin-bottom: 0px; font-size: 40px"";>מוכנים לשלם: <span id=""c_p_y""></span></p>","17","evaluation","68","15","9C,25B","60","39","17","","","","","","","","","","","","","","","","",""
"","","","","","html-keyboard-response","105","1120266","0.0-17.0-2.29","e59cfa13-2515-44e3-a0bd-39b5674668d1","null","<p style=""text-align: center;"">+</p>","null","fixation","","","","","","","","","","","","","","","","","","","","","","",""
"","","","","","html-slider-response","106","1121270","0.0-17.0-0.30","e59cfa13-2515-44e3-a0bd-39b5674668d1","1000","
                  <p style=""text-align: center;"">₪58
                                                <br>45%</p>
                  <p id=""wtp"" style=""text-align:center; margin-top: 0px; margin-bottom: 0px; font-size: 40px"";>&ensp;</p>","-","viewing","0","21","11C,18C,25A","","","","","","","","","","","","","","","","","","","",""
"","","","","","html-slider-response","107","1123141","0.0-17.0-1.30","e59cfa13-2515-44e3-a0bd-39b5674668d1","1870","
                  <p style=""text-align: center;"">₪58
                                                <br>45%</p>
                  <p id=""wtp"" style=""text-align:center; margin-top: 0px; margin-bottom: 0px; font-size: 40px"";>מוכנים לשלם: <span id=""c_p_y""></span></p>","14","evaluation","66","21","11C,18C,25A","45","58","14","","","","","","","","","","","","","","","","",""
"","","","","","html-keyboard-response","108","1123877","0.0-17.0-2.30","e59cfa13-2515-44e3-a0bd-39b5674668d1","null","<p style=""text-align: center;"">+</p>","null","fixation","","","","","","","","","","","","","","","","","","","","","","",""
"","","","","","html-keyboard-response","109","1124884","0.0-18.0","e59cfa13-2515-44e3-a0bd-39b5674668d1","null","<p style=""text-align: center;"">+</p>","null","fixation","","","","","","","","","","","","","","","","","","","","","","",""
"","","","","","html-keyboard-response","110","1126109","0.0-19.0","e59cfa13-2515-44e3-a0bd-39b5674668d1","null","<p>הפסקה.
          <br>לחצו כדי להמשיך.</p>","1","scan_wait","","","","","","","","","","","","","","","","","","","","","","",""
"","","","","","html-keyboard-response","111","1127114","0.0-20.0","e59cfa13-2515-44e3-a0bd-39b5674668d1","null","<p style=""text-align: center;"">+</p>","null","fixation","","","","","","","","","","","","","","","","","","","","","","",""
"","","","","","html-slider-response","112","1128126","0.0-21.0-0.0","e59cfa13-2515-44e3-a0bd-39b5674668d1","1000","
                  <p style=""text-align: center;"">₪79
                                                <br>40%</p>
                  <p id=""wtp"" style=""text-align:center; margin-top: 0px; margin-bottom: 0px; font-size: 40px"";>&ensp;</p>","-","viewing","0","30","9B","","","","","","","","","","","","","","","","","","","",""
"","","","","","html-slider-response","113","1129613","0.0-21.0-1.0","e59cfa13-2515-44e3-a0bd-39b5674668d1","1486","
                  <p style=""text-align: center;"">₪79
                                                <br>40%</p>
                  <p id=""wtp"" style=""text-align:center; margin-top: 0px; margin-bottom: 0px; font-size: 40px"";>מוכנים לשלם: <span id=""c_p_y""></span></p>","20","evaluation","41","30","9B","40","79","20","","","","","","","","","","","","","","","","",""
"","","","","","html-keyboard-response","114","1130624","0.0-21.0-2.0","e59cfa13-2515-44e3-a0bd-39b5674668d1","null","<p style=""text-align: center;"">+</p>","null","fixation","","","","","","","","","","","","","","","","","","","","","","",""
"","","","","","html-slider-response","115","1131626","0.0-21.0-0.1","e59cfa13-2515-44e3-a0bd-39b5674668d1","1000","
                  <p style=""text-align: center;"">₪16
                                                <br>20%</p>
                  <p id=""wtp"" style=""text-align:center; margin-top: 0px; margin-bottom: 0px; font-size: 40px"";>&ensp;</p>","-","viewing","0","8","14C,17A,20C,27A","","","","","","","","","","","","","","","","","","","",""
"","","","","","html-slider-response","116","1132973","0.0-21.0-1.1","e59cfa13-2515-44e3-a0bd-39b5674668d1","1346","
                  <p style=""text-align: center;"">₪16
                                                <br>20%</p>
                  <p id=""wtp"" style=""text-align:center; margin-top: 0px; margin-bottom: 0px; font-size: 40px"";>מוכנים לשלם: <span id=""c_p_y""></span></p>","6","evaluation","60","8","14C,17A,20C,27A","20","16","7","","","","","","","","","","","","","","","","",""
"","","","","","html-keyboard-response","117","1133830","0.0-21.0-2.1","e59cfa13-2515-44e3-a0bd-39b5674668d1","null","<p style=""text-align: center;"">+</p>","null","fixation","","","","","","","","","","","","","","","","","","","","","","",""
"","","","","","html-slider-response","118","1134838","0.0-21.0-0.2","e59cfa13-2515-44e3-a0bd-39b5674668d1","1000","
                  <p style=""text-align: center;"">₪4
                                                <br>50%</p>
                  <p id=""wtp"" style=""text-align:center; margin-top: 0px; margin-bottom: 0px; font-size: 40px"";>&ensp;</p>","-","viewing","0","2","4C,17B","","","","","","","","","","","","","","","","","","","",""
"","","","","","html-slider-response","119","1136437","0.0-21.0-1.2","e59cfa13-2515-44e3-a0bd-39b5674668d1","1598","
                  <p style=""text-align: center;"">₪4
                                                <br>50%</p>
                  <p id=""wtp"" style=""text-align:center; margin-top: 0px; margin-bottom: 0px; font-size: 40px"";>מוכנים לשלם: <span id=""c_p_y""></span></p>","1","evaluation","53","2","4C,17B","50","4","2","","","","","","","","","","","","","","","","",""
"","","","","","html-keyboard-response","120","1137757","0.0-21.0-2.2","e59cfa13-2515-44e3-a0bd-39b5674668d1","null","<p style=""text-align: center;"">+</p>","null","fixation","","","","","","","","","","","","","","","","","","","","","","",""
"","","","","","html-slider-response","121","1138759","0.0-21.0-0.3","e59cfa13-2515-44e3-a0bd-39b5674668d1","1000","
                  <p style=""text-align: center;"">₪11
                                                <br>20%</p>
                  <p id=""wtp"" style=""text-align:center; margin-top: 0px; margin-bottom: 0px; font-size: 40px"";>&ensp;</p>","-","viewing","0","4","12C,17C,23C,28C","","","","","","","","","","","","","","","","","","","",""
"","","","","","html-slider-response","122","1139469","0.0-21.0-1.3","e59cfa13-2515-44e3-a0bd-39b5674668d1","709","
                  <p style=""text-align: center;"">₪11
                                                <br>20%</p>
                  <p id=""wtp"" style=""text-align:center; margin-top: 0px; margin-bottom: 0px; font-size: 40px"";>מוכנים לשלם: <span id=""c_p_y""></span></p>","2","evaluation","26","4","12C,17C,23C,28C","20","11","2","","","","","","","","","","","","","","","","",""
"","","","","","html-keyboard-response","123","1140210","0.0-21.0-2.3","e59cfa13-2515-44e3-a0bd-39b5674668d1","null","<p style=""text-align: center;"">+</p>","null","fixation","","","","","","","","","","","","","","","","","","","","","","",""
"","","","","","html-slider-response","124","1141212","0.0-21.0-0.4","e59cfa13-2515-44e3-a0bd-39b5674668d1","1000","
                  <p style=""text-align: center;"">₪11
                                                <br>25%</p>
                  <p id=""wtp"" style=""text-align:center; margin-top: 0px; margin-bottom: 0px; font-size: 40px"";>&ensp;</p>","-","viewing","0","5","12A,27B,28B,30B","","","","","","","","","","","","","","","","","","","",""
"","","","","","html-slider-response","125","1142333","0.0-21.0-1.4","e59cfa13-2515-44e3-a0bd-39b5674668d1","1120","
                  <p style=""text-align: center;"">₪11
                                                <br>25%</p>
                  <p id=""wtp"" style=""text-align:center; margin-top: 0px; margin-bottom: 0px; font-size: 40px"";>מוכנים לשלם: <span id=""c_p_y""></span></p>","4","evaluation","28","5","12A,27B,28B,30B","25","11","4","","","","","","","","","","","","","","","","",""
"","","","","","html-keyboard-response","126","1143204","0.0-21.0-2.4","e59cfa13-2515-44e3-a0bd-39b5674668d1","null","<p style=""text-align: center;"">+</p>","null","fixation","","","","","","","","","","","","","","","","","","","","","","",""
"","","","","","html-slider-response","127","1144205","0.0-21.0-0.5","e59cfa13-2515-44e3-a0bd-39b5674668d1","1000","
                  <p style=""text-align: center;"">₪18
                                                <br>25%</p>
                  <p id=""wtp"" style=""text-align:center; margin-top: 0px; margin-bottom: 0px; font-size: 40px"";>&ensp;</p>","-","viewing","0","9","14A,23A","","","","","","","","","","","","","","","","","","","",""
"","","","","","html-slider-response","128","1145605","0.0-21.0-1.5","e59cfa13-2515-44e3-a0bd-39b5674668d1","1398","
                  <p style=""text-align: center;"">₪18
                                                <br>25%</p>
                  <p id=""wtp"" style=""text-align:center; margin-top: 0px; margin-bottom: 0px; font-size: 40px"";>מוכנים לשלם: <span id=""c_p_y""></span></p>","5","evaluation","43","9","14A,23A","25","18","5","","","","","","","","","","","","","","","","",""
"","","","","","html-keyboard-response","129","1146285","0.0-21.0-2.5","e59cfa13-2515-44e3-a0bd-39b5674668d1","null","<p style=""text-align: center;"">+</p>","null","fixation","","","","","","","","","","","","","","","","","","","","","","",""
"","","","","","html-slider-response","130","1147302","0.0-21.0-0.6","e59cfa13-2515-44e3-a0bd-39b5674668d1","1000","
                  <p style=""text-align: center;"">₪64
                                                <br>25%</p>
                  <p id=""wtp"" style=""text-align:center; margin-top: 0px; margin-bottom: 0px; font-size: 40px"";>&ensp;</p>","-","viewing","0","24","6A,21A","","","","","","","","","","","","","","","","","","","",""
"","","","","","html-slider-response","131","1149189","0.0-21.0-1.6","e59cfa13-2515-44e3-a0bd-39b5674668d1","1886","
                  <p style=""text-align: center;"">₪64
                                                <br>25%</p>
                  <p id=""wtp"" style=""text-align:center; margin-top: 0px; margin-bottom: 0px; font-size: 40px"";>מוכנים לשלם: <span id=""c_p_y""></span></p>","9","evaluation","79","24","6A,21A","25","64","9","","","","","","","","","","","","","","","","",""
"","","","","","html-keyboard-response","132","1150552","0.0-21.0-2.6","e59cfa13-2515-44e3-a0bd-39b5674668d1","null","<p style=""text-align: center;"">+</p>","null","fixation","","","","","","","","","","","","","","","","","","","","","","",""
"","","","","","html-slider-response","133","1151561","0.0-21.0-0.7","e59cfa13-2515-44e3-a0bd-39b5674668d1","1000","
                  <p style=""text-align: center;"">₪43
                                                <br>60%</p>
                  <p id=""wtp"" style=""text-align:center; margin-top: 0px; margin-bottom: 0px; font-size: 40px"";>&ensp;</p>","-","viewing","0","17","2A,7A,9A,15B","","","","","","","","","","","","","","","","","","","",""
"","","","","","html-slider-response","134","1153501","0.0-21.0-1.7","e59cfa13-2515-44e3-a0bd-39b5674668d1","1938","
                  <p style=""text-align: center;"">₪43
                                                <br>60%</p>
                  <p id=""wtp"" style=""text-align:center; margin-top: 0px; margin-bottom: 0px; font-size: 40px"";>מוכנים לשלם: <span id=""c_p_y""></span></p>","7","evaluation","7","17","2A,7A,9A,15B","60","43","7","","","","","","","","","","","","","","","","",""
"","","","","","html-keyboard-response","135","1154567","0.0-21.0-2.7","e59cfa13-2515-44e3-a0bd-39b5674668d1","null","<p style=""text-align: center;"">+</p>","null","fixation","","","","","","","","","","","","","","","","","","","","","","",""
"","","","","","html-slider-response","136","1155578","0.0-21.0-0.8","e59cfa13-2515-44e3-a0bd-39b5674668d1","1000","
                  <p style=""text-align: center;"">₪61
                                                <br>55%</p>
                  <p id=""wtp"" style=""text-align:center; margin-top: 0px; margin-bottom: 0px; font-size: 40px"";>&ensp;</p>","-","viewing","0","23","7B,26B","","","","","","","","","","","","","","","","","","","",""
"","","","","","html-slider-response","137","1156861","0.0-21.0-1.8","e59cfa13-2515-44e3-a0bd-39b5674668d1","1282","
                  <p style=""text-align: center;"">₪61
                                                <br>55%</p>
                  <p id=""wtp"" style=""text-align:center; margin-top: 0px; margin-bottom: 0px; font-size: 40px"";>מוכנים לשלם: <span id=""c_p_y""></span></p>","16","evaluation","55","23","7B,26B","55","61","16","","","","","","","","","","","","","","","","",""
"","","","","","html-keyboard-response","138","1158340","0.0-21.0-2.8","e59cfa13-2515-44e3-a0bd-39b5674668d1","null","<p style=""text-align: center;"">+</p>","null","fixation","","","","","","","","","","","","","","","","","","","","","","",""
"","","","","","html-slider-response","139","1159342","0.0-21.0-0.9","e59cfa13-2515-44e3-a0bd-39b5674668d1","1000","
                  <p style=""text-align: center;"">₪4
                                                <br>75%</p>
                  <p id=""wtp"" style=""text-align:center; margin-top: 0px; margin-bottom: 0px; font-size: 40px"";>&ensp;</p>","-","viewing","0","3","12B,20B,23B,27C,29C","","","","","","","","","","","","","","","","","","","",""
"","","","","","html-slider-response","140","1161117","0.0-21.0-1.9","e59cfa13-2515-44e3-a0bd-39b5674668d1","1774","
                  <p style=""text-align: center;"">₪4
                                                <br>75%</p>
                  <p id=""wtp"" style=""text-align:center; margin-top: 0px; margin-bottom: 0px; font-size: 40px"";>מוכנים לשלם: <span id=""c_p_y""></span></p>","3","evaluation","71","3","12B,20B,23B,27C,29C","75","4","3","","","","","","","","","","","","","","","","",""
"","","","","","html-keyboard-response","141","1161632","0.0-21.0-2.9","e59cfa13-2515-44e3-a0bd-39b5674668d1","null","<p style=""text-align: center;"">+</p>","null","fixation","","","","","","","","","","","","","","","","","","","","","","",""
"","","","","","html-slider-response","142","1162649","0.0-21.0-0.10","e59cfa13-2515-44e3-a0bd-39b5674668d1","1000","
                  <p style=""text-align: center;"">₪11
                                                <br>45%</p>
                  <p id=""wtp"" style=""text-align:center; margin-top: 0px; margin-bottom: 0px; font-size: 40px"";>&ensp;</p>","-","viewing","0","6","14B,21C,25C","","","","","","","","","","","","","","","","","","","",""
"","","","","","html-slider-response","143","1164709","0.0-21.0-1.10","e59cfa13-2515-44e3-a0bd-39b5674668d1","2059","
                  <p style=""text-align: center;"">₪11
                                                <br>45%</p>
                  <p id=""wtp"" style=""text-align:center; margin-top: 0px; margin-bottom: 0px; font-size: 40px"";>מוכנים לשלם: <span id=""c_p_y""></span></p>","2","evaluation","1","6","14B,21C,25C","45","11","2","","","","","","","","","","","","","","","","",""
"","","","","","html-keyboard-response","144","1165510","0.0-21.0-2.10","e59cfa13-2515-44e3-a0bd-39b5674668d1","null","<p style=""text-align: center;"">+</p>","null","fixation","","","","","","","","","","","","","","","","","","","","","","",""
"","","","","","html-slider-response","145","1166516","0.0-21.0-0.11","e59cfa13-2515-44e3-a0bd-39b5674668d1","1000","
                  <p style=""text-align: center;"">₪64
                                                <br>50%</p>
                  <p id=""wtp"" style=""text-align:center; margin-top: 0px; margin-bottom: 0px; font-size: 40px"";>&ensp;</p>","-","viewing","0","25","1B,3B,4A","","","","","","","","","","","","","","","","","","","",""
"","","","","","html-slider-response","146","1168869","0.0-21.0-1.11","e59cfa13-2515-44e3-a0bd-39b5674668d1","2351","
                  <p style=""text-align: center;"">₪64
                                                <br>50%</p>
                  <p id=""wtp"" style=""text-align:center; margin-top: 0px; margin-bottom: 0px; font-size: 40px"";>מוכנים לשלם: <span id=""c_p_y""></span></p>","20","evaluation","11","25","1B,3B,4A","50","64","20","","","","","","","","","","","","","","","","",""
"","","","","","html-keyboard-response","147","1169378","0.0-21.0-2.11","e59cfa13-2515-44e3-a0bd-39b5674668d1","null","<p style=""text-align: center;"">+</p>","null","fixation","","","","","","","","","","","","","","","","","","","","","","",""
"","","","","","html-slider-response","148","1170389","0.0-21.0-0.12","e59cfa13-2515-44e3-a0bd-39b5674668d1","1000","
                  <p style=""text-align: center;"">₪79
                                                <br>65%</p>
                  <p id=""wtp"" style=""text-align:center; margin-top: 0px; margin-bottom: 0px; font-size: 40px"";>&ensp;</p>","-","viewing","0","31","8A","","","","","","","","","","","","","","","","","","","",""
"","","","","","html-slider-response","149","1172141","0.0-21.0-1.12","e59cfa13-2515-44e3-a0bd-39b5674668d1","1751","
                  <p style=""text-align: center;"">₪79
                                                <br>65%</p>
                  <p id=""wtp"" style=""text-align:center; margin-top: 0px; margin-bottom: 0px; font-size: 40px"";>מוכנים לשלם: <span id=""c_p_y""></span></p>","27","evaluation","43","31","8A","65","79","27","","","","","","","","","","","","","","","","",""
"","","","","","html-keyboard-response","150","1173452","0.0-21.0-2.12","e59cfa13-2515-44e3-a0bd-39b5674668d1","null","<p style=""text-align: center;"">+</p>","null","fixation","","","","","","","","","","","","","","","","","","","","","","",""
"","","","","","html-slider-response","151","1174463","0.0-21.0-0.13","e59cfa13-2515-44e3-a0bd-39b5674668d1","1000","
                  <p style=""text-align: center;"">₪71
                                                <br>75%</p>
                  <p id=""wtp"" style=""text-align:center; margin-top: 0px; margin-bottom: 0px; font-size: 40px"";>&ensp;</p>","-","viewing","0","28","8B","","","","","","","","","","","","","","","","","","","",""
"","","","","","html-slider-response","152","1176237","0.0-21.0-1.13","e59cfa13-2515-44e3-a0bd-39b5674668d1","1773","
                  <p style=""text-align: center;"">₪71
                                                <br>75%</p>
                  <p id=""wtp"" style=""text-align:center; margin-top: 0px; margin-bottom: 0px; font-size: 40px"";>מוכנים לשלם: <span id=""c_p_y""></span></p>","30","evaluation","60","28","8B","75","71","30","","","","","","","","","","","","","","","","",""
"","","","","","html-keyboard-response","153","1177417","0.0-21.0-2.13","e59cfa13-2515-44e3-a0bd-39b5674668d1","null","<p style=""text-align: center;"">+</p>","null","fixation","","","","","","","","","","","","","","","","","","","","","","",""
"","","","","","html-slider-response","154","1178421","0.0-21.0-0.14","e59cfa13-2515-44e3-a0bd-39b5674668d1","1000","
                  <p style=""text-align: center;"">₪36
                                                <br>60%</p>
                  <p id=""wtp"" style=""text-align:center; margin-top: 0px; margin-bottom: 0px; font-size: 40px"";>&ensp;</p>","-","viewing","0","12","1C,7C,15C","","","","","","","","","","","","","","","","","","","",""
"","","","","","html-slider-response","155","1179389","0.0-21.0-1.14","e59cfa13-2515-44e3-a0bd-39b5674668d1","967","
                  <p style=""text-align: center;"">₪36
                                                <br>60%</p>
                  <p id=""wtp"" style=""text-align:center; margin-top: 0px; margin-bottom: 0px; font-size: 40px"";>מוכנים לשלם: <span id=""c_p_y""></span></p>","21","evaluation","47","12","1C,7C,15C","60","36","21","","","","","","","","","","","","","","","","",""
"","","","","","html-keyboard-response","156","1180265","0.0-21.0-2.14","e59cfa13-2515-44e3-a0bd-39b5674668d1","null","<p style=""text-align: center;"">+</p>","null","fixation","","","","","","","","","","","","","","","","","","","","","","",""
"","","","","","html-slider-response","157","1181277","0.0-21.0-0.15","e59cfa13-2515-44e3-a0bd-39b5674668d1","1000","
                  <p style=""text-align: center;"">₪39
                                                <br>65%</p>
                  <p id=""wtp"" style=""text-align:center; margin-top: 0px; margin-bottom: 0px; font-size: 40px"";>&ensp;</p>","-","viewing","0","16","1A,15A,26C","","","","","","","","","","","","","","","","","","","",""
"","","","","","html-slider-response","158","1182365","0.0-21.0-1.15","e59cfa13-2515-44e3-a0bd-39b5674668d1","1087","
                  <p style=""text-align: center;"">₪39
                                                <br>65%</p>
                  <p id=""wtp"" style=""text-align:center; margin-top: 0px; margin-bottom: 0px; font-size: 40px"";>מוכנים לשלם: <span id=""c_p_y""></span></p>","20","evaluation","74","16","1A,15A,26C","65","39","20","","","","","","","","","","","","","","","","",""
"","","","","","html-keyboard-response","159","1183837","0.0-21.0-2.15","e59cfa13-2515-44e3-a0bd-39b5674668d1","null","<p style=""text-align: center;"">+</p>","null","fixation","","","","","","","","","","","","","","","","","","","","","","",""
"","","","","","html-slider-response","160","1184844","0.0-21.0-0.16","e59cfa13-2515-44e3-a0bd-39b5674668d1","1000","
                  <p style=""text-align: center;"">₪58
                                                <br>45%</p>
                  <p id=""wtp"" style=""text-align:center; margin-top: 0px; margin-bottom: 0px; font-size: 40px"";>&ensp;</p>","-","viewing","0","21","11C,18C,25A","","","","","","","","","","","","","","","","","","","",""
"","","","","","html-slider-response","161","1186805","0.0-21.0-1.16","e59cfa13-2515-44e3-a0bd-39b5674668d1","1960","
                  <p style=""text-align: center;"">₪58
                                                <br>45%</p>
                  <p id=""wtp"" style=""text-align:center; margin-top: 0px; margin-bottom: 0px; font-size: 40px"";>מוכנים לשלם: <span id=""c_p_y""></span></p>","15","evaluation","57","21","11C,18C,25A","45","58","16","","","","","","","","","","","","","","","","",""
"","","","","","html-keyboard-response","162","1188112","0.0-21.0-2.16","e59cfa13-2515-44e3-a0bd-39b5674668d1","null","<p style=""text-align: center;"">+</p>","null","fixation","","","","","","","","","","","","","","","","","","","","","","",""
"","","","","","html-slider-response","163","1189114","0.0-21.0-0.17","e59cfa13-2515-44e3-a0bd-39b5674668d1","1000","
                  <p style=""text-align: center;"">₪4
                                                <br>25%</p>
                  <p id=""wtp"" style=""text-align:center; margin-top: 0px; margin-bottom: 0px; font-size: 40px"";>&ensp;</p>","-","viewing","0","1","6C,29B,30C","","","","","","","","","","","","","","","","","","","",""
"","","","","","html-slider-response","164","1190261","0.0-21.0-1.17","e59cfa13-2515-44e3-a0bd-39b5674668d1","1146","
                  <p style=""text-align: center;"">₪4
                                                <br>25%</p>
                  <p id=""wtp"" style=""text-align:center; margin-top: 0px; margin-bottom: 0px; font-size: 40px"";>מוכנים לשלם: <span id=""c_p_y""></span></p>","2","evaluation","76","1","6C,29B,30C","25","4","2","","","","","","","","","","","","","","","","",""
"","","","","","html-keyboard-response","165","1191313","0.0-21.0-2.17","e59cfa13-2515-44e3-a0bd-39b5674668d1","null","<p style=""text-align: center;"">+</p>","null","fixation","","","","","","","","","","","","","","","","","","","","","","",""
"","","","","","html-slider-response","166","1192315","0.0-21.0-0.18","e59cfa13-2515-44e3-a0bd-39b5674668d1","1000","
                  <p style=""text-align: center;"">₪36
                                                <br>75%</p>
                  <p id=""wtp"" style=""text-align:center; margin-top: 0px; margin-bottom: 0px; font-size: 40px"";>&ensp;</p>","-","viewing","0","14","4B,5A,13B,16B","","","","","","","","","","","","","","","","","","","",""
"","","","","","html-slider-response","167","1193909","0.0-21.0-1.18","e59cfa13-2515-44e3-a0bd-39b5674668d1","1593","
                  <p style=""text-align: center;"">₪36
                                                <br>75%</p>
                  <p id=""wtp"" style=""text-align:center; margin-top: 0px; margin-bottom: 0px; font-size: 40px"";>מוכנים לשלם: <span id=""c_p_y""></span></p>","10","evaluation","67","14","4B,5A,13B,16B","75","36","10","","","","","","","","","","","","","","","","",""
"","","","","","html-keyboard-response","168","1194844","0.0-21.0-2.18","e59cfa13-2515-44e3-a0bd-39b5674668d1","null","<p style=""text-align: center;"">+</p>","null","fixation","","","","","","","","","","","","","","","","","","","","","","",""
"","","","","","html-slider-response","169","1195845","0.0-21.0-0.19","e59cfa13-2515-44e3-a0bd-39b5674668d1","1000","
                  <p style=""text-align: center;"">₪71
                                                <br>55%</p>
                  <p id=""wtp"" style=""text-align:center; margin-top: 0px; margin-bottom: 0px; font-size: 40px"";>&ensp;</p>","-","viewing","0","27","5B,18A","","","","","","","","","","","","","","","","","","","",""
"","","","","","html-slider-response","170","1197861","0.0-21.0-1.19","e59cfa13-2515-44e3-a0bd-39b5674668d1","2014","
                  <p style=""text-align: center;"">₪71
                                                <br>55%</p>
                  <p id=""wtp"" style=""text-align:center; margin-top: 0px; margin-bottom: 0px; font-size: 40px"";>מוכנים לשלם: <span id=""c_p_y""></span></p>","22","evaluation","73","27","5B,18A","55","71","22","","","","","","","","","","","","","","","","",""
"","","","","","html-keyboard-response","171","1198573","0.0-21.0-2.19","e59cfa13-2515-44e3-a0bd-39b5674668d1","null","<p style=""text-align: center;"">+</p>","null","fixation","","","","","","","","","","","","","","","","","","","","","","",""
"","","","","","html-slider-response","172","1199590","0.0-21.0-0.20","e59cfa13-2515-44e3-a0bd-39b5674668d1","1000","
                  <p style=""text-align: center;"">₪39
                                                <br>60%</p>
                  <p id=""wtp"" style=""text-align:center; margin-top: 0px; margin-bottom: 0px; font-size: 40px"";>&ensp;</p>","-","viewing","0","15","9C,25B","","","","","","","","","","","","","","","","","","","",""
"","","","","","html-slider-response","173","1201517","0.0-21.0-1.20","e59cfa13-2515-44e3-a0bd-39b5674668d1","1926","
                  <p style=""text-align: center;"">₪39
                                                <br>60%</p>
                  <p id=""wtp"" style=""text-align:center; margin-top: 0px; margin-bottom: 0px; font-size: 40px"";>מוכנים לשלם: <span id=""c_p_y""></span></p>","16","evaluation","33","15","9C,25B","60","39","16","","","","","","","","","","","","","","","","",""
"","","","","","html-keyboard-response","174","1202874","0.0-21.0-2.20","e59cfa13-2515-44e3-a0bd-39b5674668d1","null","<p style=""text-align: center;"">+</p>","null","fixation","","","","","","","","","","","","","","","","","","","","","","",""
"","","","","","html-slider-response","175","1203878","0.0-21.0-0.21","e59cfa13-2515-44e3-a0bd-39b5674668d1","1000","
                  <p style=""text-align: center;"">₪36
                                                <br>70%</p>
                  <p id=""wtp"" style=""text-align:center; margin-top: 0px; margin-bottom: 0px; font-size: 40px"";>&ensp;</p>","-","viewing","0","13","3A,5C,10B","","","","","","","","","","","","","","","","","","","",""
"","","","","","html-slider-response","176","1205677","0.0-21.0-1.21","e59cfa13-2515-44e3-a0bd-39b5674668d1","1798","
                  <p style=""text-align: center;"">₪36
                                                <br>70%</p>
                  <p id=""wtp"" style=""text-align:center; margin-top: 0px; margin-bottom: 0px; font-size: 40px"";>מוכנים לשלם: <span id=""c_p_y""></span></p>","15","evaluation","26","13","3A,5C,10B","70","36","15","","","","","","","","","","","","","","","","",""
"","","","","","html-keyboard-response","177","1206402","0.0-21.0-2.21","e59cfa13-2515-44e3-a0bd-39b5674668d1","null","<p style=""text-align: center;"">+</p>","null","fixation","","","","","","","","","","","","","","","","","","","","","","",""
"","","","","","html-slider-response","178","1207414","0.0-21.0-0.22","e59cfa13-2515-44e3-a0bd-39b5674668d1","1000","
                  <p style=""text-align: center;"">₪43
                                                <br>75%</p>
                  <p id=""wtp"" style=""text-align:center; margin-top: 0px; margin-bottom: 0px; font-size: 40px"";>&ensp;</p>","-","viewing","0","18","11B,19B,24A,26A","","","","","","","","","","","","","","","","","","","",""
"","","","","","html-slider-response","179","1209805","0.0-21.0-1.22","e59cfa13-2515-44e3-a0bd-39b5674668d1","2390","
                  <p style=""text-align: center;"">₪43
                                                <br>75%</p>
                  <p id=""wtp"" style=""text-align:center; margin-top: 0px; margin-bottom: 0px; font-size: 40px"";>מוכנים לשלם: <span id=""c_p_y""></span></p>","15","evaluation","67","18","11B,19B,24A,26A","75","43","15","","","","","","","","","","","","","","","","",""
"","","","","","html-keyboard-response","180","1210643","0.0-21.0-2.22","e59cfa13-2515-44e3-a0bd-39b5674668d1","null","<p style=""text-align: center;"">+</p>","null","fixation","","","","","","","","","","","","","","","","","","","","","","",""
"","","","","","html-slider-response","181","1211649","0.0-21.0-0.23","e59cfa13-2515-44e3-a0bd-39b5674668d1","1000","
                  <p style=""text-align: center;"">₪61
                                                <br>45%</p>
                  <p id=""wtp"" style=""text-align:center; margin-top: 0px; margin-bottom: 0px; font-size: 40px"";>&ensp;</p>","-","viewing","0","22","10A,11A","","","","","","","","","","","","","","","","","","","",""
"","","","","","html-slider-response","182","1213683","0.0-21.0-1.23","e59cfa13-2515-44e3-a0bd-39b5674668d1","2033","
                  <p style=""text-align: center;"">₪61
                                                <br>45%</p>
                  <p id=""wtp"" style=""text-align:center; margin-top: 0px; margin-bottom: 0px; font-size: 40px"";>מוכנים לשלם: <span id=""c_p_y""></span></p>","20","evaluation","47","22","10A,11A","45","61","20","","","","","","","","","","","","","","","","",""
"","","","","","html-keyboard-response","183","1214223","0.0-21.0-2.23","e59cfa13-2515-44e3-a0bd-39b5674668d1","null","<p style=""text-align: center;"">+</p>","null","fixation","","","","","","","","","","","","","","","","","","","","","","",""
"","","","","","html-slider-response","184","1215231","0.0-21.0-0.24","e59cfa13-2515-44e3-a0bd-39b5674668d1","1000","
                  <p style=""text-align: center;"">₪58
                                                <br>40%</p>
                  <p id=""wtp"" style=""text-align:center; margin-top: 0px; margin-bottom: 0px; font-size: 40px"";>&ensp;</p>","-","viewing","0","20","10C,13A,19C,21B","","","","","","","","","","","","","","","","","","","",""
"","","","","","html-slider-response","185","1217404","0.0-21.0-1.24","e59cfa13-2515-44e3-a0bd-39b5674668d1","2172","
                  <p style=""text-align: center;"">₪58
                                                <br>40%</p>
                  <p id=""wtp"" style=""text-align:center; margin-top: 0px; margin-bottom: 0px; font-size: 40px"";>מוכנים לשלם: <span id=""c_p_y""></span></p>","15","evaluation","4","20","10C,13A,19C,21B","40","58","15","","","","","","","","","","","","","","","","",""
"","","","","","html-keyboard-response","186","1218074","0.0-21.0-2.24","e59cfa13-2515-44e3-a0bd-39b5674668d1","null","<p style=""text-align: center;"">+</p>","null","fixation","","","","","","","","","","","","","","","","","","","","","","",""
"","","","","","html-slider-response","187","1219078","0.0-21.0-0.25","e59cfa13-2515-44e3-a0bd-39b5674668d1","1000","
                  <p style=""text-align: center;"">₪58
                                                <br>30%</p>
                  <p id=""wtp"" style=""text-align:center; margin-top: 0px; margin-bottom: 0px; font-size: 40px"";>&ensp;</p>","-","viewing","0","19","13C,30A","","","","","","","","","","","","","","","","","","","",""
"","","","","","html-slider-response","188","1220508","0.0-21.0-1.25","e59cfa13-2515-44e3-a0bd-39b5674668d1","1429","
                  <p style=""text-align: center;"">₪58
                                                <br>30%</p>
                  <p id=""wtp"" style=""text-align:center; margin-top: 0px; margin-bottom: 0px; font-size: 40px"";>מוכנים לשלם: <span id=""c_p_y""></span></p>","9","evaluation","15","19","13C,30A","30","58","9","","","","","","","","","","","","","","","","",""
"","","","","","html-keyboard-response","189","1221227","0.0-21.0-2.25","e59cfa13-2515-44e3-a0bd-39b5674668d1","null","<p style=""text-align: center;"">+</p>","null","fixation","","","","","","","","","","","","","","","","","","","","","","",""
"","","","","","html-slider-response","190","1222238","0.0-21.0-0.26","e59cfa13-2515-44e3-a0bd-39b5674668d1","1000","
                  <p style=""text-align: center;"">₪76
                                                <br>65%</p>
                  <p id=""wtp"" style=""text-align:center; margin-top: 0px; margin-bottom: 0px; font-size: 40px"";>&ensp;</p>","-","viewing","0","29","8C,19A,24B","","","","","","","","","","","","","","","","","","","",""
"","","","","","html-slider-response","191","1224012","0.0-21.0-1.26","e59cfa13-2515-44e3-a0bd-39b5674668d1","1772","
                  <p style=""text-align: center;"">₪76
                                                <br>65%</p>
                  <p id=""wtp"" style=""text-align:center; margin-top: 0px; margin-bottom: 0px; font-size: 40px"";>מוכנים לשלם: <span id=""c_p_y""></span></p>","26","evaluation","45","29","8C,19A,24B","65","76","26","","","","","","","","","","","","","","","","",""
"","","","","","html-keyboard-response","192","1224848","0.0-21.0-2.26","e59cfa13-2515-44e3-a0bd-39b5674668d1","null","<p style=""text-align: center;"">+</p>","null","fixation","","","","","","","","","","","","","","","","","","","","","","",""
"","","","","","html-slider-response","193","1225864","0.0-21.0-0.27","e59cfa13-2515-44e3-a0bd-39b5674668d1","1000","
                  <p style=""text-align: center;"">₪36
                                                <br>30%</p>
                  <p id=""wtp"" style=""text-align:center; margin-top: 0px; margin-bottom: 0px; font-size: 40px"";>&ensp;</p>","-","viewing","0","11","3C,20A,22A","","","","","","","","","","","","","","","","","","","",""
"","","","","","html-slider-response","194","1227436","0.0-21.0-1.27","e59cfa13-2515-44e3-a0bd-39b5674668d1","1571","
                  <p style=""text-align: center;"">₪36
                                                <br>30%</p>
                  <p id=""wtp"" style=""text-align:center; margin-top: 0px; margin-bottom: 0px; font-size: 40px"";>מוכנים לשלם: <span id=""c_p_y""></span></p>","12","evaluation","37","11","3C,20A,22A","30","36","12","","","","","","","","","","","","","","","","",""
"","","","","","html-keyboard-response","195","1228073","0.0-21.0-2.27","e59cfa13-2515-44e3-a0bd-39b5674668d1","null","<p style=""text-align: center;"">+</p>","null","fixation","","","","","","","","","","","","","","","","","","","","","","",""
"","","","","","html-slider-response","196","1229076","0.0-21.0-0.28","e59cfa13-2515-44e3-a0bd-39b5674668d1","1000","
                  <p style=""text-align: center;"">₪11
                                                <br>75%</p>
                  <p id=""wtp"" style=""text-align:center; margin-top: 0px; margin-bottom: 0px; font-size: 40px"";>&ensp;</p>","-","viewing","0","7","6B,18B,22C,24C,29A","","","","","","","","","","","","","","","","","","","",""
"","","","","","html-slider-response","197","1231108","0.0-21.0-1.28","e59cfa13-2515-44e3-a0bd-39b5674668d1","2030","
                  <p style=""text-align: center;"">₪11
                                                <br>75%</p>
                  <p id=""wtp"" style=""text-align:center; margin-top: 0px; margin-bottom: 0px; font-size: 40px"";>מוכנים לשלם: <span id=""c_p_y""></span></p>","5","evaluation","16","7","6B,18B,22C,24C,29A","75","11","5","","","","","","","","","","","","","","","","",""
"","","","","","html-keyboard-response","198","1231993","0.0-21.0-2.28","e59cfa13-2515-44e3-a0bd-39b5674668d1","null","<p style=""text-align: center;"">+</p>","null","fixation","","","","","","","","","","","","","","","","","","","","","","",""
"","","","","","html-slider-response","199","1232995","0.0-21.0-0.29","e59cfa13-2515-44e3-a0bd-39b5674668d1","1000","
                  <p style=""text-align: center;"">₪18
                                                <br>50%</p>
                  <p id=""wtp"" style=""text-align:center; margin-top: 0px; margin-bottom: 0px; font-size: 40px"";>&ensp;</p>","-","viewing","0","10","2C,16C,22B,28A","","","","","","","","","","","","","","","","","","","",""
"","","","","","html-slider-response","200","1234459","0.0-21.0-1.29","e59cfa13-2515-44e3-a0bd-39b5674668d1","1464","
                  <p style=""text-align: center;"">₪18
                                                <br>50%</p>
                  <p id=""wtp"" style=""text-align:center; margin-top: 0px; margin-bottom: 0px; font-size: 40px"";>מוכנים לשלם: <span id=""c_p_y""></span></p>","3","evaluation","63","10","2C,16C,22B,28A","50","18","3","","","","","","","","","","","","","","","","",""
"","","","","","html-keyboard-response","201","1235135","0.0-21.0-2.29","e59cfa13-2515-44e3-a0bd-39b5674668d1","null","<p style=""text-align: center;"">+</p>","null","fixation","","","","","","","","","","","","","","","","","","","","","","",""
"","","","","","html-slider-response","202","1236145","0.0-21.0-0.30","e59cfa13-2515-44e3-a0bd-39b5674668d1","1000","
                  <p style=""text-align: center;"">₪71
                                                <br>45%</p>
                  <p id=""wtp"" style=""text-align:center; margin-top: 0px; margin-bottom: 0px; font-size: 40px"";>&ensp;</p>","-","viewing","0","26","2B,16A","","","","","","","","","","","","","","","","","","","",""
"","","","","","html-slider-response","203","1238372","0.0-21.0-1.30","e59cfa13-2515-44e3-a0bd-39b5674668d1","2226","
                  <p style=""text-align: center;"">₪71
                                                <br>45%</p>
                  <p id=""wtp"" style=""text-align:center; margin-top: 0px; margin-bottom: 0px; font-size: 40px"";>מוכנים לשלם: <span id=""c_p_y""></span></p>","20","evaluation","5","26","2B,16A","45","71","20","","","","","","","","","","","","","","","","",""
"","","","","","html-keyboard-response","204","1239688","0.0-21.0-2.30","e59cfa13-2515-44e3-a0bd-39b5674668d1","null","<p style=""text-align: center;"">+</p>","null","fixation","","","","","","","","","","","","","","","","","","","","","","",""
"","","","","","html-keyboard-response","205","1240700","0.0-22.0","e59cfa13-2515-44e3-a0bd-39b5674668d1","null","<p style=""text-align: center;"">+</p>","null","fixation","","","","","","","","","","","","","","","","","","","","","","",""
"","","","","","html-keyboard-response","206","1242811","0.0-23.0","e59cfa13-2515-44e3-a0bd-39b5674668d1","null","<p>הפסקה.
          <br>לחצו כדי להמשיך.</p>","1","scan_wait","","","","","","","","","","","","","","","","","","","","","","",""
"","","","","","html-keyboard-response","207","1243824","0.0-24.0","e59cfa13-2515-44e3-a0bd-39b5674668d1","null","<p style=""text-align: center;"">+</p>","null","fixation","","","","","","","","","","","","","","","","","","","","","","",""
"","","","","","html-slider-response","208","1244836","0.0-25.0-0.0","e59cfa13-2515-44e3-a0bd-39b5674668d1","1000","
                  <p style=""text-align: center;"">₪64
                                                <br>25%</p>
                  <p id=""wtp"" style=""text-align:center; margin-top: 0px; margin-bottom: 0px; font-size: 40px"";>&ensp;</p>","-","viewing","0","24","6A,21A","","","","","","","","","","","","","","","","","","","",""
"","","","","","html-slider-response","209","1246572","0.0-25.0-1.0","e59cfa13-2515-44e3-a0bd-39b5674668d1","1735","
                  <p style=""text-align: center;"">₪64
                                                <br>25%</p>
                  <p id=""wtp"" style=""text-align:center; margin-top: 0px; margin-bottom: 0px; font-size: 40px"";>מוכנים לשלם: <span id=""c_p_y""></span></p>","13","evaluation","58","24","6A,21A","25","64","13","","","","","","","","","","","","","","","","",""
"","","","","","html-keyboard-response","210","1247808","0.0-25.0-2.0","e59cfa13-2515-44e3-a0bd-39b5674668d1","null","<p style=""text-align: center;"">+</p>","null","fixation","","","","","","","","","","","","","","","","","","","","","","",""
"","","","","","html-slider-response","211","1248809","0.0-25.0-0.1","e59cfa13-2515-44e3-a0bd-39b5674668d1","1000","
                  <p style=""text-align: center;"">₪71
                                                <br>55%</p>
                  <p id=""wtp"" style=""text-align:center; margin-top: 0px; margin-bottom: 0px; font-size: 40px"";>&ensp;</p>","-","viewing","0","27","5B,18A","","","","","","","","","","","","","","","","","","","",""
"","","","","","html-slider-response","212","1250371","0.0-25.0-1.1","e59cfa13-2515-44e3-a0bd-39b5674668d1","1561","
                  <p style=""text-align: center;"">₪71
                                                <br>55%</p>
                  <p id=""wtp"" style=""text-align:center; margin-top: 0px; margin-bottom: 0px; font-size: 40px"";>מוכנים לשלם: <span id=""c_p_y""></span></p>","20","evaluation","78","27","5B,18A","55","71","20","","","","","","","","","","","","","","","","",""
"","","","","","html-keyboard-response","213","1251647","0.0-25.0-2.1","e59cfa13-2515-44e3-a0bd-39b5674668d1","null","<p style=""text-align: center;"">+</p>","null","fixation","","","","","","","","","","","","","","","","","","","","","","",""
"","","","","","html-slider-response","214","1252652","0.0-25.0-0.2","e59cfa13-2515-44e3-a0bd-39b5674668d1","1000","
                  <p style=""text-align: center;"">₪79
                                                <br>40%</p>
                  <p id=""wtp"" style=""text-align:center; margin-top: 0px; margin-bottom: 0px; font-size: 40px"";>&ensp;</p>","-","viewing","0","30","9B","","","","","","","","","","","","","","","","","","","",""
"","","","","","html-slider-response","215","1253995","0.0-25.0-1.2","e59cfa13-2515-44e3-a0bd-39b5674668d1","1342","
                  <p style=""text-align: center;"">₪79
                                                <br>40%</p>
                  <p id=""wtp"" style=""text-align:center; margin-top: 0px; margin-bottom: 0px; font-size: 40px"";>מוכנים לשלם: <span id=""c_p_y""></span></p>","22","evaluation","60","30","9B","40","79","22","","","","","","","","","","","","","","","","",""
"","","","","","html-keyboard-response","216","1255437","0.0-25.0-2.2","e59cfa13-2515-44e3-a0bd-39b5674668d1","null","<p style=""text-align: center;"">+</p>","null","fixation","","","","","","","","","","","","","","","","","","","","","","",""
"","","","","","html-slider-response","217","1256450","0.0-25.0-0.3","e59cfa13-2515-44e3-a0bd-39b5674668d1","1000","
                  <p style=""text-align: center;"">₪11
                                                <br>75%</p>
                  <p id=""wtp"" style=""text-align:center; margin-top: 0px; margin-bottom: 0px; font-size: 40px"";>&ensp;</p>","-","viewing","0","7","6B,18B,22C,24C,29A","","","","","","","","","","","","","","","","","","","",""
"","","","","","html-slider-response","218","1257883","0.0-25.0-1.3","e59cfa13-2515-44e3-a0bd-39b5674668d1","1432","
                  <p style=""text-align: center;"">₪11
                                                <br>75%</p>
                  <p id=""wtp"" style=""text-align:center; margin-top: 0px; margin-bottom: 0px; font-size: 40px"";>מוכנים לשלם: <span id=""c_p_y""></span></p>","4","evaluation","31","7","6B,18B,22C,24C,29A","75","11","5","","","","","","","","","","","","","","","","",""
"","","","","","html-keyboard-response","219","1259096","0.0-25.0-2.3","e59cfa13-2515-44e3-a0bd-39b5674668d1","null","<p style=""text-align: center;"">+</p>","null","fixation","","","","","","","","","","","","","","","","","","","","","","",""
"","","","","","html-slider-response","220","1260105","0.0-25.0-0.4","e59cfa13-2515-44e3-a0bd-39b5674668d1","1000","
                  <p style=""text-align: center;"">₪61
                                                <br>45%</p>
                  <p id=""wtp"" style=""text-align:center; margin-top: 0px; margin-bottom: 0px; font-size: 40px"";>&ensp;</p>","-","viewing","0","22","10A,11A","","","","","","","","","","","","","","","","","","","",""
"","","","","","html-slider-response","221","1262060","0.0-25.0-1.4","e59cfa13-2515-44e3-a0bd-39b5674668d1","1954","
                  <p style=""text-align: center;"">₪61
                                                <br>45%</p>
                  <p id=""wtp"" style=""text-align:center; margin-top: 0px; margin-bottom: 0px; font-size: 40px"";>מוכנים לשלם: <span id=""c_p_y""></span></p>","17","evaluation","41","22","10A,11A","45","61","17","","","","","","","","","","","","","","","","",""
"","","","","","html-keyboard-response","222","1263095","0.0-25.0-2.4","e59cfa13-2515-44e3-a0bd-39b5674668d1","null","<p style=""text-align: center;"">+</p>","null","fixation","","","","","","","","","","","","","","","","","","","","","","",""
"","","","","","html-slider-response","223","1264104","0.0-25.0-0.5","e59cfa13-2515-44e3-a0bd-39b5674668d1","1000","
                  <p style=""text-align: center;"">₪36
                                                <br>75%</p>
                  <p id=""wtp"" style=""text-align:center; margin-top: 0px; margin-bottom: 0px; font-size: 40px"";>&ensp;</p>","-","viewing","0","14","4B,5A,13B,16B","","","","","","","","","","","","","","","","","","","",""
"","","","","","html-slider-response","224","1266804","0.0-25.0-1.5","e59cfa13-2515-44e3-a0bd-39b5674668d1","2698","
                  <p style=""text-align: center;"">₪36
                                                <br>75%</p>
                  <p id=""wtp"" style=""text-align:center; margin-top: 0px; margin-bottom: 0px; font-size: 40px"";>מוכנים לשלם: <span id=""c_p_y""></span></p>","14","evaluation","24","14","4B,5A,13B,16B","75","36","14","","","","","","","","","","","","","","","","",""
"","","","","","html-keyboard-response","225","1268079","0.0-25.0-2.5","e59cfa13-2515-44e3-a0bd-39b5674668d1","null","<p style=""text-align: center;"">+</p>","null","fixation","","","","","","","","","","","","","","","","","","","","","","",""
"","","","","","html-slider-response","226","1269094","0.0-25.0-0.6","e59cfa13-2515-44e3-a0bd-39b5674668d1","1000","
                  <p style=""text-align: center;"">₪43
                                                <br>60%</p>
                  <p id=""wtp"" style=""text-align:center; margin-top: 0px; margin-bottom: 0px; font-size: 40px"";>&ensp;</p>","-","viewing","0","17","2A,7A,9A,15B","","","","","","","","","","","","","","","","","","","",""
"","","","","","html-slider-response","227","1270508","0.0-25.0-1.6","e59cfa13-2515-44e3-a0bd-39b5674668d1","1412","
                  <p style=""text-align: center;"">₪43
                                                <br>60%</p>
                  <p id=""wtp"" style=""text-align:center; margin-top: 0px; margin-bottom: 0px; font-size: 40px"";>מוכנים לשלם: <span id=""c_p_y""></span></p>","15","evaluation","17","17","2A,7A,9A,15B","60","43","15","","","","","","","","","","","","","","","","",""
"","","","","","html-keyboard-response","228","1271861","0.0-25.0-2.6","e59cfa13-2515-44e3-a0bd-39b5674668d1","null","<p style=""text-align: center;"">+</p>","null","fixation","","","","","","","","","","","","","","","","","","","","","","",""
"","","","","","html-slider-response","229","1272862","0.0-25.0-0.7","e59cfa13-2515-44e3-a0bd-39b5674668d1","1000","
                  <p style=""text-align: center;"">₪4
                                                <br>75%</p>
                  <p id=""wtp"" style=""text-align:center; margin-top: 0px; margin-bottom: 0px; font-size: 40px"";>&ensp;</p>","-","viewing","0","3","12B,20B,23B,27C,29C","","","","","","","","","","","","","","","","","","","",""
"","","","","","html-slider-response","230","1274115","0.0-25.0-1.7","e59cfa13-2515-44e3-a0bd-39b5674668d1","1251","
                  <p style=""text-align: center;"">₪4
                                                <br>75%</p>
                  <p id=""wtp"" style=""text-align:center; margin-top: 0px; margin-bottom: 0px; font-size: 40px"";>מוכנים לשלם: <span id=""c_p_y""></span></p>","1","evaluation","58","3","12B,20B,23B,27C,29C","75","4","2","","","","","","","","","","","","","","","","",""
"","","","","","html-keyboard-response","231","1274843","0.0-25.0-2.7","e59cfa13-2515-44e3-a0bd-39b5674668d1","null","<p style=""text-align: center;"">+</p>","null","fixation","","","","","","","","","","","","","","","","","","","","","","",""
"","","","","","html-slider-response","232","1275850","0.0-25.0-0.8","e59cfa13-2515-44e3-a0bd-39b5674668d1","1000","
                  <p style=""text-align: center;"">₪76
                                                <br>65%</p>
                  <p id=""wtp"" style=""text-align:center; margin-top: 0px; margin-bottom: 0px; font-size: 40px"";>&ensp;</p>","-","viewing","0","29","8C,19A,24B","","","","","","","","","","","","","","","","","","","",""
"","","","","","html-slider-response","233","1277763","0.0-25.0-1.8","e59cfa13-2515-44e3-a0bd-39b5674668d1","1912","
                  <p style=""text-align: center;"">₪76
                                                <br>65%</p>
                  <p id=""wtp"" style=""text-align:center; margin-top: 0px; margin-bottom: 0px; font-size: 40px"";>מוכנים לשלם: <span id=""c_p_y""></span></p>","23","evaluation","63","29","8C,19A,24B","65","76","23","","","","","","","","","","","","","","","","",""
"","","","","","html-keyboard-response","234","1279010","0.0-25.0-2.8","e59cfa13-2515-44e3-a0bd-39b5674668d1","null","<p style=""text-align: center;"">+</p>","null","fixation","","","","","","","","","","","","","","","","","","","","","","",""
"","","","","","html-slider-response","235","1280012","0.0-25.0-0.9","e59cfa13-2515-44e3-a0bd-39b5674668d1","1000","
                  <p style=""text-align: center;"">₪71
                                                <br>45%</p>
                  <p id=""wtp"" style=""text-align:center; margin-top: 0px; margin-bottom: 0px; font-size: 40px"";>&ensp;</p>","-","viewing","0","26","2B,16A","","","","","","","","","","","","","","","","","","","",""
"","","","","","html-slider-response","236","1281099","0.0-25.0-1.9","e59cfa13-2515-44e3-a0bd-39b5674668d1","1086","
                  <p style=""text-align: center;"">₪71
                                                <br>45%</p>
                  <p id=""wtp"" style=""text-align:center; margin-top: 0px; margin-bottom: 0px; font-size: 40px"";>מוכנים לשלם: <span id=""c_p_y""></span></p>","18","evaluation","63","26","2B,16A","45","71","18","","","","","","","","","","","","","","","","",""
"","","","","","html-keyboard-response","237","1281648","0.0-25.0-2.9","e59cfa13-2515-44e3-a0bd-39b5674668d1","null","<p style=""text-align: center;"">+</p>","null","fixation","","","","","","","","","","","","","","","","","","","","","","",""
"","","","","","html-slider-response","238","1282650","0.0-25.0-0.10","e59cfa13-2515-44e3-a0bd-39b5674668d1","1000","
                  <p style=""text-align: center;"">₪11
                                                <br>25%</p>
                  <p id=""wtp"" style=""text-align:center; margin-top: 0px; margin-bottom: 0px; font-size: 40px"";>&ensp;</p>","-","viewing","0","5","12A,27B,28B,30B","","","","","","","","","","","","","","","","","","","",""
"","","","","","html-slider-response","239","1284011","0.0-25.0-1.10","e59cfa13-2515-44e3-a0bd-39b5674668d1","1360","
                  <p style=""text-align: center;"">₪11
                                                <br>25%</p>
                  <p id=""wtp"" style=""text-align:center; margin-top: 0px; margin-bottom: 0px; font-size: 40px"";>מוכנים לשלם: <span id=""c_p_y""></span></p>","2","evaluation","1","5","12A,27B,28B,30B","25","11","2","","","","","","","","","","","","","","","","",""
"","","","","","html-keyboard-response","240","1285009","0.0-25.0-2.10","e59cfa13-2515-44e3-a0bd-39b5674668d1","null","<p style=""text-align: center;"">+</p>","null","fixation","","","","","","","","","","","","","","","","","","","","","","",""
"","","","","","html-slider-response","241","1286025","0.0-25.0-0.11","e59cfa13-2515-44e3-a0bd-39b5674668d1","1000","
                  <p style=""text-align: center;"">₪39
                                                <br>60%</p>
                  <p id=""wtp"" style=""text-align:center; margin-top: 0px; margin-bottom: 0px; font-size: 40px"";>&ensp;</p>","-","viewing","0","15","9C,25B","","","","","","","","","","","","","","","","","","","",""
"","","","","","html-slider-response","242","1287963","0.0-25.0-1.11","e59cfa13-2515-44e3-a0bd-39b5674668d1","1936","
                  <p style=""text-align: center;"">₪39
                                                <br>60%</p>
                  <p id=""wtp"" style=""text-align:center; margin-top: 0px; margin-bottom: 0px; font-size: 40px"";>מוכנים לשלם: <span id=""c_p_y""></span></p>","21","evaluation","4","15","9C,25B","60","39","21","","","","","","","","","","","","","","","","",""
"","","","","","html-keyboard-response","243","1288766","0.0-25.0-2.11","e59cfa13-2515-44e3-a0bd-39b5674668d1","null","<p style=""text-align: center;"">+</p>","null","fixation","","","","","","","","","","","","","","","","","","","","","","",""
"","","","","","html-slider-response","244","1289779","0.0-25.0-0.12","e59cfa13-2515-44e3-a0bd-39b5674668d1","1000","
                  <p style=""text-align: center;"">₪79
                                                <br>65%</p>
                  <p id=""wtp"" style=""text-align:center; margin-top: 0px; margin-bottom: 0px; font-size: 40px"";>&ensp;</p>","-","viewing","0","31","8A","","","","","","","","","","","","","","","","","","","",""
"","","","","","html-slider-response","245","1291347","0.0-25.0-1.12","e59cfa13-2515-44e3-a0bd-39b5674668d1","1567","
                  <p style=""text-align: center;"">₪79
                                                <br>65%</p>
                  <p id=""wtp"" style=""text-align:center; margin-top: 0px; margin-bottom: 0px; font-size: 40px"";>מוכנים לשלם: <span id=""c_p_y""></span></p>","25","evaluation","41","31","8A","65","79","25","","","","","","","","","","","","","","","","",""
"","","","","","html-keyboard-response","246","1292452","0.0-25.0-2.12","e59cfa13-2515-44e3-a0bd-39b5674668d1","null","<p style=""text-align: center;"">+</p>","null","fixation","","","","","","","","","","","","","","","","","","","","","","",""
"","","","","","html-slider-response","247","1293460","0.0-25.0-0.13","e59cfa13-2515-44e3-a0bd-39b5674668d1","1000","
                  <p style=""text-align: center;"">₪71
                                                <br>75%</p>
                  <p id=""wtp"" style=""text-align:center; margin-top: 0px; margin-bottom: 0px; font-size: 40px"";>&ensp;</p>","-","viewing","0","28","8B","","","","","","","","","","","","","","","","","","","",""
"","","","","","html-slider-response","248","1295299","0.0-25.0-1.13","e59cfa13-2515-44e3-a0bd-39b5674668d1","1838","
                  <p style=""text-align: center;"">₪71
                                                <br>75%</p>
