"success","timeout","failed_images","failed_audio","failed_video","trial_type","trial_index","time_elapsed","internal_node_id","subject_id","rt","stimulus","response","part","slider_start","ID","set_ID","prob","amount","last_location","actual_choice","actual_EV","binary_id","trinary_id","catch","A_key","D_key","choice_prob","choice_amount","chosen_part","won_prize","potential_prize_amount","potential_prize_prob","total_prize","accuracy"
"true","false","[]","[]","[]","preload","0","32","0.0-0.0","1a080826-2398-4f43-ab82-e5d0240eedcb","","","","","","","","","","","","","","","","","","","","","","","","",""
"","","","","","html-keyboard-response","1","1245139","0.0-1.0","1a080826-2398-4f43-ab82-e5d0240eedcb","null","
          <h1>שלום וברוכים הבאים!</h1>
          <p>לפניכם ניסוי בקבלת החלטות עם שני חלקים.
          <br><br>לחצו על העכבר כדי להמשיך.</p>","0","example","","","","","","","","","","","","","","","","","","","","",""
"","","","","","html-keyboard-response","2","1256042","0.0-2.0","1a080826-2398-4f43-ab82-e5d0240eedcb","null","
        <h1>חלק 1</h1>
        <p>בקרוב יוצגו בפניכם הגרלות.
        <br>עליכם לבחור את המחיר המירבי שתהיו מוכנים לשלם כדי להשתתף בהגרלה שתוצג.
        <br>יש לכם תקציב של ₪80 לכל הגרלה. 
        <br>נסו להעריך כל הגרלה בנפרד ולחשוב כמה היא שווה עבורכם, ₪80 זמינים לכל הגרלה בנפרד.
        <br><br>לחצו על העכבר כדי להמשיך.</p>","1","instructions","","","","","","","","","","","","","","","","","","","","",""
"","","","","","html-keyboard-response","3","1263970","0.0-3.0","1a080826-2398-4f43-ab82-e5d0240eedcb","null","
        <p>בסוף הניסוי, המחשב יבחר את אחת ההגרלות ויקבע מחיר לכרטיס עבורה. 
        <br>במידה והמחיר שבחרתם נמוך מהמחיר שנבחר על ידי המחשב, לא תשתתפו בהגרלה ותשארו עם מלוא התקציב.
        <br>במידה והמחיר שבחרתם גבוה מהמחיר שנבחר על ידי המחשב, תשלמו את המחיר שנקבע ותשתתפו בהגרלה.
        <br><br>לחצו על העכבר כדי להמשיך.</p>","1","instructions","","","","","","","","","","","","","","","","","","","","",""
"","","","","","html-slider-response","4","1280010","0.0-4.0","1a080826-2398-4f43-ab82-e5d0240eedcb","15930","
        <p style=""font-size: 42px;"">נתחיל עם דוגמא: 
        <br>ההגרלה מטה מציעה 65% סיכוי לזכות ב-₪40 
        <br>&emsp;&emsp;&emsp;&emsp;&emsp;&emsp;&emsp;&emsp;&ensp;35% סיכוי לזכות ב-₪0.
        <br><br>מה המחיר המירבי שתהיו מוכנים לשלם על כרטיס להגרלה זו בין 0 ל-₪80?
        <br>הזיזו את העכבר על פני המלבן ולחצו כדי לבצע בחירה.</p>
        
        <p style=""text-align: center;"">₪40<br>65%</p>

        <p id=""wtp"" style=""text-align:center; margin-top: 0px; margin-bottom: 0px; font-size: 40px"";>מוכנים לשלם: <span id=""c_p_y""></span></p>","24","example","55","","","","","","","","","","","","","","","","","","","",""
"","","","","","html-keyboard-response","5","1285954","0.0-5.0","1a080826-2398-4f43-ab82-e5d0240eedcb","null","<p>יפה מאוד!
                <br> בחרתם שתהיו מוכנים לשלם ₪24 כדי להשתתף בהגרלה:
                <br><p style=""text-align: center;"">₪40<br>65%</p>
                <p>נשמע נכון?
                <br>נניח שהגרלה זו נבחרה בסוף הניסוי.
                <br>כעת המחשב יקבע מחיר עבורה באקראי.
                <br>לחצו על העכבר להמשך.</p>","1","example","","","","","","","","","","","","","","","","","","","","",""
"","","","","","html-keyboard-response","6","1292546","0.0-6.0","1a080826-2398-4f43-ab82-e5d0240eedcb","null","<p>המחשב קבע מחיר: ₪43
                <br>ואתם בחרתם לשלם לכל היותר: ₪24
                <br><br>מכיוון שהמחיר שבחרתם נמוך מהמחיר שנקבע, לא תתשתתפו בהגרלה.
                <br>במקרה כזה, בסוף הניסוי תקבלו את כל התקציב ההתחלתי של ₪80.
                <br><br>לחצו על העכבר להמשך.</p>","1","example","","","","","","","","","","","","","","","","","","","","",""
"","","","","","html-slider-response","7","1296475","0.0-7.0","1a080826-2398-4f43-ab82-e5d0240eedcb","3676","<p style=""font-size: 42px;"">הנה עוד דוגמא:
                <br>ההגרלה מטה מציעה 35% סיכוי לזכות ב-₪18 
                <br>&emsp;&emsp;&emsp;&emsp;&emsp;&emsp;&emsp;&emsp;&ensp;65% סיכוי לזכות ב-₪0.</p>
        
                <p style=""text-align: center;"">₪18<br>35%</p>
                <p id=""wtp"" style=""text-align:center; margin-top: 0px; margin-bottom: 0px; font-size: 40px"";>מוכנים לשלם: <span id=""c_p_y""></span></p>","10","example","3","","","","","","","","","","","","","","","","","","","",""
"","","","","","html-keyboard-response","8","1297882","0.0-8.0","1a080826-2398-4f43-ab82-e5d0240eedcb","null","<p>הייתם מוכנים לשלם  ₪10 כדי להשתתף בהגרלה:
                <p style=""text-align: center;"">₪18<br>35%</p>
                <p>כעת נניח שהמחשב בחר את ההגרלה הזו בסוף הניסוי, וקבע עבורה מחיר.
                <br><br>לחצו על העכבר כדי להמשיך.</p>","1","instructions","","","","","","","","","","","","","","","","","","","","",""
"","","","","","html-keyboard-response","9","1314357","0.0-9.0","1a080826-2398-4f43-ab82-e5d0240eedcb","null","<p>המחשב קבע מחיר להגרלה: ₪8<br>ואתם בחרתם לשלם לכל היותר: ₪10
                <br><br>כעת המחיר שנקבע נמוך מזה שבחרתם, אז תשלמו את המחיר שקבע המחשב (₪8) ותשתתפו בהגרלה.
                <br>במקרה כזה, תסיימו את הניסוי עם תקציב של ₪72 ועם סיכוי לזכות ב-₪18 נוספים מההגרלה.
                <br>כלומר, תוכלו לקבל ₪72 אם לא תזכו בהגרלה, או ₪90 אם תזכו בהגרלה.
                <br><br>לחצו על העכבר להמשך.</p>","1","example","","","","","","","","","","","","","","","","","","","","",""
"","","","","","html-keyboard-response","10","1319390","0.0-10.0","1a080826-2398-4f43-ab82-e5d0240eedcb","null","<p>במהלך הניסוי, קודם תראו את ההגרלה ורק לאחר מכן תוכלו לבחור.
                <p>כמו כן, יהיו לכם מספר שניות מוגבל להגיב.
                <p>בואו ננסה זאת עם ההגרלה הקודמת.
                <br>לחצו על העכבר כדי להמשיך.</p>","1","instructions","","","","","","","","","","","","","","","","","","","","",""
"","","","","","html-slider-response","11","1320669","0.0-11.0","1a080826-2398-4f43-ab82-e5d0240eedcb","1000","
                    <p style=""text-align: center;"">₪18<br>35%</p>
                    <p id=""wtp"" style=""text-align:center; margin-top: 0px; margin-bottom: 0px; font-size: 40px"";>&ensp;</p>","78","instructions","0","","","","","","","","","","","","","","","","","","","",""
"","","","","","html-slider-response","12","1323918","0.0-12.0","1a080826-2398-4f43-ab82-e5d0240eedcb","2996","
                    <p style=""text-align: center;"">₪18<br>35%</p>
                    <p id=""wtp"" style=""text-align:center; margin-top: 0px; margin-bottom: 0px; font-size: 40px"";>מוכנים לשלם: <span id=""c_p_y""></span></p>","15","instructions","52","","","","","","","","","","","","","","","","","","","",""
"","","","","","html-keyboard-response","13","1326726","0.0-13.0","1a080826-2398-4f43-ab82-e5d0240eedcb","null","<p>יפה. הפעם בחרתם לשלם לכל היותר ₪15.
                <br><br>לחצו על העכבר כדי להמשיך.</p>","1","instructions","","","","","","","","","","","","","","","","","","","","",""
"","","","","","html-keyboard-response","14","1334886","0.0-15.0","1a080826-2398-4f43-ab82-e5d0240eedcb","null","<p>כעת נתחיל את הניסוי.
                <br><br>אתם תראו הגרלות ותתבקשו לבחור כמה תהיו מוכנים לשלם כדי להשתתף בהן.
                <br>יש לכם תקציב של ₪80 עבור כל הגרלה.
                <br>בסוף הניסוי הגרלה אחת תבחר באקראי ותשוחק.
                <br><br>לחצו על העכבר כדי להתחיל את הניסוי.</p>","1","instructions","","","","","","","","","","","","","","","","","","","","",""
"","","","","","html-keyboard-response","15","1336165","0.0-16.0","1a080826-2398-4f43-ab82-e5d0240eedcb","null","<p style=""text-align: center;"">+</p>","null","fixation","","","","","","","","","","","","","","","","","","","","",""
"","","","","","html-slider-response","16","1337175","0.0-17.0-0.0","1a080826-2398-4f43-ab82-e5d0240eedcb","1000","
                  <p style=""text-align: center;"">₪11
                                                <br>45%</p>
                  <p id=""wtp"" style=""text-align:center; margin-top: 0px; margin-bottom: 0px; font-size: 40px"";>&ensp;</p>","-","viewing","0","6","14B,21C,25C","","","","","","","","","","","","","","","","","",""
"","","","","","html-slider-response","17","1338902","0.0-17.0-1.0","1a080826-2398-4f43-ab82-e5d0240eedcb","1726","
                  <p style=""text-align: center;"">₪11
                                                <br>45%</p>
                  <p id=""wtp"" style=""text-align:center; margin-top: 0px; margin-bottom: 0px; font-size: 40px"";>מוכנים לשלם: <span id=""c_p_y""></span></p>","10","evaluation","65","6","14B,21C,25C","45","11","11","","","","","","","","","","","","","","",""
"","","","","","html-keyboard-response","18","1340164","0.0-17.0-2.0","1a080826-2398-4f43-ab82-e5d0240eedcb","null","<p style=""text-align: center;"">+</p>","null","fixation","","","","","","","","","","","","","","","","","","","","",""
"","","","","","html-slider-response","19","1341171","0.0-17.0-0.1","1a080826-2398-4f43-ab82-e5d0240eedcb","1000","
                  <p style=""text-align: center;"">₪43
                                                <br>60%</p>
                  <p id=""wtp"" style=""text-align:center; margin-top: 0px; margin-bottom: 0px; font-size: 40px"";>&ensp;</p>","-","viewing","0","17","2A,7A,9A,15B","","","","","","","","","","","","","","","","","",""
"","","","","","html-slider-response","20","1343046","0.0-17.0-1.1","1a080826-2398-4f43-ab82-e5d0240eedcb","1874","
                  <p style=""text-align: center;"">₪43
                                                <br>60%</p>
                  <p id=""wtp"" style=""text-align:center; margin-top: 0px; margin-bottom: 0px; font-size: 40px"";>מוכנים לשלם: <span id=""c_p_y""></span></p>","18","evaluation","39","17","2A,7A,9A,15B","60","43","19","","","","","","","","","","","","","","",""
"","","","","","html-keyboard-response","21","1344280","0.0-17.0-2.1","1a080826-2398-4f43-ab82-e5d0240eedcb","null","<p style=""text-align: center;"">+</p>","null","fixation","","","","","","","","","","","","","","","","","","","","",""
"","","","","","html-slider-response","22","1345286","0.0-17.0-0.2","1a080826-2398-4f43-ab82-e5d0240eedcb","1000","
                  <p style=""text-align: center;"">₪39
                                                <br>65%</p>
                  <p id=""wtp"" style=""text-align:center; margin-top: 0px; margin-bottom: 0px; font-size: 40px"";>&ensp;</p>","-","viewing","0","16","1A,15A,26C","","","","","","","","","","","","","","","","","",""
"","","","","","html-slider-response","23","1347558","0.0-17.0-1.2","1a080826-2398-4f43-ab82-e5d0240eedcb","2270","
                  <p style=""text-align: center;"">₪39
                                                <br>65%</p>
                  <p id=""wtp"" style=""text-align:center; margin-top: 0px; margin-bottom: 0px; font-size: 40px"";>מוכנים לשלם: <span id=""c_p_y""></span></p>","21","evaluation","45","16","1A,15A,26C","65","39","21","","","","","","","","","","","","","","",""
"","","","","","html-keyboard-response","24","1348219","0.0-17.0-2.2","1a080826-2398-4f43-ab82-e5d0240eedcb","null","<p style=""text-align: center;"">+</p>","null","fixation","","","","","","","","","","","","","","","","","","","","",""
"","","","","","html-slider-response","25","1349221","0.0-17.0-0.3","1a080826-2398-4f43-ab82-e5d0240eedcb","1000","
                  <p style=""text-align: center;"">₪18
                                                <br>25%</p>
                  <p id=""wtp"" style=""text-align:center; margin-top: 0px; margin-bottom: 0px; font-size: 40px"";>&ensp;</p>","-","viewing","0","9","14A,23A","","","","","","","","","","","","","","","","","",""
"","","","","","html-slider-response","26","1351838","0.0-17.0-1.3","1a080826-2398-4f43-ab82-e5d0240eedcb","2616","
                  <p style=""text-align: center;"">₪18
                                                <br>25%</p>
                  <p id=""wtp"" style=""text-align:center; margin-top: 0px; margin-bottom: 0px; font-size: 40px"";>מוכנים לשלם: <span id=""c_p_y""></span></p>","20","evaluation","15","9","14A,23A","25","18","20","","","","","","","","","","","","","","",""
"","","","","","html-keyboard-response","27","1352805","0.0-17.0-2.3","1a080826-2398-4f43-ab82-e5d0240eedcb","null","<p style=""text-align: center;"">+</p>","null","fixation","","","","","","","","","","","","","","","","","","","","",""
"","","","","","html-slider-response","28","1353819","0.0-17.0-0.4","1a080826-2398-4f43-ab82-e5d0240eedcb","1000","
                  <p style=""text-align: center;"">₪39
                                                <br>60%</p>
                  <p id=""wtp"" style=""text-align:center; margin-top: 0px; margin-bottom: 0px; font-size: 40px"";>&ensp;</p>","-","viewing","0","15","9C,25B","","","","","","","","","","","","","","","","","",""
"","","","","","html-slider-response","29","1354726","0.0-17.0-1.4","1a080826-2398-4f43-ab82-e5d0240eedcb","906","
                  <p style=""text-align: center;"">₪39
                                                <br>60%</p>
                  <p id=""wtp"" style=""text-align:center; margin-top: 0px; margin-bottom: 0px; font-size: 40px"";>מוכנים לשלם: <span id=""c_p_y""></span></p>","23","evaluation","29","15","9C,25B","60","39","23","","","","","","","","","","","","","","",""
"","","","","","html-keyboard-response","30","1356225","0.0-17.0-2.4","1a080826-2398-4f43-ab82-e5d0240eedcb","null","<p style=""text-align: center;"">+</p>","null","fixation","","","","","","","","","","","","","","","","","","","","",""
"","","","","","html-slider-response","31","1357232","0.0-17.0-0.5","1a080826-2398-4f43-ab82-e5d0240eedcb","1000","
                  <p style=""text-align: center;"">₪36
                                                <br>60%</p>
                  <p id=""wtp"" style=""text-align:center; margin-top: 0px; margin-bottom: 0px; font-size: 40px"";>&ensp;</p>","-","viewing","0","12","1C,7C,15C","","","","","","","","","","","","","","","","","",""
"","","","","","html-slider-response","32","1360581","0.0-17.0-1.5","1a080826-2398-4f43-ab82-e5d0240eedcb","3349","
                  <p style=""text-align: center;"">₪36
                                                <br>60%</p>
                  <p id=""wtp"" style=""text-align:center; margin-top: 0px; margin-bottom: 0px; font-size: 40px"";>מוכנים לשלם: <span id=""c_p_y""></span></p>","23","evaluation","64","12","1C,7C,15C","60","36","23","","","","","","","","","","","","","","",""
"","","","","","html-keyboard-response","33","1361187","0.0-17.0-2.5","1a080826-2398-4f43-ab82-e5d0240eedcb","null","<p style=""text-align: center;"">+</p>","null","fixation","","","","","","","","","","","","","","","","","","","","",""
"","","","","","html-slider-response","34","1362194","0.0-17.0-0.6","1a080826-2398-4f43-ab82-e5d0240eedcb","1000","
                  <p style=""text-align: center;"">₪36
                                                <br>30%</p>
                  <p id=""wtp"" style=""text-align:center; margin-top: 0px; margin-bottom: 0px; font-size: 40px"";>&ensp;</p>","-","viewing","0","11","3C,20A,22A","","","","","","","","","","","","","","","","","",""
"","","","","","html-slider-response","35","1363110","0.0-17.0-1.6","1a080826-2398-4f43-ab82-e5d0240eedcb","915","
                  <p style=""text-align: center;"">₪36
                                                <br>30%</p>
                  <p id=""wtp"" style=""text-align:center; margin-top: 0px; margin-bottom: 0px; font-size: 40px"";>מוכנים לשלם: <span id=""c_p_y""></span></p>","25","evaluation","51","11","3C,20A,22A","30","36","25","","","","","","","","","","","","","","",""
"","","","","","html-keyboard-response","36","1364104","0.0-17.0-2.6","1a080826-2398-4f43-ab82-e5d0240eedcb","null","<p style=""text-align: center;"">+</p>","null","fixation","","","","","","","","","","","","","","","","","","","","",""
"","","","","","html-slider-response","37","1365112","0.0-17.0-0.7","1a080826-2398-4f43-ab82-e5d0240eedcb","1000","
                  <p style=""text-align: center;"">₪16
                                                <br>20%</p>
                  <p id=""wtp"" style=""text-align:center; margin-top: 0px; margin-bottom: 0px; font-size: 40px"";>&ensp;</p>","-","viewing","0","8","14C,17A,20C,27A","","","","","","","","","","","","","","","","","",""
"","","","","","html-slider-response","38","1366269","0.0-17.0-1.7","1a080826-2398-4f43-ab82-e5d0240eedcb","1156","
                  <p style=""text-align: center;"">₪16
                                                <br>20%</p>
                  <p id=""wtp"" style=""text-align:center; margin-top: 0px; margin-bottom: 0px; font-size: 40px"";>מוכנים לשלם: <span id=""c_p_y""></span></p>","16","evaluation","67","8","14C,17A,20C,27A","20","16","16","","","","","","","","","","","","","","",""
"","","","","","html-keyboard-response","39","1367577","0.0-17.0-2.7","1a080826-2398-4f43-ab82-e5d0240eedcb","null","<p style=""text-align: center;"">+</p>","null","fixation","","","","","","","","","","","","","","","","","","","","",""
"","","","","","html-slider-response","40","1368580","0.0-17.0-0.8","1a080826-2398-4f43-ab82-e5d0240eedcb","1000","
                  <p style=""text-align: center;"">₪18
                                                <br>50%</p>
                  <p id=""wtp"" style=""text-align:center; margin-top: 0px; margin-bottom: 0px; font-size: 40px"";>&ensp;</p>","-","viewing","0","10","2C,16C,22B,28A","","","","","","","","","","","","","","","","","",""
"","","","","","html-slider-response","41","1370537","0.0-17.0-1.8","1a080826-2398-4f43-ab82-e5d0240eedcb","1956","
                  <p style=""text-align: center;"">₪18
                                                <br>50%</p>
                  <p id=""wtp"" style=""text-align:center; margin-top: 0px; margin-bottom: 0px; font-size: 40px"";>מוכנים לשלם: <span id=""c_p_y""></span></p>","23","evaluation","38","10","2C,16C,22B,28A","50","18","23","","","","","","","","","","","","","","",""
"","","","","","html-keyboard-response","42","1371922","0.0-17.0-2.8","1a080826-2398-4f43-ab82-e5d0240eedcb","null","<p style=""text-align: center;"">+</p>","null","fixation","","","","","","","","","","","","","","","","","","","","",""
"","","","","","html-slider-response","43","1372925","0.0-17.0-0.9","1a080826-2398-4f43-ab82-e5d0240eedcb","1000","
                  <p style=""text-align: center;"">₪64
                                                <br>25%</p>
                  <p id=""wtp"" style=""text-align:center; margin-top: 0px; margin-bottom: 0px; font-size: 40px"";>&ensp;</p>","-","viewing","0","24","6A,21A","","","","","","","","","","","","","","","","","",""
"","","","","","html-slider-response","44","1374449","0.0-17.0-1.9","1a080826-2398-4f43-ab82-e5d0240eedcb","1523","
                  <p style=""text-align: center;"">₪64
                                                <br>25%</p>
                  <p id=""wtp"" style=""text-align:center; margin-top: 0px; margin-bottom: 0px; font-size: 40px"";>מוכנים לשלם: <span id=""c_p_y""></span></p>","16","evaluation","57","24","6A,21A","25","64","16","","","","","","","","","","","","","","",""
"","","","","","html-keyboard-response","45","1375530","0.0-17.0-2.9","1a080826-2398-4f43-ab82-e5d0240eedcb","null","<p style=""text-align: center;"">+</p>","null","fixation","","","","","","","","","","","","","","","","","","","","",""
"","","","","","html-slider-response","46","1376537","0.0-17.0-0.10","1a080826-2398-4f43-ab82-e5d0240eedcb","1000","
                  <p style=""text-align: center;"">₪4
                                                <br>25%</p>
                  <p id=""wtp"" style=""text-align:center; margin-top: 0px; margin-bottom: 0px; font-size: 40px"";>&ensp;</p>","-","viewing","0","1","6C,29B,30C","","","","","","","","","","","","","","","","","",""
"","","","","","html-slider-response","47","1379625","0.0-17.0-1.10","1a080826-2398-4f43-ab82-e5d0240eedcb","3086","
                  <p style=""text-align: center;"">₪4
                                                <br>25%</p>
                  <p id=""wtp"" style=""text-align:center; margin-top: 0px; margin-bottom: 0px; font-size: 40px"";>מוכנים לשלם: <span id=""c_p_y""></span></p>","3","evaluation","21","1","6C,29B,30C","25","4","3","","","","","","","","","","","","","","",""
"","","","","","html-keyboard-response","48","1380484","0.0-17.0-2.10","1a080826-2398-4f43-ab82-e5d0240eedcb","null","<p style=""text-align: center;"">+</p>","null","fixation","","","","","","","","","","","","","","","","","","","","",""
"","","","","","html-slider-response","49","1381491","0.0-17.0-0.11","1a080826-2398-4f43-ab82-e5d0240eedcb","1000","
                  <p style=""text-align: center;"">₪58
                                                <br>45%</p>
                  <p id=""wtp"" style=""text-align:center; margin-top: 0px; margin-bottom: 0px; font-size: 40px"";>&ensp;</p>","-","viewing","0","21","11C,18C,25A","","","","","","","","","","","","","","","","","",""
"","","","","","html-slider-response","50","1384065","0.0-17.0-1.11","1a080826-2398-4f43-ab82-e5d0240eedcb","2572","
                  <p style=""text-align: center;"">₪58
                                                <br>45%</p>
                  <p id=""wtp"" style=""text-align:center; margin-top: 0px; margin-bottom: 0px; font-size: 40px"";>מוכנים לשלם: <span id=""c_p_y""></span></p>","22","evaluation","0","21","11C,18C,25A","45","58","22","","","","","","","","","","","","","","",""
"","","","","","html-keyboard-response","51","1385195","0.0-17.0-2.11","1a080826-2398-4f43-ab82-e5d0240eedcb","null","<p style=""text-align: center;"">+</p>","null","fixation","","","","","","","","","","","","","","","","","","","","",""
"","","","","","html-slider-response","52","1386196","0.0-17.0-0.12","1a080826-2398-4f43-ab82-e5d0240eedcb","1000","
                  <p style=""text-align: center;"">₪71
                                                <br>55%</p>
                  <p id=""wtp"" style=""text-align:center; margin-top: 0px; margin-bottom: 0px; font-size: 40px"";>&ensp;</p>","-","viewing","0","27","5B,18A","","","","","","","","","","","","","","","","","",""
"","","","","","html-slider-response","53","1389777","0.0-17.0-1.12","1a080826-2398-4f43-ab82-e5d0240eedcb","3579","
                  <p style=""text-align: center;"">₪71
                                                <br>55%</p>
                  <p id=""wtp"" style=""text-align:center; margin-top: 0px; margin-bottom: 0px; font-size: 40px"";>מוכנים לשלם: <span id=""c_p_y""></span></p>","12","evaluation","35","27","5B,18A","55","71","12","","","","","","","","","","","","","","",""
"","","","","","html-keyboard-response","54","1390518","0.0-17.0-2.12","1a080826-2398-4f43-ab82-e5d0240eedcb","null","<p style=""text-align: center;"">+</p>","null","fixation","","","","","","","","","","","","","","","","","","","","",""
"","","","","","html-slider-response","55","1391521","0.0-17.0-0.13","1a080826-2398-4f43-ab82-e5d0240eedcb","1000","
                  <p style=""text-align: center;"">₪64
                                                <br>50%</p>
                  <p id=""wtp"" style=""text-align:center; margin-top: 0px; margin-bottom: 0px; font-size: 40px"";>&ensp;</p>","-","viewing","0","25","1B,3B,4A","","","","","","","","","","","","","","","","","",""
"","","","","","html-slider-response","56","1393441","0.0-17.0-1.13","1a080826-2398-4f43-ab82-e5d0240eedcb","1919","
                  <p style=""text-align: center;"">₪64
                                                <br>50%</p>
                  <p id=""wtp"" style=""text-align:center; margin-top: 0px; margin-bottom: 0px; font-size: 40px"";>מוכנים לשלם: <span id=""c_p_y""></span></p>","18","evaluation","64","25","1B,3B,4A","50","64","18","","","","","","","","","","","","","","",""
"","","","","","html-keyboard-response","57","1394765","0.0-17.0-2.13","1a080826-2398-4f43-ab82-e5d0240eedcb","null","<p style=""text-align: center;"">+</p>","null","fixation","","","","","","","","","","","","","","","","","","","","",""
"","","","","","html-slider-response","58","1395773","0.0-17.0-0.14","1a080826-2398-4f43-ab82-e5d0240eedcb","1000","
                  <p style=""text-align: center;"">₪36
                                                <br>75%</p>
                  <p id=""wtp"" style=""text-align:center; margin-top: 0px; margin-bottom: 0px; font-size: 40px"";>&ensp;</p>","-","viewing","0","14","4B,5A,13B,16B","","","","","","","","","","","","","","","","","",""
"","","","","","html-slider-response","59","1396832","0.0-17.0-1.14","1a080826-2398-4f43-ab82-e5d0240eedcb","1059","
                  <p style=""text-align: center;"">₪36
                                                <br>75%</p>
                  <p id=""wtp"" style=""text-align:center; margin-top: 0px; margin-bottom: 0px; font-size: 40px"";>מוכנים לשלם: <span id=""c_p_y""></span></p>","13","evaluation","22","14","4B,5A,13B,16B","75","36","13","","","","","","","","","","","","","","",""
"","","","","","html-keyboard-response","60","1397596","0.0-17.0-2.14","1a080826-2398-4f43-ab82-e5d0240eedcb","null","<p style=""text-align: center;"">+</p>","null","fixation","","","","","","","","","","","","","","","","","","","","",""
"","","","","","html-slider-response","61","1398613","0.0-17.0-0.15","1a080826-2398-4f43-ab82-e5d0240eedcb","1000","
                  <p style=""text-align: center;"">₪58
                                                <br>40%</p>
                  <p id=""wtp"" style=""text-align:center; margin-top: 0px; margin-bottom: 0px; font-size: 40px"";>&ensp;</p>","-","viewing","0","20","10C,13A,19C,21B","","","","","","","","","","","","","","","","","",""
"","","","","","html-slider-response","62","1401617","0.0-17.0-1.15","1a080826-2398-4f43-ab82-e5d0240eedcb","3004","
                  <p style=""text-align: center;"">₪58
                                                <br>40%</p>
                  <p id=""wtp"" style=""text-align:center; margin-top: 0px; margin-bottom: 0px; font-size: 40px"";>מוכנים לשלם: <span id=""c_p_y""></span></p>","23","evaluation","45","20","10C,13A,19C,21B","40","58","23","","","","","","","","","","","","","","",""
"","","","","","html-keyboard-response","63","1402442","0.0-17.0-2.15","1a080826-2398-4f43-ab82-e5d0240eedcb","null","<p style=""text-align: center;"">+</p>","null","fixation","","","","","","","","","","","","","","","","","","","","",""
"","","","","","html-slider-response","64","1403448","0.0-17.0-0.16","1a080826-2398-4f43-ab82-e5d0240eedcb","1000","
                  <p style=""text-align: center;"">₪61
                                                <br>45%</p>
                  <p id=""wtp"" style=""text-align:center; margin-top: 0px; margin-bottom: 0px; font-size: 40px"";>&ensp;</p>","-","viewing","0","22","10A,11A","","","","","","","","","","","","","","","","","",""
"","","","","","html-slider-response","65","1405449","0.0-17.0-1.16","1a080826-2398-4f43-ab82-e5d0240eedcb","2000","
                  <p style=""text-align: center;"">₪61
                                                <br>45%</p>
                  <p id=""wtp"" style=""text-align:center; margin-top: 0px; margin-bottom: 0px; font-size: 40px"";>מוכנים לשלם: <span id=""c_p_y""></span></p>","28","evaluation","8","22","10A,11A","45","61","28","","","","","","","","","","","","","","",""
"","","","","","html-keyboard-response","66","1406545","0.0-17.0-2.16","1a080826-2398-4f43-ab82-e5d0240eedcb","null","<p style=""text-align: center;"">+</p>","null","fixation","","","","","","","","","","","","","","","","","","","","",""
"","","","","","html-slider-response","67","1407551","0.0-17.0-0.17","1a080826-2398-4f43-ab82-e5d0240eedcb","1000","
                  <p style=""text-align: center;"">₪4
                                                <br>75%</p>
                  <p id=""wtp"" style=""text-align:center; margin-top: 0px; margin-bottom: 0px; font-size: 40px"";>&ensp;</p>","-","viewing","0","3","12B,20B,23B,27C,29C","","","","","","","","","","","","","","","","","",""
"","","","","","html-slider-response","68","1408737","0.0-17.0-1.17","1a080826-2398-4f43-ab82-e5d0240eedcb","1185","
                  <p style=""text-align: center;"">₪4
                                                <br>75%</p>
                  <p id=""wtp"" style=""text-align:center; margin-top: 0px; margin-bottom: 0px; font-size: 40px"";>מוכנים לשלם: <span id=""c_p_y""></span></p>","5","evaluation","9","3","12B,20B,23B,27C,29C","75","4","5","","","","","","","","","","","","","","",""
"","","","","","html-keyboard-response","69","1409713","0.0-17.0-2.17","1a080826-2398-4f43-ab82-e5d0240eedcb","null","<p style=""text-align: center;"">+</p>","null","fixation","","","","","","","","","","","","","","","","","","","","",""
"","","","","","html-slider-response","70","1410727","0.0-17.0-0.18","1a080826-2398-4f43-ab82-e5d0240eedcb","1000","
                  <p style=""text-align: center;"">₪61
                                                <br>55%</p>
                  <p id=""wtp"" style=""text-align:center; margin-top: 0px; margin-bottom: 0px; font-size: 40px"";>&ensp;</p>","-","viewing","0","23","7B,26B","","","","","","","","","","","","","","","","","",""
"","","","","","html-slider-response","71","1412713","0.0-17.0-1.18","1a080826-2398-4f43-ab82-e5d0240eedcb","1984","
                  <p style=""text-align: center;"">₪61
                                                <br>55%</p>
                  <p id=""wtp"" style=""text-align:center; margin-top: 0px; margin-bottom: 0px; font-size: 40px"";>מוכנים לשלם: <span id=""c_p_y""></span></p>","24","evaluation","66","23","7B,26B","55","61","24","","","","","","","","","","","","","","",""
"","","","","","html-keyboard-response","72","1413583","0.0-17.0-2.18","1a080826-2398-4f43-ab82-e5d0240eedcb","null","<p style=""text-align: center;"">+</p>","null","fixation","","","","","","","","","","","","","","","","","","","","",""
"","","","","","html-slider-response","73","1414592","0.0-17.0-0.19","1a080826-2398-4f43-ab82-e5d0240eedcb","1000","
                  <p style=""text-align: center;"">₪71
                                                <br>45%</p>
                  <p id=""wtp"" style=""text-align:center; margin-top: 0px; margin-bottom: 0px; font-size: 40px"";>&ensp;</p>","-","viewing","0","26","2B,16A","","","","","","","","","","","","","","","","","",""
"","","","","","html-slider-response","74","1418153","0.0-17.0-1.19","1a080826-2398-4f43-ab82-e5d0240eedcb","3560","
                  <p style=""text-align: center;"">₪71
                                                <br>45%</p>
                  <p id=""wtp"" style=""text-align:center; margin-top: 0px; margin-bottom: 0px; font-size: 40px"";>מוכנים לשלם: <span id=""c_p_y""></span></p>","28","evaluation","43","26","2B,16A","45","71","28","","","","","","","","","","","","","","",""
"","","","","","html-keyboard-response","75","1419038","0.0-17.0-2.19","1a080826-2398-4f43-ab82-e5d0240eedcb","null","<p style=""text-align: center;"">+</p>","null","fixation","","","","","","","","","","","","","","","","","","","","",""
"","","","","","html-slider-response","76","1420043","0.0-17.0-0.20","1a080826-2398-4f43-ab82-e5d0240eedcb","1000","
                  <p style=""text-align: center;"">₪36
                                                <br>70%</p>
                  <p id=""wtp"" style=""text-align:center; margin-top: 0px; margin-bottom: 0px; font-size: 40px"";>&ensp;</p>","-","viewing","0","13","3A,5C,10B","","","","","","","","","","","","","","","","","",""
"","","","","","html-slider-response","77","1422385","0.0-17.0-1.20","1a080826-2398-4f43-ab82-e5d0240eedcb","2341","
                  <p style=""text-align: center;"">₪36
                                                <br>70%</p>
                  <p id=""wtp"" style=""text-align:center; margin-top: 0px; margin-bottom: 0px; font-size: 40px"";>מוכנים לשלם: <span id=""c_p_y""></span></p>","17","evaluation","40","13","3A,5C,10B","70","36","17","","","","","","","","","","","","","","",""
"","","","","","html-keyboard-response","78","1423556","0.0-17.0-2.20","1a080826-2398-4f43-ab82-e5d0240eedcb","null","<p style=""text-align: center;"">+</p>","null","fixation","","","","","","","","","","","","","","","","","","","","",""
"","","","","","html-slider-response","79","1424568","0.0-17.0-0.21","1a080826-2398-4f43-ab82-e5d0240eedcb","1000","
                  <p style=""text-align: center;"">₪79
                                                <br>65%</p>
                  <p id=""wtp"" style=""text-align:center; margin-top: 0px; margin-bottom: 0px; font-size: 40px"";>&ensp;</p>","-","viewing","0","31","8A","","","","","","","","","","","","","","","","","",""
"","","","","","html-slider-response","80","1426657","0.0-17.0-1.21","1a080826-2398-4f43-ab82-e5d0240eedcb","2088","
                  <p style=""text-align: center;"">₪79
                                                <br>65%</p>
                  <p id=""wtp"" style=""text-align:center; margin-top: 0px; margin-bottom: 0px; font-size: 40px"";>מוכנים לשלם: <span id=""c_p_y""></span></p>","30","evaluation","78","31","8A","65","79","30","","","","","","","","","","","","","","",""
"","","","","","html-keyboard-response","81","1427588","0.0-17.0-2.21","1a080826-2398-4f43-ab82-e5d0240eedcb","null","<p style=""text-align: center;"">+</p>","null","fixation","","","","","","","","","","","","","","","","","","","","",""
"","","","","","html-slider-response","82","1428603","0.0-17.0-0.22","1a080826-2398-4f43-ab82-e5d0240eedcb","1000","
                  <p style=""text-align: center;"">₪76
                                                <br>65%</p>
                  <p id=""wtp"" style=""text-align:center; margin-top: 0px; margin-bottom: 0px; font-size: 40px"";>&ensp;</p>","-","viewing","0","29","8C,19A,24B","","","","","","","","","","","","","","","","","",""
"","","","","","html-slider-response","83","1430428","0.0-17.0-1.22","1a080826-2398-4f43-ab82-e5d0240eedcb","1824","
                  <p style=""text-align: center;"">₪76
                                                <br>65%</p>
                  <p id=""wtp"" style=""text-align:center; margin-top: 0px; margin-bottom: 0px; font-size: 40px"";>מוכנים לשלם: <span id=""c_p_y""></span></p>","29","evaluation","13","29","8C,19A,24B","65","76","29","","","","","","","","","","","","","","",""
"","","","","","html-keyboard-response","84","1431171","0.0-17.0-2.22","1a080826-2398-4f43-ab82-e5d0240eedcb","null","<p style=""text-align: center;"">+</p>","null","fixation","","","","","","","","","","","","","","","","","","","","",""
"","","","","","html-slider-response","85","1432173","0.0-17.0-0.23","1a080826-2398-4f43-ab82-e5d0240eedcb","1000","
                  <p style=""text-align: center;"">₪4
                                                <br>50%</p>
                  <p id=""wtp"" style=""text-align:center; margin-top: 0px; margin-bottom: 0px; font-size: 40px"";>&ensp;</p>","-","viewing","0","2","4C,17B","","","","","","","","","","","","","","","","","",""
"","","","","","html-slider-response","86","1433156","0.0-17.0-1.23","1a080826-2398-4f43-ab82-e5d0240eedcb","982","
                  <p style=""text-align: center;"">₪4
                                                <br>50%</p>
                  <p id=""wtp"" style=""text-align:center; margin-top: 0px; margin-bottom: 0px; font-size: 40px"";>מוכנים לשלם: <span id=""c_p_y""></span></p>","5","evaluation","39","2","4C,17B","50","4","5","","","","","","","","","","","","","","",""
"","","","","","html-keyboard-response","87","1433735","0.0-17.0-2.23","1a080826-2398-4f43-ab82-e5d0240eedcb","null","<p style=""text-align: center;"">+</p>","null","fixation","","","","","","","","","","","","","","","","","","","","",""
"","","","","","html-slider-response","88","1434739","0.0-17.0-0.24","1a080826-2398-4f43-ab82-e5d0240eedcb","1000","
                  <p style=""text-align: center;"">₪11
                                                <br>25%</p>
                  <p id=""wtp"" style=""text-align:center; margin-top: 0px; margin-bottom: 0px; font-size: 40px"";>&ensp;</p>","-","viewing","0","5","12A,27B,28B,30B","","","","","","","","","","","","","","","","","",""
"","","","","","html-slider-response","89","1437204","0.0-17.0-1.24","1a080826-2398-4f43-ab82-e5d0240eedcb","2463","
                  <p style=""text-align: center;"">₪11
                                                <br>25%</p>
                  <p id=""wtp"" style=""text-align:center; margin-top: 0px; margin-bottom: 0px; font-size: 40px"";>מוכנים לשלם: <span id=""c_p_y""></span></p>","6","evaluation","57","5","12A,27B,28B,30B","25","11","7","","","","","","","","","","","","","","",""
"","","","","","html-keyboard-response","90","1438196","0.0-17.0-2.24","1a080826-2398-4f43-ab82-e5d0240eedcb","null","<p style=""text-align: center;"">+</p>","null","fixation","","","","","","","","","","","","","","","","","","","","",""
"","","","","","html-slider-response","91","1439204","0.0-17.0-0.25","1a080826-2398-4f43-ab82-e5d0240eedcb","1000","
                  <p style=""text-align: center;"">₪11
                                                <br>20%</p>
                  <p id=""wtp"" style=""text-align:center; margin-top: 0px; margin-bottom: 0px; font-size: 40px"";>&ensp;</p>","-","viewing","0","4","12C,17C,23C,28C","","","","","","","","","","","","","","","","","",""
"","","","","","html-slider-response","92","1440436","0.0-17.0-1.25","1a080826-2398-4f43-ab82-e5d0240eedcb","1231","
                  <p style=""text-align: center;"">₪11
                                                <br>20%</p>
                  <p id=""wtp"" style=""text-align:center; margin-top: 0px; margin-bottom: 0px; font-size: 40px"";>מוכנים לשלם: <span id=""c_p_y""></span></p>","7","evaluation","77","4","12C,17C,23C,28C","20","11","7","","","","","","","","","","","","","","",""
"","","","","","html-keyboard-response","93","1441625","0.0-17.0-2.25","1a080826-2398-4f43-ab82-e5d0240eedcb","null","<p style=""text-align: center;"">+</p>","null","fixation","","","","","","","","","","","","","","","","","","","","",""
"","","","","","html-slider-response","94","1442631","0.0-17.0-0.26","1a080826-2398-4f43-ab82-e5d0240eedcb","1000","
                  <p style=""text-align: center;"">₪11
                                                <br>75%</p>
                  <p id=""wtp"" style=""text-align:center; margin-top: 0px; margin-bottom: 0px; font-size: 40px"";>&ensp;</p>","-","viewing","0","7","6B,18B,22C,24C,29A","","","","","","","","","","","","","","","","","",""
"","","","","","html-slider-response","95","1444748","0.0-17.0-1.26","1a080826-2398-4f43-ab82-e5d0240eedcb","2116","
                  <p style=""text-align: center;"">₪11
                                                <br>75%</p>
                  <p id=""wtp"" style=""text-align:center; margin-top: 0px; margin-bottom: 0px; font-size: 40px"";>מוכנים לשלם: <span id=""c_p_y""></span></p>","16","evaluation","42","7","6B,18B,22C,24C,29A","75","11","16","","","","","","","","","","","","","","",""
"","","","","","html-keyboard-response","96","1445471","0.0-17.0-2.26","1a080826-2398-4f43-ab82-e5d0240eedcb","null","<p style=""text-align: center;"">+</p>","null","fixation","","","","","","","","","","","","","","","","","","","","",""
"","","","","","html-slider-response","97","1446485","0.0-17.0-0.27","1a080826-2398-4f43-ab82-e5d0240eedcb","1000","
                  <p style=""text-align: center;"">₪58
                                                <br>30%</p>
                  <p id=""wtp"" style=""text-align:center; margin-top: 0px; margin-bottom: 0px; font-size: 40px"";>&ensp;</p>","-","viewing","0","19","13C,30A","","","","","","","","","","","","","","","","","",""
"","","","","","html-slider-response","98","1448068","0.0-17.0-1.27","1a080826-2398-4f43-ab82-e5d0240eedcb","1583","
                  <p style=""text-align: center;"">₪58
                                                <br>30%</p>
                  <p id=""wtp"" style=""text-align:center; margin-top: 0px; margin-bottom: 0px; font-size: 40px"";>מוכנים לשלם: <span id=""c_p_y""></span></p>","14","evaluation","19","19","13C,30A","30","58","14","","","","","","","","","","","","","","",""
"","","","","","html-keyboard-response","99","1449306","0.0-17.0-2.27","1a080826-2398-4f43-ab82-e5d0240eedcb","null","<p style=""text-align: center;"">+</p>","null","fixation","","","","","","","","","","","","","","","","","","","","",""
"","","","","","html-slider-response","100","1450322","0.0-17.0-0.28","1a080826-2398-4f43-ab82-e5d0240eedcb","1000","
                  <p style=""text-align: center;"">₪43
                                                <br>75%</p>
                  <p id=""wtp"" style=""text-align:center; margin-top: 0px; margin-bottom: 0px; font-size: 40px"";>&ensp;</p>","-","viewing","0","18","11B,19B,24A,26A","","","","","","","","","","","","","","","","","",""
"","","","","","html-slider-response","101","1452148","0.0-17.0-1.28","1a080826-2398-4f43-ab82-e5d0240eedcb","1825","
                  <p style=""text-align: center;"">₪43
                                                <br>75%</p>
                  <p id=""wtp"" style=""text-align:center; margin-top: 0px; margin-bottom: 0px; font-size: 40px"";>מוכנים לשלם: <span id=""c_p_y""></span></p>","18","evaluation","22","18","11B,19B,24A,26A","75","43","18","","","","","","","","","","","","","","",""
"","","","","","html-keyboard-response","102","1452721","0.0-17.0-2.28","1a080826-2398-4f43-ab82-e5d0240eedcb","null","<p style=""text-align: center;"">+</p>","null","fixation","","","","","","","","","","","","","","","","","","","","",""
"","","","","","html-slider-response","103","1453727","0.0-17.0-0.29","1a080826-2398-4f43-ab82-e5d0240eedcb","1000","
                  <p style=""text-align: center;"">₪79
                                                <br>40%</p>
                  <p id=""wtp"" style=""text-align:center; margin-top: 0px; margin-bottom: 0px; font-size: 40px"";>&ensp;</p>","-","viewing","0","30","9B","","","","","","","","","","","","","","","","","",""
"","","","","","html-slider-response","104","1454940","0.0-17.0-1.29","1a080826-2398-4f43-ab82-e5d0240eedcb","1212","
                  <p style=""text-align: center;"">₪79
                                                <br>40%</p>
                  <p id=""wtp"" style=""text-align:center; margin-top: 0px; margin-bottom: 0px; font-size: 40px"";>מוכנים לשלם: <span id=""c_p_y""></span></p>","19","evaluation","15","30","9B","40","79","20","","","","","","","","","","","","","","",""
"","","","","","html-keyboard-response","105","1456353","0.0-17.0-2.29","1a080826-2398-4f43-ab82-e5d0240eedcb","null","<p style=""text-align: center;"">+</p>","null","fixation","","","","","","","","","","","","","","","","","","","","",""
"","","","","","html-slider-response","106","1457362","0.0-17.0-0.30","1a080826-2398-4f43-ab82-e5d0240eedcb","1000","
                  <p style=""text-align: center;"">₪71
                                                <br>75%</p>
                  <p id=""wtp"" style=""text-align:center; margin-top: 0px; margin-bottom: 0px; font-size: 40px"";>&ensp;</p>","-","viewing","0","28","8B","","","","","","","","","","","","","","","","","",""
"","","","","","html-slider-response","107","1458564","0.0-17.0-1.30","1a080826-2398-4f43-ab82-e5d0240eedcb","1201","
                  <p style=""text-align: center;"">₪71
                                                <br>75%</p>
                  <p id=""wtp"" style=""text-align:center; margin-top: 0px; margin-bottom: 0px; font-size: 40px"";>מוכנים לשלם: <span id=""c_p_y""></span></p>","27","evaluation","12","28","8B","75","71","27","","","","","","","","","","","","","","",""
"","","","","","html-keyboard-response","108","1459269","0.0-17.0-2.30","1a080826-2398-4f43-ab82-e5d0240eedcb","null","<p style=""text-align: center;"">+</p>","null","fixation","","","","","","","","","","","","","","","","","","","","",""
"","","","","","html-keyboard-response","109","1460282","0.0-18.0","1a080826-2398-4f43-ab82-e5d0240eedcb","null","<p style=""text-align: center;"">+</p>","null","fixation","","","","","","","","","","","","","","","","","","","","",""
"","","","","","html-keyboard-response","110","1461764","0.0-19.0","1a080826-2398-4f43-ab82-e5d0240eedcb","null","<p>הפסקה.
          <br>לחצו כדי להמשיך.</p>","1","scan_wait","","","","","","","","","","","","","","","","","","","","",""
"","","","","","html-keyboard-response","111","1462770","0.0-20.0","1a080826-2398-4f43-ab82-e5d0240eedcb","null","<p style=""text-align: center;"">+</p>","null","fixation","","","","","","","","","","","","","","","","","","","","",""
"","","","","","html-slider-response","112","1463786","0.0-21.0-0.0","1a080826-2398-4f43-ab82-e5d0240eedcb","1000","
                  <p style=""text-align: center;"">₪64
                                                <br>50%</p>
                  <p id=""wtp"" style=""text-align:center; margin-top: 0px; margin-bottom: 0px; font-size: 40px"";>&ensp;</p>","-","viewing","0","25","1B,3B,4A","","","","","","","","","","","","","","","","","",""
"","","","","","html-slider-response","113","1464596","0.0-21.0-1.0","1a080826-2398-4f43-ab82-e5d0240eedcb","809","
                  <p style=""text-align: center;"">₪64
                                                <br>50%</p>
                  <p id=""wtp"" style=""text-align:center; margin-top: 0px; margin-bottom: 0px; font-size: 40px"";>מוכנים לשלם: <span id=""c_p_y""></span></p>","20","evaluation","74","25","1B,3B,4A","50","64","20","","","","","","","","","","","","","","",""
"","","","","","html-keyboard-response","114","1465949","0.0-21.0-2.0","1a080826-2398-4f43-ab82-e5d0240eedcb","null","<p style=""text-align: center;"">+</p>","null","fixation","","","","","","","","","","","","","","","","","","","","",""
"","","","","","html-slider-response","115","1466956","0.0-21.0-0.1","1a080826-2398-4f43-ab82-e5d0240eedcb","1000","
                  <p style=""text-align: center;"">₪4
                                                <br>75%</p>
                  <p id=""wtp"" style=""text-align:center; margin-top: 0px; margin-bottom: 0px; font-size: 40px"";>&ensp;</p>","-","viewing","0","3","12B,20B,23B,27C,29C","","","","","","","","","","","","","","","","","",""
"","","","","","html-slider-response","116","1468236","0.0-21.0-1.1","1a080826-2398-4f43-ab82-e5d0240eedcb","1279","
                  <p style=""text-align: center;"">₪4
                                                <br>75%</p>
                  <p id=""wtp"" style=""text-align:center; margin-top: 0px; margin-bottom: 0px; font-size: 40px"";>מוכנים לשלם: <span id=""c_p_y""></span></p>","4","evaluation","46","3","12B,20B,23B,27C,29C","75","4","4","","","","","","","","","","","","","","",""
"","","","","","html-keyboard-response","117","1469139","0.0-21.0-2.1","1a080826-2398-4f43-ab82-e5d0240eedcb","null","<p style=""text-align: center;"">+</p>","null","fixation","","","","","","","","","","","","","","","","","","","","",""
"","","","","","html-slider-response","118","1470145","0.0-21.0-0.2","1a080826-2398-4f43-ab82-e5d0240eedcb","1000","
                  <p style=""text-align: center;"">₪76
                                                <br>65%</p>
                  <p id=""wtp"" style=""text-align:center; margin-top: 0px; margin-bottom: 0px; font-size: 40px"";>&ensp;</p>","-","viewing","0","29","8C,19A,24B","","","","","","","","","","","","","","","","","",""
"","","","","","html-slider-response","119","1472788","0.0-21.0-1.2","1a080826-2398-4f43-ab82-e5d0240eedcb","2642","
                  <p style=""text-align: center;"">₪76
                                                <br>65%</p>
                  <p id=""wtp"" style=""text-align:center; margin-top: 0px; margin-bottom: 0px; font-size: 40px"";>מוכנים לשלם: <span id=""c_p_y""></span></p>","26","evaluation","6","29","8C,19A,24B","65","76","26","","","","","","","","","","","","","","",""
"","","","","","html-keyboard-response","120","1473796","0.0-21.0-2.2","1a080826-2398-4f43-ab82-e5d0240eedcb","null","<p style=""text-align: center;"">+</p>","null","fixation","","","","","","","","","","","","","","","","","","","","",""
"","","","","","html-slider-response","121","1474798","0.0-21.0-0.3","1a080826-2398-4f43-ab82-e5d0240eedcb","1000","
                  <p style=""text-align: center;"">₪36
                                                <br>70%</p>
                  <p id=""wtp"" style=""text-align:center; margin-top: 0px; margin-bottom: 0px; font-size: 40px"";>&ensp;</p>","-","viewing","0","13","3A,5C,10B","","","","","","","","","","","","","","","","","",""
"","","","","","html-slider-response","122","1476060","0.0-21.0-1.3","1a080826-2398-4f43-ab82-e5d0240eedcb","1262","
                  <p style=""text-align: center;"">₪36
                                                <br>70%</p>
                  <p id=""wtp"" style=""text-align:center; margin-top: 0px; margin-bottom: 0px; font-size: 40px"";>מוכנים לשלם: <span id=""c_p_y""></span></p>","18","evaluation","61","13","3A,5C,10B","70","36","18","","","","","","","","","","","","","","",""
"","","","","","html-keyboard-response","123","1476566","0.0-21.0-2.3","1a080826-2398-4f43-ab82-e5d0240eedcb","null","<p style=""text-align: center;"">+</p>","null","fixation","","","","","","","","","","","","","","","","","","","","",""
"","","","","","html-slider-response","124","1477583","0.0-21.0-0.4","1a080826-2398-4f43-ab82-e5d0240eedcb","1000","
                  <p style=""text-align: center;"">₪58
                                                <br>40%</p>
                  <p id=""wtp"" style=""text-align:center; margin-top: 0px; margin-bottom: 0px; font-size: 40px"";>&ensp;</p>","-","viewing","0","20","10C,13A,19C,21B","","","","","","","","","","","","","","","","","",""
"","","","","","html-slider-response","125","1478980","0.0-21.0-1.4","1a080826-2398-4f43-ab82-e5d0240eedcb","1396","
                  <p style=""text-align: center;"">₪58
                                                <br>40%</p>
                  <p id=""wtp"" style=""text-align:center; margin-top: 0px; margin-bottom: 0px; font-size: 40px"";>מוכנים לשלם: <span id=""c_p_y""></span></p>","20","evaluation","13","20","10C,13A,19C,21B","40","58","20","","","","","","","","","","","","","","",""
"","","","","","html-keyboard-response","126","1479547","0.0-21.0-2.4","1a080826-2398-4f43-ab82-e5d0240eedcb","null","<p style=""text-align: center;"">+</p>","null","fixation","","","","","","","","","","","","","","","","","","","","",""
"","","","","","html-slider-response","127","1480561","0.0-21.0-0.5","1a080826-2398-4f43-ab82-e5d0240eedcb","1000","
                  <p style=""text-align: center;"">₪36
                                                <br>60%</p>
                  <p id=""wtp"" style=""text-align:center; margin-top: 0px; margin-bottom: 0px; font-size: 40px"";>&ensp;</p>","-","viewing","0","12","1C,7C,15C","","","","","","","","","","","","","","","","","",""
"","","","","","html-slider-response","128","1482948","0.0-21.0-1.5","1a080826-2398-4f43-ab82-e5d0240eedcb","2386","
                  <p style=""text-align: center;"">₪36
                                                <br>60%</p>
                  <p id=""wtp"" style=""text-align:center; margin-top: 0px; margin-bottom: 0px; font-size: 40px"";>מוכנים לשלם: <span id=""c_p_y""></span></p>","16","evaluation","76","12","1C,7C,15C","60","36","16","","","","","","","","","","","","","","",""
"","","","","","html-keyboard-response","129","1484050","0.0-21.0-2.5","1a080826-2398-4f43-ab82-e5d0240eedcb","null","<p style=""text-align: center;"">+</p>","null","fixation","","","","","","","","","","","","","","","","","","","","",""
"","","","","","html-slider-response","130","1485058","0.0-21.0-0.6","1a080826-2398-4f43-ab82-e5d0240eedcb","1000","
                  <p style=""text-align: center;"">₪11
                                                <br>25%</p>
                  <p id=""wtp"" style=""text-align:center; margin-top: 0px; margin-bottom: 0px; font-size: 40px"";>&ensp;</p>","-","viewing","0","5","12A,27B,28B,30B","","","","","","","","","","","","","","","","","",""
"","","","","","html-slider-response","131","1487316","0.0-21.0-1.6","1a080826-2398-4f43-ab82-e5d0240eedcb","2257","
                  <p style=""text-align: center;"">₪11
                                                <br>25%</p>
                  <p id=""wtp"" style=""text-align:center; margin-top: 0px; margin-bottom: 0px; font-size: 40px"";>מוכנים לשלם: <span id=""c_p_y""></span></p>","18","evaluation","11","5","12A,27B,28B,30B","25","11","18","","","","","","","","","","","","","","",""
"","","","","","html-keyboard-response","132","1488150","0.0-21.0-2.6","1a080826-2398-4f43-ab82-e5d0240eedcb","null","<p style=""text-align: center;"">+</p>","null","fixation","","","","","","","","","","","","","","","","","","","","",""
"","","","","","html-slider-response","133","1489156","0.0-21.0-0.7","1a080826-2398-4f43-ab82-e5d0240eedcb","1000","
                  <p style=""text-align: center;"">₪43
                                                <br>75%</p>
                  <p id=""wtp"" style=""text-align:center; margin-top: 0px; margin-bottom: 0px; font-size: 40px"";>&ensp;</p>","-","viewing","0","18","11B,19B,24A,26A","","","","","","","","","","","","","","","","","",""
"","","","","","html-slider-response","134","1490752","0.0-21.0-1.7","1a080826-2398-4f43-ab82-e5d0240eedcb","1594","
                  <p style=""text-align: center;"">₪43
                                                <br>75%</p>
                  <p id=""wtp"" style=""text-align:center; margin-top: 0px; margin-bottom: 0px; font-size: 40px"";>מוכנים לשלם: <span id=""c_p_y""></span></p>","22","evaluation","74","18","11B,19B,24A,26A","75","43","22","","","","","","","","","","","","","","",""
"","","","","","html-keyboard-response","135","1491978","0.0-21.0-2.7","1a080826-2398-4f43-ab82-e5d0240eedcb","null","<p style=""text-align: center;"">+</p>","null","fixation","","","","","","","","","","","","","","","","","","","","",""
"","","","","","html-slider-response","136","1492990","0.0-21.0-0.8","1a080826-2398-4f43-ab82-e5d0240eedcb","1000","
                  <p style=""text-align: center;"">₪64
                                                <br>25%</p>
                  <p id=""wtp"" style=""text-align:center; margin-top: 0px; margin-bottom: 0px; font-size: 40px"";>&ensp;</p>","-","viewing","0","24","6A,21A","","","","","","","","","","","","","","","","","",""
"","","","","","html-slider-response","137","1495535","0.0-21.0-1.8","1a080826-2398-4f43-ab82-e5d0240eedcb","2545","
                  <p style=""text-align: center;"">₪64
                                                <br>25%</p>
                  <p id=""wtp"" style=""text-align:center; margin-top: 0px; margin-bottom: 0px; font-size: 40px"";>מוכנים לשלם: <span id=""c_p_y""></span></p>","18","evaluation","61","24","6A,21A","25","64","18","","","","","","","","","","","","","","",""
"","","","","","html-keyboard-response","138","1496531","0.0-21.0-2.8","1a080826-2398-4f43-ab82-e5d0240eedcb","null","<p style=""text-align: center;"">+</p>","null","fixation","","","","","","","","","","","","","","","","","","","","",""
"","","","","","html-slider-response","139","1497548","0.0-21.0-0.9","1a080826-2398-4f43-ab82-e5d0240eedcb","1000","
                  <p style=""text-align: center;"">₪61
                                                <br>45%</p>
                  <p id=""wtp"" style=""text-align:center; margin-top: 0px; margin-bottom: 0px; font-size: 40px"";>&ensp;</p>","-","viewing","0","22","10A,11A","","","","","","","","","","","","","","","","","",""
"","","","","","html-slider-response","140","1499735","0.0-21.0-1.9","1a080826-2398-4f43-ab82-e5d0240eedcb","2187","
                  <p style=""text-align: center;"">₪61
                                                <br>45%</p>
                  <p id=""wtp"" style=""text-align:center; margin-top: 0px; margin-bottom: 0px; font-size: 40px"";>מוכנים לשלם: <span id=""c_p_y""></span></p>","11","evaluation","64","22","10A,11A","45","61","11","","","","","","","","","","","","","","",""
"","","","","","html-keyboard-response","141","1501208","0.0-21.0-2.9","1a080826-2398-4f43-ab82-e5d0240eedcb","null","<p style=""text-align: center;"">+</p>","null","fixation","","","","","","","","","","","","","","","","","","","","",""
"","","","","","html-slider-response","142","1502216","0.0-21.0-0.10","1a080826-2398-4f43-ab82-e5d0240eedcb","1000","
                  <p style=""text-align: center;"">₪43
                                                <br>60%</p>
                  <p id=""wtp"" style=""text-align:center; margin-top: 0px; margin-bottom: 0px; font-size: 40px"";>&ensp;</p>","-","viewing","0","17","2A,7A,9A,15B","","","","","","","","","","","","","","","","","",""
"","","","","","html-slider-response","143","1504079","0.0-21.0-1.10","1a080826-2398-4f43-ab82-e5d0240eedcb","1862","
                  <p style=""text-align: center;"">₪43
                                                <br>60%</p>
                  <p id=""wtp"" style=""text-align:center; margin-top: 0px; margin-bottom: 0px; font-size: 40px"";>מוכנים לשלם: <span id=""c_p_y""></span></p>","17","evaluation","56","17","2A,7A,9A,15B","60","43","17","","","","","","","","","","","","","","",""
"","","","","","html-keyboard-response","144","1504901","0.0-21.0-2.10","1a080826-2398-4f43-ab82-e5d0240eedcb","null","<p style=""text-align: center;"">+</p>","null","fixation","","","","","","","","","","","","","","","","","","","","",""
"","","","","","html-slider-response","145","1505909","0.0-21.0-0.11","1a080826-2398-4f43-ab82-e5d0240eedcb","1000","
                  <p style=""text-align: center;"">₪58
                                                <br>30%</p>
                  <p id=""wtp"" style=""text-align:center; margin-top: 0px; margin-bottom: 0px; font-size: 40px"";>&ensp;</p>","-","viewing","0","19","13C,30A","","","","","","","","","","","","","","","","","",""
"","","","","","html-slider-response","146","1507447","0.0-21.0-1.11","1a080826-2398-4f43-ab82-e5d0240eedcb","1538","
                  <p style=""text-align: center;"">₪58
                                                <br>30%</p>
                  <p id=""wtp"" style=""text-align:center; margin-top: 0px; margin-bottom: 0px; font-size: 40px"";>מוכנים לשלם: <span id=""c_p_y""></span></p>","14","evaluation","3","19","13C,30A","30","58","14","","","","","","","","","","","","","","",""
"","","","","","html-keyboard-response","147","1507959","0.0-21.0-2.11","1a080826-2398-4f43-ab82-e5d0240eedcb","null","<p style=""text-align: center;"">+</p>","null","fixation","","","","","","","","","","","","","","","","","","","","",""
"","","","","","html-slider-response","148","1508975","0.0-21.0-0.12","1a080826-2398-4f43-ab82-e5d0240eedcb","1000","
                  <p style=""text-align: center;"">₪11
                                                <br>45%</p>
                  <p id=""wtp"" style=""text-align:center; margin-top: 0px; margin-bottom: 0px; font-size: 40px"";>&ensp;</p>","-","viewing","0","6","14B,21C,25C","","","","","","","","","","","","","","","","","",""
"","","","","","html-slider-response","149","1510167","0.0-21.0-1.12","1a080826-2398-4f43-ab82-e5d0240eedcb","1191","
                  <p style=""text-align: center;"">₪11
                                                <br>45%</p>
                  <p id=""wtp"" style=""text-align:center; margin-top: 0px; margin-bottom: 0px; font-size: 40px"";>מוכנים לשלם: <span id=""c_p_y""></span></p>","8","evaluation","59","6","14B,21C,25C","45","11","8","","","","","","","","","","","","","","",""
"","","","","","html-keyboard-response","150","1511545","0.0-21.0-2.12","1a080826-2398-4f43-ab82-e5d0240eedcb","null","<p style=""text-align: center;"">+</p>","null","fixation","","","","","","","","","","","","","","","","","","","","",""
"","","","","","html-slider-response","151","1512547","0.0-21.0-0.13","1a080826-2398-4f43-ab82-e5d0240eedcb","1000","
                  <p style=""text-align: center;"">₪36
                                                <br>30%</p>
                  <p id=""wtp"" style=""text-align:center; margin-top: 0px; margin-bottom: 0px; font-size: 40px"";>&ensp;</p>","-","viewing","0","11","3C,20A,22A","","","","","","","","","","","","","","","","","",""
"","","","","","html-slider-response","152","1514135","0.0-21.0-1.13","1a080826-2398-4f43-ab82-e5d0240eedcb","1587","
                  <p style=""text-align: center;"">₪36
                                                <br>30%</p>
                  <p id=""wtp"" style=""text-align:center; margin-top: 0px; margin-bottom: 0px; font-size: 40px"";>מוכנים לשלם: <span id=""c_p_y""></span></p>","12","evaluation","75","11","3C,20A,22A","30","36","13","","","","","","","","","","","","","","",""
"","","","","","html-keyboard-response","153","1515086","0.0-21.0-2.13","1a080826-2398-4f43-ab82-e5d0240eedcb","null","<p style=""text-align: center;"">+</p>","null","fixation","","","","","","","","","","","","","","","","","","","","",""
"","","","","","html-slider-response","154","1516088","0.0-21.0-0.14","1a080826-2398-4f43-ab82-e5d0240eedcb","1000","
                  <p style=""text-align: center;"">₪16
                                                <br>20%</p>
                  <p id=""wtp"" style=""text-align:center; margin-top: 0px; margin-bottom: 0px; font-size: 40px"";>&ensp;</p>","-","viewing","0","8","14C,17A,20C,27A","","","","","","","","","","","","","","","","","",""
"","","","","","html-slider-response","155","1517727","0.0-21.0-1.14","1a080826-2398-4f43-ab82-e5d0240eedcb","1638","
                  <p style=""text-align: center;"">₪16
                                                <br>20%</p>
                  <p id=""wtp"" style=""text-align:center; margin-top: 0px; margin-bottom: 0px; font-size: 40px"";>מוכנים לשלם: <span id=""c_p_y""></span></p>","11","evaluation","9","8","14C,17A,20C,27A","20","16","12","","","","","","","","","","","","","","",""
"","","","","","html-keyboard-response","156","1518455","0.0-21.0-2.14","1a080826-2398-4f43-ab82-e5d0240eedcb","null","<p style=""text-align: center;"">+</p>","null","fixation","","","","","","","","","","","","","","","","","","","","",""
"","","","","","html-slider-response","157","1519470","0.0-21.0-0.15","1a080826-2398-4f43-ab82-e5d0240eedcb","1000","
                  <p style=""text-align: center;"">₪71
                                                <br>45%</p>
                  <p id=""wtp"" style=""text-align:center; margin-top: 0px; margin-bottom: 0px; font-size: 40px"";>&ensp;</p>","-","viewing","0","26","2B,16A","","","","","","","","","","","","","","","","","",""
"","","","","","html-slider-response","158","1521807","0.0-21.0-1.15","1a080826-2398-4f43-ab82-e5d0240eedcb","2337","
                  <p style=""text-align: center;"">₪71
                                                <br>45%</p>
                  <p id=""wtp"" style=""text-align:center; margin-top: 0px; margin-bottom: 0px; font-size: 40px"";>מוכנים לשלם: <span id=""c_p_y""></span></p>","23","evaluation","44","26","2B,16A","45","71","23","","","","","","","","","","","","","","",""
"","","","","","html-keyboard-response","159","1523276","0.0-21.0-2.15","1a080826-2398-4f43-ab82-e5d0240eedcb","null","<p style=""text-align: center;"">+</p>","null","fixation","","","","","","","","","","","","","","","","","","","","",""
"","","","","","html-slider-response","160","1524278","0.0-21.0-0.16","1a080826-2398-4f43-ab82-e5d0240eedcb","1000","
                  <p style=""text-align: center;"">₪11
                                                <br>75%</p>
                  <p id=""wtp"" style=""text-align:center; margin-top: 0px; margin-bottom: 0px; font-size: 40px"";>&ensp;</p>","-","viewing","0","7","6B,18B,22C,24C,29A","","","","","","","","","","","","","","","","","",""
"","","","","","html-slider-response","161","1525304","0.0-21.0-1.16","1a080826-2398-4f43-ab82-e5d0240eedcb","1024","
                  <p style=""text-align: center;"">₪11
                                                <br>75%</p>
                  <p id=""wtp"" style=""text-align:center; margin-top: 0px; margin-bottom: 0px; font-size: 40px"";>מוכנים לשלם: <span id=""c_p_y""></span></p>","6","evaluation","0","7","6B,18B,22C,24C,29A","75","11","6","","","","","","","","","","","","","","",""
"","","","","","html-keyboard-response","162","1526730","0.0-21.0-2.16","1a080826-2398-4f43-ab82-e5d0240eedcb","null","<p style=""text-align: center;"">+</p>","null","fixation","","","","","","","","","","","","","","","","","","","","",""
"","","","","","html-slider-response","163","1527745","0.0-21.0-0.17","1a080826-2398-4f43-ab82-e5d0240eedcb","1000","
                  <p style=""text-align: center;"">₪61
                                                <br>55%</p>
                  <p id=""wtp"" style=""text-align:center; margin-top: 0px; margin-bottom: 0px; font-size: 40px"";>&ensp;</p>","-","viewing","0","23","7B,26B","","","","","","","","","","","","","","","","","",""
"","","","","","html-slider-response","164","1529663","0.0-21.0-1.17","1a080826-2398-4f43-ab82-e5d0240eedcb","1918","
                  <p style=""text-align: center;"">₪61
                                                <br>55%</p>
                  <p id=""wtp"" style=""text-align:center; margin-top: 0px; margin-bottom: 0px; font-size: 40px"";>מוכנים לשלם: <span id=""c_p_y""></span></p>","24","evaluation","28","23","7B,26B","55","61","24","","","","","","","","","","","","","","",""
"","","","","","html-keyboard-response","165","1530619","0.0-21.0-2.17","1a080826-2398-4f43-ab82-e5d0240eedcb","null","<p style=""text-align: center;"">+</p>","null","fixation","","","","","","","","","","","","","","","","","","","","",""
"","","","","","html-slider-response","166","1531620","0.0-21.0-0.18","1a080826-2398-4f43-ab82-e5d0240eedcb","1000","
                  <p style=""text-align: center;"">₪71
                                                <br>55%</p>
                  <p id=""wtp"" style=""text-align:center; margin-top: 0px; margin-bottom: 0px; font-size: 40px"";>&ensp;</p>","-","viewing","0","27","5B,18A","","","","","","","","","","","","","","","","","",""
"","","","","","html-slider-response","167","1533727","0.0-21.0-1.18","1a080826-2398-4f43-ab82-e5d0240eedcb","2106","
                  <p style=""text-align: center;"">₪71
                                                <br>55%</p>
                  <p id=""wtp"" style=""text-align:center; margin-top: 0px; margin-bottom: 0px; font-size: 40px"";>מוכנים לשלם: <span id=""c_p_y""></span></p>","20","evaluation","65","27","5B,18A","55","71","20","","","","","","","","","","","","","","",""
"","","","","","html-keyboard-response","168","1534532","0.0-21.0-2.18","1a080826-2398-4f43-ab82-e5d0240eedcb","null","<p style=""text-align: center;"">+</p>","null","fixation","","","","","","","","","","","","","","","","","","","","",""
"","","","","","html-slider-response","169","1535538","0.0-21.0-0.19","1a080826-2398-4f43-ab82-e5d0240eedcb","1000","
                  <p style=""text-align: center;"">₪4
                                                <br>50%</p>
                  <p id=""wtp"" style=""text-align:center; margin-top: 0px; margin-bottom: 0px; font-size: 40px"";>&ensp;</p>","-","viewing","0","2","4C,17B","","","","","","","","","","","","","","","","","",""
"","","","","","html-slider-response","170","1536559","0.0-21.0-1.19","1a080826-2398-4f43-ab82-e5d0240eedcb","1021","
                  <p style=""text-align: center;"">₪4
                                                <br>50%</p>
                  <p id=""wtp"" style=""text-align:center; margin-top: 0px; margin-bottom: 0px; font-size: 40px"";>מוכנים לשלם: <span id=""c_p_y""></span></p>","3","evaluation","48","2","4C,17B","50","4","4","","","","","","","","","","","","","","",""
"","","","","","html-keyboard-response","171","1537509","0.0-21.0-2.19","1a080826-2398-4f43-ab82-e5d0240eedcb","null","<p style=""text-align: center;"">+</p>","null","fixation","","","","","","","","","","","","","","","","","","","","",""
"","","","","","html-slider-response","172","1538522","0.0-21.0-0.20","1a080826-2398-4f43-ab82-e5d0240eedcb","1000","
                  <p style=""text-align: center;"">₪79
                                                <br>65%</p>
                  <p id=""wtp"" style=""text-align:center; margin-top: 0px; margin-bottom: 0px; font-size: 40px"";>&ensp;</p>","-","viewing","0","31","8A","","","","","","","","","","","","","","","","","",""
"","","","","","html-slider-response","173","1540143","0.0-21.0-1.20","1a080826-2398-4f43-ab82-e5d0240eedcb","1621","
                  <p style=""text-align: center;"">₪79
                                                <br>65%</p>
                  <p id=""wtp"" style=""text-align:center; margin-top: 0px; margin-bottom: 0px; font-size: 40px"";>מוכנים לשלם: <span id=""c_p_y""></span></p>","27","evaluation","21","31","8A","65","79","27","","","","","","","","","","","","","","",""
"","","","","","html-keyboard-response","174","1540669","0.0-21.0-2.20","1a080826-2398-4f43-ab82-e5d0240eedcb","null","<p style=""text-align: center;"">+</p>","null","fixation","","","","","","","","","","","","","","","","","","","","",""
"","","","","","html-slider-response","175","1541677","0.0-21.0-0.21","1a080826-2398-4f43-ab82-e5d0240eedcb","1000","
                  <p style=""text-align: center;"">₪18
                                                <br>25%</p>
                  <p id=""wtp"" style=""text-align:center; margin-top: 0px; margin-bottom: 0px; font-size: 40px"";>&ensp;</p>","-","viewing","0","9","14A,23A","","","","","","","","","","","","","","","","","",""
"","","","","","html-slider-response","176","1543871","0.0-21.0-1.21","1a080826-2398-4f43-ab82-e5d0240eedcb","2194","
                  <p style=""text-align: center;"">₪18
                                                <br>25%</p>
                  <p id=""wtp"" style=""text-align:center; margin-top: 0px; margin-bottom: 0px; font-size: 40px"";>מוכנים לשלם: <span id=""c_p_y""></span></p>","8","evaluation","75","9","14A,23A","25","18","9","","","","","","","","","","","","","","",""
"","","","","","html-keyboard-response","177","1544831","0.0-21.0-2.21","1a080826-2398-4f43-ab82-e5d0240eedcb","null","<p style=""text-align: center;"">+</p>","null","fixation","","","","","","","","","","","","","","","","","","","","",""
"","","","","","html-slider-response","178","1545846","0.0-21.0-0.22","1a080826-2398-4f43-ab82-e5d0240eedcb","1000","
                  <p style=""text-align: center;"">₪79
                                                <br>40%</p>
                  <p id=""wtp"" style=""text-align:center; margin-top: 0px; margin-bottom: 0px; font-size: 40px"";>&ensp;</p>","-","viewing","0","30","9B","","","","","","","","","","","","","","","","","",""
"","","","","","html-slider-response","179","1546911","0.0-21.0-1.22","1a080826-2398-4f43-ab82-e5d0240eedcb","1064","
                  <p style=""text-align: center;"">₪79
                                                <br>40%</p>
                  <p id=""wtp"" style=""text-align:center; margin-top: 0px; margin-bottom: 0px; font-size: 40px"";>מוכנים לשלם: <span id=""c_p_y""></span></p>","19","evaluation","80","30","9B","40","79","19","","","","","","","","","","","","","","",""
"","","","","","html-keyboard-response","180","1547542","0.0-21.0-2.22","1a080826-2398-4f43-ab82-e5d0240eedcb","null","<p style=""text-align: center;"">+</p>","null","fixation","","","","","","","","","","","","","","","","","","","","",""
"","","","","","html-slider-response","181","1548544","0.0-21.0-0.23","1a080826-2398-4f43-ab82-e5d0240eedcb","1000","
                  <p style=""text-align: center;"">₪58
                                                <br>45%</p>
                  <p id=""wtp"" style=""text-align:center; margin-top: 0px; margin-bottom: 0px; font-size: 40px"";>&ensp;</p>","-","viewing","0","21","11C,18C,25A","","","","","","","","","","","","","","","","","",""
"","","","","","html-slider-response","182","1549635","0.0-21.0-1.23","1a080826-2398-4f43-ab82-e5d0240eedcb","1089","
                  <p style=""text-align: center;"">₪58
                                                <br>45%</p>
                  <p id=""wtp"" style=""text-align:center; margin-top: 0px; margin-bottom: 0px; font-size: 40px"";>מוכנים לשלם: <span id=""c_p_y""></span></p>","21","evaluation","53","21","11C,18C,25A","45","58","21","","","","","","","","","","","","","","",""
"","","","","","html-keyboard-response","183","1550247","0.0-21.0-2.23","1a080826-2398-4f43-ab82-e5d0240eedcb","null","<p style=""text-align: center;"">+</p>","null","fixation","","","","","","","","","","","","","","","","","","","","",""
"","","","","","html-slider-response","184","1551252","0.0-21.0-0.24","1a080826-2398-4f43-ab82-e5d0240eedcb","1000","
                  <p style=""text-align: center;"">₪36
                                                <br>75%</p>
                  <p id=""wtp"" style=""text-align:center; margin-top: 0px; margin-bottom: 0px; font-size: 40px"";>&ensp;</p>","-","viewing","0","14","4B,5A,13B,16B","","","","","","","","","","","","","","","","","",""
"","","","","","html-slider-response","185","1552491","0.0-21.0-1.24","1a080826-2398-4f43-ab82-e5d0240eedcb","1238","
                  <p style=""text-align: center;"">₪36
                                                <br>75%</p>
                  <p id=""wtp"" style=""text-align:center; margin-top: 0px; margin-bottom: 0px; font-size: 40px"";>מוכנים לשלם: <span id=""c_p_y""></span></p>","12","evaluation","8","14","4B,5A,13B,16B","75","36","13","","","","","","","","","","","","","","",""
"","","","","","html-keyboard-response","186","1553781","0.0-21.0-2.24","1a080826-2398-4f43-ab82-e5d0240eedcb","null","<p style=""text-align: center;"">+</p>","null","fixation","","","","","","","","","","","","","","","","","","","","",""
"","","","","","html-slider-response","187","1554785","0.0-21.0-0.25","1a080826-2398-4f43-ab82-e5d0240eedcb","1000","
                  <p style=""text-align: center;"">₪11
                                                <br>20%</p>
                  <p id=""wtp"" style=""text-align:center; margin-top: 0px; margin-bottom: 0px; font-size: 40px"";>&ensp;</p>","-","viewing","0","4","12C,17C,23C,28C","","","","","","","","","","","","","","","","","",""
"","","","","","html-slider-response","188","1556179","0.0-21.0-1.25","1a080826-2398-4f43-ab82-e5d0240eedcb","1393","
                  <p style=""text-align: center;"">₪11
                                                <br>20%</p>
                  <p id=""wtp"" style=""text-align:center; margin-top: 0px; margin-bottom: 0px; font-size: 40px"";>מוכנים לשלם: <span id=""c_p_y""></span></p>","5","evaluation","23","4","12C,17C,23C,28C","20","11","5","","","","","","","","","","","","","","",""
"","","","","","html-keyboard-response","189","1556999","0.0-21.0-2.25","1a080826-2398-4f43-ab82-e5d0240eedcb","null","<p style=""text-align: center;"">+</p>","null","fixation","","","","","","","","","","","","","","","","","","","","",""
"","","","","","html-slider-response","190","1558013","0.0-21.0-0.26","1a080826-2398-4f43-ab82-e5d0240eedcb","1000","
                  <p style=""text-align: center;"">₪39
                                                <br>60%</p>
                  <p id=""wtp"" style=""text-align:center; margin-top: 0px; margin-bottom: 0px; font-size: 40px"";>&ensp;</p>","-","viewing","0","15","9C,25B","","","","","","","","","","","","","","","","","",""
"","","","","","html-slider-response","191","1559514","0.0-21.0-1.26","1a080826-2398-4f43-ab82-e5d0240eedcb","1500","
                  <p style=""text-align: center;"">₪39
                                                <br>60%</p>
                  <p id=""wtp"" style=""text-align:center; margin-top: 0px; margin-bottom: 0px; font-size: 40px"";>מוכנים לשלם: <span id=""c_p_y""></span></p>","16","evaluation","71","15","9C,25B","60","39","16","","","","","","","","","","","","","","",""
"","","","","","html-keyboard-response","192","1560788","0.0-21.0-2.26","1a080826-2398-4f43-ab82-e5d0240eedcb","null","<p style=""text-align: center;"">+</p>","null","fixation","","","","","","","","","","","","","","","","","","","","",""
"","","","","","html-slider-response","193","1561791","0.0-21.0-0.27","1a080826-2398-4f43-ab82-e5d0240eedcb","1000","
                  <p style=""text-align: center;"">₪18
                                                <br>50%</p>
                  <p id=""wtp"" style=""text-align:center; margin-top: 0px; margin-bottom: 0px; font-size: 40px"";>&ensp;</p>","-","viewing","0","10","2C,16C,22B,28A","","","","","","","","","","","","","","","","","",""
"","","","","","html-slider-response","194","1563283","0.0-21.0-1.27","1a080826-2398-4f43-ab82-e5d0240eedcb","1492","
                  <p style=""text-align: center;"">₪18
                                                <br>50%</p>
                  <p id=""wtp"" style=""text-align:center; margin-top: 0px; margin-bottom: 0px; font-size: 40px"";>מוכנים לשלם: <span id=""c_p_y""></span></p>","10","evaluation","62","10","2C,16C,22B,28A","50","18","10","","","","","","","","","","","","","","",""
"","","","","","html-keyboard-response","195","1563872","0.0-21.0-2.27","1a080826-2398-4f43-ab82-e5d0240eedcb","null","<p style=""text-align: center;"">+</p>","null","fixation","","","","","","","","","","","","","","","","","","","","",""
"","","","","","html-slider-response","196","1564878","0.0-21.0-0.28","1a080826-2398-4f43-ab82-e5d0240eedcb","1000","
                  <p style=""text-align: center;"">₪71
                                                <br>75%</p>
                  <p id=""wtp"" style=""text-align:center; margin-top: 0px; margin-bottom: 0px; font-size: 40px"";>&ensp;</p>","-","viewing","0","28","8B","","","","","","","","","","","","","","","","","",""
"","","","","","html-slider-response","197","1566587","0.0-21.0-1.28","1a080826-2398-4f43-ab82-e5d0240eedcb","1709","
                  <p style=""text-align: center;"">₪71
                                                <br>75%</p>
                  <p id=""wtp"" style=""text-align:center; margin-top: 0px; margin-bottom: 0px; font-size: 40px"";>מוכנים לשלם: <span id=""c_p_y""></span></p>","28","evaluation","19","28","8B","75","71","28","","","","","","","","","","","","","","",""
"","","","","","html-keyboard-response","198","1567706","0.0-21.0-2.28","1a080826-2398-4f43-ab82-e5d0240eedcb","null","<p style=""text-align: center;"">+</p>","null","fixation","","","","","","","","","","","","","","","","","","","","",""
"","","","","","html-slider-response","199","1568709","0.0-21.0-0.29","1a080826-2398-4f43-ab82-e5d0240eedcb","1000","
                  <p style=""text-align: center;"">₪4
                                                <br>25%</p>
                  <p id=""wtp"" style=""text-align:center; margin-top: 0px; margin-bottom: 0px; font-size: 40px"";>&ensp;</p>","-","viewing","0","1","6C,29B,30C","","","","","","","","","","","","","","","","","",""
"","","","","","html-slider-response","200","1570235","0.0-21.0-1.29","1a080826-2398-4f43-ab82-e5d0240eedcb","1525","
                  <p style=""text-align: center;"">₪4
                                                <br>25%</p>
                  <p id=""wtp"" style=""text-align:center; margin-top: 0px; margin-bottom: 0px; font-size: 40px"";>מוכנים לשלם: <span id=""c_p_y""></span></p>","7","evaluation","27","1","6C,29B,30C","25","4","8","","","","","","","","","","","","","","",""
"","","","","","html-keyboard-response","201","1570954","0.0-21.0-2.29","1a080826-2398-4f43-ab82-e5d0240eedcb","null","<p style=""text-align: center;"">+</p>","null","fixation","","","","","","","","","","","","","","","","","","","","",""
"","","","","","html-slider-response","202","1571964","0.0-21.0-0.30","1a080826-2398-4f43-ab82-e5d0240eedcb","1000","
                  <p style=""text-align: center;"">₪39
                                                <br>65%</p>
                  <p id=""wtp"" style=""text-align:center; margin-top: 0px; margin-bottom: 0px; font-size: 40px"";>&ensp;</p>","-","viewing","0","16","1A,15A,26C","","","","","","","","","","","","","","","","","",""
"","","","","","html-slider-response","203","1573563","0.0-21.0-1.30","1a080826-2398-4f43-ab82-e5d0240eedcb","1598","
                  <p style=""text-align: center;"">₪39
                                                <br>65%</p>
                  <p id=""wtp"" style=""text-align:center; margin-top: 0px; margin-bottom: 0px; font-size: 40px"";>מוכנים לשלם: <span id=""c_p_y""></span></p>","12","evaluation","29","16","1A,15A,26C","65","39","13","","","","","","","","","","","","","","",""
"","","","","","html-keyboard-response","204","1574273","0.0-21.0-2.30","1a080826-2398-4f43-ab82-e5d0240eedcb","null","<p style=""text-align: center;"">+</p>","null","fixation","","","","","","","","","","","","","","","","","","","","",""
"","","","","","html-keyboard-response","205","1575288","0.0-22.0","1a080826-2398-4f43-ab82-e5d0240eedcb","null","<p style=""text-align: center;"">+</p>","null","fixation","","","","","","","","","","","","","","","","","","","","",""
"","","","","","html-keyboard-response","206","1576235","0.0-23.0","1a080826-2398-4f43-ab82-e5d0240eedcb","null","<p>הפסקה.
          <br>לחצו כדי להמשיך.</p>","1","scan_wait","","","","","","","","","","","","","","","","","","","","",""
"","","","","","html-keyboard-response","207","1577239","0.0-24.0","1a080826-2398-4f43-ab82-e5d0240eedcb","null","<p style=""text-align: center;"">+</p>","null","fixation","","","","","","","","","","","","","","","","","","","","",""
"","","","","","html-slider-response","208","1578242","0.0-25.0-0.0","1a080826-2398-4f43-ab82-e5d0240eedcb","1000","
                  <p style=""text-align: center;"">₪11
                                                <br>25%</p>
                  <p id=""wtp"" style=""text-align:center; margin-top: 0px; margin-bottom: 0px; font-size: 40px"";>&ensp;</p>","-","viewing","0","5","12A,27B,28B,30B","","","","","","","","","","","","","","","","","",""
"","","","","","html-slider-response","209","1579099","0.0-25.0-1.0","1a080826-2398-4f43-ab82-e5d0240eedcb","856","
                  <p style=""text-align: center;"">₪11
                                                <br>25%</p>
                  <p id=""wtp"" style=""text-align:center; margin-top: 0px; margin-bottom: 0px; font-size: 40px"";>מוכנים לשלם: <span id=""c_p_y""></span></p>","3","evaluation","30","5","12A,27B,28B,30B","25","11","3","","","","","","","","","","","","","","",""
"","","","","","html-keyboard-response","210","1580009","0.0-25.0-2.0","1a080826-2398-4f43-ab82-e5d0240eedcb","null","<p style=""text-align: center;"">+</p>","null","fixation","","","","","","","","","","","","","","","","","","","","",""
"","","","","","html-slider-response","211","1581023","0.0-25.0-0.1","1a080826-2398-4f43-ab82-e5d0240eedcb","1000","
                  <p style=""text-align: center;"">₪36
                                                <br>60%</p>
                  <p id=""wtp"" style=""text-align:center; margin-top: 0px; margin-bottom: 0px; font-size: 40px"";>&ensp;</p>","-","viewing","0","12","1C,7C,15C","","","","","","","","","","","","","","","","","",""
"","","","","","html-slider-response","212","1582043","0.0-25.0-1.1","1a080826-2398-4f43-ab82-e5d0240eedcb","1019","
                  <p style=""text-align: center;"">₪36
                                                <br>60%</p>
                  <p id=""wtp"" style=""text-align:center; margin-top: 0px; margin-bottom: 0px; font-size: 40px"";>מוכנים לשלם: <span id=""c_p_y""></span></p>","16","evaluation","19","12","1C,7C,15C","60","36","16","","","","","","","","","","","","","","",""
"","","","","","html-keyboard-response","213","1583327","0.0-25.0-2.1","1a080826-2398-4f43-ab82-e5d0240eedcb","null","<p style=""text-align: center;"">+</p>","null","fixation","","","","","","","","","","","","","","","","","","","","",""
"","","","","","html-slider-response","214","1584331","0.0-25.0-0.2","1a080826-2398-4f43-ab82-e5d0240eedcb","1000","
                  <p style=""text-align: center;"">₪36
                                                <br>70%</p>
                  <p id=""wtp"" style=""text-align:center; margin-top: 0px; margin-bottom: 0px; font-size: 40px"";>&ensp;</p>","-","viewing","0","13","3A,5C,10B","","","","","","","","","","","","","","","","","",""
"","","","","","html-slider-response","215","1585458","0.0-25.0-1.2","1a080826-2398-4f43-ab82-e5d0240eedcb","1126","
                  <p style=""text-align: center;"">₪36
                                                <br>70%</p>
                  <p id=""wtp"" style=""text-align:center; margin-top: 0px; margin-bottom: 0px; font-size: 40px"";>מוכנים לשלם: <span id=""c_p_y""></span></p>","27","evaluation","58","13","3A,5C,10B","70","36","27","","","","","","","","","","","","","","",""
"","","","","","html-keyboard-response","216","1586499","0.0-25.0-2.2","1a080826-2398-4f43-ab82-e5d0240eedcb","null","<p style=""text-align: center;"">+</p>","null","fixation","","","","","","","","","","","","","","","","","","","","",""
"","","","","","html-slider-response","217","1587505","0.0-25.0-0.3","1a080826-2398-4f43-ab82-e5d0240eedcb","1000","
                  <p style=""text-align: center;"">₪39
                                                <br>60%</p>
                  <p id=""wtp"" style=""text-align:center; margin-top: 0px; margin-bottom: 0px; font-size: 40px"";>&ensp;</p>","-","viewing","0","15","9C,25B","","","","","","","","","","","","","","","","","",""
"","","","","","html-slider-response","218","1588571","0.0-25.0-1.3","1a080826-2398-4f43-ab82-e5d0240eedcb","1065","
                  <p style=""text-align: center;"">₪39
                                                <br>60%</p>
                  <p id=""wtp"" style=""text-align:center; margin-top: 0px; margin-bottom: 0px; font-size: 40px"";>מוכנים לשלם: <span id=""c_p_y""></span></p>","21","evaluation","18","15","9C,25B","60","39","21","","","","","","","","","","","","","","",""
"","","","","","html-keyboard-response","219","1589851","0.0-25.0-2.3","1a080826-2398-4f43-ab82-e5d0240eedcb","null","<p style=""text-align: center;"">+</p>","null","fixation","","","","","","","","","","","","","","","","","","","","",""
"","","","","","html-slider-response","220","1590851","0.0-25.0-0.4","1a080826-2398-4f43-ab82-e5d0240eedcb","1000","
                  <p style=""text-align: center;"">₪58
                                                <br>30%</p>
                  <p id=""wtp"" style=""text-align:center; margin-top: 0px; margin-bottom: 0px; font-size: 40px"";>&ensp;</p>","-","viewing","0","19","13C,30A","","","","","","","","","","","","","","","","","",""
"","","","","","html-slider-response","221","1592659","0.0-25.0-1.4","1a080826-2398-4f43-ab82-e5d0240eedcb","1806","
                  <p style=""text-align: center;"">₪58
                                                <br>30%</p>
                  <p id=""wtp"" style=""text-align:center; margin-top: 0px; margin-bottom: 0px; font-size: 40px"";>מוכנים לשלם: <span id=""c_p_y""></span></p>","12","evaluation","38","19","13C,30A","30","58","12","","","","","","","","","","","","","","",""
"","","","","","html-keyboard-response","222","1593648","0.0-25.0-2.4","1a080826-2398-4f43-ab82-e5d0240eedcb","null","<p style=""text-align: center;"">+</p>","null","fixation","","","","","","","","","","","","","","","","","","","","",""
"","","","","","html-slider-response","223","1594656","0.0-25.0-0.5","1a080826-2398-4f43-ab82-e5d0240eedcb","1000","
                  <p style=""text-align: center;"">₪58
                                                <br>45%</p>
                  <p id=""wtp"" style=""text-align:center; margin-top: 0px; margin-bottom: 0px; font-size: 40px"";>&ensp;</p>","-","viewing","0","21","11C,18C,25A","","","","","","","","","","","","","","","","","",""
"","","","","","html-slider-response","224","1596715","0.0-25.0-1.5","1a080826-2398-4f43-ab82-e5d0240eedcb","2058","
                  <p style=""text-align: center;"">₪58
                                                <br>45%</p>
                  <p id=""wtp"" style=""text-align:center; margin-top: 0px; margin-bottom: 0px; font-size: 40px"";>מוכנים לשלם: <span id=""c_p_y""></span></p>","18","evaluation","52","21","11C,18C,25A","45","58","18","","","","","","","","","","","","","","",""
"","","","","","html-keyboard-response","225","1597508","0.0-25.0-2.5","1a080826-2398-4f43-ab82-e5d0240eedcb","null","<p style=""text-align: center;"">+</p>","null","fixation","","","","","","","","","","","","","","","","","","","","",""
"","","","","","html-slider-response","226","1598512","0.0-25.0-0.6","1a080826-2398-4f43-ab82-e5d0240eedcb","1000","
                  <p style=""text-align: center;"">₪18
                                                <br>50%</p>
                  <p id=""wtp"" style=""text-align:center; margin-top: 0px; margin-bottom: 0px; font-size: 40px"";>&ensp;</p>","-","viewing","0","10","2C,16C,22B,28A","","","","","","","","","","","","","","","","","",""
"","","","","","html-slider-response","227","1600714","0.0-25.0-1.6","1a080826-2398-4f43-ab82-e5d0240eedcb","2202","
                  <p style=""text-align: center;"">₪18
                                                <br>50%</p>
                  <p id=""wtp"" style=""text-align:center; margin-top: 0px; margin-bottom: 0px; font-size: 40px"";>מוכנים לשלם: <span id=""c_p_y""></span></p>","9","evaluation","26","10","2C,16C,22B,28A","50","18","9","","","","","","","","","","","","","","",""
"","","","","","html-keyboard-response","228","1601262","0.0-25.0-2.6","1a080826-2398-4f43-ab82-e5d0240eedcb","null","<p style=""text-align: center;"">+</p>","null","fixation","","","","","","","","","","","","","","","","","","","","",""
"","","","","","html-slider-response","229","1602279","0.0-25.0-0.7","1a080826-2398-4f43-ab82-e5d0240eedcb","1000","
                  <p style=""text-align: center;"">₪79
                                                <br>40%</p>
                  <p id=""wtp"" style=""text-align:center; margin-top: 0px; margin-bottom: 0px; font-size: 40px"";>&ensp;</p>","-","viewing","0","30","9B","","","","","","","","","","","","","","","","","",""
"","","","","","html-slider-response","230","1603651","0.0-25.0-1.7","1a080826-2398-4f43-ab82-e5d0240eedcb","1370","
                  <p style=""text-align: center;"">₪79
                                                <br>40%</p>
                  <p id=""wtp"" style=""text-align:center; margin-top: 0px; margin-bottom: 0px; font-size: 40px"";>מוכנים לשלם: <span id=""c_p_y""></span></p>","15","evaluation","40","30","9B","40","79","15","","","","","","","","","","","","","","",""
"","","","","","html-keyboard-response","231","1604870","0.0-25.0-2.7","1a080826-2398-4f43-ab82-e5d0240eedcb","null","<p style=""text-align: center;"">+</p>","null","fixation","","","","","","","","","","","","","","","","","","","","",""
"","","","","","html-slider-response","232","1605885","0.0-25.0-0.8","1a080826-2398-4f43-ab82-e5d0240eedcb","1000","
                  <p style=""text-align: center;"">₪64
                                                <br>25%</p>
                  <p id=""wtp"" style=""text-align:center; margin-top: 0px; margin-bottom: 0px; font-size: 40px"";>&ensp;</p>","-","viewing","0","24","6A,21A","","","","","","","","","","","","","","","","","",""
"","","","","","html-slider-response","233","1607131","0.0-25.0-1.8","1a080826-2398-4f43-ab82-e5d0240eedcb","1245","
                  <p style=""text-align: center;"">₪64
                                                <br>25%</p>
                  <p id=""wtp"" style=""text-align:center; margin-top: 0px; margin-bottom: 0px; font-size: 40px"";>מוכנים לשלם: <span id=""c_p_y""></span></p>","14","evaluation","6","24","6A,21A","25","64","14","","","","","","","","","","","","","","",""
"","","","","","html-keyboard-response","234","1607824","0.0-25.0-2.8","1a080826-2398-4f43-ab82-e5d0240eedcb","null","<p style=""text-align: center;"">+</p>","null","fixation","","","","","","","","","","","","","","","","","","","","",""
"","","","","","html-slider-response","235","1608823","0.0-25.0-0.9","1a080826-2398-4f43-ab82-e5d0240eedcb","1000","
                  <p style=""text-align: center;"">₪11
                                                <br>45%</p>
                  <p id=""wtp"" style=""text-align:center; margin-top: 0px; margin-bottom: 0px; font-size: 40px"";>&ensp;</p>","-","viewing","0","6","14B,21C,25C","","","","","","","","","","","","","","","","","",""
"","","","","","html-slider-response","236","1610430","0.0-25.0-1.9","1a080826-2398-4f43-ab82-e5d0240eedcb","1606","
                  <p style=""text-align: center;"">₪11
                                                <br>45%</p>
                  <p id=""wtp"" style=""text-align:center; margin-top: 0px; margin-bottom: 0px; font-size: 40px"";>מוכנים לשלם: <span id=""c_p_y""></span></p>","5","evaluation","23","6","14B,21C,25C","45","11","6","","","","","","","","","","","","","","",""
"","","","","","html-keyboard-response","237","1611811","0.0-25.0-2.9","1a080826-2398-4f43-ab82-e5d0240eedcb","null","<p style=""text-align: center;"">+</p>","null","fixation","","","","","","","","","","","","","","","","","","","","",""
"","","","","","html-slider-response","238","1612820","0.0-25.0-0.10","1a080826-2398-4f43-ab82-e5d0240eedcb","1000","
                  <p style=""text-align: center;"">₪16
                                                <br>20%</p>
                  <p id=""wtp"" style=""text-align:center; margin-top: 0px; margin-bottom: 0px; font-size: 40px"";>&ensp;</p>","-","viewing","0","8","14C,17A,20C,27A","","","","","","","","","","","","","","","","","",""
"","","","","","html-slider-response","239","1614862","0.0-25.0-1.10","1a080826-2398-4f43-ab82-e5d0240eedcb","2041","
                  <p style=""text-align: center;"">₪16
                                                <br>20%</p>
                  <p id=""wtp"" style=""text-align:center; margin-top: 0px; margin-bottom: 0px; font-size: 40px"";>מוכנים לשלם: <span id=""c_p_y""></span></p>","5","evaluation","10","8","14C,17A,20C,27A","20","16","6","","","","","","","","","","","","","","",""
"","","","","","html-keyboard-response","240","1616077","0.0-25.0-2.10","1a080826-2398-4f43-ab82-e5d0240eedcb","null","<p style=""text-align: center;"">+</p>","null","fixation","","","","","","","","","","","","","","","","","","","","",""
"","","","","","html-slider-response","241","1617091","0.0-25.0-0.11","1a080826-2398-4f43-ab82-e5d0240eedcb","1000","
                  <p style=""text-align: center;"">₪36
                                                <br>75%</p>
                  <p id=""wtp"" style=""text-align:center; margin-top: 0px; margin-bottom: 0px; font-size: 40px"";>&ensp;</p>","-","viewing","0","14","4B,5A,13B,16B","","","","","","","","","","","","","","","","","",""
"","","","","","html-slider-response","242","1618054","0.0-25.0-1.11","1a080826-2398-4f43-ab82-e5d0240eedcb","962","
                  <p style=""text-align: center;"">₪36
                                                <br>75%</p>
                  <p id=""wtp"" style=""text-align:center; margin-top: 0px; margin-bottom: 0px; font-size: 40px"";>מוכנים לשלם: <span id=""c_p_y""></span></p>","15","evaluation","65","14","4B,5A,13B,16B","75","36","15","","","","","","","","","","","","","","",""
"","","","","","html-keyboard-response","243","1618857","0.0-25.0-2.11","1a080826-2398-4f43-ab82-e5d0240eedcb","null","<p style=""text-align: center;"">+</p>","null","fixation","","","","","","","","","","","","","","","","","","","","",""
"","","","","","html-slider-response","244","1619863","0.0-25.0-0.12","1a080826-2398-4f43-ab82-e5d0240eedcb","1000","
                  <p style=""text-align: center;"">₪71
                                                <br>75%</p>
                  <p id=""wtp"" style=""text-align:center; margin-top: 0px; margin-bottom: 0px; font-size: 40px"";>&ensp;</p>","-","viewing","0","28","8B","","","","","","","","","","","","","","","","","",""
"","","","","","html-slider-response","245","1621207","0.0-25.0-1.12","1a080826-2398-4f43-ab82-e5d0240eedcb","1343","
                  <p style=""text-align: center;"">₪71
                                                <br>75%</p>
                  <p id=""wtp"" style=""text-align:center; margin-top: 0px; margin-bottom: 0px; font-size: 40px"";>מוכנים לשלם: <span id=""c_p_y""></span></p>","29","evaluation","55","28","8B","75","71","29","","","","","","","","","","","","","","",""
"","","","","","html-keyboard-response","246","1621751","0.0-25.0-2.12","1a080826-2398-4f43-ab82-e5d0240eedcb","null","<p style=""text-align: center;"">+</p>","null","fixation","","","","","","","","","","","","","","","","","","","","",""
"","","","","","html-slider-response","247","1622756","0.0-25.0-0.13","1a080826-2398-4f43-ab82-e5d0240eedcb","1000","
                  <p style=""text-align: center;"">₪39
                                                <br>65%</p>
                  <p id=""wtp"" style=""text-align:center; margin-top: 0px; margin-bottom: 0px; font-size: 40px"";>&ensp;</p>","-","viewing","0","16","1A,15A,26C","","","","","","","","","","","","","","","","","",""
"","","","","","html-slider-response","248","1624414","0.0-25.0-1.13","1a080826-2398-4f43-ab82-e5d0240eedcb","1657","
                  <p style=""text-align: center;"">₪39
                                                <br>65%</p>
                  <p id=""wtp"" style=""text-align:center; margin-top: 0px; margin-bottom: 0px; font-size: 40px"";>מוכנים לשלם: <span id=""c_p_y""></span></p>","10","evaluation","52","16","1A,15A,26C","65","39","10","","","","","","","","","","","","","","",""
"","","","","","html-keyboard-response","249","1625043","0.0-25.0-2.13","1a080826-2398-4f43-ab82-e5d0240eedcb","null","<p style=""text-align: center;"">+</p>","null","fixation","","","","","","","","","","","","","","","","","","","","",""
"","","","","","html-slider-response","250","1626052","0.0-25.0-0.14","1a080826-2398-4f43-ab82-e5d0240eedcb","1000","
                  <p style=""text-align: center;"">₪4
                                                <br>50%</p>
                  <p id=""wtp"" style=""text-align:center; margin-top: 0px; margin-bottom: 0px; font-size: 40px"";>&ensp;</p>","-","viewing","0","2","4C,17B","","","","","","","","","","","","","","","","","",""
"","","","","","html-slider-response","251","1626782","0.0-25.0-1.14","1a080826-2398-4f43-ab82-e5d0240eedcb","729","
                  <p style=""text-align: center;"">₪4
                                                <br>50%</p>
                  <p id=""wtp"" style=""text-align:center; margin-top: 0px; margin-bottom: 0px; font-size: 40px"";>מוכנים לשלם: <span id=""c_p_y""></span></p>","2","evaluation","61","2","4C,17B","50","4","2","","","","","","","","","","","","","","",""
"","","","","","html-keyboard-response","252","1627772","0.0-25.0-2.14","1a080826-2398-4f43-ab82-e5d0240eedcb","null","<p style=""text-align: center;"">+</p>","null","fixation","","","","","","","","","","","","","","","","","","","","",""
