"success","timeout","failed_images","failed_audio","failed_video","trial_type","trial_index","time_elapsed","internal_node_id","subject_id","rt","stimulus","response","part","slider_start","ID","set_ID","prob","amount","last_location","actual_choice","actual_EV","binary_id","trinary_id","catch","A_key","D_key","choice_prob","choice_amount","chosen_part","potential_prize_prob","potential_prize_amount","won_prize","total_prize","prize_cost","remaining_budget","accuracy"
"true","false","[]","[]","[]","preload","0","65","0.0-0.0","dc901693-8b5c-4361-b621-ae6a49ce235d","","","","","","","","","","","","","","","","","","","","","","","","","","",""
"","","","","","html-keyboard-response","1","842743","0.0-1.0","dc901693-8b5c-4361-b621-ae6a49ce235d","null","
          <h1>שלום וברוכים הבאים!</h1>
          <p>לפניכם ניסוי בקבלת החלטות עם שני חלקים.
          <br><br>לחצו על העכבר כדי להמשיך.</p>","0","example","","","","","","","","","","","","","","","","","","","","","","",""
"","","","","","html-keyboard-response","2","865919","0.0-2.0","dc901693-8b5c-4361-b621-ae6a49ce235d","null","
        <h1>חלק 1</h1>
        <p>בקרוב יוצגו בפניכם הגרלות.
        <br>עליכם לבחור את המחיר המירבי שתהיו מוכנים לשלם כדי להשתתף בהגרלה שתוצג.
        <br>יש לכם תקציב של ₪80 לכל הגרלה. 
        <br>נסו להעריך כל הגרלה בנפרד ולחשוב כמה היא שווה עבורכם, ₪80 זמינים לכל הגרלה בנפרד.
        <br><br>לחצו על העכבר כדי להמשיך.</p>","1","instructions","","","","","","","","","","","","","","","","","","","","","","",""
"","","","","","html-keyboard-response","3","873430","0.0-3.0","dc901693-8b5c-4361-b621-ae6a49ce235d","null","
        <p>בסוף הניסוי, המחשב יבחר את אחת ההגרלות ויקבע מחיר לכרטיס עבורה. 
        <br>במידה והמחיר שבחרתם נמוך מהמחיר שנבחר על ידי המחשב, לא תשתתפו בהגרלה ותשארו עם מלוא התקציב.
        <br>במידה והמחיר שבחרתם גבוה מהמחיר שנבחר על ידי המחשב, תשלמו את המחיר שנקבע ותשתתפו בהגרלה.
        <br><br>לחצו על העכבר כדי להמשיך.</p>","1","instructions","","","","","","","","","","","","","","","","","","","","","","",""
"","","","","","html-slider-response","4","888031","0.0-4.0","dc901693-8b5c-4361-b621-ae6a49ce235d","14492","
        <p style=""font-size: 42px;"">נתחיל עם דוגמא: 
        <br>ההגרלה מטה מציעה 65% סיכוי לזכות ב-₪40 
        <br>&emsp;&emsp;&emsp;&emsp;&emsp;&emsp;&emsp;&emsp;&ensp;35% סיכוי לזכות ב-₪0.
        <br><br>מה המחיר המירבי שתהיו מוכנים לשלם על כרטיס להגרלה זו בין 0 ל-₪80?
        <br>הזיזו את העכבר על פני המלבן ולחצו כדי לבצע בחירה.</p>
        
        <p style=""text-align: center;"">₪40<br>65%</p>

        <p id=""wtp"" style=""text-align:center; margin-top: 0px; margin-bottom: 0px; font-size: 40px"";>מוכנים לשלם: <span id=""c_p_y""></span></p>","33","example","75","","","","","","","","","","","","","","","","","","","","","",""
"","","","","","html-keyboard-response","5","897591","0.0-5.0","dc901693-8b5c-4361-b621-ae6a49ce235d","null","<p>יפה מאוד!
                <br> בחרתם שתהיו מוכנים לשלם ₪33 כדי להשתתף בהגרלה:
                <br><p style=""text-align: center;"">₪40<br>65%</p>
                <p>נשמע נכון?
                <br>נניח שהגרלה זו נבחרה בסוף הניסוי.
                <br>כעת המחשב יקבע מחיר עבורה באקראי.
                <br>לחצו על העכבר להמשך.</p>","1","example","","","","","","","","","","","","","","","","","","","","","","",""
"","","","","","html-keyboard-response","6","907897","0.0-6.0","dc901693-8b5c-4361-b621-ae6a49ce235d","null","<p>המחשב קבע מחיר: ₪74
                <br>ואתם בחרתם לשלם לכל היותר: ₪33
                <br><br>מכיוון שהמחיר שבחרתם נמוך מהמחיר שנקבע, לא תתשתתפו בהגרלה.
                <br>במקרה כזה, בסוף הניסוי תקבלו את כל התקציב ההתחלתי של ₪80.
                <br><br>לחצו על העכבר להמשך.</p>","1","example","","","","","","","","","","","","","","","","","","","","","","",""
"","","","","","html-slider-response","7","920401","0.0-7.0","dc901693-8b5c-4361-b621-ae6a49ce235d","12245","<p style=""font-size: 42px;"">הנה עוד דוגמא:
                <br>ההגרלה מטה מציעה 35% סיכוי לזכות ב-₪18 
                <br>&emsp;&emsp;&emsp;&emsp;&emsp;&emsp;&emsp;&emsp;&ensp;65% סיכוי לזכות ב-₪0.</p>
        
                <p style=""text-align: center;"">₪18<br>35%</p>
                <p id=""wtp"" style=""text-align:center; margin-top: 0px; margin-bottom: 0px; font-size: 40px"";>מוכנים לשלם: <span id=""c_p_y""></span></p>","11","example","58","","","","","","","","","","","","","","","","","","","","","",""
"","","","","","html-keyboard-response","8","922450","0.0-8.0","dc901693-8b5c-4361-b621-ae6a49ce235d","null","<p>הייתם מוכנים לשלם  ₪11 כדי להשתתף בהגרלה:
                <p style=""text-align: center;"">₪18<br>35%</p>
                <p>כעת נניח שהמחשב בחר את ההגרלה הזו בסוף הניסוי, וקבע עבורה מחיר.
                <br><br>לחצו על העכבר כדי להמשיך.</p>","1","instructions","","","","","","","","","","","","","","","","","","","","","","",""
"","","","","","html-keyboard-response","9","938210","0.0-9.0","dc901693-8b5c-4361-b621-ae6a49ce235d","null","<p>המחשב קבע מחיר להגרלה: ₪1<br>ואתם בחרתם לשלם לכל היותר: ₪11
                <br><br>כעת המחיר שנקבע נמוך מזה שבחרתם, אז תשלמו את המחיר שקבע המחשב (₪1) ותשתתפו בהגרלה.
                <br>במקרה כזה, תסיימו את הניסוי עם תקציב של ₪79 ועם סיכוי לזכות ב-₪18 נוספים מההגרלה.
                <br>כלומר, תוכלו לקבל ₪79 אם לא תזכו בהגרלה, או ₪97 אם תזכו בהגרלה.
                <br><br>לחצו על העכבר להמשך.</p>","1","example","","","","","","","","","","","","","","","","","","","","","","",""
"","","","","","html-keyboard-response","10","943450","0.0-10.0","dc901693-8b5c-4361-b621-ae6a49ce235d","null","<p>במהלך הניסוי, קודם תראו את ההגרלה ורק לאחר מכן תוכלו לבחור.
                <p>כמו כן, יהיו לכם מספר שניות מוגבל להגיב.
                <p>בואו ננסה זאת עם ההגרלה הקודמת.
                <br>לחצו על העכבר כדי להמשיך.</p>","1","instructions","","","","","","","","","","","","","","","","","","","","","","",""
"","","","","","html-slider-response","11","944724","0.0-11.0","dc901693-8b5c-4361-b621-ae6a49ce235d","1000","
                    <p style=""text-align: center;"">₪18<br>35%</p>
                    <p id=""wtp"" style=""text-align:center; margin-top: 0px; margin-bottom: 0px; font-size: 40px"";>&ensp;</p>","38","instructions","0","","","","","","","","","","","","","","","","","","","","","",""
"","","","","","html-slider-response","12","947810","0.0-12.0","dc901693-8b5c-4361-b621-ae6a49ce235d","2820","
                    <p style=""text-align: center;"">₪18<br>35%</p>
                    <p id=""wtp"" style=""text-align:center; margin-top: 0px; margin-bottom: 0px; font-size: 40px"";>מוכנים לשלם: <span id=""c_p_y""></span></p>","20","instructions","24","","","","","","","","","","","","","","","","","","","","","",""
"","","","","","html-keyboard-response","13","950226","0.0-13.0","dc901693-8b5c-4361-b621-ae6a49ce235d","null","<p>יפה. הפעם בחרתם לשלם לכל היותר ₪20.
                <br><br>לחצו על העכבר כדי להמשיך.</p>","1","instructions","","","","","","","","","","","","","","","","","","","","","","",""
"","","","","","html-keyboard-response","14","960810","0.0-15.0","dc901693-8b5c-4361-b621-ae6a49ce235d","null","<p>כעת נתחיל את הניסוי.
                <br><br>אתם תראו הגרלות ותתבקשו לבחור כמה תהיו מוכנים לשלם כדי להשתתף בהן.
                <br>יש לכם תקציב של ₪80 עבור כל הגרלה.
                <br>בסוף הניסוי הגרלה אחת תבחר באקראי ותשוחק.
                <br><br>לחצו על העכבר כדי להתחיל את הניסוי.</p>","1","instructions","","","","","","","","","","","","","","","","","","","","","","",""
"","","","","","html-keyboard-response","15","962077","0.0-16.0","dc901693-8b5c-4361-b621-ae6a49ce235d","null","<p style=""text-align: center;"">+</p>","null","fixation","","","","","","","","","","","","","","","","","","","","","","",""
"","","","","","html-slider-response","16","963101","0.0-17.0-0.0","dc901693-8b5c-4361-b621-ae6a49ce235d","1000","
                  <p style=""text-align: center;"">₪11
                                                <br>20%</p>
                  <p id=""wtp"" style=""text-align:center; margin-top: 0px; margin-bottom: 0px; font-size: 40px"";>&ensp;</p>","-","viewing","0","4","12C,17C,23C,28C","","","","","","","","","","","","","","","","","","","",""
"","","","","","html-slider-response","17","964693","0.0-17.0-1.0","dc901693-8b5c-4361-b621-ae6a49ce235d","1591","
                  <p style=""text-align: center;"">₪11
                                                <br>20%</p>
                  <p id=""wtp"" style=""text-align:center; margin-top: 0px; margin-bottom: 0px; font-size: 40px"";>מוכנים לשלם: <span id=""c_p_y""></span></p>","8","evaluation","23","4","12C,17C,23C,28C","20","11","8","","","","","","","","","","","","","","","","",""
"","","","","","html-keyboard-response","18","965862","0.0-17.0-2.0","dc901693-8b5c-4361-b621-ae6a49ce235d","null","<p style=""text-align: center;"">+</p>","null","fixation","","","","","","","","","","","","","","","","","","","","","","",""
"","","","","","html-slider-response","19","966874","0.0-17.0-0.1","dc901693-8b5c-4361-b621-ae6a49ce235d","1000","
                  <p style=""text-align: center;"">₪79
                                                <br>65%</p>
                  <p id=""wtp"" style=""text-align:center; margin-top: 0px; margin-bottom: 0px; font-size: 40px"";>&ensp;</p>","-","viewing","0","31","8A","","","","","","","","","","","","","","","","","","","",""
"","","","","","html-slider-response","20","969589","0.0-17.0-1.1","dc901693-8b5c-4361-b621-ae6a49ce235d","2714","
                  <p style=""text-align: center;"">₪79
                                                <br>65%</p>
                  <p id=""wtp"" style=""text-align:center; margin-top: 0px; margin-bottom: 0px; font-size: 40px"";>מוכנים לשלם: <span id=""c_p_y""></span></p>","43","evaluation","60","31","8A","65","79","43","","","","","","","","","","","","","","","","",""
"","","","","","html-keyboard-response","21","971003","0.0-17.0-2.1","dc901693-8b5c-4361-b621-ae6a49ce235d","null","<p style=""text-align: center;"">+</p>","null","fixation","","","","","","","","","","","","","","","","","","","","","","",""
"","","","","","html-slider-response","22","972012","0.0-17.0-0.2","dc901693-8b5c-4361-b621-ae6a49ce235d","1000","
                  <p style=""text-align: center;"">₪16
                                                <br>20%</p>
                  <p id=""wtp"" style=""text-align:center; margin-top: 0px; margin-bottom: 0px; font-size: 40px"";>&ensp;</p>","-","viewing","0","8","14C,17A,20C,27A","","","","","","","","","","","","","","","","","","","",""
"","","","","","html-slider-response","23","973637","0.0-17.0-1.2","dc901693-8b5c-4361-b621-ae6a49ce235d","1624","
                  <p style=""text-align: center;"">₪16
                                                <br>20%</p>
                  <p id=""wtp"" style=""text-align:center; margin-top: 0px; margin-bottom: 0px; font-size: 40px"";>מוכנים לשלם: <span id=""c_p_y""></span></p>","1","evaluation","35","8","14C,17A,20C,27A","20","16","2","","","","","","","","","","","","","","","","",""
"","","","","","html-keyboard-response","24","975111","0.0-17.0-2.2","dc901693-8b5c-4361-b621-ae6a49ce235d","null","<p style=""text-align: center;"">+</p>","null","fixation","","","","","","","","","","","","","","","","","","","","","","",""
"","","","","","html-slider-response","25","976122","0.0-17.0-0.3","dc901693-8b5c-4361-b621-ae6a49ce235d","1000","
                  <p style=""text-align: center;"">₪58
                                                <br>30%</p>
                  <p id=""wtp"" style=""text-align:center; margin-top: 0px; margin-bottom: 0px; font-size: 40px"";>&ensp;</p>","-","viewing","0","19","13C,30A","","","","","","","","","","","","","","","","","","","",""
"","","","","","html-slider-response","26","979333","0.0-17.0-1.3","dc901693-8b5c-4361-b621-ae6a49ce235d","3210","
                  <p style=""text-align: center;"">₪58
                                                <br>30%</p>
                  <p id=""wtp"" style=""text-align:center; margin-top: 0px; margin-bottom: 0px; font-size: 40px"";>מוכנים לשלם: <span id=""c_p_y""></span></p>","18","evaluation","72","19","13C,30A","30","58","18","","","","","","","","","","","","","","","","",""
"","","","","","html-keyboard-response","27","979849","0.0-17.0-2.3","dc901693-8b5c-4361-b621-ae6a49ce235d","null","<p style=""text-align: center;"">+</p>","null","fixation","","","","","","","","","","","","","","","","","","","","","","",""
"","","","","","html-slider-response","28","980851","0.0-17.0-0.4","dc901693-8b5c-4361-b621-ae6a49ce235d","1000","
                  <p style=""text-align: center;"">₪61
                                                <br>55%</p>
                  <p id=""wtp"" style=""text-align:center; margin-top: 0px; margin-bottom: 0px; font-size: 40px"";>&ensp;</p>","-","viewing","0","23","7B,26B","","","","","","","","","","","","","","","","","","","",""
"","","","","","html-slider-response","29","984437","0.0-17.0-1.4","dc901693-8b5c-4361-b621-ae6a49ce235d","3584","
                  <p style=""text-align: center;"">₪61
                                                <br>55%</p>
                  <p id=""wtp"" style=""text-align:center; margin-top: 0px; margin-bottom: 0px; font-size: 40px"";>מוכנים לשלם: <span id=""c_p_y""></span></p>","33","evaluation","58","23","7B,26B","55","61","33","","","","","","","","","","","","","","","","",""
"","","","","","html-keyboard-response","30","985373","0.0-17.0-2.4","dc901693-8b5c-4361-b621-ae6a49ce235d","null","<p style=""text-align: center;"">+</p>","null","fixation","","","","","","","","","","","","","","","","","","","","","","",""
"","","","","","html-slider-response","31","986379","0.0-17.0-0.5","dc901693-8b5c-4361-b621-ae6a49ce235d","1000","
                  <p style=""text-align: center;"">₪11
                                                <br>25%</p>
                  <p id=""wtp"" style=""text-align:center; margin-top: 0px; margin-bottom: 0px; font-size: 40px"";>&ensp;</p>","-","viewing","0","5","12A,27B,28B,30B","","","","","","","","","","","","","","","","","","","",""
"","","","","","html-slider-response","32","987773","0.0-17.0-1.5","dc901693-8b5c-4361-b621-ae6a49ce235d","1393","
                  <p style=""text-align: center;"">₪11
                                                <br>25%</p>
                  <p id=""wtp"" style=""text-align:center; margin-top: 0px; margin-bottom: 0px; font-size: 40px"";>מוכנים לשלם: <span id=""c_p_y""></span></p>","1","evaluation","2","5","12A,27B,28B,30B","25","11","2","","","","","","","","","","","","","","","","",""
"","","","","","html-keyboard-response","33","988476","0.0-17.0-2.5","dc901693-8b5c-4361-b621-ae6a49ce235d","null","<p style=""text-align: center;"">+</p>","null","fixation","","","","","","","","","","","","","","","","","","","","","","",""
"","","","","","html-slider-response","34","989482","0.0-17.0-0.6","dc901693-8b5c-4361-b621-ae6a49ce235d","1000","
                  <p style=""text-align: center;"">₪36
                                                <br>70%</p>
                  <p id=""wtp"" style=""text-align:center; margin-top: 0px; margin-bottom: 0px; font-size: 40px"";>&ensp;</p>","-","viewing","0","13","3A,5C,10B","","","","","","","","","","","","","","","","","","","",""
"","","","","","html-slider-response","35","991389","0.0-17.0-1.6","dc901693-8b5c-4361-b621-ae6a49ce235d","1906","
                  <p style=""text-align: center;"">₪36
                                                <br>70%</p>
                  <p id=""wtp"" style=""text-align:center; margin-top: 0px; margin-bottom: 0px; font-size: 40px"";>מוכנים לשלם: <span id=""c_p_y""></span></p>","2","evaluation","26","13","3A,5C,10B","70","36","3","","","","","","","","","","","","","","","","",""
"","","","","","html-keyboard-response","36","992859","0.0-17.0-2.6","dc901693-8b5c-4361-b621-ae6a49ce235d","null","<p style=""text-align: center;"">+</p>","null","fixation","","","","","","","","","","","","","","","","","","","","","","",""
"","","","","","html-slider-response","37","993876","0.0-17.0-0.7","dc901693-8b5c-4361-b621-ae6a49ce235d","1000","
                  <p style=""text-align: center;"">₪61
                                                <br>45%</p>
                  <p id=""wtp"" style=""text-align:center; margin-top: 0px; margin-bottom: 0px; font-size: 40px"";>&ensp;</p>","-","viewing","0","22","10A,11A","","","","","","","","","","","","","","","","","","","",""
"","","","","","html-slider-response","38","994957","0.0-17.0-1.7","dc901693-8b5c-4361-b621-ae6a49ce235d","1080","
                  <p style=""text-align: center;"">₪61
                                                <br>45%</p>
                  <p id=""wtp"" style=""text-align:center; margin-top: 0px; margin-bottom: 0px; font-size: 40px"";>מוכנים לשלם: <span id=""c_p_y""></span></p>","23","evaluation","17","22","10A,11A","45","61","23","","","","","","","","","","","","","","","","",""
"","","","","","html-keyboard-response","39","996309","0.0-17.0-2.7","dc901693-8b5c-4361-b621-ae6a49ce235d","null","<p style=""text-align: center;"">+</p>","null","fixation","","","","","","","","","","","","","","","","","","","","","","",""
"","","","","","html-slider-response","40","997321","0.0-17.0-0.8","dc901693-8b5c-4361-b621-ae6a49ce235d","1000","
                  <p style=""text-align: center;"">₪4
                                                <br>50%</p>
                  <p id=""wtp"" style=""text-align:center; margin-top: 0px; margin-bottom: 0px; font-size: 40px"";>&ensp;</p>","-","viewing","0","2","4C,17B","","","","","","","","","","","","","","","","","","","",""
"","","","","","html-slider-response","41","1000861","0.0-17.0-1.8","dc901693-8b5c-4361-b621-ae6a49ce235d","3539","
                  <p style=""text-align: center;"">₪4
                                                <br>50%</p>
                  <p id=""wtp"" style=""text-align:center; margin-top: 0px; margin-bottom: 0px; font-size: 40px"";>מוכנים לשלם: <span id=""c_p_y""></span></p>","0","evaluation","65","2","4C,17B","50","4","0","","","","","","","","","","","","","","","","",""
"","","","","","html-keyboard-response","42","1001904","0.0-17.0-2.8","dc901693-8b5c-4361-b621-ae6a49ce235d","null","<p style=""text-align: center;"">+</p>","null","fixation","","","","","","","","","","","","","","","","","","","","","","",""
"","","","","","html-slider-response","43","1002911","0.0-17.0-0.9","dc901693-8b5c-4361-b621-ae6a49ce235d","1000","
                  <p style=""text-align: center;"">₪36
                                                <br>60%</p>
                  <p id=""wtp"" style=""text-align:center; margin-top: 0px; margin-bottom: 0px; font-size: 40px"";>&ensp;</p>","-","viewing","0","12","1C,7C,15C","","","","","","","","","","","","","","","","","","","",""
"","","","","","html-slider-response","44","1006915","0.0-17.0-1.9","dc901693-8b5c-4361-b621-ae6a49ce235d","null","
                  <p style=""text-align: center;"">₪36
                                                <br>60%</p>
                  <p id=""wtp"" style=""text-align:center; margin-top: 0px; margin-bottom: 0px; font-size: 40px"";>מוכנים לשלם: <span id=""c_p_y""></span></p>","null","evaluation","2","12","1C,7C,15C","60","36","55","","","","","","","","","","","","","","","","",""
"","","","","","html-keyboard-response","45","1007979","0.0-17.0-2.9","dc901693-8b5c-4361-b621-ae6a49ce235d","null","<p style=""text-align: center;"">+</p>","null","fixation","","","","","","","","","","","","","","","","","","","","","","",""
"","","","","","html-slider-response","46","1008985","0.0-17.0-0.10","dc901693-8b5c-4361-b621-ae6a49ce235d","1000","
                  <p style=""text-align: center;"">₪39
                                                <br>65%</p>
                  <p id=""wtp"" style=""text-align:center; margin-top: 0px; margin-bottom: 0px; font-size: 40px"";>&ensp;</p>","-","viewing","0","16","1A,15A,26C","","","","","","","","","","","","","","","","","","","",""
"","","","","","html-slider-response","47","1010829","0.0-17.0-1.10","dc901693-8b5c-4361-b621-ae6a49ce235d","1843","
                  <p style=""text-align: center;"">₪39
                                                <br>65%</p>
                  <p id=""wtp"" style=""text-align:center; margin-top: 0px; margin-bottom: 0px; font-size: 40px"";>מוכנים לשלם: <span id=""c_p_y""></span></p>","39","evaluation","21","16","1A,15A,26C","65","39","39","","","","","","","","","","","","","","","","",""
"","","","","","html-keyboard-response","48","1011429","0.0-17.0-2.10","dc901693-8b5c-4361-b621-ae6a49ce235d","null","<p style=""text-align: center;"">+</p>","null","fixation","","","","","","","","","","","","","","","","","","","","","","",""
"","","","","","html-slider-response","49","1012437","0.0-17.0-0.11","dc901693-8b5c-4361-b621-ae6a49ce235d","1000","
                  <p style=""text-align: center;"">₪43
                                                <br>75%</p>
                  <p id=""wtp"" style=""text-align:center; margin-top: 0px; margin-bottom: 0px; font-size: 40px"";>&ensp;</p>","-","viewing","0","18","11B,19B,24A,26A","","","","","","","","","","","","","","","","","","","",""
"","","","","","html-slider-response","50","1015173","0.0-17.0-1.11","dc901693-8b5c-4361-b621-ae6a49ce235d","2734","
                  <p style=""text-align: center;"">₪43
                                                <br>75%</p>
                  <p id=""wtp"" style=""text-align:center; margin-top: 0px; margin-bottom: 0px; font-size: 40px"";>מוכנים לשלם: <span id=""c_p_y""></span></p>","47","evaluation","52","18","11B,19B,24A,26A","75","43","47","","","","","","","","","","","","","","","","",""
"","","","","","html-keyboard-response","51","1015852","0.0-17.0-2.11","dc901693-8b5c-4361-b621-ae6a49ce235d","null","<p style=""text-align: center;"">+</p>","null","fixation","","","","","","","","","","","","","","","","","","","","","","",""
"","","","","","html-slider-response","52","1016858","0.0-17.0-0.12","dc901693-8b5c-4361-b621-ae6a49ce235d","1000","
                  <p style=""text-align: center;"">₪11
                                                <br>75%</p>
                  <p id=""wtp"" style=""text-align:center; margin-top: 0px; margin-bottom: 0px; font-size: 40px"";>&ensp;</p>","-","viewing","0","7","6B,18B,22C,24C,29A","","","","","","","","","","","","","","","","","","","",""
"","","","","","html-slider-response","53","1018573","0.0-17.0-1.12","dc901693-8b5c-4361-b621-ae6a49ce235d","1713","
                  <p style=""text-align: center;"">₪11
                                                <br>75%</p>
                  <p id=""wtp"" style=""text-align:center; margin-top: 0px; margin-bottom: 0px; font-size: 40px"";>מוכנים לשלם: <span id=""c_p_y""></span></p>","11","evaluation","34","7","6B,18B,22C,24C,29A","75","11","11","","","","","","","","","","","","","","","","",""
"","","","","","html-keyboard-response","54","1019206","0.0-17.0-2.12","dc901693-8b5c-4361-b621-ae6a49ce235d","null","<p style=""text-align: center;"">+</p>","null","fixation","","","","","","","","","","","","","","","","","","","","","","",""
"","","","","","html-slider-response","55","1020212","0.0-17.0-0.13","dc901693-8b5c-4361-b621-ae6a49ce235d","1000","
                  <p style=""text-align: center;"">₪36
                                                <br>75%</p>
                  <p id=""wtp"" style=""text-align:center; margin-top: 0px; margin-bottom: 0px; font-size: 40px"";>&ensp;</p>","-","viewing","0","14","4B,5A,13B,16B","","","","","","","","","","","","","","","","","","","",""
"","","","","","html-slider-response","56","1022261","0.0-17.0-1.13","dc901693-8b5c-4361-b621-ae6a49ce235d","2048","
                  <p style=""text-align: center;"">₪36
                                                <br>75%</p>
                  <p id=""wtp"" style=""text-align:center; margin-top: 0px; margin-bottom: 0px; font-size: 40px"";>מוכנים לשלם: <span id=""c_p_y""></span></p>","11","evaluation","48","14","4B,5A,13B,16B","75","36","12","","","","","","","","","","","","","","","","",""
"","","","","","html-keyboard-response","57","1023388","0.0-17.0-2.13","dc901693-8b5c-4361-b621-ae6a49ce235d","null","<p style=""text-align: center;"">+</p>","null","fixation","","","","","","","","","","","","","","","","","","","","","","",""
"","","","","","html-slider-response","58","1024394","0.0-17.0-0.14","dc901693-8b5c-4361-b621-ae6a49ce235d","1000","
                  <p style=""text-align: center;"">₪58
                                                <br>45%</p>
                  <p id=""wtp"" style=""text-align:center; margin-top: 0px; margin-bottom: 0px; font-size: 40px"";>&ensp;</p>","-","viewing","0","21","11C,18C,25A","","","","","","","","","","","","","","","","","","","",""
"","","","","","html-slider-response","59","1026088","0.0-17.0-1.14","dc901693-8b5c-4361-b621-ae6a49ce235d","1694","
                  <p style=""text-align: center;"">₪58
                                                <br>45%</p>
                  <p id=""wtp"" style=""text-align:center; margin-top: 0px; margin-bottom: 0px; font-size: 40px"";>מוכנים לשלם: <span id=""c_p_y""></span></p>","20","evaluation","43","21","11C,18C,25A","45","58","20","","","","","","","","","","","","","","","","",""
"","","","","","html-keyboard-response","60","1027548","0.0-17.0-2.14","dc901693-8b5c-4361-b621-ae6a49ce235d","null","<p style=""text-align: center;"">+</p>","null","fixation","","","","","","","","","","","","","","","","","","","","","","",""
"","","","","","html-slider-response","61","1028560","0.0-17.0-0.15","dc901693-8b5c-4361-b621-ae6a49ce235d","1000","
                  <p style=""text-align: center;"">₪64
                                                <br>25%</p>
                  <p id=""wtp"" style=""text-align:center; margin-top: 0px; margin-bottom: 0px; font-size: 40px"";>&ensp;</p>","-","viewing","0","24","6A,21A","","","","","","","","","","","","","","","","","","","",""
"","","","","","html-slider-response","62","1029977","0.0-17.0-1.15","dc901693-8b5c-4361-b621-ae6a49ce235d","1416","
                  <p style=""text-align: center;"">₪64
                                                <br>25%</p>
                  <p id=""wtp"" style=""text-align:center; margin-top: 0px; margin-bottom: 0px; font-size: 40px"";>מוכנים לשלם: <span id=""c_p_y""></span></p>","20","evaluation","56","24","6A,21A","25","64","20","","","","","","","","","","","","","","","","",""
"","","","","","html-keyboard-response","63","1030623","0.0-17.0-2.15","dc901693-8b5c-4361-b621-ae6a49ce235d","null","<p style=""text-align: center;"">+</p>","null","fixation","","","","","","","","","","","","","","","","","","","","","","",""
"","","","","","html-slider-response","64","1031634","0.0-17.0-0.16","dc901693-8b5c-4361-b621-ae6a49ce235d","1000","
                  <p style=""text-align: center;"">₪4
                                                <br>25%</p>
                  <p id=""wtp"" style=""text-align:center; margin-top: 0px; margin-bottom: 0px; font-size: 40px"";>&ensp;</p>","-","viewing","0","1","6C,29B,30C","","","","","","","","","","","","","","","","","","","",""
"","","","","","html-slider-response","65","1033728","0.0-17.0-1.16","dc901693-8b5c-4361-b621-ae6a49ce235d","2093","
                  <p style=""text-align: center;"">₪4
                                                <br>25%</p>
                  <p id=""wtp"" style=""text-align:center; margin-top: 0px; margin-bottom: 0px; font-size: 40px"";>מוכנים לשלם: <span id=""c_p_y""></span></p>","3","evaluation","50","1","6C,29B,30C","25","4","4","","","","","","","","","","","","","","","","",""
"","","","","","html-keyboard-response","66","1034616","0.0-17.0-2.16","dc901693-8b5c-4361-b621-ae6a49ce235d","null","<p style=""text-align: center;"">+</p>","null","fixation","","","","","","","","","","","","","","","","","","","","","","",""
"","","","","","html-slider-response","67","1035622","0.0-17.0-0.17","dc901693-8b5c-4361-b621-ae6a49ce235d","1000","
                  <p style=""text-align: center;"">₪71
                                                <br>75%</p>
                  <p id=""wtp"" style=""text-align:center; margin-top: 0px; margin-bottom: 0px; font-size: 40px"";>&ensp;</p>","-","viewing","0","28","8B","","","","","","","","","","","","","","","","","","","",""
"","","","","","html-slider-response","68","1037536","0.0-17.0-1.17","dc901693-8b5c-4361-b621-ae6a49ce235d","1913","
                  <p style=""text-align: center;"">₪71
                                                <br>75%</p>
                  <p id=""wtp"" style=""text-align:center; margin-top: 0px; margin-bottom: 0px; font-size: 40px"";>מוכנים לשלם: <span id=""c_p_y""></span></p>","41","evaluation","47","28","8B","75","71","41","","","","","","","","","","","","","","","","",""
"","","","","","html-keyboard-response","69","1038745","0.0-17.0-2.17","dc901693-8b5c-4361-b621-ae6a49ce235d","null","<p style=""text-align: center;"">+</p>","null","fixation","","","","","","","","","","","","","","","","","","","","","","",""
"","","","","","html-slider-response","70","1039758","0.0-17.0-0.18","dc901693-8b5c-4361-b621-ae6a49ce235d","1000","
                  <p style=""text-align: center;"">₪71
                                                <br>45%</p>
                  <p id=""wtp"" style=""text-align:center; margin-top: 0px; margin-bottom: 0px; font-size: 40px"";>&ensp;</p>","-","viewing","0","26","2B,16A","","","","","","","","","","","","","","","","","","","",""
"","","","","","html-slider-response","71","1041744","0.0-17.0-1.18","dc901693-8b5c-4361-b621-ae6a49ce235d","1985","
                  <p style=""text-align: center;"">₪71
                                                <br>45%</p>
                  <p id=""wtp"" style=""text-align:center; margin-top: 0px; margin-bottom: 0px; font-size: 40px"";>מוכנים לשלם: <span id=""c_p_y""></span></p>","23","evaluation","16","26","2B,16A","45","71","23","","","","","","","","","","","","","","","","",""
"","","","","","html-keyboard-response","72","1042513","0.0-17.0-2.18","dc901693-8b5c-4361-b621-ae6a49ce235d","null","<p style=""text-align: center;"">+</p>","null","fixation","","","","","","","","","","","","","","","","","","","","","","",""
"","","","","","html-slider-response","73","1043528","0.0-17.0-0.19","dc901693-8b5c-4361-b621-ae6a49ce235d","1000","
                  <p style=""text-align: center;"">₪43
                                                <br>60%</p>
                  <p id=""wtp"" style=""text-align:center; margin-top: 0px; margin-bottom: 0px; font-size: 40px"";>&ensp;</p>","-","viewing","0","17","2A,7A,9A,15B","","","","","","","","","","","","","","","","","","","",""
"","","","","","html-slider-response","74","1044440","0.0-17.0-1.19","dc901693-8b5c-4361-b621-ae6a49ce235d","911","
                  <p style=""text-align: center;"">₪43
                                                <br>60%</p>
                  <p id=""wtp"" style=""text-align:center; margin-top: 0px; margin-bottom: 0px; font-size: 40px"";>מוכנים לשלם: <span id=""c_p_y""></span></p>","19","evaluation","72","17","2A,7A,9A,15B","60","43","19","","","","","","","","","","","","","","","","",""
"","","","","","html-keyboard-response","75","1045540","0.0-17.0-2.19","dc901693-8b5c-4361-b621-ae6a49ce235d","null","<p style=""text-align: center;"">+</p>","null","fixation","","","","","","","","","","","","","","","","","","","","","","",""
"","","","","","html-slider-response","76","1046549","0.0-17.0-0.20","dc901693-8b5c-4361-b621-ae6a49ce235d","1000","
                  <p style=""text-align: center;"">₪11
                                                <br>45%</p>
                  <p id=""wtp"" style=""text-align:center; margin-top: 0px; margin-bottom: 0px; font-size: 40px"";>&ensp;</p>","-","viewing","0","6","14B,21C,25C","","","","","","","","","","","","","","","","","","","",""
"","","","","","html-slider-response","77","1047864","0.0-17.0-1.20","dc901693-8b5c-4361-b621-ae6a49ce235d","1313","
                  <p style=""text-align: center;"">₪11
                                                <br>45%</p>
                  <p id=""wtp"" style=""text-align:center; margin-top: 0px; margin-bottom: 0px; font-size: 40px"";>מוכנים לשלם: <span id=""c_p_y""></span></p>","4","evaluation","27","6","14B,21C,25C","45","11","4","","","","","","","","","","","","","","","","",""
"","","","","","html-keyboard-response","78","1048819","0.0-17.0-2.20","dc901693-8b5c-4361-b621-ae6a49ce235d","null","<p style=""text-align: center;"">+</p>","null","fixation","","","","","","","","","","","","","","","","","","","","","","",""
"","","","","","html-slider-response","79","1049821","0.0-17.0-0.21","dc901693-8b5c-4361-b621-ae6a49ce235d","1000","
                  <p style=""text-align: center;"">₪4
                                                <br>75%</p>
                  <p id=""wtp"" style=""text-align:center; margin-top: 0px; margin-bottom: 0px; font-size: 40px"";>&ensp;</p>","-","viewing","0","3","12B,20B,23B,27C,29C","","","","","","","","","","","","","","","","","","","",""
"","","","","","html-slider-response","80","1051712","0.0-17.0-1.21","dc901693-8b5c-4361-b621-ae6a49ce235d","1891","
                  <p style=""text-align: center;"">₪4
                                                <br>75%</p>
                  <p id=""wtp"" style=""text-align:center; margin-top: 0px; margin-bottom: 0px; font-size: 40px"";>מוכנים לשלם: <span id=""c_p_y""></span></p>","19","evaluation","67","3","12B,20B,23B,27C,29C","75","4","19","","","","","","","","","","","","","","","","",""
"","","","","","html-keyboard-response","81","1052621","0.0-17.0-2.21","dc901693-8b5c-4361-b621-ae6a49ce235d","null","<p style=""text-align: center;"">+</p>","null","fixation","","","","","","","","","","","","","","","","","","","","","","",""
"","","","","","html-slider-response","82","1053636","0.0-17.0-0.22","dc901693-8b5c-4361-b621-ae6a49ce235d","1000","
                  <p style=""text-align: center;"">₪58
                                                <br>40%</p>
                  <p id=""wtp"" style=""text-align:center; margin-top: 0px; margin-bottom: 0px; font-size: 40px"";>&ensp;</p>","-","viewing","0","20","10C,13A,19C,21B","","","","","","","","","","","","","","","","","","","",""
"","","","","","html-slider-response","83","1055752","0.0-17.0-1.22","dc901693-8b5c-4361-b621-ae6a49ce235d","2115","
                  <p style=""text-align: center;"">₪58
                                                <br>40%</p>
                  <p id=""wtp"" style=""text-align:center; margin-top: 0px; margin-bottom: 0px; font-size: 40px"";>מוכנים לשלם: <span id=""c_p_y""></span></p>","20","evaluation","67","20","10C,13A,19C,21B","40","58","20","","","","","","","","","","","","","","","","",""
"","","","","","html-keyboard-response","84","1056915","0.0-17.0-2.22","dc901693-8b5c-4361-b621-ae6a49ce235d","null","<p style=""text-align: center;"">+</p>","null","fixation","","","","","","","","","","","","","","","","","","","","","","",""
"","","","","","html-slider-response","85","1057926","0.0-17.0-0.23","dc901693-8b5c-4361-b621-ae6a49ce235d","1000","
                  <p style=""text-align: center;"">₪18
                                                <br>50%</p>
                  <p id=""wtp"" style=""text-align:center; margin-top: 0px; margin-bottom: 0px; font-size: 40px"";>&ensp;</p>","-","viewing","0","10","2C,16C,22B,28A","","","","","","","","","","","","","","","","","","","",""
"","","","","","html-slider-response","86","1059992","0.0-17.0-1.23","dc901693-8b5c-4361-b621-ae6a49ce235d","2065","
                  <p style=""text-align: center;"">₪18
                                                <br>50%</p>
                  <p id=""wtp"" style=""text-align:center; margin-top: 0px; margin-bottom: 0px; font-size: 40px"";>מוכנים לשלם: <span id=""c_p_y""></span></p>","32","evaluation","72","10","2C,16C,22B,28A","50","18","32","","","","","","","","","","","","","","","","",""
"","","","","","html-keyboard-response","87","1061171","0.0-17.0-2.23","dc901693-8b5c-4361-b621-ae6a49ce235d","null","<p style=""text-align: center;"">+</p>","null","fixation","","","","","","","","","","","","","","","","","","","","","","",""
"","","","","","html-slider-response","88","1062180","0.0-17.0-0.24","dc901693-8b5c-4361-b621-ae6a49ce235d","1000","
                  <p style=""text-align: center;"">₪64
                                                <br>50%</p>
                  <p id=""wtp"" style=""text-align:center; margin-top: 0px; margin-bottom: 0px; font-size: 40px"";>&ensp;</p>","-","viewing","0","25","1B,3B,4A","","","","","","","","","","","","","","","","","","","",""
"","","","","","html-slider-response","89","1063560","0.0-17.0-1.24","dc901693-8b5c-4361-b621-ae6a49ce235d","1380","
                  <p style=""text-align: center;"">₪64
                                                <br>50%</p>
                  <p id=""wtp"" style=""text-align:center; margin-top: 0px; margin-bottom: 0px; font-size: 40px"";>מוכנים לשלם: <span id=""c_p_y""></span></p>","8","evaluation","47","25","1B,3B,4A","50","64","8","","","","","","","","","","","","","","","","",""
"","","","","","html-keyboard-response","90","1064802","0.0-17.0-2.24","dc901693-8b5c-4361-b621-ae6a49ce235d","null","<p style=""text-align: center;"">+</p>","null","fixation","","","","","","","","","","","","","","","","","","","","","","",""
"","","","","","html-slider-response","91","1065817","0.0-17.0-0.25","dc901693-8b5c-4361-b621-ae6a49ce235d","1000","
                  <p style=""text-align: center;"">₪36
                                                <br>30%</p>
                  <p id=""wtp"" style=""text-align:center; margin-top: 0px; margin-bottom: 0px; font-size: 40px"";>&ensp;</p>","-","viewing","0","11","3C,20A,22A","","","","","","","","","","","","","","","","","","","",""
"","","","","","html-slider-response","92","1066880","0.0-17.0-1.25","dc901693-8b5c-4361-b621-ae6a49ce235d","1063","
                  <p style=""text-align: center;"">₪36
                                                <br>30%</p>
                  <p id=""wtp"" style=""text-align:center; margin-top: 0px; margin-bottom: 0px; font-size: 40px"";>מוכנים לשלם: <span id=""c_p_y""></span></p>","12","evaluation","50","11","3C,20A,22A","30","36","12","","","","","","","","","","","","","","","","",""
"","","","","","html-keyboard-response","93","1068114","0.0-17.0-2.25","dc901693-8b5c-4361-b621-ae6a49ce235d","null","<p style=""text-align: center;"">+</p>","null","fixation","","","","","","","","","","","","","","","","","","","","","","",""
"","","","","","html-slider-response","94","1069121","0.0-17.0-0.26","dc901693-8b5c-4361-b621-ae6a49ce235d","1000","
                  <p style=""text-align: center;"">₪79
                                                <br>40%</p>
                  <p id=""wtp"" style=""text-align:center; margin-top: 0px; margin-bottom: 0px; font-size: 40px"";>&ensp;</p>","-","viewing","0","30","9B","","","","","","","","","","","","","","","","","","","",""
"","","","","","html-slider-response","95","1070472","0.0-17.0-1.26","dc901693-8b5c-4361-b621-ae6a49ce235d","1350","
                  <p style=""text-align: center;"">₪79
                                                <br>40%</p>
                  <p id=""wtp"" style=""text-align:center; margin-top: 0px; margin-bottom: 0px; font-size: 40px"";>מוכנים לשלם: <span id=""c_p_y""></span></p>","20","evaluation","50","30","9B","40","79","20","","","","","","","","","","","","","","","","",""
"","","","","","html-keyboard-response","96","1071927","0.0-17.0-2.26","dc901693-8b5c-4361-b621-ae6a49ce235d","null","<p style=""text-align: center;"">+</p>","null","fixation","","","","","","","","","","","","","","","","","","","","","","",""
"","","","","","html-slider-response","97","1072941","0.0-17.0-0.27","dc901693-8b5c-4361-b621-ae6a49ce235d","1000","
                  <p style=""text-align: center;"">₪76
                                                <br>65%</p>
                  <p id=""wtp"" style=""text-align:center; margin-top: 0px; margin-bottom: 0px; font-size: 40px"";>&ensp;</p>","-","viewing","0","29","8C,19A,24B","","","","","","","","","","","","","","","","","","","",""
"","","","","","html-slider-response","98","1074728","0.0-17.0-1.27","dc901693-8b5c-4361-b621-ae6a49ce235d","1787","
                  <p style=""text-align: center;"">₪76
                                                <br>65%</p>
                  <p id=""wtp"" style=""text-align:center; margin-top: 0px; margin-bottom: 0px; font-size: 40px"";>מוכנים לשלם: <span id=""c_p_y""></span></p>","40","evaluation","17","29","8C,19A,24B","65","76","40","","","","","","","","","","","","","","","","",""
"","","","","","html-keyboard-response","99","1075265","0.0-17.0-2.27","dc901693-8b5c-4361-b621-ae6a49ce235d","null","<p style=""text-align: center;"">+</p>","null","fixation","","","","","","","","","","","","","","","","","","","","","","",""
"","","","","","html-slider-response","100","1076277","0.0-17.0-0.28","dc901693-8b5c-4361-b621-ae6a49ce235d","1000","
                  <p style=""text-align: center;"">₪18
                                                <br>25%</p>
                  <p id=""wtp"" style=""text-align:center; margin-top: 0px; margin-bottom: 0px; font-size: 40px"";>&ensp;</p>","-","viewing","0","9","14A,23A","","","","","","","","","","","","","","","","","","","",""
"","","","","","html-slider-response","101","1078120","0.0-17.0-1.28","dc901693-8b5c-4361-b621-ae6a49ce235d","1842","
                  <p style=""text-align: center;"">₪18
                                                <br>25%</p>
                  <p id=""wtp"" style=""text-align:center; margin-top: 0px; margin-bottom: 0px; font-size: 40px"";>מוכנים לשלם: <span id=""c_p_y""></span></p>","0","evaluation","1","9","14A,23A","25","18","1","","","","","","","","","","","","","","","","",""
"","","","","","html-keyboard-response","102","1078683","0.0-17.0-2.28","dc901693-8b5c-4361-b621-ae6a49ce235d","null","<p style=""text-align: center;"">+</p>","null","fixation","","","","","","","","","","","","","","","","","","","","","","",""
"","","","","","html-slider-response","103","1079696","0.0-17.0-0.29","dc901693-8b5c-4361-b621-ae6a49ce235d","1000","
                  <p style=""text-align: center;"">₪71
                                                <br>55%</p>
                  <p id=""wtp"" style=""text-align:center; margin-top: 0px; margin-bottom: 0px; font-size: 40px"";>&ensp;</p>","-","viewing","0","27","5B,18A","","","","","","","","","","","","","","","","","","","",""
"","","","","","html-slider-response","104","1081760","0.0-17.0-1.29","dc901693-8b5c-4361-b621-ae6a49ce235d","2063","
                  <p style=""text-align: center;"">₪71
                                                <br>55%</p>
                  <p id=""wtp"" style=""text-align:center; margin-top: 0px; margin-bottom: 0px; font-size: 40px"";>מוכנים לשלם: <span id=""c_p_y""></span></p>","40","evaluation","52","27","5B,18A","55","71","40","","","","","","","","","","","","","","","","",""
"","","","","","html-keyboard-response","105","1082892","0.0-17.0-2.29","dc901693-8b5c-4361-b621-ae6a49ce235d","null","<p style=""text-align: center;"">+</p>","null","fixation","","","","","","","","","","","","","","","","","","","","","","",""
"","","","","","html-slider-response","106","1083894","0.0-17.0-0.30","dc901693-8b5c-4361-b621-ae6a49ce235d","1000","
                  <p style=""text-align: center;"">₪39
                                                <br>60%</p>
                  <p id=""wtp"" style=""text-align:center; margin-top: 0px; margin-bottom: 0px; font-size: 40px"";>&ensp;</p>","-","viewing","0","15","9C,25B","","","","","","","","","","","","","","","","","","","",""
"","","","","","html-slider-response","107","1085403","0.0-17.0-1.30","dc901693-8b5c-4361-b621-ae6a49ce235d","1508","
                  <p style=""text-align: center;"">₪39
                                                <br>60%</p>
                  <p id=""wtp"" style=""text-align:center; margin-top: 0px; margin-bottom: 0px; font-size: 40px"";>מוכנים לשלם: <span id=""c_p_y""></span></p>","20","evaluation","58","15","9C,25B","60","39","21","","","","","","","","","","","","","","","","",""
"","","","","","html-keyboard-response","108","1086204","0.0-17.0-2.30","dc901693-8b5c-4361-b621-ae6a49ce235d","null","<p style=""text-align: center;"">+</p>","null","fixation","","","","","","","","","","","","","","","","","","","","","","",""
"","","","","","html-keyboard-response","109","1087216","0.0-18.0","dc901693-8b5c-4361-b621-ae6a49ce235d","null","<p style=""text-align: center;"">+</p>","null","fixation","","","","","","","","","","","","","","","","","","","","","","",""
"","","","","","html-keyboard-response","110","1088427","0.0-19.0","dc901693-8b5c-4361-b621-ae6a49ce235d","null","<p>הפסקה.
          <br>לחצו כדי להמשיך.</p>","1","scan_wait","","","","","","","","","","","","","","","","","","","","","","",""
"","","","","","html-keyboard-response","111","1089435","0.0-20.0","dc901693-8b5c-4361-b621-ae6a49ce235d","null","<p style=""text-align: center;"">+</p>","null","fixation","","","","","","","","","","","","","","","","","","","","","","",""
"","","","","","html-slider-response","112","1090451","0.0-21.0-0.0","dc901693-8b5c-4361-b621-ae6a49ce235d","1000","
                  <p style=""text-align: center;"">₪11
                                                <br>75%</p>
                  <p id=""wtp"" style=""text-align:center; margin-top: 0px; margin-bottom: 0px; font-size: 40px"";>&ensp;</p>","-","viewing","0","7","6B,18B,22C,24C,29A","","","","","","","","","","","","","","","","","","","",""
"","","","","","html-slider-response","113","1093547","0.0-21.0-1.0","dc901693-8b5c-4361-b621-ae6a49ce235d","3096","
                  <p style=""text-align: center;"">₪11
                                                <br>75%</p>
                  <p id=""wtp"" style=""text-align:center; margin-top: 0px; margin-bottom: 0px; font-size: 40px"";>מוכנים לשלם: <span id=""c_p_y""></span></p>","40","evaluation","11","7","6B,18B,22C,24C,29A","75","11","40","","","","","","","","","","","","","","","","",""
"","","","","","html-keyboard-response","114","1094997","0.0-21.0-2.0","dc901693-8b5c-4361-b621-ae6a49ce235d","null","<p style=""text-align: center;"">+</p>","null","fixation","","","","","","","","","","","","","","","","","","","","","","",""
"","","","","","html-slider-response","115","1096009","0.0-21.0-0.1","dc901693-8b5c-4361-b621-ae6a49ce235d","1000","
                  <p style=""text-align: center;"">₪43
                                                <br>75%</p>
                  <p id=""wtp"" style=""text-align:center; margin-top: 0px; margin-bottom: 0px; font-size: 40px"";>&ensp;</p>","-","viewing","0","18","11B,19B,24A,26A","","","","","","","","","","","","","","","","","","","",""
"","","","","","html-slider-response","116","1097267","0.0-21.0-1.1","dc901693-8b5c-4361-b621-ae6a49ce235d","1258","
                  <p style=""text-align: center;"">₪43
                                                <br>75%</p>
                  <p id=""wtp"" style=""text-align:center; margin-top: 0px; margin-bottom: 0px; font-size: 40px"";>מוכנים לשלם: <span id=""c_p_y""></span></p>","40","evaluation","49","18","11B,19B,24A,26A","75","43","40","","","","","","","","","","","","","","","","",""
"","","","","","html-keyboard-response","117","1098172","0.0-21.0-2.1","dc901693-8b5c-4361-b621-ae6a49ce235d","null","<p style=""text-align: center;"">+</p>","null","fixation","","","","","","","","","","","","","","","","","","","","","","",""
"","","","","","html-slider-response","118","1099176","0.0-21.0-0.2","dc901693-8b5c-4361-b621-ae6a49ce235d","1000","
                  <p style=""text-align: center;"">₪4
                                                <br>25%</p>
                  <p id=""wtp"" style=""text-align:center; margin-top: 0px; margin-bottom: 0px; font-size: 40px"";>&ensp;</p>","-","viewing","0","1","6C,29B,30C","","","","","","","","","","","","","","","","","","","",""
"","","","","","html-slider-response","119","1100763","0.0-21.0-1.2","dc901693-8b5c-4361-b621-ae6a49ce235d","1586","
                  <p style=""text-align: center;"">₪4
                                                <br>25%</p>
                  <p id=""wtp"" style=""text-align:center; margin-top: 0px; margin-bottom: 0px; font-size: 40px"";>מוכנים לשלם: <span id=""c_p_y""></span></p>","3","evaluation","66","1","6C,29B,30C","25","4","4","","","","","","","","","","","","","","","","",""
"","","","","","html-keyboard-response","120","1101697","0.0-21.0-2.2","dc901693-8b5c-4361-b621-ae6a49ce235d","null","<p style=""text-align: center;"">+</p>","null","fixation","","","","","","","","","","","","","","","","","","","","","","",""
"","","","","","html-slider-response","121","1102699","0.0-21.0-0.3","dc901693-8b5c-4361-b621-ae6a49ce235d","1000","
                  <p style=""text-align: center;"">₪61
                                                <br>55%</p>
                  <p id=""wtp"" style=""text-align:center; margin-top: 0px; margin-bottom: 0px; font-size: 40px"";>&ensp;</p>","-","viewing","0","23","7B,26B","","","","","","","","","","","","","","","","","","","",""
"","","","","","html-slider-response","122","1104139","0.0-21.0-1.3","dc901693-8b5c-4361-b621-ae6a49ce235d","1439","
                  <p style=""text-align: center;"">₪61
                                                <br>55%</p>
                  <p id=""wtp"" style=""text-align:center; margin-top: 0px; margin-bottom: 0px; font-size: 40px"";>מוכנים לשלם: <span id=""c_p_y""></span></p>","19","evaluation","45","23","7B,26B","55","61","19","","","","","","","","","","","","","","","","",""
"","","","","","html-keyboard-response","123","1105028","0.0-21.0-2.3","dc901693-8b5c-4361-b621-ae6a49ce235d","null","<p style=""text-align: center;"">+</p>","null","fixation","","","","","","","","","","","","","","","","","","","","","","",""
"","","","","","html-slider-response","124","1106037","0.0-21.0-0.4","dc901693-8b5c-4361-b621-ae6a49ce235d","1000","
                  <p style=""text-align: center;"">₪61
                                                <br>45%</p>
                  <p id=""wtp"" style=""text-align:center; margin-top: 0px; margin-bottom: 0px; font-size: 40px"";>&ensp;</p>","-","viewing","0","22","10A,11A","","","","","","","","","","","","","","","","","","","",""
"","","","","","html-slider-response","125","1108675","0.0-21.0-1.4","dc901693-8b5c-4361-b621-ae6a49ce235d","2637","
                  <p style=""text-align: center;"">₪61
                                                <br>45%</p>
                  <p id=""wtp"" style=""text-align:center; margin-top: 0px; margin-bottom: 0px; font-size: 40px"";>מוכנים לשלם: <span id=""c_p_y""></span></p>","38","evaluation","41","22","10A,11A","45","61","38","","","","","","","","","","","","","","","","",""
"","","","","","html-keyboard-response","126","1109706","0.0-21.0-2.4","dc901693-8b5c-4361-b621-ae6a49ce235d","null","<p style=""text-align: center;"">+</p>","null","fixation","","","","","","","","","","","","","","","","","","","","","","",""
"","","","","","html-slider-response","127","1110708","0.0-21.0-0.5","dc901693-8b5c-4361-b621-ae6a49ce235d","1000","
                  <p style=""text-align: center;"">₪79
                                                <br>65%</p>
                  <p id=""wtp"" style=""text-align:center; margin-top: 0px; margin-bottom: 0px; font-size: 40px"";>&ensp;</p>","-","viewing","0","31","8A","","","","","","","","","","","","","","","","","","","",""
"","","","","","html-slider-response","128","1113467","0.0-21.0-1.5","dc901693-8b5c-4361-b621-ae6a49ce235d","2758","
                  <p style=""text-align: center;"">₪79
                                                <br>65%</p>
                  <p id=""wtp"" style=""text-align:center; margin-top: 0px; margin-bottom: 0px; font-size: 40px"";>מוכנים לשלם: <span id=""c_p_y""></span></p>","21","evaluation","35","31","8A","65","79","21","","","","","","","","","","","","","","","","",""
"","","","","","html-keyboard-response","129","1114019","0.0-21.0-2.5","dc901693-8b5c-4361-b621-ae6a49ce235d","null","<p style=""text-align: center;"">+</p>","null","fixation","","","","","","","","","","","","","","","","","","","","","","",""
"","","","","","html-slider-response","130","1115027","0.0-21.0-0.6","dc901693-8b5c-4361-b621-ae6a49ce235d","1000","
                  <p style=""text-align: center;"">₪11
                                                <br>25%</p>
                  <p id=""wtp"" style=""text-align:center; margin-top: 0px; margin-bottom: 0px; font-size: 40px"";>&ensp;</p>","-","viewing","0","5","12A,27B,28B,30B","","","","","","","","","","","","","","","","","","","",""
"","","","","","html-slider-response","131","1117283","0.0-21.0-1.6","dc901693-8b5c-4361-b621-ae6a49ce235d","2255","
                  <p style=""text-align: center;"">₪11
                                                <br>25%</p>
                  <p id=""wtp"" style=""text-align:center; margin-top: 0px; margin-bottom: 0px; font-size: 40px"";>מוכנים לשלם: <span id=""c_p_y""></span></p>","8","evaluation","11","5","12A,27B,28B,30B","25","11","8","","","","","","","","","","","","","","","","",""
"","","","","","html-keyboard-response","132","1118031","0.0-21.0-2.6","dc901693-8b5c-4361-b621-ae6a49ce235d","null","<p style=""text-align: center;"">+</p>","null","fixation","","","","","","","","","","","","","","","","","","","","","","",""
"","","","","","html-slider-response","133","1119044","0.0-21.0-0.7","dc901693-8b5c-4361-b621-ae6a49ce235d","1000","
                  <p style=""text-align: center;"">₪71
                                                <br>45%</p>
                  <p id=""wtp"" style=""text-align:center; margin-top: 0px; margin-bottom: 0px; font-size: 40px"";>&ensp;</p>","-","viewing","0","26","2B,16A","","","","","","","","","","","","","","","","","","","",""
"","","","","","html-slider-response","134","1121611","0.0-21.0-1.7","dc901693-8b5c-4361-b621-ae6a49ce235d","2566","
                  <p style=""text-align: center;"">₪71
                                                <br>45%</p>
                  <p id=""wtp"" style=""text-align:center; margin-top: 0px; margin-bottom: 0px; font-size: 40px"";>מוכנים לשלם: <span id=""c_p_y""></span></p>","20","evaluation","55","26","2B,16A","45","71","20","","","","","","","","","","","","","","","","",""
"","","","","","html-keyboard-response","135","1123119","0.0-21.0-2.7","dc901693-8b5c-4361-b621-ae6a49ce235d","null","<p style=""text-align: center;"">+</p>","null","fixation","","","","","","","","","","","","","","","","","","","","","","",""
"","","","","","html-slider-response","136","1124133","0.0-21.0-0.8","dc901693-8b5c-4361-b621-ae6a49ce235d","1000","
                  <p style=""text-align: center;"">₪36
                                                <br>70%</p>
                  <p id=""wtp"" style=""text-align:center; margin-top: 0px; margin-bottom: 0px; font-size: 40px"";>&ensp;</p>","-","viewing","0","13","3A,5C,10B","","","","","","","","","","","","","","","","","","","",""
"","","","","","html-slider-response","137","1124931","0.0-21.0-1.8","dc901693-8b5c-4361-b621-ae6a49ce235d","798","
                  <p style=""text-align: center;"">₪36
                                                <br>70%</p>
                  <p id=""wtp"" style=""text-align:center; margin-top: 0px; margin-bottom: 0px; font-size: 40px"";>מוכנים לשלם: <span id=""c_p_y""></span></p>","20","evaluation","37","13","3A,5C,10B","70","36","20","","","","","","","","","","","","","","","","",""
"","","","","","html-keyboard-response","138","1125518","0.0-21.0-2.8","dc901693-8b5c-4361-b621-ae6a49ce235d","null","<p style=""text-align: center;"">+</p>","null","fixation","","","","","","","","","","","","","","","","","","","","","","",""
"","","","","","html-slider-response","139","1126523","0.0-21.0-0.9","dc901693-8b5c-4361-b621-ae6a49ce235d","1000","
                  <p style=""text-align: center;"">₪18
                                                <br>25%</p>
                  <p id=""wtp"" style=""text-align:center; margin-top: 0px; margin-bottom: 0px; font-size: 40px"";>&ensp;</p>","-","viewing","0","9","14A,23A","","","","","","","","","","","","","","","","","","","",""
"","","","","","html-slider-response","140","1127747","0.0-21.0-1.9","dc901693-8b5c-4361-b621-ae6a49ce235d","1223","
                  <p style=""text-align: center;"">₪18
                                                <br>25%</p>
                  <p id=""wtp"" style=""text-align:center; margin-top: 0px; margin-bottom: 0px; font-size: 40px"";>מוכנים לשלם: <span id=""c_p_y""></span></p>","8","evaluation","80","9","14A,23A","25","18","8","","","","","","","","","","","","","","","","",""
"","","","","","html-keyboard-response","141","1128948","0.0-21.0-2.9","dc901693-8b5c-4361-b621-ae6a49ce235d","null","<p style=""text-align: center;"">+</p>","null","fixation","","","","","","","","","","","","","","","","","","","","","","",""
"","","","","","html-slider-response","142","1129962","0.0-21.0-0.10","dc901693-8b5c-4361-b621-ae6a49ce235d","1000","
                  <p style=""text-align: center;"">₪58
                                                <br>40%</p>
                  <p id=""wtp"" style=""text-align:center; margin-top: 0px; margin-bottom: 0px; font-size: 40px"";>&ensp;</p>","-","viewing","0","20","10C,13A,19C,21B","","","","","","","","","","","","","","","","","","","",""
"","","","","","html-slider-response","143","1131507","0.0-21.0-1.10","dc901693-8b5c-4361-b621-ae6a49ce235d","1544","
                  <p style=""text-align: center;"">₪58
                                                <br>40%</p>
                  <p id=""wtp"" style=""text-align:center; margin-top: 0px; margin-bottom: 0px; font-size: 40px"";>מוכנים לשלם: <span id=""c_p_y""></span></p>","19","evaluation","66","20","10C,13A,19C,21B","40","58","19","","","","","","","","","","","","","","","","",""
"","","","","","html-keyboard-response","144","1132543","0.0-21.0-2.10","dc901693-8b5c-4361-b621-ae6a49ce235d","null","<p style=""text-align: center;"">+</p>","null","fixation","","","","","","","","","","","","","","","","","","","","","","",""
"","","","","","html-slider-response","145","1133547","0.0-21.0-0.11","dc901693-8b5c-4361-b621-ae6a49ce235d","1000","
                  <p style=""text-align: center;"">₪36
                                                <br>75%</p>
                  <p id=""wtp"" style=""text-align:center; margin-top: 0px; margin-bottom: 0px; font-size: 40px"";>&ensp;</p>","-","viewing","0","14","4B,5A,13B,16B","","","","","","","","","","","","","","","","","","","",""
"","","","","","html-slider-response","146","1134643","0.0-21.0-1.11","dc901693-8b5c-4361-b621-ae6a49ce235d","1095","
                  <p style=""text-align: center;"">₪36
                                                <br>75%</p>
                  <p id=""wtp"" style=""text-align:center; margin-top: 0px; margin-bottom: 0px; font-size: 40px"";>מוכנים לשלם: <span id=""c_p_y""></span></p>","6","evaluation","30","14","4B,5A,13B,16B","75","36","6","","","","","","","","","","","","","","","","",""
"","","","","","html-keyboard-response","147","1135665","0.0-21.0-2.11","dc901693-8b5c-4361-b621-ae6a49ce235d","null","<p style=""text-align: center;"">+</p>","null","fixation","","","","","","","","","","","","","","","","","","","","","","",""
"","","","","","html-slider-response","148","1136667","0.0-21.0-0.12","dc901693-8b5c-4361-b621-ae6a49ce235d","1000","
                  <p style=""text-align: center;"">₪4
                                                <br>50%</p>
                  <p id=""wtp"" style=""text-align:center; margin-top: 0px; margin-bottom: 0px; font-size: 40px"";>&ensp;</p>","-","viewing","0","2","4C,17B","","","","","","","","","","","","","","","","","","","",""
"","","","","","html-slider-response","149","1138379","0.0-21.0-1.12","dc901693-8b5c-4361-b621-ae6a49ce235d","1711","
                  <p style=""text-align: center;"">₪4
                                                <br>50%</p>
                  <p id=""wtp"" style=""text-align:center; margin-top: 0px; margin-bottom: 0px; font-size: 40px"";>מוכנים לשלם: <span id=""c_p_y""></span></p>","19","evaluation","41","2","4C,17B","50","4","19","","","","","","","","","","","","","","","","",""
"","","","","","html-keyboard-response","150","1139005","0.0-21.0-2.12","dc901693-8b5c-4361-b621-ae6a49ce235d","null","<p style=""text-align: center;"">+</p>","null","fixation","","","","","","","","","","","","","","","","","","","","","","",""
"","","","","","html-slider-response","151","1140015","0.0-21.0-0.13","dc901693-8b5c-4361-b621-ae6a49ce235d","1000","
                  <p style=""text-align: center;"">₪16
                                                <br>20%</p>
                  <p id=""wtp"" style=""text-align:center; margin-top: 0px; margin-bottom: 0px; font-size: 40px"";>&ensp;</p>","-","viewing","0","8","14C,17A,20C,27A","","","","","","","","","","","","","","","","","","","",""
"","","","","","html-slider-response","152","1141531","0.0-21.0-1.13","dc901693-8b5c-4361-b621-ae6a49ce235d","1515","
                  <p style=""text-align: center;"">₪16
                                                <br>20%</p>
                  <p id=""wtp"" style=""text-align:center; margin-top: 0px; margin-bottom: 0px; font-size: 40px"";>מוכנים לשלם: <span id=""c_p_y""></span></p>","6","evaluation","78","8","14C,17A,20C,27A","20","16","6","","","","","","","","","","","","","","","","",""
"","","","","","html-keyboard-response","153","1142267","0.0-21.0-2.13","dc901693-8b5c-4361-b621-ae6a49ce235d","null","<p style=""text-align: center;"">+</p>","null","fixation","","","","","","","","","","","","","","","","","","","","","","",""
"","","","","","html-slider-response","154","1143289","0.0-21.0-0.14","dc901693-8b5c-4361-b621-ae6a49ce235d","1000","
                  <p style=""text-align: center;"">₪39
                                                <br>60%</p>
                  <p id=""wtp"" style=""text-align:center; margin-top: 0px; margin-bottom: 0px; font-size: 40px"";>&ensp;</p>","-","viewing","0","15","9C,25B","","","","","","","","","","","","","","","","","","","",""
"","","","","","html-slider-response","155","1144582","0.0-21.0-1.14","dc901693-8b5c-4361-b621-ae6a49ce235d","1292","
                  <p style=""text-align: center;"">₪39
                                                <br>60%</p>
                  <p id=""wtp"" style=""text-align:center; margin-top: 0px; margin-bottom: 0px; font-size: 40px"";>מוכנים לשלם: <span id=""c_p_y""></span></p>","40","evaluation","22","15","9C,25B","60","39","40","","","","","","","","","","","","","","","","",""
"","","","","","html-keyboard-response","156","1145706","0.0-21.0-2.14","dc901693-8b5c-4361-b621-ae6a49ce235d","null","<p style=""text-align: center;"">+</p>","null","fixation","","","","","","","","","","","","","","","","","","","","","","",""
"","","","","","html-slider-response","157","1146720","0.0-21.0-0.15","dc901693-8b5c-4361-b621-ae6a49ce235d","1000","
                  <p style=""text-align: center;"">₪36
                                                <br>60%</p>
                  <p id=""wtp"" style=""text-align:center; margin-top: 0px; margin-bottom: 0px; font-size: 40px"";>&ensp;</p>","-","viewing","0","12","1C,7C,15C","","","","","","","","","","","","","","","","","","","",""
"","","","","","html-slider-response","158","1147591","0.0-21.0-1.15","dc901693-8b5c-4361-b621-ae6a49ce235d","869","
                  <p style=""text-align: center;"">₪36
                                                <br>60%</p>
                  <p id=""wtp"" style=""text-align:center; margin-top: 0px; margin-bottom: 0px; font-size: 40px"";>מוכנים לשלם: <span id=""c_p_y""></span></p>","39","evaluation","43","12","1C,7C,15C","60","36","39","","","","","","","","","","","","","","","","",""
"","","","","","html-keyboard-response","159","1148167","0.0-21.0-2.15","dc901693-8b5c-4361-b621-ae6a49ce235d","null","<p style=""text-align: center;"">+</p>","null","fixation","","","","","","","","","","","","","","","","","","","","","","",""
"","","","","","html-slider-response","160","1149170","0.0-21.0-0.16","dc901693-8b5c-4361-b621-ae6a49ce235d","1000","
                  <p style=""text-align: center;"">₪58
                                                <br>30%</p>
                  <p id=""wtp"" style=""text-align:center; margin-top: 0px; margin-bottom: 0px; font-size: 40px"";>&ensp;</p>","-","viewing","0","19","13C,30A","","","","","","","","","","","","","","","","","","","",""
"","","","","","html-slider-response","161","1150374","0.0-21.0-1.16","dc901693-8b5c-4361-b621-ae6a49ce235d","1203","
                  <p style=""text-align: center;"">₪58
                                                <br>30%</p>
                  <p id=""wtp"" style=""text-align:center; margin-top: 0px; margin-bottom: 0px; font-size: 40px"";>מוכנים לשלם: <span id=""c_p_y""></span></p>","21","evaluation","69","19","13C,30A","30","58","21","","","","","","","","","","","","","","","","",""
"","","","","","html-keyboard-response","162","1151087","0.0-21.0-2.16","dc901693-8b5c-4361-b621-ae6a49ce235d","null","<p style=""text-align: center;"">+</p>","null","fixation","","","","","","","","","","","","","","","","","","","","","","",""
"","","","","","html-slider-response","163","1152093","0.0-21.0-0.17","dc901693-8b5c-4361-b621-ae6a49ce235d","1000","
                  <p style=""text-align: center;"">₪11
                                                <br>20%</p>
                  <p id=""wtp"" style=""text-align:center; margin-top: 0px; margin-bottom: 0px; font-size: 40px"";>&ensp;</p>","-","viewing","0","4","12C,17C,23C,28C","","","","","","","","","","","","","","","","","","","",""
"","","","","","html-slider-response","164","1152758","0.0-21.0-1.17","dc901693-8b5c-4361-b621-ae6a49ce235d","664","
                  <p style=""text-align: center;"">₪11
                                                <br>20%</p>
                  <p id=""wtp"" style=""text-align:center; margin-top: 0px; margin-bottom: 0px; font-size: 40px"";>מוכנים לשלם: <span id=""c_p_y""></span></p>","13","evaluation","26","4","12C,17C,23C,28C","20","11","13","","","","","","","","","","","","","","","","",""
"","","","","","html-keyboard-response","165","1153655","0.0-21.0-2.17","dc901693-8b5c-4361-b621-ae6a49ce235d","null","<p style=""text-align: center;"">+</p>","null","fixation","","","","","","","","","","","","","","","","","","","","","","",""
"","","","","","html-slider-response","166","1154669","0.0-21.0-0.18","dc901693-8b5c-4361-b621-ae6a49ce235d","1000","
                  <p style=""text-align: center;"">₪79
                                                <br>40%</p>
                  <p id=""wtp"" style=""text-align:center; margin-top: 0px; margin-bottom: 0px; font-size: 40px"";>&ensp;</p>","-","viewing","0","30","9B","","","","","","","","","","","","","","","","","","","",""
"","","","","","html-slider-response","167","1156446","0.0-21.0-1.18","dc901693-8b5c-4361-b621-ae6a49ce235d","1776","
                  <p style=""text-align: center;"">₪79
                                                <br>40%</p>
                  <p id=""wtp"" style=""text-align:center; margin-top: 0px; margin-bottom: 0px; font-size: 40px"";>מוכנים לשלם: <span id=""c_p_y""></span></p>","20","evaluation","67","30","9B","40","79","20","","","","","","","","","","","","","","","","",""
"","","","","","html-keyboard-response","168","1157002","0.0-21.0-2.18","dc901693-8b5c-4361-b621-ae6a49ce235d","null","<p style=""text-align: center;"">+</p>","null","fixation","","","","","","","","","","","","","","","","","","","","","","",""
"","","","","","html-slider-response","169","1158015","0.0-21.0-0.19","dc901693-8b5c-4361-b621-ae6a49ce235d","1000","
                  <p style=""text-align: center;"">₪76
                                                <br>65%</p>
                  <p id=""wtp"" style=""text-align:center; margin-top: 0px; margin-bottom: 0px; font-size: 40px"";>&ensp;</p>","-","viewing","0","29","8C,19A,24B","","","","","","","","","","","","","","","","","","","",""
"","","","","","html-slider-response","170","1160447","0.0-21.0-1.19","dc901693-8b5c-4361-b621-ae6a49ce235d","2430","
                  <p style=""text-align: center;"">₪76
                                                <br>65%</p>
                  <p id=""wtp"" style=""text-align:center; margin-top: 0px; margin-bottom: 0px; font-size: 40px"";>מוכנים לשלם: <span id=""c_p_y""></span></p>","40","evaluation","24","29","8C,19A,24B","65","76","40","","","","","","","","","","","","","","","","",""
"","","","","","html-keyboard-response","171","1161107","0.0-21.0-2.19","dc901693-8b5c-4361-b621-ae6a49ce235d","null","<p style=""text-align: center;"">+</p>","null","fixation","","","","","","","","","","","","","","","","","","","","","","",""
"","","","","","html-slider-response","172","1162120","0.0-21.0-0.20","dc901693-8b5c-4361-b621-ae6a49ce235d","1000","
                  <p style=""text-align: center;"">₪58
                                                <br>45%</p>
                  <p id=""wtp"" style=""text-align:center; margin-top: 0px; margin-bottom: 0px; font-size: 40px"";>&ensp;</p>","-","viewing","0","21","11C,18C,25A","","","","","","","","","","","","","","","","","","","",""
"","","","","","html-slider-response","173","1164854","0.0-21.0-1.20","dc901693-8b5c-4361-b621-ae6a49ce235d","2734","
                  <p style=""text-align: center;"">₪58
                                                <br>45%</p>
                  <p id=""wtp"" style=""text-align:center; margin-top: 0px; margin-bottom: 0px; font-size: 40px"";>מוכנים לשלם: <span id=""c_p_y""></span></p>","46","evaluation","43","21","11C,18C,25A","45","58","46","","","","","","","","","","","","","","","","",""
"","","","","","html-keyboard-response","174","1165678","0.0-21.0-2.20","dc901693-8b5c-4361-b621-ae6a49ce235d","null","<p style=""text-align: center;"">+</p>","null","fixation","","","","","","","","","","","","","","","","","","","","","","",""
"","","","","","html-slider-response","175","1166684","0.0-21.0-0.21","dc901693-8b5c-4361-b621-ae6a49ce235d","1000","
                  <p style=""text-align: center;"">₪39
                                                <br>65%</p>
                  <p id=""wtp"" style=""text-align:center; margin-top: 0px; margin-bottom: 0px; font-size: 40px"";>&ensp;</p>","-","viewing","0","16","1A,15A,26C","","","","","","","","","","","","","","","","","","","",""
"","","","","","html-slider-response","176","1167646","0.0-21.0-1.21","dc901693-8b5c-4361-b621-ae6a49ce235d","961","
                  <p style=""text-align: center;"">₪39
                                                <br>65%</p>
                  <p id=""wtp"" style=""text-align:center; margin-top: 0px; margin-bottom: 0px; font-size: 40px"";>מוכנים לשלם: <span id=""c_p_y""></span></p>","50","evaluation","18","16","1A,15A,26C","65","39","50","","","","","","","","","","","","","","","","",""
"","","","","","html-keyboard-response","177","1168365","0.0-21.0-2.21","dc901693-8b5c-4361-b621-ae6a49ce235d","null","<p style=""text-align: center;"">+</p>","null","fixation","","","","","","","","","","","","","","","","","","","","","","",""
"","","","","","html-slider-response","178","1169376","0.0-21.0-0.22","dc901693-8b5c-4361-b621-ae6a49ce235d","1000","
                  <p style=""text-align: center;"">₪64
                                                <br>25%</p>
                  <p id=""wtp"" style=""text-align:center; margin-top: 0px; margin-bottom: 0px; font-size: 40px"";>&ensp;</p>","-","viewing","0","24","6A,21A","","","","","","","","","","","","","","","","","","","",""
"","","","","","html-slider-response","179","1170478","0.0-21.0-1.22","dc901693-8b5c-4361-b621-ae6a49ce235d","1101","
                  <p style=""text-align: center;"">₪64
                                                <br>25%</p>
                  <p id=""wtp"" style=""text-align:center; margin-top: 0px; margin-bottom: 0px; font-size: 40px"";>מוכנים לשלם: <span id=""c_p_y""></span></p>","6","evaluation","5","24","6A,21A","25","64","6","","","","","","","","","","","","","","","","",""
"","","","","","html-keyboard-response","180","1171259","0.0-21.0-2.22","dc901693-8b5c-4361-b621-ae6a49ce235d","null","<p style=""text-align: center;"">+</p>","null","fixation","","","","","","","","","","","","","","","","","","","","","","",""
"","","","","","html-slider-response","181","1172263","0.0-21.0-0.23","dc901693-8b5c-4361-b621-ae6a49ce235d","1000","
                  <p style=""text-align: center;"">₪36
                                                <br>30%</p>
                  <p id=""wtp"" style=""text-align:center; margin-top: 0px; margin-bottom: 0px; font-size: 40px"";>&ensp;</p>","-","viewing","0","11","3C,20A,22A","","","","","","","","","","","","","","","","","","","",""
"","","","","","html-slider-response","182","1173759","0.0-21.0-1.23","dc901693-8b5c-4361-b621-ae6a49ce235d","1495","
                  <p style=""text-align: center;"">₪36
                                                <br>30%</p>
                  <p id=""wtp"" style=""text-align:center; margin-top: 0px; margin-bottom: 0px; font-size: 40px"";>מוכנים לשלם: <span id=""c_p_y""></span></p>","19","evaluation","16","11","3C,20A,22A","30","36","20","","","","","","","","","","","","","","","","",""
"","","","","","html-keyboard-response","183","1174428","0.0-21.0-2.23","dc901693-8b5c-4361-b621-ae6a49ce235d","null","<p style=""text-align: center;"">+</p>","null","fixation","","","","","","","","","","","","","","","","","","","","","","",""
"","","","","","html-slider-response","184","1175430","0.0-21.0-0.24","dc901693-8b5c-4361-b621-ae6a49ce235d","1000","
                  <p style=""text-align: center;"">₪71
                                                <br>55%</p>
                  <p id=""wtp"" style=""text-align:center; margin-top: 0px; margin-bottom: 0px; font-size: 40px"";>&ensp;</p>","-","viewing","0","27","5B,18A","","","","","","","","","","","","","","","","","","","",""
"","","","","","html-slider-response","185","1176063","0.0-21.0-1.24","dc901693-8b5c-4361-b621-ae6a49ce235d","631","
                  <p style=""text-align: center;"">₪71
                                                <br>55%</p>
                  <p id=""wtp"" style=""text-align:center; margin-top: 0px; margin-bottom: 0px; font-size: 40px"";>מוכנים לשלם: <span id=""c_p_y""></span></p>","40","evaluation","25","27","5B,18A","55","71","40","","","","","","","","","","","","","","","","",""
"","","","","","html-keyboard-response","186","1176900","0.0-21.0-2.24","dc901693-8b5c-4361-b621-ae6a49ce235d","null","<p style=""text-align: center;"">+</p>","null","fixation","","","","","","","","","","","","","","","","","","","","","","",""
"","","","","","html-slider-response","187","1177903","0.0-21.0-0.25","dc901693-8b5c-4361-b621-ae6a49ce235d","1000","
                  <p style=""text-align: center;"">₪71
                                                <br>75%</p>
                  <p id=""wtp"" style=""text-align:center; margin-top: 0px; margin-bottom: 0px; font-size: 40px"";>&ensp;</p>","-","viewing","0","28","8B","","","","","","","","","","","","","","","","","","","",""
"","","","","","html-slider-response","188","1181175","0.0-21.0-1.25","dc901693-8b5c-4361-b621-ae6a49ce235d","3271","
                  <p style=""text-align: center;"">₪71
                                                <br>75%</p>
                  <p id=""wtp"" style=""text-align:center; margin-top: 0px; margin-bottom: 0px; font-size: 40px"";>מוכנים לשלם: <span id=""c_p_y""></span></p>","60","evaluation","13","28","8B","75","71","60","","","","","","","","","","","","","","","","",""
"","","","","","html-keyboard-response","189","1182486","0.0-21.0-2.25","dc901693-8b5c-4361-b621-ae6a49ce235d","null","<p style=""text-align: center;"">+</p>","null","fixation","","","","","","","","","","","","","","","","","","","","","","",""
"","","","","","html-slider-response","190","1183490","0.0-21.0-0.26","dc901693-8b5c-4361-b621-ae6a49ce235d","1000","
                  <p style=""text-align: center;"">₪43
                                                <br>60%</p>
                  <p id=""wtp"" style=""text-align:center; margin-top: 0px; margin-bottom: 0px; font-size: 40px"";>&ensp;</p>","-","viewing","0","17","2A,7A,9A,15B","","","","","","","","","","","","","","","","","","","",""
"","","","","","html-slider-response","191","1184975","0.0-21.0-1.26","dc901693-8b5c-4361-b621-ae6a49ce235d","1484","
                  <p style=""text-align: center;"">₪43
                                                <br>60%</p>
                  <p id=""wtp"" style=""text-align:center; margin-top: 0px; margin-bottom: 0px; font-size: 40px"";>מוכנים לשלם: <span id=""c_p_y""></span></p>","55","evaluation","19","17","2A,7A,9A,15B","60","43","55","","","","","","","","","","","","","","","","",""
"","","","","","html-keyboard-response","192","1185642","0.0-21.0-2.26","dc901693-8b5c-4361-b621-ae6a49ce235d","null","<p style=""text-align: center;"">+</p>","null","fixation","","","","","","","","","","","","","","","","","","","","","","",""
"","","","","","html-slider-response","193","1186644","0.0-21.0-0.27","dc901693-8b5c-4361-b621-ae6a49ce235d","1000","
                  <p style=""text-align: center;"">₪11
                                                <br>45%</p>
                  <p id=""wtp"" style=""text-align:center; margin-top: 0px; margin-bottom: 0px; font-size: 40px"";>&ensp;</p>","-","viewing","0","6","14B,21C,25C","","","","","","","","","","","","","","","","","","","",""
"","","","","","html-slider-response","194","1187526","0.0-21.0-1.27","dc901693-8b5c-4361-b621-ae6a49ce235d","881","
                  <p style=""text-align: center;"">₪11
                                                <br>45%</p>
                  <p id=""wtp"" style=""text-align:center; margin-top: 0px; margin-bottom: 0px; font-size: 40px"";>מוכנים לשלם: <span id=""c_p_y""></span></p>","40","evaluation","62","6","14B,21C,25C","45","11","40","","","","","","","","","","","","","","","","",""
"","","","","","html-keyboard-response","195","1188519","0.0-21.0-2.27","dc901693-8b5c-4361-b621-ae6a49ce235d","null","<p style=""text-align: center;"">+</p>","null","fixation","","","","","","","","","","","","","","","","","","","","","","",""
"","","","","","html-slider-response","196","1189525","0.0-21.0-0.28","dc901693-8b5c-4361-b621-ae6a49ce235d","1000","
                  <p style=""text-align: center;"">₪18
                                                <br>50%</p>
                  <p id=""wtp"" style=""text-align:center; margin-top: 0px; margin-bottom: 0px; font-size: 40px"";>&ensp;</p>","-","viewing","0","10","2C,16C,22B,28A","","","","","","","","","","","","","","","","","","","",""
"","","","","","html-slider-response","197","1190895","0.0-21.0-1.28","dc901693-8b5c-4361-b621-ae6a49ce235d","1369","
                  <p style=""text-align: center;"">₪18
                                                <br>50%</p>
                  <p id=""wtp"" style=""text-align:center; margin-top: 0px; margin-bottom: 0px; font-size: 40px"";>מוכנים לשלם: <span id=""c_p_y""></span></p>","32","evaluation","0","10","2C,16C,22B,28A","50","18","32","","","","","","","","","","","","","","","","",""
"","","","","","html-keyboard-response","198","1191762","0.0-21.0-2.28","dc901693-8b5c-4361-b621-ae6a49ce235d","null","<p style=""text-align: center;"">+</p>","null","fixation","","","","","","","","","","","","","","","","","","","","","","",""
"","","","","","html-slider-response","199","1192779","0.0-21.0-0.29","dc901693-8b5c-4361-b621-ae6a49ce235d","1000","
                  <p style=""text-align: center;"">₪64
                                                <br>50%</p>
                  <p id=""wtp"" style=""text-align:center; margin-top: 0px; margin-bottom: 0px; font-size: 40px"";>&ensp;</p>","-","viewing","0","25","1B,3B,4A","","","","","","","","","","","","","","","","","","","",""
"","","","","","html-slider-response","200","1195727","0.0-21.0-1.29","dc901693-8b5c-4361-b621-ae6a49ce235d","2947","
                  <p style=""text-align: center;"">₪64
                                                <br>50%</p>
                  <p id=""wtp"" style=""text-align:center; margin-top: 0px; margin-bottom: 0px; font-size: 40px"";>מוכנים לשלם: <span id=""c_p_y""></span></p>","46","evaluation","74","25","1B,3B,4A","50","64","46","","","","","","","","","","","","","","","","",""
"","","","","","html-keyboard-response","201","1197057","0.0-21.0-2.29","dc901693-8b5c-4361-b621-ae6a49ce235d","null","<p style=""text-align: center;"">+</p>","null","fixation","","","","","","","","","","","","","","","","","","","","","","",""
"","","","","","html-slider-response","202","1198066","0.0-21.0-0.30","dc901693-8b5c-4361-b621-ae6a49ce235d","1000","
                  <p style=""text-align: center;"">₪4
                                                <br>75%</p>
                  <p id=""wtp"" style=""text-align:center; margin-top: 0px; margin-bottom: 0px; font-size: 40px"";>&ensp;</p>","-","viewing","0","3","12B,20B,23B,27C,29C","","","","","","","","","","","","","","","","","","","",""
"","","","","","html-slider-response","203","1200151","0.0-21.0-1.30","dc901693-8b5c-4361-b621-ae6a49ce235d","2084","
                  <p style=""text-align: center;"">₪4
                                                <br>75%</p>
                  <p id=""wtp"" style=""text-align:center; margin-top: 0px; margin-bottom: 0px; font-size: 40px"";>מוכנים לשלם: <span id=""c_p_y""></span></p>","48","evaluation","12","3","12B,20B,23B,27C,29C","75","4","48","","","","","","","","","","","","","","","","",""
"","","","","","html-keyboard-response","204","1201114","0.0-21.0-2.30","dc901693-8b5c-4361-b621-ae6a49ce235d","null","<p style=""text-align: center;"">+</p>","null","fixation","","","","","","","","","","","","","","","","","","","","","","",""
"","","","","","html-keyboard-response","205","1202126","0.0-22.0","dc901693-8b5c-4361-b621-ae6a49ce235d","null","<p style=""text-align: center;"">+</p>","null","fixation","","","","","","","","","","","","","","","","","","","","","","",""
"","","","","","html-keyboard-response","206","1202838","0.0-23.0","dc901693-8b5c-4361-b621-ae6a49ce235d","null","<p>הפסקה.
          <br>לחצו כדי להמשיך.</p>","1","scan_wait","","","","","","","","","","","","","","","","","","","","","","",""
"","","","","","html-keyboard-response","207","1203850","0.0-24.0","dc901693-8b5c-4361-b621-ae6a49ce235d","null","<p style=""text-align: center;"">+</p>","null","fixation","","","","","","","","","","","","","","","","","","","","","","",""
"","","","","","html-slider-response","208","1204857","0.0-25.0-0.0","dc901693-8b5c-4361-b621-ae6a49ce235d","1000","
                  <p style=""text-align: center;"">₪4
                                                <br>50%</p>
                  <p id=""wtp"" style=""text-align:center; margin-top: 0px; margin-bottom: 0px; font-size: 40px"";>&ensp;</p>","-","viewing","0","2","4C,17B","","","","","","","","","","","","","","","","","","","",""
"","","","","","html-slider-response","209","1205666","0.0-25.0-1.0","dc901693-8b5c-4361-b621-ae6a49ce235d","808","
                  <p style=""text-align: center;"">₪4
                                                <br>50%</p>
                  <p id=""wtp"" style=""text-align:center; margin-top: 0px; margin-bottom: 0px; font-size: 40px"";>מוכנים לשלם: <span id=""c_p_y""></span></p>","7","evaluation","59","2","4C,17B","50","4","8","","","","","","","","","","","","","","","","",""
"","","","","","html-keyboard-response","210","1206833","0.0-25.0-2.0","dc901693-8b5c-4361-b621-ae6a49ce235d","null","<p style=""text-align: center;"">+</p>","null","fixation","","","","","","","","","","","","","","","","","","","","","","",""
"","","","","","html-slider-response","211","1207843","0.0-25.0-0.1","dc901693-8b5c-4361-b621-ae6a49ce235d","1000","
                  <p style=""text-align: center;"">₪36
                                                <br>70%</p>
                  <p id=""wtp"" style=""text-align:center; margin-top: 0px; margin-bottom: 0px; font-size: 40px"";>&ensp;</p>","-","viewing","0","13","3A,5C,10B","","","","","","","","","","","","","","","","","","","",""
"","","","","","html-slider-response","212","1209226","0.0-25.0-1.1","dc901693-8b5c-4361-b621-ae6a49ce235d","1382","
                  <p style=""text-align: center;"">₪36
                                                <br>70%</p>
                  <p id=""wtp"" style=""text-align:center; margin-top: 0px; margin-bottom: 0px; font-size: 40px"";>מוכנים לשלם: <span id=""c_p_y""></span></p>","32","evaluation","9","13","3A,5C,10B","70","36","32","","","","","","","","","","","","","","","","",""
"","","","","","html-keyboard-response","213","1210563","0.0-25.0-2.1","dc901693-8b5c-4361-b621-ae6a49ce235d","null","<p style=""text-align: center;"">+</p>","null","fixation","","","","","","","","","","","","","","","","","","","","","","",""
"","","","","","html-slider-response","214","1211580","0.0-25.0-0.2","dc901693-8b5c-4361-b621-ae6a49ce235d","1000","
                  <p style=""text-align: center;"">₪36
                                                <br>60%</p>
                  <p id=""wtp"" style=""text-align:center; margin-top: 0px; margin-bottom: 0px; font-size: 40px"";>&ensp;</p>","-","viewing","0","12","1C,7C,15C","","","","","","","","","","","","","","","","","","","",""
"","","","","","html-slider-response","215","1212545","0.0-25.0-1.2","dc901693-8b5c-4361-b621-ae6a49ce235d","965","
                  <p style=""text-align: center;"">₪36
                                                <br>60%</p>
                  <p id=""wtp"" style=""text-align:center; margin-top: 0px; margin-bottom: 0px; font-size: 40px"";>מוכנים לשלם: <span id=""c_p_y""></span></p>","34","evaluation","31","12","1C,7C,15C","60","36","34","","","","","","","","","","","","","","","","",""
"","","","","","html-keyboard-response","216","1213166","0.0-25.0-2.2","dc901693-8b5c-4361-b621-ae6a49ce235d","null","<p style=""text-align: center;"">+</p>","null","fixation","","","","","","","","","","","","","","","","","","","","","","",""
"","","","","","html-slider-response","217","1214183","0.0-25.0-0.3","dc901693-8b5c-4361-b621-ae6a49ce235d","1000","
                  <p style=""text-align: center;"">₪58
                                                <br>45%</p>
                  <p id=""wtp"" style=""text-align:center; margin-top: 0px; margin-bottom: 0px; font-size: 40px"";>&ensp;</p>","-","viewing","0","21","11C,18C,25A","","","","","","","","","","","","","","","","","","","",""
"","","","","","html-slider-response","218","1215034","0.0-25.0-1.3","dc901693-8b5c-4361-b621-ae6a49ce235d","850","
                  <p style=""text-align: center;"">₪58
                                                <br>45%</p>
                  <p id=""wtp"" style=""text-align:center; margin-top: 0px; margin-bottom: 0px; font-size: 40px"";>מוכנים לשלם: <span id=""c_p_y""></span></p>","20","evaluation","73","21","11C,18C,25A","45","58","20","","","","","","","","","","","","","","","","",""
"","","","","","html-keyboard-response","219","1216389","0.0-25.0-2.3","dc901693-8b5c-4361-b621-ae6a49ce235d","null","<p style=""text-align: center;"">+</p>","null","fixation","","","","","","","","","","","","","","","","","","","","","","",""
"","","","","","html-slider-response","220","1217393","0.0-25.0-0.4","dc901693-8b5c-4361-b621-ae6a49ce235d","1000","
                  <p style=""text-align: center;"">₪39
                                                <br>60%</p>
                  <p id=""wtp"" style=""text-align:center; margin-top: 0px; margin-bottom: 0px; font-size: 40px"";>&ensp;</p>","-","viewing","0","15","9C,25B","","","","","","","","","","","","","","","","","","","",""
"","","","","","html-slider-response","221","1218258","0.0-25.0-1.4","dc901693-8b5c-4361-b621-ae6a49ce235d","864","
                  <p style=""text-align: center;"">₪39
                                                <br>60%</p>
                  <p id=""wtp"" style=""text-align:center; margin-top: 0px; margin-bottom: 0px; font-size: 40px"";>מוכנים לשלם: <span id=""c_p_y""></span></p>","29","evaluation","18","15","9C,25B","60","39","29","","","","","","","","","","","","","","","","",""
"","","","","","html-keyboard-response","222","1219091","0.0-25.0-2.4","dc901693-8b5c-4361-b621-ae6a49ce235d","null","<p style=""text-align: center;"">+</p>","null","fixation","","","","","","","","","","","","","","","","","","","","","","",""
"","","","","","html-slider-response","223","1220105","0.0-25.0-0.5","dc901693-8b5c-4361-b621-ae6a49ce235d","1000","
                  <p style=""text-align: center;"">₪58
                                                <br>40%</p>
                  <p id=""wtp"" style=""text-align:center; margin-top: 0px; margin-bottom: 0px; font-size: 40px"";>&ensp;</p>","-","viewing","0","20","10C,13A,19C,21B","","","","","","","","","","","","","","","","","","","",""
"","","","","","html-slider-response","224","1221090","0.0-25.0-1.5","dc901693-8b5c-4361-b621-ae6a49ce235d","983","
                  <p style=""text-align: center;"">₪58
                                                <br>40%</p>
                  <p id=""wtp"" style=""text-align:center; margin-top: 0px; margin-bottom: 0px; font-size: 40px"";>מוכנים לשלם: <span id=""c_p_y""></span></p>","22","evaluation","50","20","10C,13A,19C,21B","40","58","22","","","","","","","","","","","","","","","","",""
"","","","","","html-keyboard-response","225","1222489","0.0-25.0-2.5","dc901693-8b5c-4361-b621-ae6a49ce235d","null","<p style=""text-align: center;"">+</p>","null","fixation","","","","","","","","","","","","","","","","","","","","","","",""
"","","","","","html-slider-response","226","1223493","0.0-25.0-0.6","dc901693-8b5c-4361-b621-ae6a49ce235d","1000","
                  <p style=""text-align: center;"">₪43
                                                <br>60%</p>
                  <p id=""wtp"" style=""text-align:center; margin-top: 0px; margin-bottom: 0px; font-size: 40px"";>&ensp;</p>","-","viewing","0","17","2A,7A,9A,15B","","","","","","","","","","","","","","","","","","","",""
"","","","","","html-slider-response","227","1226130","0.0-25.0-1.6","dc901693-8b5c-4361-b621-ae6a49ce235d","2636","
                  <p style=""text-align: center;"">₪43
                                                <br>60%</p>
                  <p id=""wtp"" style=""text-align:center; margin-top: 0px; margin-bottom: 0px; font-size: 40px"";>מוכנים לשלם: <span id=""c_p_y""></span></p>","62","evaluation","16","17","2A,7A,9A,15B","60","43","62","","","","","","","","","","","","","","","","",""
"","","","","","html-keyboard-response","228","1227414","0.0-25.0-2.6","dc901693-8b5c-4361-b621-ae6a49ce235d","null","<p style=""text-align: center;"">+</p>","null","fixation","","","","","","","","","","","","","","","","","","","","","","",""
"","","","","","html-slider-response","229","1228430","0.0-25.0-0.7","dc901693-8b5c-4361-b621-ae6a49ce235d","1000","
                  <p style=""text-align: center;"">₪11
                                                <br>20%</p>
                  <p id=""wtp"" style=""text-align:center; margin-top: 0px; margin-bottom: 0px; font-size: 40px"";>&ensp;</p>","-","viewing","0","4","12C,17C,23C,28C","","","","","","","","","","","","","","","","","","","",""
"","","","","","html-slider-response","230","1229650","0.0-25.0-1.7","dc901693-8b5c-4361-b621-ae6a49ce235d","1218","
                  <p style=""text-align: center;"">₪11
                                                <br>20%</p>
                  <p id=""wtp"" style=""text-align:center; margin-top: 0px; margin-bottom: 0px; font-size: 40px"";>מוכנים לשלם: <span id=""c_p_y""></span></p>","2","evaluation","5","4","12C,17C,23C,28C","20","11","2","","","","","","","","","","","","","","","","",""
"","","","","","html-keyboard-response","231","1230971","0.0-25.0-2.7","dc901693-8b5c-4361-b621-ae6a49ce235d","null","<p style=""text-align: center;"">+</p>","null","fixation","","","","","","","","","","","","","","","","","","","","","","",""
"","","","","","html-slider-response","232","1231976","0.0-25.0-0.8","dc901693-8b5c-4361-b621-ae6a49ce235d","1000","
                  <p style=""text-align: center;"">₪71
                                                <br>75%</p>
                  <p id=""wtp"" style=""text-align:center; margin-top: 0px; margin-bottom: 0px; font-size: 40px"";>&ensp;</p>","-","viewing","0","28","8B","","","","","","","","","","","","","","","","","","","",""
"","","","","","html-slider-response","233","1234122","0.0-25.0-1.8","dc901693-8b5c-4361-b621-ae6a49ce235d","2144","
                  <p style=""text-align: center;"">₪71
                                                <br>75%</p>
                  <p id=""wtp"" style=""text-align:center; margin-top: 0px; margin-bottom: 0px; font-size: 40px"";>מוכנים לשלם: <span id=""c_p_y""></span></p>","71","evaluation","22","28","8B","75","71","70","","","","","","","","","","","","","","","","",""
"","","","","","html-keyboard-response","234","1235381","0.0-25.0-2.8","dc901693-8b5c-4361-b621-ae6a49ce235d","null","<p style=""text-align: center;"">+</p>","null","fixation","","","","","","","","","","","","","","","","","","","","","","",""
"","","","","","html-slider-response","235","1236388","0.0-25.0-0.9","dc901693-8b5c-4361-b621-ae6a49ce235d","1000","
                  <p style=""text-align: center;"">₪36
                                                <br>30%</p>
                  <p id=""wtp"" style=""text-align:center; margin-top: 0px; margin-bottom: 0px; font-size: 40px"";>&ensp;</p>","-","viewing","0","11","3C,20A,22A","","","","","","","","","","","","","","","","","","","",""
"","","","","","html-slider-response","236","1237242","0.0-25.0-1.9","dc901693-8b5c-4361-b621-ae6a49ce235d","852","
                  <p style=""text-align: center;"">₪36
                                                <br>30%</p>
                  <p id=""wtp"" style=""text-align:center; margin-top: 0px; margin-bottom: 0px; font-size: 40px"";>מוכנים לשלם: <span id=""c_p_y""></span></p>","41","evaluation","80","11","3C,20A,22A","30","36","41","","","","","","","","","","","","","","","","",""
"","","","","","html-keyboard-response","237","1238620","0.0-25.0-2.9","dc901693-8b5c-4361-b621-ae6a49ce235d","null","<p style=""text-align: center;"">+</p>","null","fixation","","","","","","","","","","","","","","","","","","","","","","",""
"","","","","","html-slider-response","238","1239627","0.0-25.0-0.10","dc901693-8b5c-4361-b621-ae6a49ce235d","1000","
                  <p style=""text-align: center;"">₪4
                                                <br>75%</p>
                  <p id=""wtp"" style=""text-align:center; margin-top: 0px; margin-bottom: 0px; font-size: 40px"";>&ensp;</p>","-","viewing","0","3","12B,20B,23B,27C,29C","","","","","","","","","","","","","","","","","","","",""
"","","","","","html-slider-response","239","1240657","0.0-25.0-1.10","dc901693-8b5c-4361-b621-ae6a49ce235d","1029","
                  <p style=""text-align: center;"">₪4
                                                <br>75%</p>
                  <p id=""wtp"" style=""text-align:center; margin-top: 0px; margin-bottom: 0px; font-size: 40px"";>מוכנים לשלם: <span id=""c_p_y""></span></p>","16","evaluation","57","3","12B,20B,23B,27C,29C","75","4","16","","","","","","","","","","","","","","","","",""
"","","","","","html-keyboard-response","240","1242101","0.0-25.0-2.10","dc901693-8b5c-4361-b621-ae6a49ce235d","null","<p style=""text-align: center;"">+</p>","null","fixation","","","","","","","","","","","","","","","","","","","","","","",""
"","","","","","html-slider-response","241","1243107","0.0-25.0-0.11","dc901693-8b5c-4361-b621-ae6a49ce235d","1000","
                  <p style=""text-align: center;"">₪79
                                                <br>40%</p>
                  <p id=""wtp"" style=""text-align:center; margin-top: 0px; margin-bottom: 0px; font-size: 40px"";>&ensp;</p>","-","viewing","0","30","9B","","","","","","","","","","","","","","","","","","","",""
"","","","","","html-slider-response","242","1244442","0.0-25.0-1.11","dc901693-8b5c-4361-b621-ae6a49ce235d","1334","
                  <p style=""text-align: center;"">₪79
                                                <br>40%</p>
                  <p id=""wtp"" style=""text-align:center; margin-top: 0px; margin-bottom: 0px; font-size: 40px"";>מוכנים לשלם: <span id=""c_p_y""></span></p>","11","evaluation","0","30","9B","40","79","11","","","","","","","","","","","","","","","","",""
"","","","","","html-keyboard-response","243","1245731","0.0-25.0-2.11","dc901693-8b5c-4361-b621-ae6a49ce235d","null","<p style=""text-align: center;"">+</p>","null","fixation","","","","","","","","","","","","","","","","","","","","","","",""
"","","","","","html-slider-response","244","1246747","0.0-25.0-0.12","dc901693-8b5c-4361-b621-ae6a49ce235d","1000","
                  <p style=""text-align: center;"">₪16
                                                <br>20%</p>
                  <p id=""wtp"" style=""text-align:center; margin-top: 0px; margin-bottom: 0px; font-size: 40px"";>&ensp;</p>","-","viewing","0","8","14C,17A,20C,27A","","","","","","","","","","","","","","","","","","","",""
"","","","","","html-slider-response","245","1248234","0.0-25.0-1.12","dc901693-8b5c-4361-b621-ae6a49ce235d","1486","
                  <p style=""text-align: center;"">₪16
                                                <br>20%</p>
                  <p id=""wtp"" style=""text-align:center; margin-top: 0px; margin-bottom: 0px; font-size: 40px"";>מוכנים לשלם: <span id=""c_p_y""></span></p>","35","evaluation","14","8","14C,17A,20C,27A","20","16","35","","","","","","","","","","","","","","","","",""
"","","","","","html-keyboard-response","246","1248802","0.0-25.0-2.12","dc901693-8b5c-4361-b621-ae6a49ce235d","null","<p style=""text-align: center;"">+</p>","null","fixation","","","","","","","","","","","","","","","","","","","","","","",""
"","","","","","html-slider-response","247","1249818","0.0-25.0-0.13","dc901693-8b5c-4361-b621-ae6a49ce235d","1000","
                  <p style=""text-align: center;"">₪64
                                                <br>25%</p>
                  <p id=""wtp"" style=""text-align:center; margin-top: 0px; margin-bottom: 0px; font-size: 40px"";>&ensp;</p>","-","viewing","0","24","6A,21A","","","","","","","","","","","","","","","","","","","",""
"","","","","","html-slider-response","248","1250610","0.0-25.0-1.13","dc901693-8b5c-4361-b621-ae6a49ce235d","790","
                  <p style=""text-align: center;"">₪64
                                                <br>25%</p>
                  <p id=""wtp"" style=""text-align:center; margin-top: 0px; margin-bottom: 0px; font-size: 40px"";>מוכנים לשלם: <span id=""c_p_y""></span></p>","40","evaluation","79","24","6A,21A","25","64","40","","","","","","","","","","","","","","","","",""
