"success","timeout","failed_images","failed_audio","failed_video","trial_type","trial_index","time_elapsed","internal_node_id","subject_id","rt","stimulus","response","part","slider_start","ID","set_ID","prob","amount","last_location","actual_choice","actual_EV","binary_id","trinary_id","catch","A_key","D_key","choice_prob","choice_amount","potential_prize_prob","potential_prize_amount","won_prize","total_prize","remaining_budget","accuracy"
"true","false","[]","[]","[]","preload","0","14","0.0-0.0","2b98b5c7-6ddd-4ae8-8c5d-f716ed07dd5a","","","","","","","","","","","","","","","","","","","","","","","","",""
"","","","","","html-keyboard-response","1","14107","0.0-1.0","2b98b5c7-6ddd-4ae8-8c5d-f716ed07dd5a","null","
          <h1>שלום וברוכים הבאים!</h1>
          <p>לפניכם ניסוי בקבלת החלטות עם שני חלקים.
          <br><br>לחצו על העכבר כדי להמשיך.</p>","0","example","","","","","","","","","","","","","","","","","","","","",""
"","","","","","html-keyboard-response","2","24308","0.0-2.0","2b98b5c7-6ddd-4ae8-8c5d-f716ed07dd5a","null","
        <h1>חלק 1</h1>
        <p>בקרוב יוצגו בפניכם הגרלות.
        <br>עליכם לבחור את המחיר המירבי שתהיו מוכנים לשלם כדי להשתתף בהגרלה שתוצג.
        <br>יש לכם תקציב של ₪80 לכל הגרלה. 
        <br>נסו להעריך כל הגרלה בנפרד ולחשוב כמה היא שווה עבורכם, ₪80 זמינים לכל הגרלה בנפרד.
        <br><br>לחצו על העכבר כדי להמשיך.</p>","1","instructions","","","","","","","","","","","","","","","","","","","","",""
"","","","","","html-keyboard-response","3","51355","0.0-3.0","2b98b5c7-6ddd-4ae8-8c5d-f716ed07dd5a","null","
        <p>בסוף הניסוי, המחשב יבחר את אחת ההגרלות ויקבע מחיר לכרטיס עבורה. 
        <br>במידה והמחיר שבחרתם נמוך מהמחיר שנבחר על ידי המחשב, לא תשתתפו בהגרלה ותשארו עם מלוא התקציב.
        <br>במידה והמחיר שבחרתם גבוה מהמחיר שנבחר על ידי המחשב, תשלמו את המחיר שנקבע ותשתתפו בהגרלה.
        <br><br>לחצו על העכבר כדי להמשיך.</p>","1","instructions","","","","","","","","","","","","","","","","","","","","",""
"","","","","","html-slider-response","4","84123","0.0-4.0","2b98b5c7-6ddd-4ae8-8c5d-f716ed07dd5a","32654","
        <p style=""font-size: 42px;"">נתחיל עם דוגמא: 
        <br>ההגרלה מטה מציעה 65% סיכוי לזכות ב-₪40 
        <br>&emsp;&emsp;&emsp;&emsp;&emsp;&emsp;&emsp;&emsp;&ensp;35% סיכוי לזכות ב-₪0.
        <br><br>מה המחיר המירבי שתהיו מוכנים לשלם על כרטיס להגרלה זו בין 0 ל-₪80?
        <br>הזיזו את העכבר על פני המלבן ולחצו כדי לבצע בחירה.</p>
        
        <p style=""text-align: center;"">₪40<br>65%</p>

        <p id=""wtp"" style=""text-align:center; margin-top: 0px; margin-bottom: 0px; font-size: 40px"";>מוכנים לשלם: <span id=""c_p_y""></span></p>","30","example","70","","","","","","","","","","","","","","","","","","","",""
"","","","","","html-keyboard-response","5","105667","0.0-5.0","2b98b5c7-6ddd-4ae8-8c5d-f716ed07dd5a","null","<p>יפה מאוד!
                <br> בחרתם שתהיו מוכנים לשלם ₪30 כדי להשתתף בהגרלה:
                <br><p style=""text-align: center;"">₪40<br>65%</p>
                <p>נשמע נכון?
                <br>נניח שהגרלה זו נבחרה בסוף הניסוי.
                <br>כעת המחשב יקבע מחיר עבורה באקראי.
                <br>לחצו על העכבר להמשך.</p>","1","example","","","","","","","","","","","","","","","","","","","","",""
"","","","","","html-keyboard-response","6","126612","0.0-6.0","2b98b5c7-6ddd-4ae8-8c5d-f716ed07dd5a","null","<p>המחשב קבע מחיר: ₪64
                <br>ואתם בחרתם לשלם לכל היותר: ₪30
                <br><br>מכיוון שהמחיר שבחרתם נמוך מהמחיר שנקבע, לא תתשתתפו בהגרלה.
                <br>במקרה כזה, בסוף הניסוי תקבלו את כל התקציב ההתחלתי של ₪80.
                <br><br>לחצו על העכבר להמשך.</p>","1","example","","","","","","","","","","","","","","","","","","","","",""
"","","","","","html-slider-response","7","163300","0.0-7.0","2b98b5c7-6ddd-4ae8-8c5d-f716ed07dd5a","36436","<p style=""font-size: 42px;"">הנה עוד דוגמא:
                <br>ההגרלה מטה מציעה 35% סיכוי לזכות ב-₪18 
                <br>&emsp;&emsp;&emsp;&emsp;&emsp;&emsp;&emsp;&emsp;&ensp;65% סיכוי לזכות ב-₪0.</p>
        
                <p style=""text-align: center;"">₪18<br>35%</p>
                <p id=""wtp"" style=""text-align:center; margin-top: 0px; margin-bottom: 0px; font-size: 40px"";>מוכנים לשלם: <span id=""c_p_y""></span></p>","16","example","25","","","","","","","","","","","","","","","","","","","",""
"","","","","","html-keyboard-response","8","183387","0.0-8.0","2b98b5c7-6ddd-4ae8-8c5d-f716ed07dd5a","null","<p>הייתם מוכנים לשלם  ₪16 כדי להשתתף בהגרלה:
                <p style=""text-align: center;"">₪18<br>35%</p>
                <p>כעת נניח שהמחשב בחר את ההגרלה הזו בסוף הניסוי, וקבע עבורה מחיר.
                <br><br>לחצו על העכבר כדי להמשיך.</p>","1","instructions","","","","","","","","","","","","","","","","","","","","",""
"","","","","","html-keyboard-response","9","244675","0.0-9.0","2b98b5c7-6ddd-4ae8-8c5d-f716ed07dd5a","null","<p>המחשב קבע מחיר להגרלה: ₪16
                <br>ואתם בחרתם לשלם לכל היותר: ₪16
                <br><br>כעת המחיר שנקבע זהה לזה שבחרתם, אז תשלמו את המחיר שקבע המחשב (₪16) ותשתתפו בהגרלה.
                <br>במקרה כזה, תסיימו את הניסוי עם תקציב של ₪64 ועם סיכוי לזכות ב-₪18 נוספים מההגרלה.
                <br>כלומר, תוכלו לקבל ₪64 אם לא תזכו בהגרלה, או ₪82 אם תזכו בהגרלה.
                <br><br>לחצו על העכבר להמשך.</p>","1","example","","","","","","","","","","","","","","","","","","","","",""
"","","","","","html-keyboard-response","10","267059","0.0-10.0","2b98b5c7-6ddd-4ae8-8c5d-f716ed07dd5a","null","<p>במהלך הניסוי, קודם תראו את ההגרלה ורק לאחר מכן תוכלו לבחור.
                <p>כמו כן, יהיו לכם מספר שניות מוגבל להגיב.
                <p>בואו ננסה זאת עם ההגרלה הקודמת.
                <br>לחצו על העכבר כדי להמשיך.</p>","1","instructions","","","","","","","","","","","","","","","","","","","","",""
"","","","","","html-slider-response","11","268325","0.0-11.0","2b98b5c7-6ddd-4ae8-8c5d-f716ed07dd5a","1000","
                    <p style=""text-align: center;"">₪18<br>35%</p>
                    <p id=""wtp"" style=""text-align:center; margin-top: 0px; margin-bottom: 0px; font-size: 40px"";>&ensp;</p>","58","instructions","0","","","","","","","","","","","","","","","","","","","",""
"","","","","","html-slider-response","12","272603","0.0-12.0","2b98b5c7-6ddd-4ae8-8c5d-f716ed07dd5a","null","
                    <p style=""text-align: center;"">₪18<br>35%</p>
                    <p id=""wtp"" style=""text-align:center; margin-top: 0px; margin-bottom: 0px; font-size: 40px"";>מוכנים לשלם: <span id=""c_p_y""></span></p>","null","instructions","39","","","","","","","","","","","","","","","","","","","",""
"","","","","","html-keyboard-response","13","279146","0.0-13.0","2b98b5c7-6ddd-4ae8-8c5d-f716ed07dd5a","null","<p>לא הגבתם בזמן המוקצב לתגובה. 
                <br>נסו להגיב מהר יותר בפעם הבאה.
                <br><br>לחצו על העכבר כדי להמשיך.</p>","1","instructions","","","","","","","","","","","","","","","","","","","","",""
"","","","","","html-slider-response","14","283107","0.0-14.0-0.0","2b98b5c7-6ddd-4ae8-8c5d-f716ed07dd5a","3708","
                    <p style=""text-align: center;"">₪40<br>65%</p>
                    <p id=""wtp"" style=""text-align:center; margin-top: 0px; margin-bottom: 0px; font-size: 40px"";>מוכנים לשלם: <span id=""c_p_y""></span></p>","35","instructions","65","","","","","","","","","","","","","","","","","","","",""
"","","","","","html-keyboard-response","15","289963","0.0-14.0-1.0","2b98b5c7-6ddd-4ae8-8c5d-f716ed07dd5a","null","<p>יפה. הפעם בחרתם לשלם לכל היותר ₪35.
                <br><br>לחצו על העכבר כדי להמשיך.</p>","1","instructions","","","","","","","","","","","","","","","","","","","","",""
"","","","","","html-keyboard-response","16","323387","0.0-15.0","2b98b5c7-6ddd-4ae8-8c5d-f716ed07dd5a","null","<p>כעת נתחיל את הניסוי.
                <br><br>אתם תראו הגרלות ותתבקשו לבחור כמה תהיו מוכנים לשלם כדי להשתתף בהן.
                <br>יש לכם תקציב של ₪80 עבור כל הגרלה.
                <br>בסוף הניסוי הגרלה אחת תבחר באקראי ותשוחק.
                <br><br>לחצו על העכבר כדי להתחיל את הניסוי.</p>","1","instructions","","","","","","","","","","","","","","","","","","","","",""
"","","","","","html-keyboard-response","17","324643","0.0-16.0","2b98b5c7-6ddd-4ae8-8c5d-f716ed07dd5a","null","<p style=""text-align: center;"">+</p>","null","fixation","","","","","","","","","","","","","","","","","","","","",""
"","","","","","html-slider-response","18","325652","0.0-17.0-0.0","2b98b5c7-6ddd-4ae8-8c5d-f716ed07dd5a","1000","
                  <p style=""text-align: center;"">₪64
                                                <br>25%</p>
                  <p id=""wtp"" style=""text-align:center; margin-top: 0px; margin-bottom: 0px; font-size: 40px"";>&ensp;</p>","-","viewing","0","24","6A,21A","","","","","","","","","","","","","","","","","",""
"","","","","","html-slider-response","19","329658","0.0-17.0-1.0","2b98b5c7-6ddd-4ae8-8c5d-f716ed07dd5a","null","
                  <p style=""text-align: center;"">₪64
                                                <br>25%</p>
                  <p id=""wtp"" style=""text-align:center; margin-top: 0px; margin-bottom: 0px; font-size: 40px"";>מוכנים לשלם: <span id=""c_p_y""></span></p>","null","evaluation","66","24","6A,21A","25","64","22","","","","","","","","","","","","","","",""
"","","","","","html-keyboard-response","20","330401","0.0-17.0-2.0","2b98b5c7-6ddd-4ae8-8c5d-f716ed07dd5a","null","<p style=""text-align: center;"">+</p>","null","fixation","","","","","","","","","","","","","","","","","","","","",""
"","","","","","html-slider-response","21","331403","0.0-17.0-0.1","2b98b5c7-6ddd-4ae8-8c5d-f716ed07dd5a","1000","
                  <p style=""text-align: center;"">₪76
                                                <br>65%</p>
                  <p id=""wtp"" style=""text-align:center; margin-top: 0px; margin-bottom: 0px; font-size: 40px"";>&ensp;</p>","-","viewing","0","29","8C,19A,24B","","","","","","","","","","","","","","","","","",""
"","","","","","html-slider-response","22","335132","0.0-17.0-1.1","2b98b5c7-6ddd-4ae8-8c5d-f716ed07dd5a","3727","
                  <p style=""text-align: center;"">₪76
                                                <br>65%</p>
                  <p id=""wtp"" style=""text-align:center; margin-top: 0px; margin-bottom: 0px; font-size: 40px"";>מוכנים לשלם: <span id=""c_p_y""></span></p>","60","evaluation","39","29","8C,19A,24B","65","76","60","","","","","","","","","","","","","","",""
"","","","","","html-keyboard-response","23","336582","0.0-17.0-2.1","2b98b5c7-6ddd-4ae8-8c5d-f716ed07dd5a","null","<p style=""text-align: center;"">+</p>","null","fixation","","","","","","","","","","","","","","","","","","","","",""
"","","","","","html-slider-response","24","337583","0.0-17.0-0.2","2b98b5c7-6ddd-4ae8-8c5d-f716ed07dd5a","1000","
                  <p style=""text-align: center;"">₪16
                                                <br>20%</p>
                  <p id=""wtp"" style=""text-align:center; margin-top: 0px; margin-bottom: 0px; font-size: 40px"";>&ensp;</p>","-","viewing","0","8","14C,17A,20C,27A","","","","","","","","","","","","","","","","","",""
"","","","","","html-slider-response","25","341584","0.0-17.0-1.2","2b98b5c7-6ddd-4ae8-8c5d-f716ed07dd5a","null","
                  <p style=""text-align: center;"">₪16
                                                <br>20%</p>
                  <p id=""wtp"" style=""text-align:center; margin-top: 0px; margin-bottom: 0px; font-size: 40px"";>מוכנים לשלם: <span id=""c_p_y""></span></p>","null","evaluation","32","8","14C,17A,20C,27A","20","16","19","","","","","","","","","","","","","","",""
"","","","","","html-keyboard-response","26","342454","0.0-17.0-2.2","2b98b5c7-6ddd-4ae8-8c5d-f716ed07dd5a","null","<p style=""text-align: center;"">+</p>","null","fixation","","","","","","","","","","","","","","","","","","","","",""
"","","","","","html-slider-response","27","343469","0.0-17.0-0.3","2b98b5c7-6ddd-4ae8-8c5d-f716ed07dd5a","1000","
                  <p style=""text-align: center;"">₪43
                                                <br>60%</p>
                  <p id=""wtp"" style=""text-align:center; margin-top: 0px; margin-bottom: 0px; font-size: 40px"";>&ensp;</p>","-","viewing","0","17","2A,7A,9A,15B","","","","","","","","","","","","","","","","","",""
"","","","","","html-slider-response","28","345556","0.0-17.0-1.3","2b98b5c7-6ddd-4ae8-8c5d-f716ed07dd5a","2086","
                  <p style=""text-align: center;"">₪43
                                                <br>60%</p>
                  <p id=""wtp"" style=""text-align:center; margin-top: 0px; margin-bottom: 0px; font-size: 40px"";>מוכנים לשלם: <span id=""c_p_y""></span></p>","40","evaluation","58","17","2A,7A,9A,15B","60","43","40","","","","","","","","","","","","","","",""
"","","","","","html-keyboard-response","29","346807","0.0-17.0-2.3","2b98b5c7-6ddd-4ae8-8c5d-f716ed07dd5a","null","<p style=""text-align: center;"">+</p>","null","fixation","","","","","","","","","","","","","","","","","","","","",""
"","","","","","html-slider-response","30","347820","0.0-17.0-0.4","2b98b5c7-6ddd-4ae8-8c5d-f716ed07dd5a","1000","
                  <p style=""text-align: center;"">₪11
                                                <br>75%</p>
                  <p id=""wtp"" style=""text-align:center; margin-top: 0px; margin-bottom: 0px; font-size: 40px"";>&ensp;</p>","-","viewing","0","7","6B,18B,22C,24C,29A","","","","","","","","","","","","","","","","","",""
"","","","","","html-slider-response","31","351267","0.0-17.0-1.4","2b98b5c7-6ddd-4ae8-8c5d-f716ed07dd5a","3446","
                  <p style=""text-align: center;"">₪11
                                                <br>75%</p>
                  <p id=""wtp"" style=""text-align:center; margin-top: 0px; margin-bottom: 0px; font-size: 40px"";>מוכנים לשלם: <span id=""c_p_y""></span></p>","15","evaluation","25","7","6B,18B,22C,24C,29A","75","11","15","","","","","","","","","","","","","","",""
"","","","","","html-keyboard-response","32","351876","0.0-17.0-2.4","2b98b5c7-6ddd-4ae8-8c5d-f716ed07dd5a","null","<p style=""text-align: center;"">+</p>","null","fixation","","","","","","","","","","","","","","","","","","","","",""
"","","","","","html-slider-response","33","352886","0.0-17.0-0.5","2b98b5c7-6ddd-4ae8-8c5d-f716ed07dd5a","1000","
                  <p style=""text-align: center;"">₪18
                                                <br>50%</p>
                  <p id=""wtp"" style=""text-align:center; margin-top: 0px; margin-bottom: 0px; font-size: 40px"";>&ensp;</p>","-","viewing","0","10","2C,16C,22B,28A","","","","","","","","","","","","","","","","","",""
"","","","","","html-slider-response","34","356612","0.0-17.0-1.5","2b98b5c7-6ddd-4ae8-8c5d-f716ed07dd5a","3724","
                  <p style=""text-align: center;"">₪18
                                                <br>50%</p>
                  <p id=""wtp"" style=""text-align:center; margin-top: 0px; margin-bottom: 0px; font-size: 40px"";>מוכנים לשלם: <span id=""c_p_y""></span></p>","13","evaluation","13","10","2C,16C,22B,28A","50","18","13","","","","","","","","","","","","","","",""
"","","","","","html-keyboard-response","35","357502","0.0-17.0-2.5","2b98b5c7-6ddd-4ae8-8c5d-f716ed07dd5a","null","<p style=""text-align: center;"">+</p>","null","fixation","","","","","","","","","","","","","","","","","","","","",""
"","","","","","html-slider-response","36","358512","0.0-17.0-0.6","2b98b5c7-6ddd-4ae8-8c5d-f716ed07dd5a","1000","
                  <p style=""text-align: center;"">₪11
                                                <br>20%</p>
                  <p id=""wtp"" style=""text-align:center; margin-top: 0px; margin-bottom: 0px; font-size: 40px"";>&ensp;</p>","-","viewing","0","4","12C,17C,23C,28C","","","","","","","","","","","","","","","","","",""
"","","","","","html-slider-response","37","362516","0.0-17.0-1.6","2b98b5c7-6ddd-4ae8-8c5d-f716ed07dd5a","null","
                  <p style=""text-align: center;"">₪11
                                                <br>20%</p>
                  <p id=""wtp"" style=""text-align:center; margin-top: 0px; margin-bottom: 0px; font-size: 40px"";>מוכנים לשלם: <span id=""c_p_y""></span></p>","null","evaluation","20","4","12C,17C,23C,28C","20","11","10","","","","","","","","","","","","","","",""
"","","","","","html-keyboard-response","38","363034","0.0-17.0-2.6","2b98b5c7-6ddd-4ae8-8c5d-f716ed07dd5a","null","<p style=""text-align: center;"">+</p>","null","fixation","","","","","","","","","","","","","","","","","","","","",""
"","","","","","html-slider-response","39","364037","0.0-17.0-0.7","2b98b5c7-6ddd-4ae8-8c5d-f716ed07dd5a","1000","
                  <p style=""text-align: center;"">₪36
                                                <br>30%</p>
                  <p id=""wtp"" style=""text-align:center; margin-top: 0px; margin-bottom: 0px; font-size: 40px"";>&ensp;</p>","-","viewing","0","11","3C,20A,22A","","","","","","","","","","","","","","","","","",""
"","","","","","html-slider-response","40","366787","0.0-17.0-1.7","2b98b5c7-6ddd-4ae8-8c5d-f716ed07dd5a","2749","
                  <p style=""text-align: center;"">₪36
                                                <br>30%</p>
                  <p id=""wtp"" style=""text-align:center; margin-top: 0px; margin-bottom: 0px; font-size: 40px"";>מוכנים לשלם: <span id=""c_p_y""></span></p>","20","evaluation","17","11","3C,20A,22A","30","36","20","","","","","","","","","","","","","","",""
"","","","","","html-keyboard-response","41","367321","0.0-17.0-2.7","2b98b5c7-6ddd-4ae8-8c5d-f716ed07dd5a","null","<p style=""text-align: center;"">+</p>","null","fixation","","","","","","","","","","","","","","","","","","","","",""
"","","","","","html-slider-response","42","368330","0.0-17.0-0.8","2b98b5c7-6ddd-4ae8-8c5d-f716ed07dd5a","1000","
                  <p style=""text-align: center;"">₪79
                                                <br>65%</p>
                  <p id=""wtp"" style=""text-align:center; margin-top: 0px; margin-bottom: 0px; font-size: 40px"";>&ensp;</p>","-","viewing","0","31","8A","","","","","","","","","","","","","","","","","",""
"","","","","","html-slider-response","43","372332","0.0-17.0-1.8","2b98b5c7-6ddd-4ae8-8c5d-f716ed07dd5a","null","
                  <p style=""text-align: center;"">₪79
                                                <br>65%</p>
                  <p id=""wtp"" style=""text-align:center; margin-top: 0px; margin-bottom: 0px; font-size: 40px"";>מוכנים לשלם: <span id=""c_p_y""></span></p>","null","evaluation","18","31","8A","65","79","59","","","","","","","","","","","","","","",""
"","","","","","html-keyboard-response","44","372842","0.0-17.0-2.8","2b98b5c7-6ddd-4ae8-8c5d-f716ed07dd5a","null","<p style=""text-align: center;"">+</p>","null","fixation","","","","","","","","","","","","","","","","","","","","",""
"","","","","","html-slider-response","45","373852","0.0-17.0-0.9","2b98b5c7-6ddd-4ae8-8c5d-f716ed07dd5a","1000","
                  <p style=""text-align: center;"">₪36
                                                <br>70%</p>
                  <p id=""wtp"" style=""text-align:center; margin-top: 0px; margin-bottom: 0px; font-size: 40px"";>&ensp;</p>","-","viewing","0","13","3A,5C,10B","","","","","","","","","","","","","","","","","",""
"","","","","","html-slider-response","46","377467","0.0-17.0-1.9","2b98b5c7-6ddd-4ae8-8c5d-f716ed07dd5a","3613","
                  <p style=""text-align: center;"">₪36
                                                <br>70%</p>
                  <p id=""wtp"" style=""text-align:center; margin-top: 0px; margin-bottom: 0px; font-size: 40px"";>מוכנים לשלם: <span id=""c_p_y""></span></p>","31","evaluation","37","13","3A,5C,10B","70","36","31","","","","","","","","","","","","","","",""
"","","","","","html-keyboard-response","47","378273","0.0-17.0-2.9","2b98b5c7-6ddd-4ae8-8c5d-f716ed07dd5a","null","<p style=""text-align: center;"">+</p>","null","fixation","","","","","","","","","","","","","","","","","","","","",""
"","","","","","html-slider-response","48","379275","0.0-17.0-0.10","2b98b5c7-6ddd-4ae8-8c5d-f716ed07dd5a","1000","
                  <p style=""text-align: center;"">₪18
                                                <br>25%</p>
                  <p id=""wtp"" style=""text-align:center; margin-top: 0px; margin-bottom: 0px; font-size: 40px"";>&ensp;</p>","-","viewing","0","9","14A,23A","","","","","","","","","","","","","","","","","",""
"","","","","","html-slider-response","49","382827","0.0-17.0-1.10","2b98b5c7-6ddd-4ae8-8c5d-f716ed07dd5a","3550","
                  <p style=""text-align: center;"">₪18
                                                <br>25%</p>
                  <p id=""wtp"" style=""text-align:center; margin-top: 0px; margin-bottom: 0px; font-size: 40px"";>מוכנים לשלם: <span id=""c_p_y""></span></p>","16","evaluation","51","9","14A,23A","25","18","16","","","","","","","","","","","","","","",""
"","","","","","html-keyboard-response","50","383599","0.0-17.0-2.10","2b98b5c7-6ddd-4ae8-8c5d-f716ed07dd5a","null","<p style=""text-align: center;"">+</p>","null","fixation","","","","","","","","","","","","","","","","","","","","",""
"","","","","","html-slider-response","51","384606","0.0-17.0-0.11","2b98b5c7-6ddd-4ae8-8c5d-f716ed07dd5a","1000","
                  <p style=""text-align: center;"">₪64
                                                <br>50%</p>
                  <p id=""wtp"" style=""text-align:center; margin-top: 0px; margin-bottom: 0px; font-size: 40px"";>&ensp;</p>","-","viewing","0","25","1B,3B,4A","","","","","","","","","","","","","","","","","",""
"","","","","","html-slider-response","52","388043","0.0-17.0-1.11","2b98b5c7-6ddd-4ae8-8c5d-f716ed07dd5a","3435","
                  <p style=""text-align: center;"">₪64
                                                <br>50%</p>
                  <p id=""wtp"" style=""text-align:center; margin-top: 0px; margin-bottom: 0px; font-size: 40px"";>מוכנים לשלם: <span id=""c_p_y""></span></p>","50","evaluation","50","25","1B,3B,4A","50","64","50","","","","","","","","","","","","","","",""
"","","","","","html-keyboard-response","53","389012","0.0-17.0-2.11","2b98b5c7-6ddd-4ae8-8c5d-f716ed07dd5a","null","<p style=""text-align: center;"">+</p>","null","fixation","","","","","","","","","","","","","","","","","","","","",""
"","","","","","html-slider-response","54","390015","0.0-17.0-0.12","2b98b5c7-6ddd-4ae8-8c5d-f716ed07dd5a","1000","
                  <p style=""text-align: center;"">₪4
                                                <br>50%</p>
                  <p id=""wtp"" style=""text-align:center; margin-top: 0px; margin-bottom: 0px; font-size: 40px"";>&ensp;</p>","-","viewing","0","2","4C,17B","","","","","","","","","","","","","","","","","",""
"","","","","","html-slider-response","55","392915","0.0-17.0-1.12","2b98b5c7-6ddd-4ae8-8c5d-f716ed07dd5a","2899","
                  <p style=""text-align: center;"">₪4
                                                <br>50%</p>
                  <p id=""wtp"" style=""text-align:center; margin-top: 0px; margin-bottom: 0px; font-size: 40px"";>מוכנים לשלם: <span id=""c_p_y""></span></p>","6","evaluation","27","2","4C,17B","50","4","6","","","","","","","","","","","","","","",""
"","","","","","html-keyboard-response","56","394090","0.0-17.0-2.12","2b98b5c7-6ddd-4ae8-8c5d-f716ed07dd5a","null","<p style=""text-align: center;"">+</p>","null","fixation","","","","","","","","","","","","","","","","","","","","",""
"","","","","","html-slider-response","57","395097","0.0-17.0-0.13","2b98b5c7-6ddd-4ae8-8c5d-f716ed07dd5a","1000","
                  <p style=""text-align: center;"">₪58
                                                <br>30%</p>
                  <p id=""wtp"" style=""text-align:center; margin-top: 0px; margin-bottom: 0px; font-size: 40px"";>&ensp;</p>","-","viewing","0","19","13C,30A","","","","","","","","","","","","","","","","","",""
"","","","","","html-slider-response","58","399099","0.0-17.0-1.13","2b98b5c7-6ddd-4ae8-8c5d-f716ed07dd5a","null","
                  <p style=""text-align: center;"">₪58
                                                <br>30%</p>
                  <p id=""wtp"" style=""text-align:center; margin-top: 0px; margin-bottom: 0px; font-size: 40px"";>מוכנים לשלם: <span id=""c_p_y""></span></p>","null","evaluation","29","19","13C,30A","30","58","30","","","","","","","","","","","","","","",""
"","","","","","html-keyboard-response","59","400198","0.0-17.0-2.13","2b98b5c7-6ddd-4ae8-8c5d-f716ed07dd5a","null","<p style=""text-align: center;"">+</p>","null","fixation","","","","","","","","","","","","","","","","","","","","",""
"","","","","","html-slider-response","60","401200","0.0-17.0-0.14","2b98b5c7-6ddd-4ae8-8c5d-f716ed07dd5a","1000","
                  <p style=""text-align: center;"">₪4
                                                <br>25%</p>
                  <p id=""wtp"" style=""text-align:center; margin-top: 0px; margin-bottom: 0px; font-size: 40px"";>&ensp;</p>","-","viewing","0","1","6C,29B,30C","","","","","","","","","","","","","","","","","",""
"","","","","","html-slider-response","61","403739","0.0-17.0-1.14","2b98b5c7-6ddd-4ae8-8c5d-f716ed07dd5a","2537","
                  <p style=""text-align: center;"">₪4
                                                <br>25%</p>
                  <p id=""wtp"" style=""text-align:center; margin-top: 0px; margin-bottom: 0px; font-size: 40px"";>מוכנים לשלם: <span id=""c_p_y""></span></p>","3","evaluation","30","1","6C,29B,30C","25","4","3","","","","","","","","","","","","","","",""
"","","","","","html-keyboard-response","62","405043","0.0-17.0-2.14","2b98b5c7-6ddd-4ae8-8c5d-f716ed07dd5a","null","<p style=""text-align: center;"">+</p>","null","fixation","","","","","","","","","","","","","","","","","","","","",""
"","","","","","html-slider-response","63","406048","0.0-17.0-0.15","2b98b5c7-6ddd-4ae8-8c5d-f716ed07dd5a","1000","
                  <p style=""text-align: center;"">₪71
                                                <br>75%</p>
                  <p id=""wtp"" style=""text-align:center; margin-top: 0px; margin-bottom: 0px; font-size: 40px"";>&ensp;</p>","-","viewing","0","28","8B","","","","","","","","","","","","","","","","","",""
"","","","","","html-slider-response","64","409987","0.0-17.0-1.15","2b98b5c7-6ddd-4ae8-8c5d-f716ed07dd5a","3939","
                  <p style=""text-align: center;"">₪71
                                                <br>75%</p>
                  <p id=""wtp"" style=""text-align:center; margin-top: 0px; margin-bottom: 0px; font-size: 40px"";>מוכנים לשלם: <span id=""c_p_y""></span></p>","55","evaluation","48","28","8B","75","71","55","","","","","","","","","","","","","","",""
"","","","","","html-keyboard-response","65","411484","0.0-17.0-2.15","2b98b5c7-6ddd-4ae8-8c5d-f716ed07dd5a","null","<p style=""text-align: center;"">+</p>","null","fixation","","","","","","","","","","","","","","","","","","","","",""
"","","","","","html-slider-response","66","412487","0.0-17.0-0.16","2b98b5c7-6ddd-4ae8-8c5d-f716ed07dd5a","1000","
                  <p style=""text-align: center;"">₪4
                                                <br>75%</p>
                  <p id=""wtp"" style=""text-align:center; margin-top: 0px; margin-bottom: 0px; font-size: 40px"";>&ensp;</p>","-","viewing","0","3","12B,20B,23B,27C,29C","","","","","","","","","","","","","","","","","",""
"","","","","","html-slider-response","67","414875","0.0-17.0-1.16","2b98b5c7-6ddd-4ae8-8c5d-f716ed07dd5a","2387","
                  <p style=""text-align: center;"">₪4
                                                <br>75%</p>
                  <p id=""wtp"" style=""text-align:center; margin-top: 0px; margin-bottom: 0px; font-size: 40px"";>מוכנים לשלם: <span id=""c_p_y""></span></p>","10","evaluation","6","3","12B,20B,23B,27C,29C","75","4","10","","","","","","","","","","","","","","",""
"","","","","","html-keyboard-response","68","416025","0.0-17.0-2.16","2b98b5c7-6ddd-4ae8-8c5d-f716ed07dd5a","null","<p style=""text-align: center;"">+</p>","null","fixation","","","","","","","","","","","","","","","","","","","","",""
"","","","","","html-slider-response","69","417036","0.0-17.0-0.17","2b98b5c7-6ddd-4ae8-8c5d-f716ed07dd5a","1000","
                  <p style=""text-align: center;"">₪36
                                                <br>60%</p>
                  <p id=""wtp"" style=""text-align:center; margin-top: 0px; margin-bottom: 0px; font-size: 40px"";>&ensp;</p>","-","viewing","0","12","1C,7C,15C","","","","","","","","","","","","","","","","","",""
"","","","","","html-slider-response","70","419499","0.0-17.0-1.17","2b98b5c7-6ddd-4ae8-8c5d-f716ed07dd5a","2462","
                  <p style=""text-align: center;"">₪36
                                                <br>60%</p>
                  <p id=""wtp"" style=""text-align:center; margin-top: 0px; margin-bottom: 0px; font-size: 40px"";>מוכנים לשלם: <span id=""c_p_y""></span></p>","36","evaluation","47","12","1C,7C,15C","60","36","36","","","","","","","","","","","","","","",""
"","","","","","html-keyboard-response","71","420919","0.0-17.0-2.17","2b98b5c7-6ddd-4ae8-8c5d-f716ed07dd5a","null","<p style=""text-align: center;"">+</p>","null","fixation","","","","","","","","","","","","","","","","","","","","",""
"","","","","","html-slider-response","72","421922","0.0-17.0-0.18","2b98b5c7-6ddd-4ae8-8c5d-f716ed07dd5a","1000","
                  <p style=""text-align: center;"">₪71
                                                <br>45%</p>
                  <p id=""wtp"" style=""text-align:center; margin-top: 0px; margin-bottom: 0px; font-size: 40px"";>&ensp;</p>","-","viewing","0","26","2B,16A","","","","","","","","","","","","","","","","","",""
"","","","","","html-slider-response","73","425936","0.0-17.0-1.18","2b98b5c7-6ddd-4ae8-8c5d-f716ed07dd5a","null","
                  <p style=""text-align: center;"">₪71
                                                <br>45%</p>
                  <p id=""wtp"" style=""text-align:center; margin-top: 0px; margin-bottom: 0px; font-size: 40px"";>מוכנים לשלם: <span id=""c_p_y""></span></p>","null","evaluation","28","26","2B,16A","45","71","39","","","","","","","","","","","","","","",""
"","","","","","html-keyboard-response","74","426757","0.0-17.0-2.18","2b98b5c7-6ddd-4ae8-8c5d-f716ed07dd5a","null","<p style=""text-align: center;"">+</p>","null","fixation","","","","","","","","","","","","","","","","","","","","",""
"","","","","","html-slider-response","75","427759","0.0-17.0-0.19","2b98b5c7-6ddd-4ae8-8c5d-f716ed07dd5a","1000","
                  <p style=""text-align: center;"">₪58
                                                <br>40%</p>
                  <p id=""wtp"" style=""text-align:center; margin-top: 0px; margin-bottom: 0px; font-size: 40px"";>&ensp;</p>","-","viewing","0","20","10C,13A,19C,21B","","","","","","","","","","","","","","","","","",""
"","","","","","html-slider-response","76","431139","0.0-17.0-1.19","2b98b5c7-6ddd-4ae8-8c5d-f716ed07dd5a","3379","
                  <p style=""text-align: center;"">₪58
                                                <br>40%</p>
                  <p id=""wtp"" style=""text-align:center; margin-top: 0px; margin-bottom: 0px; font-size: 40px"";>מוכנים לשלם: <span id=""c_p_y""></span></p>","39","evaluation","53","20","10C,13A,19C,21B","40","58","39","","","","","","","","","","","","","","",""
"","","","","","html-keyboard-response","77","431858","0.0-17.0-2.19","2b98b5c7-6ddd-4ae8-8c5d-f716ed07dd5a","null","<p style=""text-align: center;"">+</p>","null","fixation","","","","","","","","","","","","","","","","","","","","",""
"","","","","","html-slider-response","78","432860","0.0-17.0-0.20","2b98b5c7-6ddd-4ae8-8c5d-f716ed07dd5a","1000","
                  <p style=""text-align: center;"">₪36
                                                <br>75%</p>
                  <p id=""wtp"" style=""text-align:center; margin-top: 0px; margin-bottom: 0px; font-size: 40px"";>&ensp;</p>","-","viewing","0","14","4B,5A,13B,16B","","","","","","","","","","","","","","","","","",""
"","","","","","html-slider-response","79","436683","0.0-17.0-1.20","2b98b5c7-6ddd-4ae8-8c5d-f716ed07dd5a","3822","
                  <p style=""text-align: center;"">₪36
                                                <br>75%</p>
                  <p id=""wtp"" style=""text-align:center; margin-top: 0px; margin-bottom: 0px; font-size: 40px"";>מוכנים לשלם: <span id=""c_p_y""></span></p>","34","evaluation","15","14","4B,5A,13B,16B","75","36","34","","","","","","","","","","","","","","",""
"","","","","","html-keyboard-response","80","437434","0.0-17.0-2.20","2b98b5c7-6ddd-4ae8-8c5d-f716ed07dd5a","null","<p style=""text-align: center;"">+</p>","null","fixation","","","","","","","","","","","","","","","","","","","","",""
"","","","","","html-slider-response","81","438441","0.0-17.0-0.21","2b98b5c7-6ddd-4ae8-8c5d-f716ed07dd5a","1000","
                  <p style=""text-align: center;"">₪61
                                                <br>55%</p>
                  <p id=""wtp"" style=""text-align:center; margin-top: 0px; margin-bottom: 0px; font-size: 40px"";>&ensp;</p>","-","viewing","0","23","7B,26B","","","","","","","","","","","","","","","","","",""
"","","","","","html-slider-response","82","441347","0.0-17.0-1.21","2b98b5c7-6ddd-4ae8-8c5d-f716ed07dd5a","2906","
                  <p style=""text-align: center;"">₪61
                                                <br>55%</p>
                  <p id=""wtp"" style=""text-align:center; margin-top: 0px; margin-bottom: 0px; font-size: 40px"";>מוכנים לשלם: <span id=""c_p_y""></span></p>","60","evaluation","36","23","7B,26B","55","61","60","","","","","","","","","","","","","","",""
"","","","","","html-keyboard-response","83","442827","0.0-17.0-2.21","2b98b5c7-6ddd-4ae8-8c5d-f716ed07dd5a","null","<p style=""text-align: center;"">+</p>","null","fixation","","","","","","","","","","","","","","","","","","","","",""
"","","","","","html-slider-response","84","443840","0.0-17.0-0.22","2b98b5c7-6ddd-4ae8-8c5d-f716ed07dd5a","1000","
                  <p style=""text-align: center;"">₪79
                                                <br>40%</p>
                  <p id=""wtp"" style=""text-align:center; margin-top: 0px; margin-bottom: 0px; font-size: 40px"";>&ensp;</p>","-","viewing","0","30","9B","","","","","","","","","","","","","","","","","",""
"","","","","","html-slider-response","85","446611","0.0-17.0-1.22","2b98b5c7-6ddd-4ae8-8c5d-f716ed07dd5a","2770","
                  <p style=""text-align: center;"">₪79
                                                <br>40%</p>
                  <p id=""wtp"" style=""text-align:center; margin-top: 0px; margin-bottom: 0px; font-size: 40px"";>מוכנים לשלם: <span id=""c_p_y""></span></p>","58","evaluation","35","30","9B","40","79","58","","","","","","","","","","","","","","",""
"","","","","","html-keyboard-response","86","447265","0.0-17.0-2.22","2b98b5c7-6ddd-4ae8-8c5d-f716ed07dd5a","null","<p style=""text-align: center;"">+</p>","null","fixation","","","","","","","","","","","","","","","","","","","","",""
"","","","","","html-slider-response","87","448269","0.0-17.0-0.23","2b98b5c7-6ddd-4ae8-8c5d-f716ed07dd5a","1000","
                  <p style=""text-align: center;"">₪58
                                                <br>45%</p>
                  <p id=""wtp"" style=""text-align:center; margin-top: 0px; margin-bottom: 0px; font-size: 40px"";>&ensp;</p>","-","viewing","0","21","11C,18C,25A","","","","","","","","","","","","","","","","","",""
"","","","","","html-slider-response","88","451483","0.0-17.0-1.23","2b98b5c7-6ddd-4ae8-8c5d-f716ed07dd5a","3213","
                  <p style=""text-align: center;"">₪58
                                                <br>45%</p>
                  <p id=""wtp"" style=""text-align:center; margin-top: 0px; margin-bottom: 0px; font-size: 40px"";>מוכנים לשלם: <span id=""c_p_y""></span></p>","40","evaluation","52","21","11C,18C,25A","45","58","40","","","","","","","","","","","","","","",""
"","","","","","html-keyboard-response","89","452036","0.0-17.0-2.23","2b98b5c7-6ddd-4ae8-8c5d-f716ed07dd5a","null","<p style=""text-align: center;"">+</p>","null","fixation","","","","","","","","","","","","","","","","","","","","",""
"","","","","","html-slider-response","90","453045","0.0-17.0-0.24","2b98b5c7-6ddd-4ae8-8c5d-f716ed07dd5a","1000","
                  <p style=""text-align: center;"">₪61
                                                <br>45%</p>
                  <p id=""wtp"" style=""text-align:center; margin-top: 0px; margin-bottom: 0px; font-size: 40px"";>&ensp;</p>","-","viewing","0","22","10A,11A","","","","","","","","","","","","","","","","","",""
"","","","","","html-slider-response","91","456555","0.0-17.0-1.24","2b98b5c7-6ddd-4ae8-8c5d-f716ed07dd5a","3509","
                  <p style=""text-align: center;"">₪61
                                                <br>45%</p>
                  <p id=""wtp"" style=""text-align:center; margin-top: 0px; margin-bottom: 0px; font-size: 40px"";>מוכנים לשלם: <span id=""c_p_y""></span></p>","39","evaluation","39","22","10A,11A","45","61","39","","","","","","","","","","","","","","",""
"","","","","","html-keyboard-response","92","457383","0.0-17.0-2.24","2b98b5c7-6ddd-4ae8-8c5d-f716ed07dd5a","null","<p style=""text-align: center;"">+</p>","null","fixation","","","","","","","","","","","","","","","","","","","","",""
"","","","","","html-slider-response","93","458386","0.0-17.0-0.25","2b98b5c7-6ddd-4ae8-8c5d-f716ed07dd5a","1000","
                  <p style=""text-align: center;"">₪11
                                                <br>25%</p>
                  <p id=""wtp"" style=""text-align:center; margin-top: 0px; margin-bottom: 0px; font-size: 40px"";>&ensp;</p>","-","viewing","0","5","12A,27B,28B,30B","","","","","","","","","","","","","","","","","",""
"","","","","","html-slider-response","94","461227","0.0-17.0-1.25","2b98b5c7-6ddd-4ae8-8c5d-f716ed07dd5a","2840","
                  <p style=""text-align: center;"">₪11
                                                <br>25%</p>
                  <p id=""wtp"" style=""text-align:center; margin-top: 0px; margin-bottom: 0px; font-size: 40px"";>מוכנים לשלם: <span id=""c_p_y""></span></p>","8","evaluation","62","5","12A,27B,28B,30B","25","11","8","","","","","","","","","","","","","","",""
"","","","","","html-keyboard-response","95","461813","0.0-17.0-2.25","2b98b5c7-6ddd-4ae8-8c5d-f716ed07dd5a","null","<p style=""text-align: center;"">+</p>","null","fixation","","","","","","","","","","","","","","","","","","","","",""
"","","","","","html-slider-response","96","462822","0.0-17.0-0.26","2b98b5c7-6ddd-4ae8-8c5d-f716ed07dd5a","1000","
                  <p style=""text-align: center;"">₪43
                                                <br>75%</p>
                  <p id=""wtp"" style=""text-align:center; margin-top: 0px; margin-bottom: 0px; font-size: 40px"";>&ensp;</p>","-","viewing","0","18","11B,19B,24A,26A","","","","","","","","","","","","","","","","","",""
"","","","","","html-slider-response","97","466833","0.0-17.0-1.26","2b98b5c7-6ddd-4ae8-8c5d-f716ed07dd5a","null","
                  <p style=""text-align: center;"">₪43
                                                <br>75%</p>
                  <p id=""wtp"" style=""text-align:center; margin-top: 0px; margin-bottom: 0px; font-size: 40px"";>מוכנים לשלם: <span id=""c_p_y""></span></p>","null","evaluation","65","18","11B,19B,24A,26A","75","43","40","","","","","","","","","","","","","","",""
"","","","","","html-keyboard-response","98","467952","0.0-17.0-2.26","2b98b5c7-6ddd-4ae8-8c5d-f716ed07dd5a","null","<p style=""text-align: center;"">+</p>","null","fixation","","","","","","","","","","","","","","","","","","","","",""
"","","","","","html-slider-response","99","468954","0.0-17.0-0.27","2b98b5c7-6ddd-4ae8-8c5d-f716ed07dd5a","1000","
                  <p style=""text-align: center;"">₪39
                                                <br>65%</p>
                  <p id=""wtp"" style=""text-align:center; margin-top: 0px; margin-bottom: 0px; font-size: 40px"";>&ensp;</p>","-","viewing","0","16","1A,15A,26C","","","","","","","","","","","","","","","","","",""
"","","","","","html-slider-response","100","471083","0.0-17.0-1.27","2b98b5c7-6ddd-4ae8-8c5d-f716ed07dd5a","2128","
                  <p style=""text-align: center;"">₪39
                                                <br>65%</p>
                  <p id=""wtp"" style=""text-align:center; margin-top: 0px; margin-bottom: 0px; font-size: 40px"";>מוכנים לשלם: <span id=""c_p_y""></span></p>","40","evaluation","8","16","1A,15A,26C","65","39","40","","","","","","","","","","","","","","",""
"","","","","","html-keyboard-response","101","471608","0.0-17.0-2.27","2b98b5c7-6ddd-4ae8-8c5d-f716ed07dd5a","null","<p style=""text-align: center;"">+</p>","null","fixation","","","","","","","","","","","","","","","","","","","","",""
"","","","","","html-slider-response","102","472610","0.0-17.0-0.28","2b98b5c7-6ddd-4ae8-8c5d-f716ed07dd5a","1000","
                  <p style=""text-align: center;"">₪71
                                                <br>55%</p>
                  <p id=""wtp"" style=""text-align:center; margin-top: 0px; margin-bottom: 0px; font-size: 40px"";>&ensp;</p>","-","viewing","0","27","5B,18A","","","","","","","","","","","","","","","","","",""
"","","","","","html-slider-response","103","476043","0.0-17.0-1.28","2b98b5c7-6ddd-4ae8-8c5d-f716ed07dd5a","3432","
                  <p style=""text-align: center;"">₪71
                                                <br>55%</p>
                  <p id=""wtp"" style=""text-align:center; margin-top: 0px; margin-bottom: 0px; font-size: 40px"";>מוכנים לשלם: <span id=""c_p_y""></span></p>","70","evaluation","22","27","5B,18A","55","71","70","","","","","","","","","","","","","","",""
"","","","","","html-keyboard-response","104","477392","0.0-17.0-2.28","2b98b5c7-6ddd-4ae8-8c5d-f716ed07dd5a","null","<p style=""text-align: center;"">+</p>","null","fixation","","","","","","","","","","","","","","","","","","","","",""
"","","","","","html-slider-response","105","478406","0.0-17.0-0.29","2b98b5c7-6ddd-4ae8-8c5d-f716ed07dd5a","1000","
                  <p style=""text-align: center;"">₪39
                                                <br>60%</p>
                  <p id=""wtp"" style=""text-align:center; margin-top: 0px; margin-bottom: 0px; font-size: 40px"";>&ensp;</p>","-","viewing","0","15","9C,25B","","","","","","","","","","","","","","","","","",""
"","","","","","html-slider-response","106","481443","0.0-17.0-1.29","2b98b5c7-6ddd-4ae8-8c5d-f716ed07dd5a","3036","
                  <p style=""text-align: center;"">₪39
                                                <br>60%</p>
                  <p id=""wtp"" style=""text-align:center; margin-top: 0px; margin-bottom: 0px; font-size: 40px"";>מוכנים לשלם: <span id=""c_p_y""></span></p>","41","evaluation","35","15","9C,25B","60","39","41","","","","","","","","","","","","","","",""
"","","","","","html-keyboard-response","107","482284","0.0-17.0-2.29","2b98b5c7-6ddd-4ae8-8c5d-f716ed07dd5a","null","<p style=""text-align: center;"">+</p>","null","fixation","","","","","","","","","","","","","","","","","","","","",""
"","","","","","html-slider-response","108","483300","0.0-17.0-0.30","2b98b5c7-6ddd-4ae8-8c5d-f716ed07dd5a","1000","
                  <p style=""text-align: center;"">₪11
                                                <br>45%</p>
                  <p id=""wtp"" style=""text-align:center; margin-top: 0px; margin-bottom: 0px; font-size: 40px"";>&ensp;</p>","-","viewing","0","6","14B,21C,25C","","","","","","","","","","","","","","","","","",""
"","","","","","html-slider-response","109","486547","0.0-17.0-1.30","2b98b5c7-6ddd-4ae8-8c5d-f716ed07dd5a","3246","
                  <p style=""text-align: center;"">₪11
                                                <br>45%</p>
                  <p id=""wtp"" style=""text-align:center; margin-top: 0px; margin-bottom: 0px; font-size: 40px"";>מוכנים לשלם: <span id=""c_p_y""></span></p>","9","evaluation","60","6","14B,21C,25C","45","11","9","","","","","","","","","","","","","","",""
"","","","","","html-keyboard-response","110","487121","0.0-17.0-2.30","2b98b5c7-6ddd-4ae8-8c5d-f716ed07dd5a","null","<p style=""text-align: center;"">+</p>","null","fixation","","","","","","","","","","","","","","","","","","","","",""
"","","","","","html-keyboard-response","111","488123","0.0-18.0","2b98b5c7-6ddd-4ae8-8c5d-f716ed07dd5a","null","<p style=""text-align: center;"">+</p>","null","fixation","","","","","","","","","","","","","","","","","","","","",""
"","","","","","html-keyboard-response","112","493619","0.0-19.0","2b98b5c7-6ddd-4ae8-8c5d-f716ed07dd5a","null","<p>הפסקה.
          <br>לחצו כדי להמשיך.</p>","1","scan_wait","","","","","","","","","","","","","","","","","","","","",""
"","","","","","html-keyboard-response","113","494623","0.0-20.0","2b98b5c7-6ddd-4ae8-8c5d-f716ed07dd5a","null","<p style=""text-align: center;"">+</p>","null","fixation","","","","","","","","","","","","","","","","","","","","",""
"","","","","","html-slider-response","114","495636","0.0-21.0-0.0","2b98b5c7-6ddd-4ae8-8c5d-f716ed07dd5a","1000","
                  <p style=""text-align: center;"">₪61
                                                <br>45%</p>
                  <p id=""wtp"" style=""text-align:center; margin-top: 0px; margin-bottom: 0px; font-size: 40px"";>&ensp;</p>","-","viewing","0","22","10A,11A","","","","","","","","","","","","","","","","","",""
"","","","","","html-slider-response","115","499639","0.0-21.0-1.0","2b98b5c7-6ddd-4ae8-8c5d-f716ed07dd5a","null","
                  <p style=""text-align: center;"">₪61
                                                <br>45%</p>
                  <p id=""wtp"" style=""text-align:center; margin-top: 0px; margin-bottom: 0px; font-size: 40px"";>מוכנים לשלם: <span id=""c_p_y""></span></p>","null","evaluation","44","22","10A,11A","45","61","56","","","","","","","","","","","","","","",""
"","","","","","html-keyboard-response","116","500286","0.0-21.0-2.0","2b98b5c7-6ddd-4ae8-8c5d-f716ed07dd5a","null","<p style=""text-align: center;"">+</p>","null","fixation","","","","","","","","","","","","","","","","","","","","",""
"","","","","","html-slider-response","117","501288","0.0-21.0-0.1","2b98b5c7-6ddd-4ae8-8c5d-f716ed07dd5a","1000","
                  <p style=""text-align: center;"">₪39
                                                <br>65%</p>
                  <p id=""wtp"" style=""text-align:center; margin-top: 0px; margin-bottom: 0px; font-size: 40px"";>&ensp;</p>","-","viewing","0","16","1A,15A,26C","","","","","","","","","","","","","","","","","",""
"","","","","","html-slider-response","118","504043","0.0-21.0-1.1","2b98b5c7-6ddd-4ae8-8c5d-f716ed07dd5a","2754","
                  <p style=""text-align: center;"">₪39
                                                <br>65%</p>
                  <p id=""wtp"" style=""text-align:center; margin-top: 0px; margin-bottom: 0px; font-size: 40px"";>מוכנים לשלם: <span id=""c_p_y""></span></p>","41","evaluation","35","16","1A,15A,26C","65","39","41","","","","","","","","","","","","","","",""
"","","","","","html-keyboard-response","119","505244","0.0-21.0-2.1","2b98b5c7-6ddd-4ae8-8c5d-f716ed07dd5a","null","<p style=""text-align: center;"">+</p>","null","fixation","","","","","","","","","","","","","","","","","","","","",""
"","","","","","html-slider-response","120","506262","0.0-21.0-0.2","2b98b5c7-6ddd-4ae8-8c5d-f716ed07dd5a","1000","
                  <p style=""text-align: center;"">₪11
                                                <br>75%</p>
                  <p id=""wtp"" style=""text-align:center; margin-top: 0px; margin-bottom: 0px; font-size: 40px"";>&ensp;</p>","-","viewing","0","7","6B,18B,22C,24C,29A","","","","","","","","","","","","","","","","","",""
"","","","","","html-slider-response","121","508691","0.0-21.0-1.2","2b98b5c7-6ddd-4ae8-8c5d-f716ed07dd5a","2428","
                  <p style=""text-align: center;"">₪11
                                                <br>75%</p>
                  <p id=""wtp"" style=""text-align:center; margin-top: 0px; margin-bottom: 0px; font-size: 40px"";>מוכנים לשלם: <span id=""c_p_y""></span></p>","10","evaluation","18","7","6B,18B,22C,24C,29A","75","11","10","","","","","","","","","","","","","","",""
"","","","","","html-keyboard-response","122","509503","0.0-21.0-2.2","2b98b5c7-6ddd-4ae8-8c5d-f716ed07dd5a","null","<p style=""text-align: center;"">+</p>","null","fixation","","","","","","","","","","","","","","","","","","","","",""
"","","","","","html-slider-response","123","510516","0.0-21.0-0.3","2b98b5c7-6ddd-4ae8-8c5d-f716ed07dd5a","1000","
                  <p style=""text-align: center;"">₪43
                                                <br>75%</p>
                  <p id=""wtp"" style=""text-align:center; margin-top: 0px; margin-bottom: 0px; font-size: 40px"";>&ensp;</p>","-","viewing","0","18","11B,19B,24A,26A","","","","","","","","","","","","","","","","","",""
"","","","","","html-slider-response","124","512235","0.0-21.0-1.3","2b98b5c7-6ddd-4ae8-8c5d-f716ed07dd5a","1718","
                  <p style=""text-align: center;"">₪43
                                                <br>75%</p>
                  <p id=""wtp"" style=""text-align:center; margin-top: 0px; margin-bottom: 0px; font-size: 40px"";>מוכנים לשלם: <span id=""c_p_y""></span></p>","44","evaluation","3","18","11B,19B,24A,26A","75","43","44","","","","","","","","","","","","","","",""
"","","","","","html-keyboard-response","125","513693","0.0-21.0-2.3","2b98b5c7-6ddd-4ae8-8c5d-f716ed07dd5a","null","<p style=""text-align: center;"">+</p>","null","fixation","","","","","","","","","","","","","","","","","","","","",""
"","","","","","html-slider-response","126","514706","0.0-21.0-0.4","2b98b5c7-6ddd-4ae8-8c5d-f716ed07dd5a","1000","
                  <p style=""text-align: center;"">₪39
                                                <br>60%</p>
                  <p id=""wtp"" style=""text-align:center; margin-top: 0px; margin-bottom: 0px; font-size: 40px"";>&ensp;</p>","-","viewing","0","15","9C,25B","","","","","","","","","","","","","","","","","",""
"","","","","","html-slider-response","127","516595","0.0-21.0-1.4","2b98b5c7-6ddd-4ae8-8c5d-f716ed07dd5a","1888","
                  <p style=""text-align: center;"">₪39
                                                <br>60%</p>
                  <p id=""wtp"" style=""text-align:center; margin-top: 0px; margin-bottom: 0px; font-size: 40px"";>מוכנים לשלם: <span id=""c_p_y""></span></p>","40","evaluation","6","15","9C,25B","60","39","40","","","","","","","","","","","","","","",""
"","","","","","html-keyboard-response","128","517919","0.0-21.0-2.4","2b98b5c7-6ddd-4ae8-8c5d-f716ed07dd5a","null","<p style=""text-align: center;"">+</p>","null","fixation","","","","","","","","","","","","","","","","","","","","",""
"","","","","","html-slider-response","129","518929","0.0-21.0-0.5","2b98b5c7-6ddd-4ae8-8c5d-f716ed07dd5a","1000","
                  <p style=""text-align: center;"">₪71
                                                <br>75%</p>
                  <p id=""wtp"" style=""text-align:center; margin-top: 0px; margin-bottom: 0px; font-size: 40px"";>&ensp;</p>","-","viewing","0","28","8B","","","","","","","","","","","","","","","","","",""
"","","","","","html-slider-response","130","522936","0.0-21.0-1.5","2b98b5c7-6ddd-4ae8-8c5d-f716ed07dd5a","null","
                  <p style=""text-align: center;"">₪71
                                                <br>75%</p>
                  <p id=""wtp"" style=""text-align:center; margin-top: 0px; margin-bottom: 0px; font-size: 40px"";>מוכנים לשלם: <span id=""c_p_y""></span></p>","null","evaluation","18","28","8B","75","71","68","","","","","","","","","","","","","","",""
"","","","","","html-keyboard-response","131","523483","0.0-21.0-2.5","2b98b5c7-6ddd-4ae8-8c5d-f716ed07dd5a","null","<p style=""text-align: center;"">+</p>","null","fixation","","","","","","","","","","","","","","","","","","","","",""
"","","","","","html-slider-response","132","524488","0.0-21.0-0.6","2b98b5c7-6ddd-4ae8-8c5d-f716ed07dd5a","1000","
                  <p style=""text-align: center;"">₪36
                                                <br>70%</p>
                  <p id=""wtp"" style=""text-align:center; margin-top: 0px; margin-bottom: 0px; font-size: 40px"";>&ensp;</p>","-","viewing","0","13","3A,5C,10B","","","","","","","","","","","","","","","","","",""
"","","","","","html-slider-response","133","526811","0.0-21.0-1.6","2b98b5c7-6ddd-4ae8-8c5d-f716ed07dd5a","2322","
                  <p style=""text-align: center;"">₪36
                                                <br>70%</p>
                  <p id=""wtp"" style=""text-align:center; margin-top: 0px; margin-bottom: 0px; font-size: 40px"";>מוכנים לשלם: <span id=""c_p_y""></span></p>","38","evaluation","77","13","3A,5C,10B","70","36","38","","","","","","","","","","","","","","",""
"","","","","","html-keyboard-response","134","528269","0.0-21.0-2.6","2b98b5c7-6ddd-4ae8-8c5d-f716ed07dd5a","null","<p style=""text-align: center;"">+</p>","null","fixation","","","","","","","","","","","","","","","","","","","","",""
"","","","","","html-slider-response","135","529273","0.0-21.0-0.7","2b98b5c7-6ddd-4ae8-8c5d-f716ed07dd5a","1000","
                  <p style=""text-align: center;"">₪61
                                                <br>55%</p>
                  <p id=""wtp"" style=""text-align:center; margin-top: 0px; margin-bottom: 0px; font-size: 40px"";>&ensp;</p>","-","viewing","0","23","7B,26B","","","","","","","","","","","","","","","","","",""
"","","","","","html-slider-response","136","532835","0.0-21.0-1.7","2b98b5c7-6ddd-4ae8-8c5d-f716ed07dd5a","3561","
                  <p style=""text-align: center;"">₪61
                                                <br>55%</p>
                  <p id=""wtp"" style=""text-align:center; margin-top: 0px; margin-bottom: 0px; font-size: 40px"";>מוכנים לשלם: <span id=""c_p_y""></span></p>","55","evaluation","19","23","7B,26B","55","61","55","","","","","","","","","","","","","","",""
"","","","","","html-keyboard-response","137","533476","0.0-21.0-2.7","2b98b5c7-6ddd-4ae8-8c5d-f716ed07dd5a","null","<p style=""text-align: center;"">+</p>","null","fixation","","","","","","","","","","","","","","","","","","","","",""
"","","","","","html-slider-response","138","534488","0.0-21.0-0.8","2b98b5c7-6ddd-4ae8-8c5d-f716ed07dd5a","1000","
                  <p style=""text-align: center;"">₪4
                                                <br>50%</p>
                  <p id=""wtp"" style=""text-align:center; margin-top: 0px; margin-bottom: 0px; font-size: 40px"";>&ensp;</p>","-","viewing","0","2","4C,17B","","","","","","","","","","","","","","","","","",""
"","","","","","html-slider-response","139","537203","0.0-21.0-1.8","2b98b5c7-6ddd-4ae8-8c5d-f716ed07dd5a","2714","
                  <p style=""text-align: center;"">₪4
                                                <br>50%</p>
                  <p id=""wtp"" style=""text-align:center; margin-top: 0px; margin-bottom: 0px; font-size: 40px"";>מוכנים לשלם: <span id=""c_p_y""></span></p>","9","evaluation","37","2","4C,17B","50","4","9","","","","","","","","","","","","","","",""
"","","","","","html-keyboard-response","140","537714","0.0-21.0-2.8","2b98b5c7-6ddd-4ae8-8c5d-f716ed07dd5a","null","<p style=""text-align: center;"">+</p>","null","fixation","","","","","","","","","","","","","","","","","","","","",""
"","","","","","html-slider-response","141","538716","0.0-21.0-0.9","2b98b5c7-6ddd-4ae8-8c5d-f716ed07dd5a","1000","
                  <p style=""text-align: center;"">₪18
                                                <br>25%</p>
                  <p id=""wtp"" style=""text-align:center; margin-top: 0px; margin-bottom: 0px; font-size: 40px"";>&ensp;</p>","-","viewing","0","9","14A,23A","","","","","","","","","","","","","","","","","",""
"","","","","","html-slider-response","142","541763","0.0-21.0-1.9","2b98b5c7-6ddd-4ae8-8c5d-f716ed07dd5a","3046","
                  <p style=""text-align: center;"">₪18
                                                <br>25%</p>
                  <p id=""wtp"" style=""text-align:center; margin-top: 0px; margin-bottom: 0px; font-size: 40px"";>מוכנים לשלם: <span id=""c_p_y""></span></p>","17","evaluation","18","9","14A,23A","25","18","17","","","","","","","","","","","","","","",""
"","","","","","html-keyboard-response","143","542404","0.0-21.0-2.9","2b98b5c7-6ddd-4ae8-8c5d-f716ed07dd5a","null","<p style=""text-align: center;"">+</p>","null","fixation","","","","","","","","","","","","","","","","","","","","",""
"","","","","","html-slider-response","144","543422","0.0-21.0-0.10","2b98b5c7-6ddd-4ae8-8c5d-f716ed07dd5a","1000","
                  <p style=""text-align: center;"">₪79
                                                <br>65%</p>
                  <p id=""wtp"" style=""text-align:center; margin-top: 0px; margin-bottom: 0px; font-size: 40px"";>&ensp;</p>","-","viewing","0","31","8A","","","","","","","","","","","","","","","","","",""
"","","","","","html-slider-response","145","545987","0.0-21.0-1.10","2b98b5c7-6ddd-4ae8-8c5d-f716ed07dd5a","2564","
                  <p style=""text-align: center;"">₪79
                                                <br>65%</p>
                  <p id=""wtp"" style=""text-align:center; margin-top: 0px; margin-bottom: 0px; font-size: 40px"";>מוכנים לשלם: <span id=""c_p_y""></span></p>","72","evaluation","66","31","8A","65","79","71","","","","","","","","","","","","","","",""
"","","","","","html-keyboard-response","146","547256","0.0-21.0-2.10","2b98b5c7-6ddd-4ae8-8c5d-f716ed07dd5a","null","<p style=""text-align: center;"">+</p>","null","fixation","","","","","","","","","","","","","","","","","","","","",""
"","","","","","html-slider-response","147","548270","0.0-21.0-0.11","2b98b5c7-6ddd-4ae8-8c5d-f716ed07dd5a","1000","
                  <p style=""text-align: center;"">₪16
                                                <br>20%</p>
                  <p id=""wtp"" style=""text-align:center; margin-top: 0px; margin-bottom: 0px; font-size: 40px"";>&ensp;</p>","-","viewing","0","8","14C,17A,20C,27A","","","","","","","","","","","","","","","","","",""
"","","","","","html-slider-response","148","551731","0.0-21.0-1.11","2b98b5c7-6ddd-4ae8-8c5d-f716ed07dd5a","3460","
                  <p style=""text-align: center;"">₪16
                                                <br>20%</p>
                  <p id=""wtp"" style=""text-align:center; margin-top: 0px; margin-bottom: 0px; font-size: 40px"";>מוכנים לשלם: <span id=""c_p_y""></span></p>","6","evaluation","36","8","14C,17A,20C,27A","20","16","6","","","","","","","","","","","","","","",""
"","","","","","html-keyboard-response","149","552820","0.0-21.0-2.11","2b98b5c7-6ddd-4ae8-8c5d-f716ed07dd5a","null","<p style=""text-align: center;"">+</p>","null","fixation","","","","","","","","","","","","","","","","","","","","",""
"","","","","","html-slider-response","150","553836","0.0-21.0-0.12","2b98b5c7-6ddd-4ae8-8c5d-f716ed07dd5a","1000","
                  <p style=""text-align: center;"">₪43
                                                <br>60%</p>
                  <p id=""wtp"" style=""text-align:center; margin-top: 0px; margin-bottom: 0px; font-size: 40px"";>&ensp;</p>","-","viewing","0","17","2A,7A,9A,15B","","","","","","","","","","","","","","","","","",""
"","","","","","html-slider-response","151","555555","0.0-21.0-1.12","2b98b5c7-6ddd-4ae8-8c5d-f716ed07dd5a","1719","
                  <p style=""text-align: center;"">₪43
                                                <br>60%</p>
                  <p id=""wtp"" style=""text-align:center; margin-top: 0px; margin-bottom: 0px; font-size: 40px"";>מוכנים לשלם: <span id=""c_p_y""></span></p>","41","evaluation","75","17","2A,7A,9A,15B","60","43","41","","","","","","","","","","","","","","",""
"","","","","","html-keyboard-response","152","556931","0.0-21.0-2.12","2b98b5c7-6ddd-4ae8-8c5d-f716ed07dd5a","null","<p style=""text-align: center;"">+</p>","null","fixation","","","","","","","","","","","","","","","","","","","","",""
"","","","","","html-slider-response","153","557941","0.0-21.0-0.13","2b98b5c7-6ddd-4ae8-8c5d-f716ed07dd5a","1000","
                  <p style=""text-align: center;"">₪79
                                                <br>40%</p>
                  <p id=""wtp"" style=""text-align:center; margin-top: 0px; margin-bottom: 0px; font-size: 40px"";>&ensp;</p>","-","viewing","0","30","9B","","","","","","","","","","","","","","","","","",""
"","","","","","html-slider-response","154","560444","0.0-21.0-1.13","2b98b5c7-6ddd-4ae8-8c5d-f716ed07dd5a","2501","
                  <p style=""text-align: center;"">₪79
                                                <br>40%</p>
                  <p id=""wtp"" style=""text-align:center; margin-top: 0px; margin-bottom: 0px; font-size: 40px"";>מוכנים לשלם: <span id=""c_p_y""></span></p>","57","evaluation","55","30","9B","40","79","57","","","","","","","","","","","","","","",""
"","","","","","html-keyboard-response","155","561144","0.0-21.0-2.13","2b98b5c7-6ddd-4ae8-8c5d-f716ed07dd5a","null","<p style=""text-align: center;"">+</p>","null","fixation","","","","","","","","","","","","","","","","","","","","",""
"","","","","","html-slider-response","156","562151","0.0-21.0-0.14","2b98b5c7-6ddd-4ae8-8c5d-f716ed07dd5a","1000","
                  <p style=""text-align: center;"">₪18
                                                <br>50%</p>
                  <p id=""wtp"" style=""text-align:center; margin-top: 0px; margin-bottom: 0px; font-size: 40px"";>&ensp;</p>","-","viewing","0","10","2C,16C,22B,28A","","","","","","","","","","","","","","","","","",""
"","","","","","html-slider-response","157","564907","0.0-21.0-1.14","2b98b5c7-6ddd-4ae8-8c5d-f716ed07dd5a","2755","
                  <p style=""text-align: center;"">₪18
                                                <br>50%</p>
                  <p id=""wtp"" style=""text-align:center; margin-top: 0px; margin-bottom: 0px; font-size: 40px"";>מוכנים לשלם: <span id=""c_p_y""></span></p>","16","evaluation","34","10","2C,16C,22B,28A","50","18","16","","","","","","","","","","","","","","",""
"","","","","","html-keyboard-response","158","565617","0.0-21.0-2.14","2b98b5c7-6ddd-4ae8-8c5d-f716ed07dd5a","null","<p style=""text-align: center;"">+</p>","null","fixation","","","","","","","","","","","","","","","","","","","","",""
"","","","","","html-slider-response","159","566627","0.0-21.0-0.15","2b98b5c7-6ddd-4ae8-8c5d-f716ed07dd5a","1000","
                  <p style=""text-align: center;"">₪76
                                                <br>65%</p>
                  <p id=""wtp"" style=""text-align:center; margin-top: 0px; margin-bottom: 0px; font-size: 40px"";>&ensp;</p>","-","viewing","0","29","8C,19A,24B","","","","","","","","","","","","","","","","","",""
"","","","","","html-slider-response","160","570076","0.0-21.0-1.15","2b98b5c7-6ddd-4ae8-8c5d-f716ed07dd5a","3447","
                  <p style=""text-align: center;"">₪76
                                                <br>65%</p>
                  <p id=""wtp"" style=""text-align:center; margin-top: 0px; margin-bottom: 0px; font-size: 40px"";>מוכנים לשלם: <span id=""c_p_y""></span></p>","75","evaluation","45","29","8C,19A,24B","65","76","74","","","","","","","","","","","","","","",""
"","","","","","html-keyboard-response","161","571096","0.0-21.0-2.15","2b98b5c7-6ddd-4ae8-8c5d-f716ed07dd5a","null","<p style=""text-align: center;"">+</p>","null","fixation","","","","","","","","","","","","","","","","","","","","",""
"","","","","","html-slider-response","162","572104","0.0-21.0-0.16","2b98b5c7-6ddd-4ae8-8c5d-f716ed07dd5a","1000","
                  <p style=""text-align: center;"">₪4
                                                <br>25%</p>
                  <p id=""wtp"" style=""text-align:center; margin-top: 0px; margin-bottom: 0px; font-size: 40px"";>&ensp;</p>","-","viewing","0","1","6C,29B,30C","","","","","","","","","","","","","","","","","",""
"","","","","","html-slider-response","163","575003","0.0-21.0-1.16","2b98b5c7-6ddd-4ae8-8c5d-f716ed07dd5a","2899","
                  <p style=""text-align: center;"">₪4
                                                <br>25%</p>
                  <p id=""wtp"" style=""text-align:center; margin-top: 0px; margin-bottom: 0px; font-size: 40px"";>מוכנים לשלם: <span id=""c_p_y""></span></p>","8","evaluation","10","1","6C,29B,30C","25","4","8","","","","","","","","","","","","","","",""
"","","","","","html-keyboard-response","164","576146","0.0-21.0-2.16","2b98b5c7-6ddd-4ae8-8c5d-f716ed07dd5a","null","<p style=""text-align: center;"">+</p>","null","fixation","","","","","","","","","","","","","","","","","","","","",""
"","","","","","html-slider-response","165","577162","0.0-21.0-0.17","2b98b5c7-6ddd-4ae8-8c5d-f716ed07dd5a","1000","
                  <p style=""text-align: center;"">₪36
                                                <br>75%</p>
                  <p id=""wtp"" style=""text-align:center; margin-top: 0px; margin-bottom: 0px; font-size: 40px"";>&ensp;</p>","-","viewing","0","14","4B,5A,13B,16B","","","","","","","","","","","","","","","","","",""
"","","","","","html-slider-response","166","581141","0.0-21.0-1.17","2b98b5c7-6ddd-4ae8-8c5d-f716ed07dd5a","3978","
                  <p style=""text-align: center;"">₪36
                                                <br>75%</p>
                  <p id=""wtp"" style=""text-align:center; margin-top: 0px; margin-bottom: 0px; font-size: 40px"";>מוכנים לשלם: <span id=""c_p_y""></span></p>","39","evaluation","12","14","4B,5A,13B,16B","75","36","39","","","","","","","","","","","","","","",""
"","","","","","html-keyboard-response","167","581967","0.0-21.0-2.17","2b98b5c7-6ddd-4ae8-8c5d-f716ed07dd5a","null","<p style=""text-align: center;"">+</p>","null","fixation","","","","","","","","","","","","","","","","","","","","",""
"","","","","","html-slider-response","168","582980","0.0-21.0-0.18","2b98b5c7-6ddd-4ae8-8c5d-f716ed07dd5a","1000","
                  <p style=""text-align: center;"">₪58
                                                <br>30%</p>
                  <p id=""wtp"" style=""text-align:center; margin-top: 0px; margin-bottom: 0px; font-size: 40px"";>&ensp;</p>","-","viewing","0","19","13C,30A","","","","","","","","","","","","","","","","","",""
"","","","","","html-slider-response","169","586275","0.0-21.0-1.18","2b98b5c7-6ddd-4ae8-8c5d-f716ed07dd5a","3294","
                  <p style=""text-align: center;"">₪58
                                                <br>30%</p>
                  <p id=""wtp"" style=""text-align:center; margin-top: 0px; margin-bottom: 0px; font-size: 40px"";>מוכנים לשלם: <span id=""c_p_y""></span></p>","40","evaluation","63","19","13C,30A","30","58","40","","","","","","","","","","","","","","",""
"","","","","","html-keyboard-response","170","587408","0.0-21.0-2.18","2b98b5c7-6ddd-4ae8-8c5d-f716ed07dd5a","null","<p style=""text-align: center;"">+</p>","null","fixation","","","","","","","","","","","","","","","","","","","","",""
"","","","","","html-slider-response","171","588418","0.0-21.0-0.19","2b98b5c7-6ddd-4ae8-8c5d-f716ed07dd5a","1000","
                  <p style=""text-align: center;"">₪11
                                                <br>45%</p>
                  <p id=""wtp"" style=""text-align:center; margin-top: 0px; margin-bottom: 0px; font-size: 40px"";>&ensp;</p>","-","viewing","0","6","14B,21C,25C","","","","","","","","","","","","","","","","","",""
"","","","","","html-slider-response","172","590995","0.0-21.0-1.19","2b98b5c7-6ddd-4ae8-8c5d-f716ed07dd5a","2576","
                  <p style=""text-align: center;"">₪11
                                                <br>45%</p>
                  <p id=""wtp"" style=""text-align:center; margin-top: 0px; margin-bottom: 0px; font-size: 40px"";>מוכנים לשלם: <span id=""c_p_y""></span></p>","9","evaluation","80","6","14B,21C,25C","45","11","9","","","","","","","","","","","","","","",""
"","","","","","html-keyboard-response","173","591965","0.0-21.0-2.19","2b98b5c7-6ddd-4ae8-8c5d-f716ed07dd5a","null","<p style=""text-align: center;"">+</p>","null","fixation","","","","","","","","","","","","","","","","","","","","",""
"","","","","","html-slider-response","174","592972","0.0-21.0-0.20","2b98b5c7-6ddd-4ae8-8c5d-f716ed07dd5a","1000","
                  <p style=""text-align: center;"">₪71
                                                <br>45%</p>
                  <p id=""wtp"" style=""text-align:center; margin-top: 0px; margin-bottom: 0px; font-size: 40px"";>&ensp;</p>","-","viewing","0","26","2B,16A","","","","","","","","","","","","","","","","","",""
"","","","","","html-slider-response","175","595339","0.0-21.0-1.20","2b98b5c7-6ddd-4ae8-8c5d-f716ed07dd5a","2366","
                  <p style=""text-align: center;"">₪71
                                                <br>45%</p>
                  <p id=""wtp"" style=""text-align:center; margin-top: 0px; margin-bottom: 0px; font-size: 40px"";>מוכנים לשלם: <span id=""c_p_y""></span></p>","60","evaluation","51","26","2B,16A","45","71","60","","","","","","","","","","","","","","",""
"","","","","","html-keyboard-response","176","595902","0.0-21.0-2.20","2b98b5c7-6ddd-4ae8-8c5d-f716ed07dd5a","null","<p style=""text-align: center;"">+</p>","null","fixation","","","","","","","","","","","","","","","","","","","","",""
"","","","","","html-slider-response","177","596921","0.0-21.0-0.21","2b98b5c7-6ddd-4ae8-8c5d-f716ed07dd5a","1000","
                  <p style=""text-align: center;"">₪58
                                                <br>45%</p>
                  <p id=""wtp"" style=""text-align:center; margin-top: 0px; margin-bottom: 0px; font-size: 40px"";>&ensp;</p>","-","viewing","0","21","11C,18C,25A","","","","","","","","","","","","","","","","","",""
"","","","","","html-slider-response","178","600923","0.0-21.0-1.21","2b98b5c7-6ddd-4ae8-8c5d-f716ed07dd5a","null","
                  <p style=""text-align: center;"">₪58
                                                <br>45%</p>
                  <p id=""wtp"" style=""text-align:center; margin-top: 0px; margin-bottom: 0px; font-size: 40px"";>מוכנים לשלם: <span id=""c_p_y""></span></p>","null","evaluation","35","21","11C,18C,25A","45","58","51","","","","","","","","","","","","","","",""
"","","","","","html-keyboard-response","179","601550","0.0-21.0-2.21","2b98b5c7-6ddd-4ae8-8c5d-f716ed07dd5a","null","<p style=""text-align: center;"">+</p>","null","fixation","","","","","","","","","","","","","","","","","","","","",""
"","","","","","html-slider-response","180","602553","0.0-21.0-0.22","2b98b5c7-6ddd-4ae8-8c5d-f716ed07dd5a","1000","
                  <p style=""text-align: center;"">₪4
                                                <br>75%</p>
                  <p id=""wtp"" style=""text-align:center; margin-top: 0px; margin-bottom: 0px; font-size: 40px"";>&ensp;</p>","-","viewing","0","3","12B,20B,23B,27C,29C","","","","","","","","","","","","","","","","","",""
"","","","","","html-slider-response","181","605259","0.0-21.0-1.22","2b98b5c7-6ddd-4ae8-8c5d-f716ed07dd5a","2705","
                  <p style=""text-align: center;"">₪4
                                                <br>75%</p>
                  <p id=""wtp"" style=""text-align:center; margin-top: 0px; margin-bottom: 0px; font-size: 40px"";>מוכנים לשלם: <span id=""c_p_y""></span></p>","6","evaluation","14","3","12B,20B,23B,27C,29C","75","4","6","","","","","","","","","","","","","","",""
"","","","","","html-keyboard-response","182","606664","0.0-21.0-2.22","2b98b5c7-6ddd-4ae8-8c5d-f716ed07dd5a","null","<p style=""text-align: center;"">+</p>","null","fixation","","","","","","","","","","","","","","","","","","","","",""
"","","","","","html-slider-response","183","607677","0.0-21.0-0.23","2b98b5c7-6ddd-4ae8-8c5d-f716ed07dd5a","1000","
                  <p style=""text-align: center;"">₪64
                                                <br>50%</p>
                  <p id=""wtp"" style=""text-align:center; margin-top: 0px; margin-bottom: 0px; font-size: 40px"";>&ensp;</p>","-","viewing","0","25","1B,3B,4A","","","","","","","","","","","","","","","","","",""
"","","","","","html-slider-response","184","611155","0.0-21.0-1.23","2b98b5c7-6ddd-4ae8-8c5d-f716ed07dd5a","3477","
                  <p style=""text-align: center;"">₪64
                                                <br>50%</p>
                  <p id=""wtp"" style=""text-align:center; margin-top: 0px; margin-bottom: 0px; font-size: 40px"";>מוכנים לשלם: <span id=""c_p_y""></span></p>","52","evaluation","50","25","1B,3B,4A","50","64","52","","","","","","","","","","","","","","",""
"","","","","","html-keyboard-response","185","612347","0.0-21.0-2.23","2b98b5c7-6ddd-4ae8-8c5d-f716ed07dd5a","null","<p style=""text-align: center;"">+</p>","null","fixation","","","","","","","","","","","","","","","","","","","","",""
"","","","","","html-slider-response","186","613365","0.0-21.0-0.24","2b98b5c7-6ddd-4ae8-8c5d-f716ed07dd5a","1000","
                  <p style=""text-align: center;"">₪11
                                                <br>20%</p>
                  <p id=""wtp"" style=""text-align:center; margin-top: 0px; margin-bottom: 0px; font-size: 40px"";>&ensp;</p>","-","viewing","0","4","12C,17C,23C,28C","","","","","","","","","","","","","","","","","",""
"","","","","","html-slider-response","187","617367","0.0-21.0-1.24","2b98b5c7-6ddd-4ae8-8c5d-f716ed07dd5a","null","
                  <p style=""text-align: center;"">₪11
                                                <br>20%</p>
                  <p id=""wtp"" style=""text-align:center; margin-top: 0px; margin-bottom: 0px; font-size: 40px"";>מוכנים לשלם: <span id=""c_p_y""></span></p>","null","evaluation","74","4","12C,17C,23C,28C","20","11","15","","","","","","","","","","","","","","",""
"","","","","","html-keyboard-response","188","618742","0.0-21.0-2.24","2b98b5c7-6ddd-4ae8-8c5d-f716ed07dd5a","null","<p style=""text-align: center;"">+</p>","null","fixation","","","","","","","","","","","","","","","","","","","","",""
"","","","","","html-slider-response","189","619744","0.0-21.0-0.25","2b98b5c7-6ddd-4ae8-8c5d-f716ed07dd5a","1000","
                  <p style=""text-align: center;"">₪11
                                                <br>25%</p>
                  <p id=""wtp"" style=""text-align:center; margin-top: 0px; margin-bottom: 0px; font-size: 40px"";>&ensp;</p>","-","viewing","0","5","12A,27B,28B,30B","","","","","","","","","","","","","","","","","",""
"","","","","","html-slider-response","190","621627","0.0-21.0-1.25","2b98b5c7-6ddd-4ae8-8c5d-f716ed07dd5a","1882","
                  <p style=""text-align: center;"">₪11
                                                <br>25%</p>
                  <p id=""wtp"" style=""text-align:center; margin-top: 0px; margin-bottom: 0px; font-size: 40px"";>מוכנים לשלם: <span id=""c_p_y""></span></p>","15","evaluation","11","5","12A,27B,28B,30B","25","11","15","","","","","","","","","","","","","","",""
"","","","","","html-keyboard-response","191","622780","0.0-21.0-2.25","2b98b5c7-6ddd-4ae8-8c5d-f716ed07dd5a","null","<p style=""text-align: center;"">+</p>","null","fixation","","","","","","","","","","","","","","","","","","","","",""
"","","","","","html-slider-response","192","623797","0.0-21.0-0.26","2b98b5c7-6ddd-4ae8-8c5d-f716ed07dd5a","1000","
                  <p style=""text-align: center;"">₪36
                                                <br>60%</p>
                  <p id=""wtp"" style=""text-align:center; margin-top: 0px; margin-bottom: 0px; font-size: 40px"";>&ensp;</p>","-","viewing","0","12","1C,7C,15C","","","","","","","","","","","","","","","","","",""
"","","","","","html-slider-response","193","627011","0.0-21.0-1.26","2b98b5c7-6ddd-4ae8-8c5d-f716ed07dd5a","3213","
                  <p style=""text-align: center;"">₪36
                                                <br>60%</p>
                  <p id=""wtp"" style=""text-align:center; margin-top: 0px; margin-bottom: 0px; font-size: 40px"";>מוכנים לשלם: <span id=""c_p_y""></span></p>","39","evaluation","45","12","1C,7C,15C","60","36","39","","","","","","","","","","","","","","",""
"","","","","","html-keyboard-response","194","628382","0.0-21.0-2.26","2b98b5c7-6ddd-4ae8-8c5d-f716ed07dd5a","null","<p style=""text-align: center;"">+</p>","null","fixation","","","","","","","","","","","","","","","","","","","","",""
"","","","","","html-slider-response","195","629397","0.0-21.0-0.27","2b98b5c7-6ddd-4ae8-8c5d-f716ed07dd5a","1000","
                  <p style=""text-align: center;"">₪64
                                                <br>25%</p>
                  <p id=""wtp"" style=""text-align:center; margin-top: 0px; margin-bottom: 0px; font-size: 40px"";>&ensp;</p>","-","viewing","0","24","6A,21A","","","","","","","","","","","","","","","","","",""
"","","","","","html-slider-response","196","633413","0.0-21.0-1.27","2b98b5c7-6ddd-4ae8-8c5d-f716ed07dd5a","null","
                  <p style=""text-align: center;"">₪64
                                                <br>25%</p>
                  <p id=""wtp"" style=""text-align:center; margin-top: 0px; margin-bottom: 0px; font-size: 40px"";>מוכנים לשלם: <span id=""c_p_y""></span></p>","null","evaluation","55","24","6A,21A","25","64","62","","","","","","","","","","","","","","",""
"","","","","","html-keyboard-response","197","634888","0.0-21.0-2.27","2b98b5c7-6ddd-4ae8-8c5d-f716ed07dd5a","null","<p style=""text-align: center;"">+</p>","null","fixation","","","","","","","","","","","","","","","","","","","","",""
"","","","","","html-slider-response","198","635891","0.0-21.0-0.28","2b98b5c7-6ddd-4ae8-8c5d-f716ed07dd5a","1000","
                  <p style=""text-align: center;"">₪36
                                                <br>30%</p>
                  <p id=""wtp"" style=""text-align:center; margin-top: 0px; margin-bottom: 0px; font-size: 40px"";>&ensp;</p>","-","viewing","0","11","3C,20A,22A","","","","","","","","","","","","","","","","","",""
"","","","","","html-slider-response","199","639043","0.0-21.0-1.28","2b98b5c7-6ddd-4ae8-8c5d-f716ed07dd5a","3151","
                  <p style=""text-align: center;"">₪36
                                                <br>30%</p>
                  <p id=""wtp"" style=""text-align:center; margin-top: 0px; margin-bottom: 0px; font-size: 40px"";>מוכנים לשלם: <span id=""c_p_y""></span></p>","39","evaluation","51","11","3C,20A,22A","30","36","39","","","","","","","","","","","","","","",""
"","","","","","html-keyboard-response","200","639650","0.0-21.0-2.28","2b98b5c7-6ddd-4ae8-8c5d-f716ed07dd5a","null","<p style=""text-align: center;"">+</p>","null","fixation","","","","","","","","","","","","","","","","","","","","",""
"","","","","","html-slider-response","201","640654","0.0-21.0-0.29","2b98b5c7-6ddd-4ae8-8c5d-f716ed07dd5a","1000","
                  <p style=""text-align: center;"">₪71
                                                <br>55%</p>
                  <p id=""wtp"" style=""text-align:center; margin-top: 0px; margin-bottom: 0px; font-size: 40px"";>&ensp;</p>","-","viewing","0","27","5B,18A","","","","","","","","","","","","","","","","","",""
"","","","","","html-slider-response","202","644219","0.0-21.0-1.29","2b98b5c7-6ddd-4ae8-8c5d-f716ed07dd5a","3564","
                  <p style=""text-align: center;"">₪71
                                                <br>55%</p>
                  <p id=""wtp"" style=""text-align:center; margin-top: 0px; margin-bottom: 0px; font-size: 40px"";>מוכנים לשלם: <span id=""c_p_y""></span></p>","76","evaluation","79","27","5B,18A","55","71","75","","","","","","","","","","","","","","",""
"","","","","","html-keyboard-response","203","645631","0.0-21.0-2.29","2b98b5c7-6ddd-4ae8-8c5d-f716ed07dd5a","null","<p style=""text-align: center;"">+</p>","null","fixation","","","","","","","","","","","","","","","","","","","","",""
"","","","","","html-slider-response","204","646641","0.0-21.0-0.30","2b98b5c7-6ddd-4ae8-8c5d-f716ed07dd5a","1000","
                  <p style=""text-align: center;"">₪58
                                                <br>40%</p>
                  <p id=""wtp"" style=""text-align:center; margin-top: 0px; margin-bottom: 0px; font-size: 40px"";>&ensp;</p>","-","viewing","0","20","10C,13A,19C,21B","","","","","","","","","","","","","","","","","",""
"","","","","","html-slider-response","205","650379","0.0-21.0-1.30","2b98b5c7-6ddd-4ae8-8c5d-f716ed07dd5a","3737","
                  <p style=""text-align: center;"">₪58
                                                <br>40%</p>
                  <p id=""wtp"" style=""text-align:center; margin-top: 0px; margin-bottom: 0px; font-size: 40px"";>מוכנים לשלם: <span id=""c_p_y""></span></p>","53","evaluation","25","20","10C,13A,19C,21B","40","58","53","","","","","","","","","","","","","","",""
"","","","","","html-keyboard-response","206","650968","0.0-21.0-2.30","2b98b5c7-6ddd-4ae8-8c5d-f716ed07dd5a","null","<p style=""text-align: center;"">+</p>","null","fixation","","","","","","","","","","","","","","","","","","","","",""
"","","","","","html-keyboard-response","207","651972","0.0-22.0","2b98b5c7-6ddd-4ae8-8c5d-f716ed07dd5a","null","<p style=""text-align: center;"">+</p>","null","fixation","","","","","","","","","","","","","","","","","","","","",""
"","","","","","html-keyboard-response","208","653627","0.0-23.0","2b98b5c7-6ddd-4ae8-8c5d-f716ed07dd5a","null","<p>הפסקה.
          <br>לחצו כדי להמשיך.</p>","1","scan_wait","","","","","","","","","","","","","","","","","","","","",""
"","","","","","html-keyboard-response","209","654640","0.0-24.0","2b98b5c7-6ddd-4ae8-8c5d-f716ed07dd5a","null","<p style=""text-align: center;"">+</p>","null","fixation","","","","","","","","","","","","","","","","","","","","",""
"","","","","","html-slider-response","210","655647","0.0-25.0-0.0","2b98b5c7-6ddd-4ae8-8c5d-f716ed07dd5a","1000","
                  <p style=""text-align: center;"">₪64
                                                <br>50%</p>
                  <p id=""wtp"" style=""text-align:center; margin-top: 0px; margin-bottom: 0px; font-size: 40px"";>&ensp;</p>","-","viewing","0","25","1B,3B,4A","","","","","","","","","","","","","","","","","",""
"","","","","","html-slider-response","211","658691","0.0-25.0-1.0","2b98b5c7-6ddd-4ae8-8c5d-f716ed07dd5a","3043","
                  <p style=""text-align: center;"">₪64
                                                <br>50%</p>
                  <p id=""wtp"" style=""text-align:center; margin-top: 0px; margin-bottom: 0px; font-size: 40px"";>מוכנים לשלם: <span id=""c_p_y""></span></p>","42","evaluation","73","25","1B,3B,4A","50","64","42","","","","","","","","","","","","","","",""
"","","","","","html-keyboard-response","212","659419","0.0-25.0-2.0","2b98b5c7-6ddd-4ae8-8c5d-f716ed07dd5a","null","<p style=""text-align: center;"">+</p>","null","fixation","","","","","","","","","","","","","","","","","","","","",""
"","","","","","html-slider-response","213","660423","0.0-25.0-0.1","2b98b5c7-6ddd-4ae8-8c5d-f716ed07dd5a","1000","
                  <p style=""text-align: center;"">₪36
                                                <br>60%</p>
                  <p id=""wtp"" style=""text-align:center; margin-top: 0px; margin-bottom: 0px; font-size: 40px"";>&ensp;</p>","-","viewing","0","12","1C,7C,15C","","","","","","","","","","","","","","","","","",""
"","","","","","html-slider-response","214","662531","0.0-25.0-1.1","2b98b5c7-6ddd-4ae8-8c5d-f716ed07dd5a","2107","
                  <p style=""text-align: center;"">₪36
                                                <br>60%</p>
                  <p id=""wtp"" style=""text-align:center; margin-top: 0px; margin-bottom: 0px; font-size: 40px"";>מוכנים לשלם: <span id=""c_p_y""></span></p>","40","evaluation","8","12","1C,7C,15C","60","36","40","","","","","","","","","","","","","","",""
"","","","","","html-keyboard-response","215","663925","0.0-25.0-2.1","2b98b5c7-6ddd-4ae8-8c5d-f716ed07dd5a","null","<p style=""text-align: center;"">+</p>","null","fixation","","","","","","","","","","","","","","","","","","","","",""
"","","","","","html-slider-response","216","664935","0.0-25.0-0.2","2b98b5c7-6ddd-4ae8-8c5d-f716ed07dd5a","1000","
                  <p style=""text-align: center;"">₪43
                                                <br>60%</p>
                  <p id=""wtp"" style=""text-align:center; margin-top: 0px; margin-bottom: 0px; font-size: 40px"";>&ensp;</p>","-","viewing","0","17","2A,7A,9A,15B","","","","","","","","","","","","","","","","","",""
"","","","","","html-slider-response","217","668949","0.0-25.0-1.2","2b98b5c7-6ddd-4ae8-8c5d-f716ed07dd5a","null","
                  <p style=""text-align: center;"">₪43
                                                <br>60%</p>
                  <p id=""wtp"" style=""text-align:center; margin-top: 0px; margin-bottom: 0px; font-size: 40px"";>מוכנים לשלם: <span id=""c_p_y""></span></p>","null","evaluation","3","17","2A,7A,9A,15B","60","43","39","","","","","","","","","","","","","","",""
"","","","","","html-keyboard-response","218","669555","0.0-25.0-2.2","2b98b5c7-6ddd-4ae8-8c5d-f716ed07dd5a","null","<p style=""text-align: center;"">+</p>","null","fixation","","","","","","","","","","","","","","","","","","","","",""
"","","","","","html-slider-response","219","670571","0.0-25.0-0.3","2b98b5c7-6ddd-4ae8-8c5d-f716ed07dd5a","1000","
                  <p style=""text-align: center;"">₪4
                                                <br>25%</p>
                  <p id=""wtp"" style=""text-align:center; margin-top: 0px; margin-bottom: 0px; font-size: 40px"";>&ensp;</p>","-","viewing","0","1","6C,29B,30C","","","","","","","","","","","","","","","","","",""
"","","","","","html-slider-response","220","672587","0.0-25.0-1.3","2b98b5c7-6ddd-4ae8-8c5d-f716ed07dd5a","2015","
                  <p style=""text-align: center;"">₪4
                                                <br>25%</p>
                  <p id=""wtp"" style=""text-align:center; margin-top: 0px; margin-bottom: 0px; font-size: 40px"";>מוכנים לשלם: <span id=""c_p_y""></span></p>","12","evaluation","30","1","6C,29B,30C","25","4","12","","","","","","","","","","","","","","",""
"","","","","","html-keyboard-response","221","673106","0.0-25.0-2.3","2b98b5c7-6ddd-4ae8-8c5d-f716ed07dd5a","null","<p style=""text-align: center;"">+</p>","null","fixation","","","","","","","","","","","","","","","","","","","","",""
"","","","","","html-slider-response","222","674108","0.0-25.0-0.4","2b98b5c7-6ddd-4ae8-8c5d-f716ed07dd5a","1000","
                  <p style=""text-align: center;"">₪43
                                                <br>75%</p>
                  <p id=""wtp"" style=""text-align:center; margin-top: 0px; margin-bottom: 0px; font-size: 40px"";>&ensp;</p>","-","viewing","0","18","11B,19B,24A,26A","","","","","","","","","","","","","","","","","",""
"","","","","","html-slider-response","223","676411","0.0-25.0-1.4","2b98b5c7-6ddd-4ae8-8c5d-f716ed07dd5a","2302","
                  <p style=""text-align: center;"">₪43
                                                <br>75%</p>
                  <p id=""wtp"" style=""text-align:center; margin-top: 0px; margin-bottom: 0px; font-size: 40px"";>מוכנים לשלם: <span id=""c_p_y""></span></p>","49","evaluation","55","18","11B,19B,24A,26A","75","43","49","","","","","","","","","","","","","","",""
"","","","","","html-keyboard-response","224","677204","0.0-25.0-2.4","2b98b5c7-6ddd-4ae8-8c5d-f716ed07dd5a","null","<p style=""text-align: center;"">+</p>","null","fixation","","","","","","","","","","","","","","","","","","","","",""
"","","","","","html-slider-response","225","678207","0.0-25.0-0.5","2b98b5c7-6ddd-4ae8-8c5d-f716ed07dd5a","1000","
                  <p style=""text-align: center;"">₪58
                                                <br>40%</p>
                  <p id=""wtp"" style=""text-align:center; margin-top: 0px; margin-bottom: 0px; font-size: 40px"";>&ensp;</p>","-","viewing","0","20","10C,13A,19C,21B","","","","","","","","","","","","","","","","","",""
"","","","","","html-slider-response","226","680859","0.0-25.0-1.5","2b98b5c7-6ddd-4ae8-8c5d-f716ed07dd5a","2651","
                  <p style=""text-align: center;"">₪58
                                                <br>40%</p>
                  <p id=""wtp"" style=""text-align:center; margin-top: 0px; margin-bottom: 0px; font-size: 40px"";>מוכנים לשלם: <span id=""c_p_y""></span></p>","55","evaluation","76","20","10C,13A,19C,21B","40","58","55","","","","","","","","","","","","","","",""
"","","","","","html-keyboard-response","227","681801","0.0-25.0-2.5","2b98b5c7-6ddd-4ae8-8c5d-f716ed07dd5a","null","<p style=""text-align: center;"">+</p>","null","fixation","","","","","","","","","","","","","","","","","","","","",""
"","","","","","html-slider-response","228","682806","0.0-25.0-0.6","2b98b5c7-6ddd-4ae8-8c5d-f716ed07dd5a","1000","
                  <p style=""text-align: center;"">₪16
                                                <br>20%</p>
                  <p id=""wtp"" style=""text-align:center; margin-top: 0px; margin-bottom: 0px; font-size: 40px"";>&ensp;</p>","-","viewing","0","8","14C,17A,20C,27A","","","","","","","","","","","","","","","","","",""
"","","","","","html-slider-response","229","684923","0.0-25.0-1.6","2b98b5c7-6ddd-4ae8-8c5d-f716ed07dd5a","2116","
                  <p style=""text-align: center;"">₪16
                                                <br>20%</p>
                  <p id=""wtp"" style=""text-align:center; margin-top: 0px; margin-bottom: 0px; font-size: 40px"";>מוכנים לשלם: <span id=""c_p_y""></span></p>","24","evaluation","52","8","14C,17A,20C,27A","20","16","24","","","","","","","","","","","","","","",""
"","","","","","html-keyboard-response","230","685830","0.0-25.0-2.6","2b98b5c7-6ddd-4ae8-8c5d-f716ed07dd5a","null","<p style=""text-align: center;"">+</p>","null","fixation","","","","","","","","","","","","","","","","","","","","",""
"","","","","","html-slider-response","231","686845","0.0-25.0-0.7","2b98b5c7-6ddd-4ae8-8c5d-f716ed07dd5a","1000","
                  <p style=""text-align: center;"">₪64
                                                <br>25%</p>
                  <p id=""wtp"" style=""text-align:center; margin-top: 0px; margin-bottom: 0px; font-size: 40px"";>&ensp;</p>","-","viewing","0","24","6A,21A","","","","","","","","","","","","","","","","","",""
"","","","","","html-slider-response","232","689571","0.0-25.0-1.7","2b98b5c7-6ddd-4ae8-8c5d-f716ed07dd5a","2725","
                  <p style=""text-align: center;"">₪64
                                                <br>25%</p>
                  <p id=""wtp"" style=""text-align:center; margin-top: 0px; margin-bottom: 0px; font-size: 40px"";>מוכנים לשלם: <span id=""c_p_y""></span></p>","22","evaluation","25","24","6A,21A","25","64","22","","","","","","","","","","","","","","",""
"","","","","","html-keyboard-response","233","690831","0.0-25.0-2.7","2b98b5c7-6ddd-4ae8-8c5d-f716ed07dd5a","null","<p style=""text-align: center;"">+</p>","null","fixation","","","","","","","","","","","","","","","","","","","","",""
"","","","","","html-slider-response","234","691836","0.0-25.0-0.8","2b98b5c7-6ddd-4ae8-8c5d-f716ed07dd5a","1000","
                  <p style=""text-align: center;"">₪18
                                                <br>25%</p>
                  <p id=""wtp"" style=""text-align:center; margin-top: 0px; margin-bottom: 0px; font-size: 40px"";>&ensp;</p>","-","viewing","0","9","14A,23A","","","","","","","","","","","","","","","","","",""
"","","","","","html-slider-response","235","694099","0.0-25.0-1.8","2b98b5c7-6ddd-4ae8-8c5d-f716ed07dd5a","2261","
                  <p style=""text-align: center;"">₪18
                                                <br>25%</p>
                  <p id=""wtp"" style=""text-align:center; margin-top: 0px; margin-bottom: 0px; font-size: 40px"";>מוכנים לשלם: <span id=""c_p_y""></span></p>","21","evaluation","47","9","14A,23A","25","18","21","","","","","","","","","","","","","","",""
"","","","","","html-keyboard-response","236","695199","0.0-25.0-2.8","2b98b5c7-6ddd-4ae8-8c5d-f716ed07dd5a","null","<p style=""text-align: center;"">+</p>","null","fixation","","","","","","","","","","","","","","","","","","","","",""
"","","","","","html-slider-response","237","696215","0.0-25.0-0.9","2b98b5c7-6ddd-4ae8-8c5d-f716ed07dd5a","1000","
                  <p style=""text-align: center;"">₪71
                                                <br>45%</p>
                  <p id=""wtp"" style=""text-align:center; margin-top: 0px; margin-bottom: 0px; font-size: 40px"";>&ensp;</p>","-","viewing","0","26","2B,16A","","","","","","","","","","","","","","","","","",""
"","","","","","html-slider-response","238","699235","0.0-25.0-1.9","2b98b5c7-6ddd-4ae8-8c5d-f716ed07dd5a","3018","
                  <p style=""text-align: center;"">₪71
                                                <br>45%</p>
                  <p id=""wtp"" style=""text-align:center; margin-top: 0px; margin-bottom: 0px; font-size: 40px"";>מוכנים לשלם: <span id=""c_p_y""></span></p>","71","evaluation","29","26","2B,16A","45","71","71","","","","","","","","","","","","","","",""
"","","","","","html-keyboard-response","239","700318","0.0-25.0-2.9","2b98b5c7-6ddd-4ae8-8c5d-f716ed07dd5a","null","<p style=""text-align: center;"">+</p>","null","fixation","","","","","","","","","","","","","","","","","","","","",""
"","","","","","html-slider-response","240","701325","0.0-25.0-0.10","2b98b5c7-6ddd-4ae8-8c5d-f716ed07dd5a","1000","
                  <p style=""text-align: center;"">₪18
                                                <br>50%</p>
                  <p id=""wtp"" style=""text-align:center; margin-top: 0px; margin-bottom: 0px; font-size: 40px"";>&ensp;</p>","-","viewing","0","10","2C,16C,22B,28A","","","","","","","","","","","","","","","","","",""
"","","","","","html-slider-response","241","705083","0.0-25.0-1.10","2b98b5c7-6ddd-4ae8-8c5d-f716ed07dd5a","3756","
                  <p style=""text-align: center;"">₪18
                                                <br>50%</p>
                  <p id=""wtp"" style=""text-align:center; margin-top: 0px; margin-bottom: 0px; font-size: 40px"";>מוכנים לשלם: <span id=""c_p_y""></span></p>","19","evaluation","61","10","2C,16C,22B,28A","50","18","19","","","","","","","","","","","","","","",""
"","","","","","html-keyboard-response","242","706520","0.0-25.0-2.10","2b98b5c7-6ddd-4ae8-8c5d-f716ed07dd5a","null","<p style=""text-align: center;"">+</p>","null","fixation","","","","","","","","","","","","","","","","","","","","",""
"","","","","","html-slider-response","243","707534","0.0-25.0-0.11","2b98b5c7-6ddd-4ae8-8c5d-f716ed07dd5a","1000","
                  <p style=""text-align: center;"">₪4
                                                <br>50%</p>
                  <p id=""wtp"" style=""text-align:center; margin-top: 0px; margin-bottom: 0px; font-size: 40px"";>&ensp;</p>","-","viewing","0","2","4C,17B","","","","","","","","","","","","","","","","","",""
"","","","","","html-slider-response","244","710731","0.0-25.0-1.11","2b98b5c7-6ddd-4ae8-8c5d-f716ed07dd5a","3196","
                  <p style=""text-align: center;"">₪4
                                                <br>50%</p>
                  <p id=""wtp"" style=""text-align:center; margin-top: 0px; margin-bottom: 0px; font-size: 40px"";>מוכנים לשלם: <span id=""c_p_y""></span></p>","6","evaluation","71","2","4C,17B","50","4","6","","","","","","","","","","","","","","",""
"","","","","","html-keyboard-response","245","711692","0.0-25.0-2.11","2b98b5c7-6ddd-4ae8-8c5d-f716ed07dd5a","null","<p style=""text-align: center;"">+</p>","null","fixation","","","","","","","","","","","","","","","","","","","","",""
"","","","","","html-slider-response","246","712705","0.0-25.0-0.12","2b98b5c7-6ddd-4ae8-8c5d-f716ed07dd5a","1000","
                  <p style=""text-align: center;"">₪4
                                                <br>75%</p>
                  <p id=""wtp"" style=""text-align:center; margin-top: 0px; margin-bottom: 0px; font-size: 40px"";>&ensp;</p>","-","viewing","0","3","12B,20B,23B,27C,29C","","","","","","","","","","","","","","","","","",""
"","","","","","html-slider-response","247","715883","0.0-25.0-1.12","2b98b5c7-6ddd-4ae8-8c5d-f716ed07dd5a","3176","
                  <p style=""text-align: center;"">₪4
                                                <br>75%</p>
                  <p id=""wtp"" style=""text-align:center; margin-top: 0px; margin-bottom: 0px; font-size: 40px"";>מוכנים לשלם: <span id=""c_p_y""></span></p>","11","evaluation","12","3","12B,20B,23B,27C,29C","75","4","11","","","","","","","","","","","","","","",""
"","","","","","html-keyboard-response","248","716628","0.0-25.0-2.12","2b98b5c7-6ddd-4ae8-8c5d-f716ed07dd5a","null","<p style=""text-align: center;"">+</p>","null","fixation","","","","","","","","","","","","","","","","","","","","",""
"","","","","","html-slider-response","249","717631","0.0-25.0-0.13","2b98b5c7-6ddd-4ae8-8c5d-f716ed07dd5a","1000","
                  <p style=""text-align: center;"">₪71
                                                <br>55%</p>
                  <p id=""wtp"" style=""text-align:center; margin-top: 0px; margin-bottom: 0px; font-size: 40px"";>&ensp;</p>","-","viewing","0","27","5B,18A","","","","","","","","","","","","","","","","","",""
"","","","","","html-slider-response","250","718923","0.0-25.0-1.13","2b98b5c7-6ddd-4ae8-8c5d-f716ed07dd5a","1290","
                  <p style=""text-align: center;"">₪71
                                                <br>55%</p>
                  <p id=""wtp"" style=""text-align:center; margin-top: 0px; margin-bottom: 0px; font-size: 40px"";>מוכנים לשלם: <span id=""c_p_y""></span></p>","71","evaluation","45","27","5B,18A","55","71","71","","","","","","","","","","","","","","",""
"","","","","","html-keyboard-response","251","720366","0.0-25.0-2.13","2b98b5c7-6ddd-4ae8-8c5d-f716ed07dd5a","null","<p style=""text-align: center;"">+</p>","null","fixation","","","","","","","","","","","","","","","","","","","","",""
"","","","","","html-slider-response","252","721373","0.0-25.0-0.14","2b98b5c7-6ddd-4ae8-8c5d-f716ed07dd5a","1000","
                  <p style=""text-align: center;"">₪39
                                                <br>60%</p>
