"success","timeout","failed_images","failed_audio","failed_video","trial_type","trial_index","time_elapsed","internal_node_id","subject_id","rt","stimulus","response","part","slider_start","ID","set_ID","prob","amount","last_location","actual_choice","actual_EV","binary_id","trinary_id","catch","A_key","D_key","choice_prob","choice_amount","potential_prize_prob","potential_prize_amount","won_prize","total_prize","remaining_budget","accuracy"
"true","false","[]","[]","[]","preload","0","10","0.0-0.0","b06b759d-7bc3-44b3-ac5f-72bfa44f8e6f","","","","","","","","","","","","","","","","","","","","","","","","",""
"","","","","","html-keyboard-response","1","10230","0.0-1.0","b06b759d-7bc3-44b3-ac5f-72bfa44f8e6f","null","
          <h1>שלום וברוכים הבאים!</h1>
          <p>לפניכם ניסוי בקבלת החלטות עם שני חלקים.
          <br><br>לחצו על העכבר כדי להמשיך.</p>","0","example","","","","","","","","","","","","","","","","","","","","",""
"","","","","","html-keyboard-response","2","17710","0.0-2.0","b06b759d-7bc3-44b3-ac5f-72bfa44f8e6f","null","
        <h1>חלק 1</h1>
        <p>בקרוב יוצגו בפניכם הגרלות.
        <br>עליכם לבחור את המחיר המירבי שתהיו מוכנים לשלם כדי להשתתף בהגרלה שתוצג.
        <br>יש לכם תקציב של ₪80 לכל הגרלה. 
        <br>נסו להעריך כל הגרלה בנפרד ולחשוב כמה היא שווה עבורכם, ₪80 זמינים לכל הגרלה בנפרד.
        <br><br>לחצו על העכבר כדי להמשיך.</p>","1","instructions","","","","","","","","","","","","","","","","","","","","",""
"","","","","","html-keyboard-response","3","32878","0.0-3.0","b06b759d-7bc3-44b3-ac5f-72bfa44f8e6f","null","
        <p>בסוף הניסוי, המחשב יבחר את אחת ההגרלות ויקבע מחיר לכרטיס עבורה. 
        <br>במידה והמחיר שבחרתם נמוך מהמחיר שנבחר על ידי המחשב, לא תשתתפו בהגרלה ותשארו עם מלוא התקציב.
        <br>במידה והמחיר שבחרתם גבוה מהמחיר שנבחר על ידי המחשב, תשלמו את המחיר שנקבע ותשתתפו בהגרלה.
        <br><br>לחצו על העכבר כדי להמשיך.</p>","1","instructions","","","","","","","","","","","","","","","","","","","","",""
"","","","","","html-slider-response","4","43887","0.0-4.0","b06b759d-7bc3-44b3-ac5f-72bfa44f8e6f","10892","
        <p style=""font-size: 42px;"">נתחיל עם דוגמא: 
        <br>ההגרלה מטה מציעה 65% סיכוי לזכות ב-₪40 
        <br>&emsp;&emsp;&emsp;&emsp;&emsp;&emsp;&emsp;&emsp;&ensp;35% סיכוי לזכות ב-₪0.
        <br><br>מה המחיר המירבי שתהיו מוכנים לשלם על כרטיס להגרלה זו בין 0 ל-₪80?
        <br>הזיזו את העכבר על פני המלבן ולחצו כדי לבצע בחירה.</p>
        
        <p style=""text-align: center;"">₪40<br>65%</p>

        <p id=""wtp"" style=""text-align:center; margin-top: 0px; margin-bottom: 0px; font-size: 40px"";>מוכנים לשלם: <span id=""c_p_y""></span></p>","34","example","51","","","","","","","","","","","","","","","","","","","",""
"","","","","","html-keyboard-response","5","49758","0.0-5.0","b06b759d-7bc3-44b3-ac5f-72bfa44f8e6f","null","<p>יפה מאוד!
                <br> בחרתם שתהיו מוכנים לשלם ₪34 כדי להשתתף בהגרלה:
                <br><p style=""text-align: center;"">₪40<br>65%</p>
                <p>נשמע נכון?
                <br>נניח שהגרלה זו נבחרה בסוף הניסוי.
                <br>כעת המחשב יקבע מחיר עבורה באקראי.
                <br>לחצו על העכבר להמשך.</p>","1","example","","","","","","","","","","","","","","","","","","","","",""
"","","","","","html-keyboard-response","6","58870","0.0-6.0","b06b759d-7bc3-44b3-ac5f-72bfa44f8e6f","null","<p>המחשב קבע מחיר: ₪67
                <br>ואתם בחרתם לשלם לכל היותר: ₪34
                <br><br>מכיוון שהמחיר שבחרתם נמוך מהמחיר שנקבע, לא תתשתתפו בהגרלה.
                <br>במקרה כזה, בסוף הניסוי תקבלו את כל התקציב ההתחלתי של ₪80.
                <br><br>לחצו על העכבר להמשך.</p>","1","example","","","","","","","","","","","","","","","","","","","","",""
"","","","","","html-slider-response","7","66630","0.0-7.0","b06b759d-7bc3-44b3-ac5f-72bfa44f8e6f","7496","<p style=""font-size: 42px;"">הנה עוד דוגמא:
                <br>ההגרלה מטה מציעה 35% סיכוי לזכות ב-₪18 
                <br>&emsp;&emsp;&emsp;&emsp;&emsp;&emsp;&emsp;&emsp;&ensp;65% סיכוי לזכות ב-₪0.</p>
        
                <p style=""text-align: center;"">₪18<br>35%</p>
                <p id=""wtp"" style=""text-align:center; margin-top: 0px; margin-bottom: 0px; font-size: 40px"";>מוכנים לשלם: <span id=""c_p_y""></span></p>","15","example","57","","","","","","","","","","","","","","","","","","","",""
"","","","","","html-keyboard-response","8","68902","0.0-8.0","b06b759d-7bc3-44b3-ac5f-72bfa44f8e6f","null","<p>הייתם מוכנים לשלם  ₪15 כדי להשתתף בהגרלה:
                <p style=""text-align: center;"">₪18<br>35%</p>
                <p>כעת נניח שהמחשב בחר את ההגרלה הזו בסוף הניסוי, וקבע עבורה מחיר.
                <br><br>לחצו על העכבר כדי להמשיך.</p>","1","instructions","","","","","","","","","","","","","","","","","","","","",""
"","","","","","html-keyboard-response","9","110462","0.0-9.0","b06b759d-7bc3-44b3-ac5f-72bfa44f8e6f","null","<p>המחשב קבע מחיר להגרלה: ₪13<br>ואתם בחרתם לשלם לכל היותר: ₪15
                <br><br>כעת המחיר שנקבע נמוך מזה שבחרתם, אז תשלמו את המחיר שקבע המחשב (₪13) ותשתתפו בהגרלה.
                <br>במקרה כזה, תסיימו את הניסוי עם תקציב של ₪67 ועם סיכוי לזכות ב-₪18 נוספים מההגרלה.
                <br>כלומר, תוכלו לקבל ₪67 אם לא תזכו בהגרלה, או ₪85 אם תזכו בהגרלה.
                <br><br>לחצו על העכבר להמשך.</p>","1","example","","","","","","","","","","","","","","","","","","","","",""
"","","","","","html-keyboard-response","10","116022","0.0-10.0","b06b759d-7bc3-44b3-ac5f-72bfa44f8e6f","null","<p>במהלך הניסוי, קודם תראו את ההגרלה ורק לאחר מכן תוכלו לבחור.
                <p>כמו כן, יהיו לכם מספר שניות מוגבל להגיב.
                <p>בואו ננסה זאת עם ההגרלה הקודמת.
                <br>לחצו על העכבר כדי להמשיך.</p>","1","instructions","","","","","","","","","","","","","","","","","","","","",""
"","","","","","html-slider-response","11","117296","0.0-11.0","b06b759d-7bc3-44b3-ac5f-72bfa44f8e6f","1000","
                    <p style=""text-align: center;"">₪18<br>35%</p>
                    <p id=""wtp"" style=""text-align:center; margin-top: 0px; margin-bottom: 0px; font-size: 40px"";>&ensp;</p>","15","instructions","0","","","","","","","","","","","","","","","","","","","",""
"","","","","","html-slider-response","12","121551","0.0-12.0","b06b759d-7bc3-44b3-ac5f-72bfa44f8e6f","3988","
                    <p style=""text-align: center;"">₪18<br>35%</p>
                    <p id=""wtp"" style=""text-align:center; margin-top: 0px; margin-bottom: 0px; font-size: 40px"";>מוכנים לשלם: <span id=""c_p_y""></span></p>","14","instructions","36","","","","","","","","","","","","","","","","","","","",""
"","","","","","html-keyboard-response","13","123918","0.0-13.0","b06b759d-7bc3-44b3-ac5f-72bfa44f8e6f","null","<p>יפה. הפעם בחרתם לשלם לכל היותר ₪14.
                <br><br>לחצו על העכבר כדי להמשיך.</p>","1","instructions","","","","","","","","","","","","","","","","","","","","",""
"","","","","","html-keyboard-response","14","141974","0.0-15.0","b06b759d-7bc3-44b3-ac5f-72bfa44f8e6f","null","<p>כעת נתחיל את הניסוי.
                <br><br>אתם תראו הגרלות ותתבקשו לבחור כמה תהיו מוכנים לשלם כדי להשתתף בהן.
                <br>יש לכם תקציב של ₪80 עבור כל הגרלה.
                <br>בסוף הניסוי הגרלה אחת תבחר באקראי ותשוחק.
                <br><br>לחצו על העכבר כדי להתחיל את הניסוי.</p>","1","instructions","","","","","","","","","","","","","","","","","","","","",""
"","","","","","html-keyboard-response","15","143233","0.0-16.0","b06b759d-7bc3-44b3-ac5f-72bfa44f8e6f","null","<p style=""text-align: center;"">+</p>","null","fixation","","","","","","","","","","","","","","","","","","","","",""
"","","","","","html-slider-response","16","144245","0.0-17.0-0.0","b06b759d-7bc3-44b3-ac5f-72bfa44f8e6f","1000","
                  <p style=""text-align: center;"">₪58
                                                <br>45%</p>
                  <p id=""wtp"" style=""text-align:center; margin-top: 0px; margin-bottom: 0px; font-size: 40px"";>&ensp;</p>","-","viewing","0","21","11C,18C,25A","","","","","","","","","","","","","","","","","",""
"","","","","","html-slider-response","17","148191","0.0-17.0-1.0","b06b759d-7bc3-44b3-ac5f-72bfa44f8e6f","3944","
                  <p style=""text-align: center;"">₪58
                                                <br>45%</p>
                  <p id=""wtp"" style=""text-align:center; margin-top: 0px; margin-bottom: 0px; font-size: 40px"";>מוכנים לשלם: <span id=""c_p_y""></span></p>","40","evaluation","70","21","11C,18C,25A","45","58","40","","","","","","","","","","","","","","",""
"","","","","","html-keyboard-response","18","149334","0.0-17.0-2.0","b06b759d-7bc3-44b3-ac5f-72bfa44f8e6f","null","<p style=""text-align: center;"">+</p>","null","fixation","","","","","","","","","","","","","","","","","","","","",""
"","","","","","html-slider-response","19","150350","0.0-17.0-0.1","b06b759d-7bc3-44b3-ac5f-72bfa44f8e6f","1000","
                  <p style=""text-align: center;"">₪64
                                                <br>25%</p>
                  <p id=""wtp"" style=""text-align:center; margin-top: 0px; margin-bottom: 0px; font-size: 40px"";>&ensp;</p>","-","viewing","0","24","6A,21A","","","","","","","","","","","","","","","","","",""
"","","","","","html-slider-response","20","153814","0.0-17.0-1.1","b06b759d-7bc3-44b3-ac5f-72bfa44f8e6f","3463","
                  <p style=""text-align: center;"">₪64
                                                <br>25%</p>
                  <p id=""wtp"" style=""text-align:center; margin-top: 0px; margin-bottom: 0px; font-size: 40px"";>מוכנים לשלם: <span id=""c_p_y""></span></p>","16","evaluation","68","24","6A,21A","25","64","16","","","","","","","","","","","","","","",""
"","","","","","html-keyboard-response","21","154613","0.0-17.0-2.1","b06b759d-7bc3-44b3-ac5f-72bfa44f8e6f","null","<p style=""text-align: center;"">+</p>","null","fixation","","","","","","","","","","","","","","","","","","","","",""
"","","","","","html-slider-response","22","155622","0.0-17.0-0.2","b06b759d-7bc3-44b3-ac5f-72bfa44f8e6f","1000","
                  <p style=""text-align: center;"">₪36
                                                <br>30%</p>
                  <p id=""wtp"" style=""text-align:center; margin-top: 0px; margin-bottom: 0px; font-size: 40px"";>&ensp;</p>","-","viewing","0","11","3C,20A,22A","","","","","","","","","","","","","","","","","",""
"","","","","","html-slider-response","23","159624","0.0-17.0-1.2","b06b759d-7bc3-44b3-ac5f-72bfa44f8e6f","null","
                  <p style=""text-align: center;"">₪36
                                                <br>30%</p>
                  <p id=""wtp"" style=""text-align:center; margin-top: 0px; margin-bottom: 0px; font-size: 40px"";>מוכנים לשלם: <span id=""c_p_y""></span></p>","null","evaluation","15","11","3C,20A,22A","30","36","30","","","","","","","","","","","","","","",""
"","","","","","html-keyboard-response","24","160970","0.0-17.0-2.2","b06b759d-7bc3-44b3-ac5f-72bfa44f8e6f","null","<p style=""text-align: center;"">+</p>","null","fixation","","","","","","","","","","","","","","","","","","","","",""
"","","","","","html-slider-response","25","161972","0.0-17.0-0.3","b06b759d-7bc3-44b3-ac5f-72bfa44f8e6f","1000","
                  <p style=""text-align: center;"">₪71
                                                <br>55%</p>
                  <p id=""wtp"" style=""text-align:center; margin-top: 0px; margin-bottom: 0px; font-size: 40px"";>&ensp;</p>","-","viewing","0","27","5B,18A","","","","","","","","","","","","","","","","","",""
"","","","","","html-slider-response","26","165079","0.0-17.0-1.3","b06b759d-7bc3-44b3-ac5f-72bfa44f8e6f","3105","
                  <p style=""text-align: center;"">₪71
                                                <br>55%</p>
                  <p id=""wtp"" style=""text-align:center; margin-top: 0px; margin-bottom: 0px; font-size: 40px"";>מוכנים לשלם: <span id=""c_p_y""></span></p>","46","evaluation","25","27","5B,18A","55","71","46","","","","","","","","","","","","","","",""
"","","","","","html-keyboard-response","27","166294","0.0-17.0-2.3","b06b759d-7bc3-44b3-ac5f-72bfa44f8e6f","null","<p style=""text-align: center;"">+</p>","null","fixation","","","","","","","","","","","","","","","","","","","","",""
"","","","","","html-slider-response","28","167305","0.0-17.0-0.4","b06b759d-7bc3-44b3-ac5f-72bfa44f8e6f","1000","
                  <p style=""text-align: center;"">₪4
                                                <br>75%</p>
                  <p id=""wtp"" style=""text-align:center; margin-top: 0px; margin-bottom: 0px; font-size: 40px"";>&ensp;</p>","-","viewing","0","3","12B,20B,23B,27C,29C","","","","","","","","","","","","","","","","","",""
"","","","","","html-slider-response","29","170055","0.0-17.0-1.4","b06b759d-7bc3-44b3-ac5f-72bfa44f8e6f","2748","
                  <p style=""text-align: center;"">₪4
                                                <br>75%</p>
                  <p id=""wtp"" style=""text-align:center; margin-top: 0px; margin-bottom: 0px; font-size: 40px"";>מוכנים לשלם: <span id=""c_p_y""></span></p>","2","evaluation","19","3","12B,20B,23B,27C,29C","75","4","3","","","","","","","","","","","","","","",""
"","","","","","html-keyboard-response","30","171244","0.0-17.0-2.4","b06b759d-7bc3-44b3-ac5f-72bfa44f8e6f","null","<p style=""text-align: center;"">+</p>","null","fixation","","","","","","","","","","","","","","","","","","","","",""
"","","","","","html-slider-response","31","172247","0.0-17.0-0.5","b06b759d-7bc3-44b3-ac5f-72bfa44f8e6f","1000","
                  <p style=""text-align: center;"">₪71
                                                <br>45%</p>
                  <p id=""wtp"" style=""text-align:center; margin-top: 0px; margin-bottom: 0px; font-size: 40px"";>&ensp;</p>","-","viewing","0","26","2B,16A","","","","","","","","","","","","","","","","","",""
"","","","","","html-slider-response","32","173975","0.0-17.0-1.5","b06b759d-7bc3-44b3-ac5f-72bfa44f8e6f","1726","
                  <p style=""text-align: center;"">₪71
                                                <br>45%</p>
                  <p id=""wtp"" style=""text-align:center; margin-top: 0px; margin-bottom: 0px; font-size: 40px"";>מוכנים לשלם: <span id=""c_p_y""></span></p>","41","evaluation","80","26","2B,16A","45","71","41","","","","","","","","","","","","","","",""
"","","","","","html-keyboard-response","33","174919","0.0-17.0-2.5","b06b759d-7bc3-44b3-ac5f-72bfa44f8e6f","null","<p style=""text-align: center;"">+</p>","null","fixation","","","","","","","","","","","","","","","","","","","","",""
"","","","","","html-slider-response","34","175926","0.0-17.0-0.6","b06b759d-7bc3-44b3-ac5f-72bfa44f8e6f","1000","
                  <p style=""text-align: center;"">₪76
                                                <br>65%</p>
                  <p id=""wtp"" style=""text-align:center; margin-top: 0px; margin-bottom: 0px; font-size: 40px"";>&ensp;</p>","-","viewing","0","29","8C,19A,24B","","","","","","","","","","","","","","","","","",""
"","","","","","html-slider-response","35","178007","0.0-17.0-1.6","b06b759d-7bc3-44b3-ac5f-72bfa44f8e6f","2078","
                  <p style=""text-align: center;"">₪76
                                                <br>65%</p>
                  <p id=""wtp"" style=""text-align:center; margin-top: 0px; margin-bottom: 0px; font-size: 40px"";>מוכנים לשלם: <span id=""c_p_y""></span></p>","61","evaluation","42","29","8C,19A,24B","65","76","60","","","","","","","","","","","","","","",""
"","","","","","html-keyboard-response","36","178959","0.0-17.0-2.6","b06b759d-7bc3-44b3-ac5f-72bfa44f8e6f","null","<p style=""text-align: center;"">+</p>","null","fixation","","","","","","","","","","","","","","","","","","","","",""
"","","","","","html-slider-response","37","179973","0.0-17.0-0.7","b06b759d-7bc3-44b3-ac5f-72bfa44f8e6f","1000","
                  <p style=""text-align: center;"">₪36
                                                <br>70%</p>
                  <p id=""wtp"" style=""text-align:center; margin-top: 0px; margin-bottom: 0px; font-size: 40px"";>&ensp;</p>","-","viewing","0","13","3A,5C,10B","","","","","","","","","","","","","","","","","",""
"","","","","","html-slider-response","38","182415","0.0-17.0-1.7","b06b759d-7bc3-44b3-ac5f-72bfa44f8e6f","2440","
                  <p style=""text-align: center;"">₪36
                                                <br>70%</p>
                  <p id=""wtp"" style=""text-align:center; margin-top: 0px; margin-bottom: 0px; font-size: 40px"";>מוכנים לשלם: <span id=""c_p_y""></span></p>","31","evaluation","15","13","3A,5C,10B","70","36","31","","","","","","","","","","","","","","",""
"","","","","","html-keyboard-response","39","183578","0.0-17.0-2.7","b06b759d-7bc3-44b3-ac5f-72bfa44f8e6f","null","<p style=""text-align: center;"">+</p>","null","fixation","","","","","","","","","","","","","","","","","","","","",""
"","","","","","html-slider-response","40","184593","0.0-17.0-0.8","b06b759d-7bc3-44b3-ac5f-72bfa44f8e6f","1000","
                  <p style=""text-align: center;"">₪11
                                                <br>25%</p>
                  <p id=""wtp"" style=""text-align:center; margin-top: 0px; margin-bottom: 0px; font-size: 40px"";>&ensp;</p>","-","viewing","0","5","12A,27B,28B,30B","","","","","","","","","","","","","","","","","",""
"","","","","","html-slider-response","41","188609","0.0-17.0-1.8","b06b759d-7bc3-44b3-ac5f-72bfa44f8e6f","null","
                  <p style=""text-align: center;"">₪11
                                                <br>25%</p>
                  <p id=""wtp"" style=""text-align:center; margin-top: 0px; margin-bottom: 0px; font-size: 40px"";>מוכנים לשלם: <span id=""c_p_y""></span></p>","null","evaluation","55","5","12A,27B,28B,30B","25","11","7","","","","","","","","","","","","","","",""
"","","","","","html-keyboard-response","42","189338","0.0-17.0-2.8","b06b759d-7bc3-44b3-ac5f-72bfa44f8e6f","null","<p style=""text-align: center;"">+</p>","null","fixation","","","","","","","","","","","","","","","","","","","","",""
"","","","","","html-slider-response","43","190356","0.0-17.0-0.9","b06b759d-7bc3-44b3-ac5f-72bfa44f8e6f","1000","
                  <p style=""text-align: center;"">₪16
                                                <br>20%</p>
                  <p id=""wtp"" style=""text-align:center; margin-top: 0px; margin-bottom: 0px; font-size: 40px"";>&ensp;</p>","-","viewing","0","8","14C,17A,20C,27A","","","","","","","","","","","","","","","","","",""
"","","","","","html-slider-response","44","193695","0.0-17.0-1.9","b06b759d-7bc3-44b3-ac5f-72bfa44f8e6f","3338","
                  <p style=""text-align: center;"">₪16
                                                <br>20%</p>
                  <p id=""wtp"" style=""text-align:center; margin-top: 0px; margin-bottom: 0px; font-size: 40px"";>מוכנים לשלם: <span id=""c_p_y""></span></p>","7","evaluation","13","8","14C,17A,20C,27A","20","16","7","","","","","","","","","","","","","","",""
"","","","","","html-keyboard-response","45","194632","0.0-17.0-2.9","b06b759d-7bc3-44b3-ac5f-72bfa44f8e6f","null","<p style=""text-align: center;"">+</p>","null","fixation","","","","","","","","","","","","","","","","","","","","",""
"","","","","","html-slider-response","46","195646","0.0-17.0-0.10","b06b759d-7bc3-44b3-ac5f-72bfa44f8e6f","1000","
                  <p style=""text-align: center;"">₪71
                                                <br>75%</p>
                  <p id=""wtp"" style=""text-align:center; margin-top: 0px; margin-bottom: 0px; font-size: 40px"";>&ensp;</p>","-","viewing","0","28","8B","","","","","","","","","","","","","","","","","",""
"","","","","","html-slider-response","47","197439","0.0-17.0-1.10","b06b759d-7bc3-44b3-ac5f-72bfa44f8e6f","1791","
                  <p style=""text-align: center;"">₪71
                                                <br>75%</p>
                  <p id=""wtp"" style=""text-align:center; margin-top: 0px; margin-bottom: 0px; font-size: 40px"";>מוכנים לשלם: <span id=""c_p_y""></span></p>","66","evaluation","4","28","8B","75","71","66","","","","","","","","","","","","","","",""
"","","","","","html-keyboard-response","48","197960","0.0-17.0-2.10","b06b759d-7bc3-44b3-ac5f-72bfa44f8e6f","null","<p style=""text-align: center;"">+</p>","null","fixation","","","","","","","","","","","","","","","","","","","","",""
"","","","","","html-slider-response","49","198962","0.0-17.0-0.11","b06b759d-7bc3-44b3-ac5f-72bfa44f8e6f","1000","
                  <p style=""text-align: center;"">₪4
                                                <br>50%</p>
                  <p id=""wtp"" style=""text-align:center; margin-top: 0px; margin-bottom: 0px; font-size: 40px"";>&ensp;</p>","-","viewing","0","2","4C,17B","","","","","","","","","","","","","","","","","",""
"","","","","","html-slider-response","50","201423","0.0-17.0-1.11","b06b759d-7bc3-44b3-ac5f-72bfa44f8e6f","2460","
                  <p style=""text-align: center;"">₪4
                                                <br>50%</p>
                  <p id=""wtp"" style=""text-align:center; margin-top: 0px; margin-bottom: 0px; font-size: 40px"";>מוכנים לשלם: <span id=""c_p_y""></span></p>","1","evaluation","75","2","4C,17B","50","4","2","","","","","","","","","","","","","","",""
"","","","","","html-keyboard-response","51","202150","0.0-17.0-2.11","b06b759d-7bc3-44b3-ac5f-72bfa44f8e6f","null","<p style=""text-align: center;"">+</p>","null","fixation","","","","","","","","","","","","","","","","","","","","",""
"","","","","","html-slider-response","52","203162","0.0-17.0-0.12","b06b759d-7bc3-44b3-ac5f-72bfa44f8e6f","1000","
                  <p style=""text-align: center;"">₪79
                                                <br>65%</p>
                  <p id=""wtp"" style=""text-align:center; margin-top: 0px; margin-bottom: 0px; font-size: 40px"";>&ensp;</p>","-","viewing","0","31","8A","","","","","","","","","","","","","","","","","",""
"","","","","","html-slider-response","53","205223","0.0-17.0-1.12","b06b759d-7bc3-44b3-ac5f-72bfa44f8e6f","2059","
                  <p style=""text-align: center;"">₪79
                                                <br>65%</p>
                  <p id=""wtp"" style=""text-align:center; margin-top: 0px; margin-bottom: 0px; font-size: 40px"";>מוכנים לשלם: <span id=""c_p_y""></span></p>","49","evaluation","64","31","8A","65","79","49","","","","","","","","","","","","","","",""
"","","","","","html-keyboard-response","54","206566","0.0-17.0-2.12","b06b759d-7bc3-44b3-ac5f-72bfa44f8e6f","null","<p style=""text-align: center;"">+</p>","null","fixation","","","","","","","","","","","","","","","","","","","","",""
"","","","","","html-slider-response","55","207570","0.0-17.0-0.13","b06b759d-7bc3-44b3-ac5f-72bfa44f8e6f","1000","
                  <p style=""text-align: center;"">₪43
                                                <br>60%</p>
                  <p id=""wtp"" style=""text-align:center; margin-top: 0px; margin-bottom: 0px; font-size: 40px"";>&ensp;</p>","-","viewing","0","17","2A,7A,9A,15B","","","","","","","","","","","","","","","","","",""
"","","","","","html-slider-response","56","211215","0.0-17.0-1.13","b06b759d-7bc3-44b3-ac5f-72bfa44f8e6f","3643","
                  <p style=""text-align: center;"">₪43
                                                <br>60%</p>
                  <p id=""wtp"" style=""text-align:center; margin-top: 0px; margin-bottom: 0px; font-size: 40px"";>מוכנים לשלם: <span id=""c_p_y""></span></p>","35","evaluation","33","17","2A,7A,9A,15B","60","43","35","","","","","","","","","","","","","","",""
"","","","","","html-keyboard-response","57","212396","0.0-17.0-2.13","b06b759d-7bc3-44b3-ac5f-72bfa44f8e6f","null","<p style=""text-align: center;"">+</p>","null","fixation","","","","","","","","","","","","","","","","","","","","",""
"","","","","","html-slider-response","58","213409","0.0-17.0-0.14","b06b759d-7bc3-44b3-ac5f-72bfa44f8e6f","1000","
                  <p style=""text-align: center;"">₪39
                                                <br>60%</p>
                  <p id=""wtp"" style=""text-align:center; margin-top: 0px; margin-bottom: 0px; font-size: 40px"";>&ensp;</p>","-","viewing","0","15","9C,25B","","","","","","","","","","","","","","","","","",""
"","","","","","html-slider-response","59","215903","0.0-17.0-1.14","b06b759d-7bc3-44b3-ac5f-72bfa44f8e6f","2492","
                  <p style=""text-align: center;"">₪39
                                                <br>60%</p>
                  <p id=""wtp"" style=""text-align:center; margin-top: 0px; margin-bottom: 0px; font-size: 40px"";>מוכנים לשלם: <span id=""c_p_y""></span></p>","22","evaluation","70","15","9C,25B","60","39","22","","","","","","","","","","","","","","",""
"","","","","","html-keyboard-response","60","216786","0.0-17.0-2.14","b06b759d-7bc3-44b3-ac5f-72bfa44f8e6f","null","<p style=""text-align: center;"">+</p>","null","fixation","","","","","","","","","","","","","","","","","","","","",""
"","","","","","html-slider-response","61","217802","0.0-17.0-0.15","b06b759d-7bc3-44b3-ac5f-72bfa44f8e6f","1000","
                  <p style=""text-align: center;"">₪58
                                                <br>40%</p>
                  <p id=""wtp"" style=""text-align:center; margin-top: 0px; margin-bottom: 0px; font-size: 40px"";>&ensp;</p>","-","viewing","0","20","10C,13A,19C,21B","","","","","","","","","","","","","","","","","",""
"","","","","","html-slider-response","62","221519","0.0-17.0-1.15","b06b759d-7bc3-44b3-ac5f-72bfa44f8e6f","3716","
                  <p style=""text-align: center;"">₪58
                                                <br>40%</p>
                  <p id=""wtp"" style=""text-align:center; margin-top: 0px; margin-bottom: 0px; font-size: 40px"";>מוכנים לשלם: <span id=""c_p_y""></span></p>","31","evaluation","33","20","10C,13A,19C,21B","40","58","31","","","","","","","","","","","","","","",""
"","","","","","html-keyboard-response","63","222455","0.0-17.0-2.15","b06b759d-7bc3-44b3-ac5f-72bfa44f8e6f","null","<p style=""text-align: center;"">+</p>","null","fixation","","","","","","","","","","","","","","","","","","","","",""
"","","","","","html-slider-response","64","223469","0.0-17.0-0.16","b06b759d-7bc3-44b3-ac5f-72bfa44f8e6f","1000","
                  <p style=""text-align: center;"">₪11
                                                <br>45%</p>
                  <p id=""wtp"" style=""text-align:center; margin-top: 0px; margin-bottom: 0px; font-size: 40px"";>&ensp;</p>","-","viewing","0","6","14B,21C,25C","","","","","","","","","","","","","","","","","",""
"","","","","","html-slider-response","65","227167","0.0-17.0-1.16","b06b759d-7bc3-44b3-ac5f-72bfa44f8e6f","3697","
                  <p style=""text-align: center;"">₪11
                                                <br>45%</p>
                  <p id=""wtp"" style=""text-align:center; margin-top: 0px; margin-bottom: 0px; font-size: 40px"";>מוכנים לשלם: <span id=""c_p_y""></span></p>","4","evaluation","21","6","14B,21C,25C","45","11","5","","","","","","","","","","","","","","",""
"","","","","","html-keyboard-response","66","228440","0.0-17.0-2.16","b06b759d-7bc3-44b3-ac5f-72bfa44f8e6f","null","<p style=""text-align: center;"">+</p>","null","fixation","","","","","","","","","","","","","","","","","","","","",""
"","","","","","html-slider-response","67","229448","0.0-17.0-0.17","b06b759d-7bc3-44b3-ac5f-72bfa44f8e6f","1000","
                  <p style=""text-align: center;"">₪4
                                                <br>25%</p>
                  <p id=""wtp"" style=""text-align:center; margin-top: 0px; margin-bottom: 0px; font-size: 40px"";>&ensp;</p>","-","viewing","0","1","6C,29B,30C","","","","","","","","","","","","","","","","","",""
"","","","","","html-slider-response","68","231351","0.0-17.0-1.17","b06b759d-7bc3-44b3-ac5f-72bfa44f8e6f","1901","
                  <p style=""text-align: center;"">₪4
                                                <br>25%</p>
                  <p id=""wtp"" style=""text-align:center; margin-top: 0px; margin-bottom: 0px; font-size: 40px"";>מוכנים לשלם: <span id=""c_p_y""></span></p>","1","evaluation","78","1","6C,29B,30C","25","4","2","","","","","","","","","","","","","","",""
"","","","","","html-keyboard-response","69","232795","0.0-17.0-2.17","b06b759d-7bc3-44b3-ac5f-72bfa44f8e6f","null","<p style=""text-align: center;"">+</p>","null","fixation","","","","","","","","","","","","","","","","","","","","",""
"","","","","","html-slider-response","70","233809","0.0-17.0-0.18","b06b759d-7bc3-44b3-ac5f-72bfa44f8e6f","1000","
                  <p style=""text-align: center;"">₪39
                                                <br>65%</p>
                  <p id=""wtp"" style=""text-align:center; margin-top: 0px; margin-bottom: 0px; font-size: 40px"";>&ensp;</p>","-","viewing","0","16","1A,15A,26C","","","","","","","","","","","","","","","","","",""
"","","","","","html-slider-response","71","237811","0.0-17.0-1.18","b06b759d-7bc3-44b3-ac5f-72bfa44f8e6f","null","
                  <p style=""text-align: center;"">₪39
                                                <br>65%</p>
                  <p id=""wtp"" style=""text-align:center; margin-top: 0px; margin-bottom: 0px; font-size: 40px"";>מוכנים לשלם: <span id=""c_p_y""></span></p>","null","evaluation","45","16","1A,15A,26C","65","39","30","","","","","","","","","","","","","","",""
"","","","","","html-keyboard-response","72","238929","0.0-17.0-2.18","b06b759d-7bc3-44b3-ac5f-72bfa44f8e6f","null","<p style=""text-align: center;"">+</p>","null","fixation","","","","","","","","","","","","","","","","","","","","",""
"","","","","","html-slider-response","73","239947","0.0-17.0-0.19","b06b759d-7bc3-44b3-ac5f-72bfa44f8e6f","1000","
                  <p style=""text-align: center;"">₪36
                                                <br>75%</p>
                  <p id=""wtp"" style=""text-align:center; margin-top: 0px; margin-bottom: 0px; font-size: 40px"";>&ensp;</p>","-","viewing","0","14","4B,5A,13B,16B","","","","","","","","","","","","","","","","","",""
"","","","","","html-slider-response","74","243191","0.0-17.0-1.19","b06b759d-7bc3-44b3-ac5f-72bfa44f8e6f","3242","
                  <p style=""text-align: center;"">₪36
                                                <br>75%</p>
                  <p id=""wtp"" style=""text-align:center; margin-top: 0px; margin-bottom: 0px; font-size: 40px"";>מוכנים לשלם: <span id=""c_p_y""></span></p>","30","evaluation","31","14","4B,5A,13B,16B","75","36","30","","","","","","","","","","","","","","",""
"","","","","","html-keyboard-response","75","243749","0.0-17.0-2.19","b06b759d-7bc3-44b3-ac5f-72bfa44f8e6f","null","<p style=""text-align: center;"">+</p>","null","fixation","","","","","","","","","","","","","","","","","","","","",""
"","","","","","html-slider-response","76","244765","0.0-17.0-0.20","b06b759d-7bc3-44b3-ac5f-72bfa44f8e6f","1000","
                  <p style=""text-align: center;"">₪18
                                                <br>25%</p>
                  <p id=""wtp"" style=""text-align:center; margin-top: 0px; margin-bottom: 0px; font-size: 40px"";>&ensp;</p>","-","viewing","0","9","14A,23A","","","","","","","","","","","","","","","","","",""
"","","","","","html-slider-response","77","246607","0.0-17.0-1.20","b06b759d-7bc3-44b3-ac5f-72bfa44f8e6f","1841","
                  <p style=""text-align: center;"">₪18
                                                <br>25%</p>
                  <p id=""wtp"" style=""text-align:center; margin-top: 0px; margin-bottom: 0px; font-size: 40px"";>מוכנים לשלם: <span id=""c_p_y""></span></p>","5","evaluation","2","9","14A,23A","25","18","6","","","","","","","","","","","","","","",""
"","","","","","html-keyboard-response","78","248043","0.0-17.0-2.20","b06b759d-7bc3-44b3-ac5f-72bfa44f8e6f","null","<p style=""text-align: center;"">+</p>","null","fixation","","","","","","","","","","","","","","","","","","","","",""
"","","","","","html-slider-response","79","249054","0.0-17.0-0.21","b06b759d-7bc3-44b3-ac5f-72bfa44f8e6f","1000","
                  <p style=""text-align: center;"">₪61
                                                <br>55%</p>
                  <p id=""wtp"" style=""text-align:center; margin-top: 0px; margin-bottom: 0px; font-size: 40px"";>&ensp;</p>","-","viewing","0","23","7B,26B","","","","","","","","","","","","","","","","","",""
"","","","","","html-slider-response","80","253055","0.0-17.0-1.21","b06b759d-7bc3-44b3-ac5f-72bfa44f8e6f","null","
                  <p style=""text-align: center;"">₪61
                                                <br>55%</p>
                  <p id=""wtp"" style=""text-align:center; margin-top: 0px; margin-bottom: 0px; font-size: 40px"";>מוכנים לשלם: <span id=""c_p_y""></span></p>","null","evaluation","18","23","7B,26B","55","61","30","","","","","","","","","","","","","","",""
"","","","","","html-keyboard-response","81","253954","0.0-17.0-2.21","b06b759d-7bc3-44b3-ac5f-72bfa44f8e6f","null","<p style=""text-align: center;"">+</p>","null","fixation","","","","","","","","","","","","","","","","","","","","",""
"","","","","","html-slider-response","82","254971","0.0-17.0-0.22","b06b759d-7bc3-44b3-ac5f-72bfa44f8e6f","1000","
                  <p style=""text-align: center;"">₪11
                                                <br>75%</p>
                  <p id=""wtp"" style=""text-align:center; margin-top: 0px; margin-bottom: 0px; font-size: 40px"";>&ensp;</p>","-","viewing","0","7","6B,18B,22C,24C,29A","","","","","","","","","","","","","","","","","",""
"","","","","","html-slider-response","83","258979","0.0-17.0-1.22","b06b759d-7bc3-44b3-ac5f-72bfa44f8e6f","null","
                  <p style=""text-align: center;"">₪11
                                                <br>75%</p>
                  <p id=""wtp"" style=""text-align:center; margin-top: 0px; margin-bottom: 0px; font-size: 40px"";>מוכנים לשלם: <span id=""c_p_y""></span></p>","null","evaluation","8","7","6B,18B,22C,24C,29A","75","11","26","","","","","","","","","","","","","","",""
"","","","","","html-keyboard-response","84","259487","0.0-17.0-2.22","b06b759d-7bc3-44b3-ac5f-72bfa44f8e6f","null","<p style=""text-align: center;"">+</p>","null","fixation","","","","","","","","","","","","","","","","","","","","",""
"","","","","","html-slider-response","85","260489","0.0-17.0-0.23","b06b759d-7bc3-44b3-ac5f-72bfa44f8e6f","1000","
                  <p style=""text-align: center;"">₪11
                                                <br>20%</p>
                  <p id=""wtp"" style=""text-align:center; margin-top: 0px; margin-bottom: 0px; font-size: 40px"";>&ensp;</p>","-","viewing","0","4","12C,17C,23C,28C","","","","","","","","","","","","","","","","","",""
"","","","","","html-slider-response","86","263303","0.0-17.0-1.23","b06b759d-7bc3-44b3-ac5f-72bfa44f8e6f","2812","
                  <p style=""text-align: center;"">₪11
                                                <br>20%</p>
                  <p id=""wtp"" style=""text-align:center; margin-top: 0px; margin-bottom: 0px; font-size: 40px"";>מוכנים לשלם: <span id=""c_p_y""></span></p>","2","evaluation","17","4","12C,17C,23C,28C","20","11","2","","","","","","","","","","","","","","",""
"","","","","","html-keyboard-response","87","264059","0.0-17.0-2.23","b06b759d-7bc3-44b3-ac5f-72bfa44f8e6f","null","<p style=""text-align: center;"">+</p>","null","fixation","","","","","","","","","","","","","","","","","","","","",""
"","","","","","html-slider-response","88","265074","0.0-17.0-0.24","b06b759d-7bc3-44b3-ac5f-72bfa44f8e6f","1000","
                  <p style=""text-align: center;"">₪79
                                                <br>40%</p>
                  <p id=""wtp"" style=""text-align:center; margin-top: 0px; margin-bottom: 0px; font-size: 40px"";>&ensp;</p>","-","viewing","0","30","9B","","","","","","","","","","","","","","","","","",""
"","","","","","html-slider-response","89","267655","0.0-17.0-1.24","b06b759d-7bc3-44b3-ac5f-72bfa44f8e6f","2580","
                  <p style=""text-align: center;"">₪79
                                                <br>40%</p>
                  <p id=""wtp"" style=""text-align:center; margin-top: 0px; margin-bottom: 0px; font-size: 40px"";>מוכנים לשלם: <span id=""c_p_y""></span></p>","29","evaluation","22","30","9B","40","79","29","","","","","","","","","","","","","","",""
"","","","","","html-keyboard-response","90","268601","0.0-17.0-2.24","b06b759d-7bc3-44b3-ac5f-72bfa44f8e6f","null","<p style=""text-align: center;"">+</p>","null","fixation","","","","","","","","","","","","","","","","","","","","",""
"","","","","","html-slider-response","91","269619","0.0-17.0-0.25","b06b759d-7bc3-44b3-ac5f-72bfa44f8e6f","1000","
                  <p style=""text-align: center;"">₪58
                                                <br>30%</p>
                  <p id=""wtp"" style=""text-align:center; margin-top: 0px; margin-bottom: 0px; font-size: 40px"";>&ensp;</p>","-","viewing","0","19","13C,30A","","","","","","","","","","","","","","","","","",""
"","","","","","html-slider-response","92","271759","0.0-17.0-1.25","b06b759d-7bc3-44b3-ac5f-72bfa44f8e6f","2139","
                  <p style=""text-align: center;"">₪58
                                                <br>30%</p>
                  <p id=""wtp"" style=""text-align:center; margin-top: 0px; margin-bottom: 0px; font-size: 40px"";>מוכנים לשלם: <span id=""c_p_y""></span></p>","12","evaluation","56","19","13C,30A","30","58","13","","","","","","","","","","","","","","",""
"","","","","","html-keyboard-response","93","272270","0.0-17.0-2.25","b06b759d-7bc3-44b3-ac5f-72bfa44f8e6f","null","<p style=""text-align: center;"">+</p>","null","fixation","","","","","","","","","","","","","","","","","","","","",""
"","","","","","html-slider-response","94","273272","0.0-17.0-0.26","b06b759d-7bc3-44b3-ac5f-72bfa44f8e6f","1000","
                  <p style=""text-align: center;"">₪36
                                                <br>60%</p>
                  <p id=""wtp"" style=""text-align:center; margin-top: 0px; margin-bottom: 0px; font-size: 40px"";>&ensp;</p>","-","viewing","0","12","1C,7C,15C","","","","","","","","","","","","","","","","","",""
"","","","","","html-slider-response","95","276911","0.0-17.0-1.26","b06b759d-7bc3-44b3-ac5f-72bfa44f8e6f","3637","
                  <p style=""text-align: center;"">₪36
                                                <br>60%</p>
                  <p id=""wtp"" style=""text-align:center; margin-top: 0px; margin-bottom: 0px; font-size: 40px"";>מוכנים לשלם: <span id=""c_p_y""></span></p>","22","evaluation","13","12","1C,7C,15C","60","36","23","","","","","","","","","","","","","","",""
"","","","","","html-keyboard-response","96","277977","0.0-17.0-2.26","b06b759d-7bc3-44b3-ac5f-72bfa44f8e6f","null","<p style=""text-align: center;"">+</p>","null","fixation","","","","","","","","","","","","","","","","","","","","",""
"","","","","","html-slider-response","97","278990","0.0-17.0-0.27","b06b759d-7bc3-44b3-ac5f-72bfa44f8e6f","1000","
                  <p style=""text-align: center;"">₪43
                                                <br>75%</p>
                  <p id=""wtp"" style=""text-align:center; margin-top: 0px; margin-bottom: 0px; font-size: 40px"";>&ensp;</p>","-","viewing","0","18","11B,19B,24A,26A","","","","","","","","","","","","","","","","","",""
"","","","","","html-slider-response","98","282559","0.0-17.0-1.27","b06b759d-7bc3-44b3-ac5f-72bfa44f8e6f","3568","
                  <p style=""text-align: center;"">₪43
                                                <br>75%</p>
                  <p id=""wtp"" style=""text-align:center; margin-top: 0px; margin-bottom: 0px; font-size: 40px"";>מוכנים לשלם: <span id=""c_p_y""></span></p>","30","evaluation","3","18","11B,19B,24A,26A","75","43","30","","","","","","","","","","","","","","",""
"","","","","","html-keyboard-response","99","284057","0.0-17.0-2.27","b06b759d-7bc3-44b3-ac5f-72bfa44f8e6f","null","<p style=""text-align: center;"">+</p>","null","fixation","","","","","","","","","","","","","","","","","","","","",""
"","","","","","html-slider-response","100","285059","0.0-17.0-0.28","b06b759d-7bc3-44b3-ac5f-72bfa44f8e6f","1000","
                  <p style=""text-align: center;"">₪18
                                                <br>50%</p>
                  <p id=""wtp"" style=""text-align:center; margin-top: 0px; margin-bottom: 0px; font-size: 40px"";>&ensp;</p>","-","viewing","0","10","2C,16C,22B,28A","","","","","","","","","","","","","","","","","",""
"","","","","","html-slider-response","101","286439","0.0-17.0-1.28","b06b759d-7bc3-44b3-ac5f-72bfa44f8e6f","1379","
                  <p style=""text-align: center;"">₪18
                                                <br>50%</p>
                  <p id=""wtp"" style=""text-align:center; margin-top: 0px; margin-bottom: 0px; font-size: 40px"";>מוכנים לשלם: <span id=""c_p_y""></span></p>","7","evaluation","80","10","2C,16C,22B,28A","50","18","8","","","","","","","","","","","","","","",""
"","","","","","html-keyboard-response","102","287139","0.0-17.0-2.28","b06b759d-7bc3-44b3-ac5f-72bfa44f8e6f","null","<p style=""text-align: center;"">+</p>","null","fixation","","","","","","","","","","","","","","","","","","","","",""
"","","","","","html-slider-response","103","288146","0.0-17.0-0.29","b06b759d-7bc3-44b3-ac5f-72bfa44f8e6f","1000","
                  <p style=""text-align: center;"">₪64
                                                <br>50%</p>
                  <p id=""wtp"" style=""text-align:center; margin-top: 0px; margin-bottom: 0px; font-size: 40px"";>&ensp;</p>","-","viewing","0","25","1B,3B,4A","","","","","","","","","","","","","","","","","",""
"","","","","","html-slider-response","104","290791","0.0-17.0-1.29","b06b759d-7bc3-44b3-ac5f-72bfa44f8e6f","2644","
                  <p style=""text-align: center;"">₪64
                                                <br>50%</p>
                  <p id=""wtp"" style=""text-align:center; margin-top: 0px; margin-bottom: 0px; font-size: 40px"";>מוכנים לשלם: <span id=""c_p_y""></span></p>","30","evaluation","49","25","1B,3B,4A","50","64","31","","","","","","","","","","","","","","",""
"","","","","","html-keyboard-response","105","291382","0.0-17.0-2.29","b06b759d-7bc3-44b3-ac5f-72bfa44f8e6f","null","<p style=""text-align: center;"">+</p>","null","fixation","","","","","","","","","","","","","","","","","","","","",""
"","","","","","html-slider-response","106","292392","0.0-17.0-0.30","b06b759d-7bc3-44b3-ac5f-72bfa44f8e6f","1000","
                  <p style=""text-align: center;"">₪61
                                                <br>45%</p>
                  <p id=""wtp"" style=""text-align:center; margin-top: 0px; margin-bottom: 0px; font-size: 40px"";>&ensp;</p>","-","viewing","0","22","10A,11A","","","","","","","","","","","","","","","","","",""
"","","","","","html-slider-response","107","295655","0.0-17.0-1.30","b06b759d-7bc3-44b3-ac5f-72bfa44f8e6f","3261","
                  <p style=""text-align: center;"">₪61
                                                <br>45%</p>
                  <p id=""wtp"" style=""text-align:center; margin-top: 0px; margin-bottom: 0px; font-size: 40px"";>מוכנים לשלם: <span id=""c_p_y""></span></p>","23","evaluation","27","22","10A,11A","45","61","23","","","","","","","","","","","","","","",""
"","","","","","html-keyboard-response","108","296655","0.0-17.0-2.30","b06b759d-7bc3-44b3-ac5f-72bfa44f8e6f","null","<p style=""text-align: center;"">+</p>","null","fixation","","","","","","","","","","","","","","","","","","","","",""
"","","","","","html-keyboard-response","109","297665","0.0-18.0","b06b759d-7bc3-44b3-ac5f-72bfa44f8e6f","null","<p style=""text-align: center;"">+</p>","null","fixation","","","","","","","","","","","","","","","","","","","","",""
"","","","","","html-keyboard-response","110","301127","0.0-19.0","b06b759d-7bc3-44b3-ac5f-72bfa44f8e6f","null","<p>הפסקה.
          <br>לחצו כדי להמשיך.</p>","1","scan_wait","","","","","","","","","","","","","","","","","","","","",""
"","","","","","html-keyboard-response","111","302128","0.0-20.0","b06b759d-7bc3-44b3-ac5f-72bfa44f8e6f","null","<p style=""text-align: center;"">+</p>","null","fixation","","","","","","","","","","","","","","","","","","","","",""
"","","","","","html-slider-response","112","303130","0.0-21.0-0.0","b06b759d-7bc3-44b3-ac5f-72bfa44f8e6f","1000","
                  <p style=""text-align: center;"">₪64
                                                <br>50%</p>
                  <p id=""wtp"" style=""text-align:center; margin-top: 0px; margin-bottom: 0px; font-size: 40px"";>&ensp;</p>","-","viewing","0","25","1B,3B,4A","","","","","","","","","","","","","","","","","",""
"","","","","","html-slider-response","113","305175","0.0-21.0-1.0","b06b759d-7bc3-44b3-ac5f-72bfa44f8e6f","2043","
                  <p style=""text-align: center;"">₪64
                                                <br>50%</p>
                  <p id=""wtp"" style=""text-align:center; margin-top: 0px; margin-bottom: 0px; font-size: 40px"";>מוכנים לשלם: <span id=""c_p_y""></span></p>","26","evaluation","80","25","1B,3B,4A","50","64","26","","","","","","","","","","","","","","",""
"","","","","","html-keyboard-response","114","306546","0.0-21.0-2.0","b06b759d-7bc3-44b3-ac5f-72bfa44f8e6f","null","<p style=""text-align: center;"">+</p>","null","fixation","","","","","","","","","","","","","","","","","","","","",""
"","","","","","html-slider-response","115","307548","0.0-21.0-0.1","b06b759d-7bc3-44b3-ac5f-72bfa44f8e6f","1000","
                  <p style=""text-align: center;"">₪16
                                                <br>20%</p>
                  <p id=""wtp"" style=""text-align:center; margin-top: 0px; margin-bottom: 0px; font-size: 40px"";>&ensp;</p>","-","viewing","0","8","14C,17A,20C,27A","","","","","","","","","","","","","","","","","",""
"","","","","","html-slider-response","116","309415","0.0-21.0-1.1","b06b759d-7bc3-44b3-ac5f-72bfa44f8e6f","1867","
                  <p style=""text-align: center;"">₪16
                                                <br>20%</p>
                  <p id=""wtp"" style=""text-align:center; margin-top: 0px; margin-bottom: 0px; font-size: 40px"";>מוכנים לשלם: <span id=""c_p_y""></span></p>","10","evaluation","1","8","14C,17A,20C,27A","20","16","10","","","","","","","","","","","","","","",""
"","","","","","html-keyboard-response","117","310189","0.0-21.0-2.1","b06b759d-7bc3-44b3-ac5f-72bfa44f8e6f","null","<p style=""text-align: center;"">+</p>","null","fixation","","","","","","","","","","","","","","","","","","","","",""
"","","","","","html-slider-response","118","311205","0.0-21.0-0.2","b06b759d-7bc3-44b3-ac5f-72bfa44f8e6f","1000","
                  <p style=""text-align: center;"">₪39
                                                <br>65%</p>
                  <p id=""wtp"" style=""text-align:center; margin-top: 0px; margin-bottom: 0px; font-size: 40px"";>&ensp;</p>","-","viewing","0","16","1A,15A,26C","","","","","","","","","","","","","","","","","",""
"","","","","","html-slider-response","119","314231","0.0-21.0-1.2","b06b759d-7bc3-44b3-ac5f-72bfa44f8e6f","3025","
                  <p style=""text-align: center;"">₪39
                                                <br>65%</p>
                  <p id=""wtp"" style=""text-align:center; margin-top: 0px; margin-bottom: 0px; font-size: 40px"";>מוכנים לשלם: <span id=""c_p_y""></span></p>","25","evaluation","53","16","1A,15A,26C","65","39","25","","","","","","","","","","","","","","",""
"","","","","","html-keyboard-response","120","315052","0.0-21.0-2.2","b06b759d-7bc3-44b3-ac5f-72bfa44f8e6f","null","<p style=""text-align: center;"">+</p>","null","fixation","","","","","","","","","","","","","","","","","","","","",""
"","","","","","html-slider-response","121","316064","0.0-21.0-0.3","b06b759d-7bc3-44b3-ac5f-72bfa44f8e6f","1000","
                  <p style=""text-align: center;"">₪11
                                                <br>45%</p>
                  <p id=""wtp"" style=""text-align:center; margin-top: 0px; margin-bottom: 0px; font-size: 40px"";>&ensp;</p>","-","viewing","0","6","14B,21C,25C","","","","","","","","","","","","","","","","","",""
"","","","","","html-slider-response","122","318039","0.0-21.0-1.3","b06b759d-7bc3-44b3-ac5f-72bfa44f8e6f","1973","
                  <p style=""text-align: center;"">₪11
                                                <br>45%</p>
                  <p id=""wtp"" style=""text-align:center; margin-top: 0px; margin-bottom: 0px; font-size: 40px"";>מוכנים לשלם: <span id=""c_p_y""></span></p>","5","evaluation","67","6","14B,21C,25C","45","11","6","","","","","","","","","","","","","","",""
"","","","","","html-keyboard-response","123","319320","0.0-21.0-2.3","b06b759d-7bc3-44b3-ac5f-72bfa44f8e6f","null","<p style=""text-align: center;"">+</p>","null","fixation","","","","","","","","","","","","","","","","","","","","",""
"","","","","","html-slider-response","124","320330","0.0-21.0-0.4","b06b759d-7bc3-44b3-ac5f-72bfa44f8e6f","1000","
                  <p style=""text-align: center;"">₪11
                                                <br>20%</p>
                  <p id=""wtp"" style=""text-align:center; margin-top: 0px; margin-bottom: 0px; font-size: 40px"";>&ensp;</p>","-","viewing","0","4","12C,17C,23C,28C","","","","","","","","","","","","","","","","","",""
"","","","","","html-slider-response","125","324007","0.0-21.0-1.4","b06b759d-7bc3-44b3-ac5f-72bfa44f8e6f","3676","
                  <p style=""text-align: center;"">₪11
                                                <br>20%</p>
                  <p id=""wtp"" style=""text-align:center; margin-top: 0px; margin-bottom: 0px; font-size: 40px"";>מוכנים לשלם: <span id=""c_p_y""></span></p>","2","evaluation","13","4","12C,17C,23C,28C","20","11","3","","","","","","","","","","","","","","",""
"","","","","","html-keyboard-response","126","324986","0.0-21.0-2.4","b06b759d-7bc3-44b3-ac5f-72bfa44f8e6f","null","<p style=""text-align: center;"">+</p>","null","fixation","","","","","","","","","","","","","","","","","","","","",""
"","","","","","html-slider-response","127","325989","0.0-21.0-0.5","b06b759d-7bc3-44b3-ac5f-72bfa44f8e6f","1000","
                  <p style=""text-align: center;"">₪71
                                                <br>55%</p>
                  <p id=""wtp"" style=""text-align:center; margin-top: 0px; margin-bottom: 0px; font-size: 40px"";>&ensp;</p>","-","viewing","0","27","5B,18A","","","","","","","","","","","","","","","","","",""
"","","","","","html-slider-response","128","327935","0.0-21.0-1.5","b06b759d-7bc3-44b3-ac5f-72bfa44f8e6f","1945","
                  <p style=""text-align: center;"">₪71
                                                <br>55%</p>
                  <p id=""wtp"" style=""text-align:center; margin-top: 0px; margin-bottom: 0px; font-size: 40px"";>מוכנים לשלם: <span id=""c_p_y""></span></p>","37","evaluation","48","27","5B,18A","55","71","37","","","","","","","","","","","","","","",""
"","","","","","html-keyboard-response","129","328867","0.0-21.0-2.5","b06b759d-7bc3-44b3-ac5f-72bfa44f8e6f","null","<p style=""text-align: center;"">+</p>","null","fixation","","","","","","","","","","","","","","","","","","","","",""
"","","","","","html-slider-response","130","329882","0.0-21.0-0.6","b06b759d-7bc3-44b3-ac5f-72bfa44f8e6f","1000","
                  <p style=""text-align: center;"">₪43
                                                <br>60%</p>
                  <p id=""wtp"" style=""text-align:center; margin-top: 0px; margin-bottom: 0px; font-size: 40px"";>&ensp;</p>","-","viewing","0","17","2A,7A,9A,15B","","","","","","","","","","","","","","","","","",""
"","","","","","html-slider-response","131","332647","0.0-21.0-1.6","b06b759d-7bc3-44b3-ac5f-72bfa44f8e6f","2764","
                  <p style=""text-align: center;"">₪43
                                                <br>60%</p>
                  <p id=""wtp"" style=""text-align:center; margin-top: 0px; margin-bottom: 0px; font-size: 40px"";>מוכנים לשלם: <span id=""c_p_y""></span></p>","24","evaluation","32","17","2A,7A,9A,15B","60","43","24","","","","","","","","","","","","","","",""
"","","","","","html-keyboard-response","132","333737","0.0-21.0-2.6","b06b759d-7bc3-44b3-ac5f-72bfa44f8e6f","null","<p style=""text-align: center;"">+</p>","null","fixation","","","","","","","","","","","","","","","","","","","","",""
"","","","","","html-slider-response","133","334739","0.0-21.0-0.7","b06b759d-7bc3-44b3-ac5f-72bfa44f8e6f","1000","
                  <p style=""text-align: center;"">₪36
                                                <br>30%</p>
                  <p id=""wtp"" style=""text-align:center; margin-top: 0px; margin-bottom: 0px; font-size: 40px"";>&ensp;</p>","-","viewing","0","11","3C,20A,22A","","","","","","","","","","","","","","","","","",""
"","","","","","html-slider-response","134","337775","0.0-21.0-1.7","b06b759d-7bc3-44b3-ac5f-72bfa44f8e6f","3035","
                  <p style=""text-align: center;"">₪36
                                                <br>30%</p>
                  <p id=""wtp"" style=""text-align:center; margin-top: 0px; margin-bottom: 0px; font-size: 40px"";>מוכנים לשלם: <span id=""c_p_y""></span></p>","13","evaluation","53","11","3C,20A,22A","30","36","13","","","","","","","","","","","","","","",""
"","","","","","html-keyboard-response","135","338317","0.0-21.0-2.7","b06b759d-7bc3-44b3-ac5f-72bfa44f8e6f","null","<p style=""text-align: center;"">+</p>","null","fixation","","","","","","","","","","","","","","","","","","","","",""
"","","","","","html-slider-response","136","339320","0.0-21.0-0.8","b06b759d-7bc3-44b3-ac5f-72bfa44f8e6f","1000","
                  <p style=""text-align: center;"">₪11
                                                <br>75%</p>
                  <p id=""wtp"" style=""text-align:center; margin-top: 0px; margin-bottom: 0px; font-size: 40px"";>&ensp;</p>","-","viewing","0","7","6B,18B,22C,24C,29A","","","","","","","","","","","","","","","","","",""
"","","","","","html-slider-response","137","341703","0.0-21.0-1.8","b06b759d-7bc3-44b3-ac5f-72bfa44f8e6f","2381","
                  <p style=""text-align: center;"">₪11
                                                <br>75%</p>
                  <p id=""wtp"" style=""text-align:center; margin-top: 0px; margin-bottom: 0px; font-size: 40px"";>מוכנים לשלם: <span id=""c_p_y""></span></p>","1","evaluation","8","7","6B,18B,22C,24C,29A","75","11","2","","","","","","","","","","","","","","",""
"","","","","","html-keyboard-response","138","343150","0.0-21.0-2.8","b06b759d-7bc3-44b3-ac5f-72bfa44f8e6f","null","<p style=""text-align: center;"">+</p>","null","fixation","","","","","","","","","","","","","","","","","","","","",""
"","","","","","html-slider-response","139","344160","0.0-21.0-0.9","b06b759d-7bc3-44b3-ac5f-72bfa44f8e6f","1000","
                  <p style=""text-align: center;"">₪36
                                                <br>75%</p>
                  <p id=""wtp"" style=""text-align:center; margin-top: 0px; margin-bottom: 0px; font-size: 40px"";>&ensp;</p>","-","viewing","0","14","4B,5A,13B,16B","","","","","","","","","","","","","","","","","",""
"","","","","","html-slider-response","140","346743","0.0-21.0-1.9","b06b759d-7bc3-44b3-ac5f-72bfa44f8e6f","2581","
                  <p style=""text-align: center;"">₪36
                                                <br>75%</p>
                  <p id=""wtp"" style=""text-align:center; margin-top: 0px; margin-bottom: 0px; font-size: 40px"";>מוכנים לשלם: <span id=""c_p_y""></span></p>","23","evaluation","36","14","4B,5A,13B,16B","75","36","24","","","","","","","","","","","","","","",""
"","","","","","html-keyboard-response","141","348014","0.0-21.0-2.9","b06b759d-7bc3-44b3-ac5f-72bfa44f8e6f","null","<p style=""text-align: center;"">+</p>","null","fixation","","","","","","","","","","","","","","","","","","","","",""
"","","","","","html-slider-response","142","349027","0.0-21.0-0.10","b06b759d-7bc3-44b3-ac5f-72bfa44f8e6f","1000","
                  <p style=""text-align: center;"">₪18
                                                <br>25%</p>
                  <p id=""wtp"" style=""text-align:center; margin-top: 0px; margin-bottom: 0px; font-size: 40px"";>&ensp;</p>","-","viewing","0","9","14A,23A","","","","","","","","","","","","","","","","","",""
"","","","","","html-slider-response","143","350375","0.0-21.0-1.10","b06b759d-7bc3-44b3-ac5f-72bfa44f8e6f","1347","
                  <p style=""text-align: center;"">₪18
                                                <br>25%</p>
                  <p id=""wtp"" style=""text-align:center; margin-top: 0px; margin-bottom: 0px; font-size: 40px"";>מוכנים לשלם: <span id=""c_p_y""></span></p>","6","evaluation","52","9","14A,23A","25","18","6","","","","","","","","","","","","","","",""
"","","","","","html-keyboard-response","144","351818","0.0-21.0-2.10","b06b759d-7bc3-44b3-ac5f-72bfa44f8e6f","null","<p style=""text-align: center;"">+</p>","null","fixation","","","","","","","","","","","","","","","","","","","","",""
"","","","","","html-slider-response","145","352821","0.0-21.0-0.11","b06b759d-7bc3-44b3-ac5f-72bfa44f8e6f","1000","
                  <p style=""text-align: center;"">₪58
                                                <br>40%</p>
                  <p id=""wtp"" style=""text-align:center; margin-top: 0px; margin-bottom: 0px; font-size: 40px"";>&ensp;</p>","-","viewing","0","20","10C,13A,19C,21B","","","","","","","","","","","","","","","","","",""
"","","","","","html-slider-response","146","356775","0.0-21.0-1.11","b06b759d-7bc3-44b3-ac5f-72bfa44f8e6f","3953","
                  <p style=""text-align: center;"">₪58
                                                <br>40%</p>
                  <p id=""wtp"" style=""text-align:center; margin-top: 0px; margin-bottom: 0px; font-size: 40px"";>מוכנים לשלם: <span id=""c_p_y""></span></p>","28","evaluation","19","20","10C,13A,19C,21B","40","58","28","","","","","","","","","","","","","","",""
"","","","","","html-keyboard-response","147","357458","0.0-21.0-2.11","b06b759d-7bc3-44b3-ac5f-72bfa44f8e6f","null","<p style=""text-align: center;"">+</p>","null","fixation","","","","","","","","","","","","","","","","","","","","",""
"","","","","","html-slider-response","148","358466","0.0-21.0-0.12","b06b759d-7bc3-44b3-ac5f-72bfa44f8e6f","1000","
                  <p style=""text-align: center;"">₪58
                                                <br>45%</p>
                  <p id=""wtp"" style=""text-align:center; margin-top: 0px; margin-bottom: 0px; font-size: 40px"";>&ensp;</p>","-","viewing","0","21","11C,18C,25A","","","","","","","","","","","","","","","","","",""
"","","","","","html-slider-response","149","360431","0.0-21.0-1.12","b06b759d-7bc3-44b3-ac5f-72bfa44f8e6f","1964","
                  <p style=""text-align: center;"">₪58
                                                <br>45%</p>
                  <p id=""wtp"" style=""text-align:center; margin-top: 0px; margin-bottom: 0px; font-size: 40px"";>מוכנים לשלם: <span id=""c_p_y""></span></p>","28","evaluation","43","21","11C,18C,25A","45","58","28","","","","","","","","","","","","","","",""
"","","","","","html-keyboard-response","150","361391","0.0-21.0-2.12","b06b759d-7bc3-44b3-ac5f-72bfa44f8e6f","null","<p style=""text-align: center;"">+</p>","null","fixation","","","","","","","","","","","","","","","","","","","","",""
"","","","","","html-slider-response","151","362402","0.0-21.0-0.13","b06b759d-7bc3-44b3-ac5f-72bfa44f8e6f","1000","
                  <p style=""text-align: center;"">₪71
                                                <br>45%</p>
                  <p id=""wtp"" style=""text-align:center; margin-top: 0px; margin-bottom: 0px; font-size: 40px"";>&ensp;</p>","-","viewing","0","26","2B,16A","","","","","","","","","","","","","","","","","",""
"","","","","","html-slider-response","152","364807","0.0-21.0-1.13","b06b759d-7bc3-44b3-ac5f-72bfa44f8e6f","2403","
                  <p style=""text-align: center;"">₪71
                                                <br>45%</p>
                  <p id=""wtp"" style=""text-align:center; margin-top: 0px; margin-bottom: 0px; font-size: 40px"";>מוכנים לשלם: <span id=""c_p_y""></span></p>","32","evaluation","23","26","2B,16A","45","71","32","","","","","","","","","","","","","","",""
"","","","","","html-keyboard-response","153","365556","0.0-21.0-2.13","b06b759d-7bc3-44b3-ac5f-72bfa44f8e6f","null","<p style=""text-align: center;"">+</p>","null","fixation","","","","","","","","","","","","","","","","","","","","",""
"","","","","","html-slider-response","154","366564","0.0-21.0-0.14","b06b759d-7bc3-44b3-ac5f-72bfa44f8e6f","1000","
                  <p style=""text-align: center;"">₪58
                                                <br>30%</p>
                  <p id=""wtp"" style=""text-align:center; margin-top: 0px; margin-bottom: 0px; font-size: 40px"";>&ensp;</p>","-","viewing","0","19","13C,30A","","","","","","","","","","","","","","","","","",""
"","","","","","html-slider-response","155","368743","0.0-21.0-1.14","b06b759d-7bc3-44b3-ac5f-72bfa44f8e6f","2178","
                  <p style=""text-align: center;"">₪58
                                                <br>30%</p>
                  <p id=""wtp"" style=""text-align:center; margin-top: 0px; margin-bottom: 0px; font-size: 40px"";>מוכנים לשלם: <span id=""c_p_y""></span></p>","19","evaluation","8","19","13C,30A","30","58","19","","","","","","","","","","","","","","",""
"","","","","","html-keyboard-response","156","370227","0.0-21.0-2.14","b06b759d-7bc3-44b3-ac5f-72bfa44f8e6f","null","<p style=""text-align: center;"">+</p>","null","fixation","","","","","","","","","","","","","","","","","","","","",""
"","","","","","html-slider-response","157","371233","0.0-21.0-0.15","b06b759d-7bc3-44b3-ac5f-72bfa44f8e6f","1000","
                  <p style=""text-align: center;"">₪71
                                                <br>75%</p>
                  <p id=""wtp"" style=""text-align:center; margin-top: 0px; margin-bottom: 0px; font-size: 40px"";>&ensp;</p>","-","viewing","0","28","8B","","","","","","","","","","","","","","","","","",""
"","","","","","html-slider-response","158","374239","0.0-21.0-1.15","b06b759d-7bc3-44b3-ac5f-72bfa44f8e6f","3004","
                  <p style=""text-align: center;"">₪71
                                                <br>75%</p>
                  <p id=""wtp"" style=""text-align:center; margin-top: 0px; margin-bottom: 0px; font-size: 40px"";>מוכנים לשלם: <span id=""c_p_y""></span></p>","45","evaluation","54","28","8B","75","71","45","","","","","","","","","","","","","","",""
"","","","","","html-keyboard-response","159","375471","0.0-21.0-2.15","b06b759d-7bc3-44b3-ac5f-72bfa44f8e6f","null","<p style=""text-align: center;"">+</p>","null","fixation","","","","","","","","","","","","","","","","","","","","",""
"","","","","","html-slider-response","160","376473","0.0-21.0-0.16","b06b759d-7bc3-44b3-ac5f-72bfa44f8e6f","1000","
                  <p style=""text-align: center;"">₪61
                                                <br>45%</p>
                  <p id=""wtp"" style=""text-align:center; margin-top: 0px; margin-bottom: 0px; font-size: 40px"";>&ensp;</p>","-","viewing","0","22","10A,11A","","","","","","","","","","","","","","","","","",""
"","","","","","html-slider-response","161","377399","0.0-21.0-1.16","b06b759d-7bc3-44b3-ac5f-72bfa44f8e6f","925","
                  <p style=""text-align: center;"">₪61
                                                <br>45%</p>
                  <p id=""wtp"" style=""text-align:center; margin-top: 0px; margin-bottom: 0px; font-size: 40px"";>מוכנים לשלם: <span id=""c_p_y""></span></p>","12","evaluation","61","22","10A,11A","45","61","12","","","","","","","","","","","","","","",""
"","","","","","html-keyboard-response","162","378342","0.0-21.0-2.16","b06b759d-7bc3-44b3-ac5f-72bfa44f8e6f","null","<p style=""text-align: center;"">+</p>","null","fixation","","","","","","","","","","","","","","","","","","","","",""
"","","","","","html-slider-response","163","379352","0.0-21.0-0.17","b06b759d-7bc3-44b3-ac5f-72bfa44f8e6f","1000","
                  <p style=""text-align: center;"">₪43
                                                <br>75%</p>
                  <p id=""wtp"" style=""text-align:center; margin-top: 0px; margin-bottom: 0px; font-size: 40px"";>&ensp;</p>","-","viewing","0","18","11B,19B,24A,26A","","","","","","","","","","","","","","","","","",""
"","","","","","html-slider-response","164","382343","0.0-21.0-1.17","b06b759d-7bc3-44b3-ac5f-72bfa44f8e6f","2991","
                  <p style=""text-align: center;"">₪43
                                                <br>75%</p>
                  <p id=""wtp"" style=""text-align:center; margin-top: 0px; margin-bottom: 0px; font-size: 40px"";>מוכנים לשלם: <span id=""c_p_y""></span></p>","32","evaluation","60","18","11B,19B,24A,26A","75","43","32","","","","","","","","","","","","","","",""
"","","","","","html-keyboard-response","165","383678","0.0-21.0-2.17","b06b759d-7bc3-44b3-ac5f-72bfa44f8e6f","null","<p style=""text-align: center;"">+</p>","null","fixation","","","","","","","","","","","","","","","","","","","","",""
"","","","","","html-slider-response","166","384681","0.0-21.0-0.18","b06b759d-7bc3-44b3-ac5f-72bfa44f8e6f","1000","
                  <p style=""text-align: center;"">₪4
                                                <br>50%</p>
                  <p id=""wtp"" style=""text-align:center; margin-top: 0px; margin-bottom: 0px; font-size: 40px"";>&ensp;</p>","-","viewing","0","2","4C,17B","","","","","","","","","","","","","","","","","",""
"","","","","","html-slider-response","167","385599","0.0-21.0-1.18","b06b759d-7bc3-44b3-ac5f-72bfa44f8e6f","917","
                  <p style=""text-align: center;"">₪4
                                                <br>50%</p>
                  <p id=""wtp"" style=""text-align:center; margin-top: 0px; margin-bottom: 0px; font-size: 40px"";>מוכנים לשלם: <span id=""c_p_y""></span></p>","3","evaluation","4","2","4C,17B","50","4","3","","","","","","","","","","","","","","",""
"","","","","","html-keyboard-response","168","386617","0.0-21.0-2.18","b06b759d-7bc3-44b3-ac5f-72bfa44f8e6f","null","<p style=""text-align: center;"">+</p>","null","fixation","","","","","","","","","","","","","","","","","","","","",""
"","","","","","html-slider-response","169","387619","0.0-21.0-0.19","b06b759d-7bc3-44b3-ac5f-72bfa44f8e6f","1000","
                  <p style=""text-align: center;"">₪4
                                                <br>75%</p>
                  <p id=""wtp"" style=""text-align:center; margin-top: 0px; margin-bottom: 0px; font-size: 40px"";>&ensp;</p>","-","viewing","0","3","12B,20B,23B,27C,29C","","","","","","","","","","","","","","","","","",""
"","","","","","html-slider-response","170","390247","0.0-21.0-1.19","b06b759d-7bc3-44b3-ac5f-72bfa44f8e6f","2626","
                  <p style=""text-align: center;"">₪4
                                                <br>75%</p>
                  <p id=""wtp"" style=""text-align:center; margin-top: 0px; margin-bottom: 0px; font-size: 40px"";>מוכנים לשלם: <span id=""c_p_y""></span></p>","0","evaluation","48","3","12B,20B,23B,27C,29C","75","4","1","","","","","","","","","","","","","","",""
"","","","","","html-keyboard-response","171","391174","0.0-21.0-2.19","b06b759d-7bc3-44b3-ac5f-72bfa44f8e6f","null","<p style=""text-align: center;"">+</p>","null","fixation","","","","","","","","","","","","","","","","","","","","",""
"","","","","","html-slider-response","172","392180","0.0-21.0-0.20","b06b759d-7bc3-44b3-ac5f-72bfa44f8e6f","1000","
                  <p style=""text-align: center;"">₪18
                                                <br>50%</p>
                  <p id=""wtp"" style=""text-align:center; margin-top: 0px; margin-bottom: 0px; font-size: 40px"";>&ensp;</p>","-","viewing","0","10","2C,16C,22B,28A","","","","","","","","","","","","","","","","","",""
"","","","","","html-slider-response","173","393775","0.0-21.0-1.20","b06b759d-7bc3-44b3-ac5f-72bfa44f8e6f","1594","
                  <p style=""text-align: center;"">₪18
                                                <br>50%</p>
                  <p id=""wtp"" style=""text-align:center; margin-top: 0px; margin-bottom: 0px; font-size: 40px"";>מוכנים לשלם: <span id=""c_p_y""></span></p>","10","evaluation","35","10","2C,16C,22B,28A","50","18","11","","","","","","","","","","","","","","",""
"","","","","","html-keyboard-response","174","394923","0.0-21.0-2.20","b06b759d-7bc3-44b3-ac5f-72bfa44f8e6f","null","<p style=""text-align: center;"">+</p>","null","fixation","","","","","","","","","","","","","","","","","","","","",""
"","","","","","html-slider-response","175","395930","0.0-21.0-0.21","b06b759d-7bc3-44b3-ac5f-72bfa44f8e6f","1000","
                  <p style=""text-align: center;"">₪36
                                                <br>70%</p>
                  <p id=""wtp"" style=""text-align:center; margin-top: 0px; margin-bottom: 0px; font-size: 40px"";>&ensp;</p>","-","viewing","0","13","3A,5C,10B","","","","","","","","","","","","","","","","","",""
"","","","","","html-slider-response","176","398175","0.0-21.0-1.21","b06b759d-7bc3-44b3-ac5f-72bfa44f8e6f","2244","
                  <p style=""text-align: center;"">₪36
                                                <br>70%</p>
                  <p id=""wtp"" style=""text-align:center; margin-top: 0px; margin-bottom: 0px; font-size: 40px"";>מוכנים לשלם: <span id=""c_p_y""></span></p>","24","evaluation","29","13","3A,5C,10B","70","36","25","","","","","","","","","","","","","","",""
"","","","","","html-keyboard-response","177","399440","0.0-21.0-2.21","b06b759d-7bc3-44b3-ac5f-72bfa44f8e6f","null","<p style=""text-align: center;"">+</p>","null","fixation","","","","","","","","","","","","","","","","","","","","",""
"","","","","","html-slider-response","178","400443","0.0-21.0-0.22","b06b759d-7bc3-44b3-ac5f-72bfa44f8e6f","1000","
                  <p style=""text-align: center;"">₪79
                                                <br>40%</p>
                  <p id=""wtp"" style=""text-align:center; margin-top: 0px; margin-bottom: 0px; font-size: 40px"";>&ensp;</p>","-","viewing","0","30","9B","","","","","","","","","","","","","","","","","",""
"","","","","","html-slider-response","179","402647","0.0-21.0-1.22","b06b759d-7bc3-44b3-ac5f-72bfa44f8e6f","2203","
                  <p style=""text-align: center;"">₪79
                                                <br>40%</p>
                  <p id=""wtp"" style=""text-align:center; margin-top: 0px; margin-bottom: 0px; font-size: 40px"";>מוכנים לשלם: <span id=""c_p_y""></span></p>","40","evaluation","42","30","9B","40","79","40","","","","","","","","","","","","","","",""
"","","","","","html-keyboard-response","180","404108","0.0-21.0-2.22","b06b759d-7bc3-44b3-ac5f-72bfa44f8e6f","null","<p style=""text-align: center;"">+</p>","null","fixation","","","","","","","","","","","","","","","","","","","","",""
"","","","","","html-slider-response","181","405112","0.0-21.0-0.23","b06b759d-7bc3-44b3-ac5f-72bfa44f8e6f","1000","
                  <p style=""text-align: center;"">₪11
                                                <br>25%</p>
                  <p id=""wtp"" style=""text-align:center; margin-top: 0px; margin-bottom: 0px; font-size: 40px"";>&ensp;</p>","-","viewing","0","5","12A,27B,28B,30B","","","","","","","","","","","","","","","","","",""
"","","","","","html-slider-response","182","406519","0.0-21.0-1.23","b06b759d-7bc3-44b3-ac5f-72bfa44f8e6f","1406","
                  <p style=""text-align: center;"">₪11
                                                <br>25%</p>
                  <p id=""wtp"" style=""text-align:center; margin-top: 0px; margin-bottom: 0px; font-size: 40px"";>מוכנים לשלם: <span id=""c_p_y""></span></p>","6","evaluation","37","5","12A,27B,28B,30B","25","11","6","","","","","","","","","","","","","","",""
"","","","","","html-keyboard-response","183","407690","0.0-21.0-2.23","b06b759d-7bc3-44b3-ac5f-72bfa44f8e6f","null","<p style=""text-align: center;"">+</p>","null","fixation","","","","","","","","","","","","","","","","","","","","",""
"","","","","","html-slider-response","184","408692","0.0-21.0-0.24","b06b759d-7bc3-44b3-ac5f-72bfa44f8e6f","1000","
                  <p style=""text-align: center;"">₪79
                                                <br>65%</p>
                  <p id=""wtp"" style=""text-align:center; margin-top: 0px; margin-bottom: 0px; font-size: 40px"";>&ensp;</p>","-","viewing","0","31","8A","","","","","","","","","","","","","","","","","",""
"","","","","","html-slider-response","185","412695","0.0-21.0-1.24","b06b759d-7bc3-44b3-ac5f-72bfa44f8e6f","null","
                  <p style=""text-align: center;"">₪79
                                                <br>65%</p>
                  <p id=""wtp"" style=""text-align:center; margin-top: 0px; margin-bottom: 0px; font-size: 40px"";>מוכנים לשלם: <span id=""c_p_y""></span></p>","null","evaluation","18","31","8A","65","79","37","","","","","","","","","","","","","","",""
"","","","","","html-keyboard-response","186","413383","0.0-21.0-2.24","b06b759d-7bc3-44b3-ac5f-72bfa44f8e6f","null","<p style=""text-align: center;"">+</p>","null","fixation","","","","","","","","","","","","","","","","","","","","",""
"","","","","","html-slider-response","187","414386","0.0-21.0-0.25","b06b759d-7bc3-44b3-ac5f-72bfa44f8e6f","1000","
                  <p style=""text-align: center;"">₪76
                                                <br>65%</p>
                  <p id=""wtp"" style=""text-align:center; margin-top: 0px; margin-bottom: 0px; font-size: 40px"";>&ensp;</p>","-","viewing","0","29","8C,19A,24B","","","","","","","","","","","","","","","","","",""
"","","","","","html-slider-response","188","415719","0.0-21.0-1.25","b06b759d-7bc3-44b3-ac5f-72bfa44f8e6f","1332","
                  <p style=""text-align: center;"">₪76
                                                <br>65%</p>
                  <p id=""wtp"" style=""text-align:center; margin-top: 0px; margin-bottom: 0px; font-size: 40px"";>מוכנים לשלם: <span id=""c_p_y""></span></p>","61","evaluation","61","29","8C,19A,24B","65","76","60","","","","","","","","","","","","","","",""
"","","","","","html-keyboard-response","189","417176","0.0-21.0-2.25","b06b759d-7bc3-44b3-ac5f-72bfa44f8e6f","null","<p style=""text-align: center;"">+</p>","null","fixation","","","","","","","","","","","","","","","","","","","","",""
"","","","","","html-slider-response","190","418181","0.0-21.0-0.26","b06b759d-7bc3-44b3-ac5f-72bfa44f8e6f","1000","
                  <p style=""text-align: center;"">₪64
                                                <br>25%</p>
                  <p id=""wtp"" style=""text-align:center; margin-top: 0px; margin-bottom: 0px; font-size: 40px"";>&ensp;</p>","-","viewing","0","24","6A,21A","","","","","","","","","","","","","","","","","",""
"","","","","","html-slider-response","191","419751","0.0-21.0-1.26","b06b759d-7bc3-44b3-ac5f-72bfa44f8e6f","1569","
                  <p style=""text-align: center;"">₪64
                                                <br>25%</p>
                  <p id=""wtp"" style=""text-align:center; margin-top: 0px; margin-bottom: 0px; font-size: 40px"";>מוכנים לשלם: <span id=""c_p_y""></span></p>","15","evaluation","68","24","6A,21A","25","64","15","","","","","","","","","","","","","","",""
"","","","","","html-keyboard-response","192","421105","0.0-21.0-2.26","b06b759d-7bc3-44b3-ac5f-72bfa44f8e6f","null","<p style=""text-align: center;"">+</p>","null","fixation","","","","","","","","","","","","","","","","","","","","",""
"","","","","","html-slider-response","193","422107","0.0-21.0-0.27","b06b759d-7bc3-44b3-ac5f-72bfa44f8e6f","1000","
                  <p style=""text-align: center;"">₪4
                                                <br>25%</p>
                  <p id=""wtp"" style=""text-align:center; margin-top: 0px; margin-bottom: 0px; font-size: 40px"";>&ensp;</p>","-","viewing","0","1","6C,29B,30C","","","","","","","","","","","","","","","","","",""
"","","","","","html-slider-response","194","423191","0.0-21.0-1.27","b06b759d-7bc3-44b3-ac5f-72bfa44f8e6f","1083","
                  <p style=""text-align: center;"">₪4
                                                <br>25%</p>
                  <p id=""wtp"" style=""text-align:center; margin-top: 0px; margin-bottom: 0px; font-size: 40px"";>מוכנים לשלם: <span id=""c_p_y""></span></p>","0","evaluation","73","1","6C,29B,30C","25","4","1","","","","","","","","","","","","","","",""
"","","","","","html-keyboard-response","195","424364","0.0-21.0-2.27","b06b759d-7bc3-44b3-ac5f-72bfa44f8e6f","null","<p style=""text-align: center;"">+</p>","null","fixation","","","","","","","","","","","","","","","","","","","","",""
"","","","","","html-slider-response","196","425380","0.0-21.0-0.28","b06b759d-7bc3-44b3-ac5f-72bfa44f8e6f","1000","
                  <p style=""text-align: center;"">₪39
                                                <br>60%</p>
                  <p id=""wtp"" style=""text-align:center; margin-top: 0px; margin-bottom: 0px; font-size: 40px"";>&ensp;</p>","-","viewing","0","15","9C,25B","","","","","","","","","","","","","","","","","",""
"","","","","","html-slider-response","197","428079","0.0-21.0-1.28","b06b759d-7bc3-44b3-ac5f-72bfa44f8e6f","2697","
                  <p style=""text-align: center;"">₪39
                                                <br>60%</p>
                  <p id=""wtp"" style=""text-align:center; margin-top: 0px; margin-bottom: 0px; font-size: 40px"";>מוכנים לשלם: <span id=""c_p_y""></span></p>","31","evaluation","68","15","9C,25B","60","39","31","","","","","","","","","","","","","","",""
"","","","","","html-keyboard-response","198","428715","0.0-21.0-2.28","b06b759d-7bc3-44b3-ac5f-72bfa44f8e6f","null","<p style=""text-align: center;"">+</p>","null","fixation","","","","","","","","","","","","","","","","","","","","",""
"","","","","","html-slider-response","199","429727","0.0-21.0-0.29","b06b759d-7bc3-44b3-ac5f-72bfa44f8e6f","1000","
                  <p style=""text-align: center;"">₪36
                                                <br>60%</p>
                  <p id=""wtp"" style=""text-align:center; margin-top: 0px; margin-bottom: 0px; font-size: 40px"";>&ensp;</p>","-","viewing","0","12","1C,7C,15C","","","","","","","","","","","","","","","","","",""
"","","","","","html-slider-response","200","431495","0.0-21.0-1.29","b06b759d-7bc3-44b3-ac5f-72bfa44f8e6f","1766","
                  <p style=""text-align: center;"">₪36
                                                <br>60%</p>
                  <p id=""wtp"" style=""text-align:center; margin-top: 0px; margin-bottom: 0px; font-size: 40px"";>מוכנים לשלם: <span id=""c_p_y""></span></p>","28","evaluation","38","12","1C,7C,15C","60","36","28","","","","","","","","","","","","","","",""
"","","","","","html-keyboard-response","201","432349","0.0-21.0-2.29","b06b759d-7bc3-44b3-ac5f-72bfa44f8e6f","null","<p style=""text-align: center;"">+</p>","null","fixation","","","","","","","","","","","","","","","","","","","","",""
"","","","","","html-slider-response","202","433354","0.0-21.0-0.30","b06b759d-7bc3-44b3-ac5f-72bfa44f8e6f","1000","
                  <p style=""text-align: center;"">₪61
                                                <br>55%</p>
                  <p id=""wtp"" style=""text-align:center; margin-top: 0px; margin-bottom: 0px; font-size: 40px"";>&ensp;</p>","-","viewing","0","23","7B,26B","","","","","","","","","","","","","","","","","",""
"","","","","","html-slider-response","203","434671","0.0-21.0-1.30","b06b759d-7bc3-44b3-ac5f-72bfa44f8e6f","1315","
                  <p style=""text-align: center;"">₪61
                                                <br>55%</p>
                  <p id=""wtp"" style=""text-align:center; margin-top: 0px; margin-bottom: 0px; font-size: 40px"";>מוכנים לשלם: <span id=""c_p_y""></span></p>","27","evaluation","2","23","7B,26B","55","61","27","","","","","","","","","","","","","","",""
"","","","","","html-keyboard-response","204","436027","0.0-21.0-2.30","b06b759d-7bc3-44b3-ac5f-72bfa44f8e6f","null","<p style=""text-align: center;"">+</p>","null","fixation","","","","","","","","","","","","","","","","","","","","",""
"","","","","","html-keyboard-response","205","437031","0.0-22.0","b06b759d-7bc3-44b3-ac5f-72bfa44f8e6f","null","<p style=""text-align: center;"">+</p>","null","fixation","","","","","","","","","","","","","","","","","","","","",""
"","","","","","html-keyboard-response","206","438279","0.0-23.0","b06b759d-7bc3-44b3-ac5f-72bfa44f8e6f","null","<p>הפסקה.
          <br>לחצו כדי להמשיך.</p>","1","scan_wait","","","","","","","","","","","","","","","","","","","","",""
"","","","","","html-keyboard-response","207","439288","0.0-24.0","b06b759d-7bc3-44b3-ac5f-72bfa44f8e6f","null","<p style=""text-align: center;"">+</p>","null","fixation","","","","","","","","","","","","","","","","","","","","",""
"","","","","","html-slider-response","208","440290","0.0-25.0-0.0","b06b759d-7bc3-44b3-ac5f-72bfa44f8e6f","1000","
                  <p style=""text-align: center;"">₪11
                                                <br>20%</p>
                  <p id=""wtp"" style=""text-align:center; margin-top: 0px; margin-bottom: 0px; font-size: 40px"";>&ensp;</p>","-","viewing","0","4","12C,17C,23C,28C","","","","","","","","","","","","","","","","","",""
"","","","","","html-slider-response","209","441159","0.0-25.0-1.0","b06b759d-7bc3-44b3-ac5f-72bfa44f8e6f","868","
                  <p style=""text-align: center;"">₪11
                                                <br>20%</p>
                  <p id=""wtp"" style=""text-align:center; margin-top: 0px; margin-bottom: 0px; font-size: 40px"";>מוכנים לשלם: <span id=""c_p_y""></span></p>","4","evaluation","39","4","12C,17C,23C,28C","20","11","5","","","","","","","","","","","","","","",""
"","","","","","html-keyboard-response","210","441982","0.0-25.0-2.0","b06b759d-7bc3-44b3-ac5f-72bfa44f8e6f","null","<p style=""text-align: center;"">+</p>","null","fixation","","","","","","","","","","","","","","","","","","","","",""
"","","","","","html-slider-response","211","442985","0.0-25.0-0.1","b06b759d-7bc3-44b3-ac5f-72bfa44f8e6f","1000","
                  <p style=""text-align: center;"">₪39
                                                <br>60%</p>
                  <p id=""wtp"" style=""text-align:center; margin-top: 0px; margin-bottom: 0px; font-size: 40px"";>&ensp;</p>","-","viewing","0","15","9C,25B","","","","","","","","","","","","","","","","","",""
"","","","","","html-slider-response","212","446079","0.0-25.0-1.1","b06b759d-7bc3-44b3-ac5f-72bfa44f8e6f","3093","
                  <p style=""text-align: center;"">₪39
                                                <br>60%</p>
                  <p id=""wtp"" style=""text-align:center; margin-top: 0px; margin-bottom: 0px; font-size: 40px"";>מוכנים לשלם: <span id=""c_p_y""></span></p>","29","evaluation","30","15","9C,25B","60","39","29","","","","","","","","","","","","","","",""
"","","","","","html-keyboard-response","213","446957","0.0-25.0-2.1","b06b759d-7bc3-44b3-ac5f-72bfa44f8e6f","null","<p style=""text-align: center;"">+</p>","null","fixation","","","","","","","","","","","","","","","","","","","","",""
"","","","","","html-slider-response","214","447959","0.0-25.0-0.2","b06b759d-7bc3-44b3-ac5f-72bfa44f8e6f","1000","
                  <p style=""text-align: center;"">₪36
                                                <br>60%</p>
                  <p id=""wtp"" style=""text-align:center; margin-top: 0px; margin-bottom: 0px; font-size: 40px"";>&ensp;</p>","-","viewing","0","12","1C,7C,15C","","","","","","","","","","","","","","","","","",""
"","","","","","html-slider-response","215","448791","0.0-25.0-1.2","b06b759d-7bc3-44b3-ac5f-72bfa44f8e6f","831","
                  <p style=""text-align: center;"">₪36
                                                <br>60%</p>
                  <p id=""wtp"" style=""text-align:center; margin-top: 0px; margin-bottom: 0px; font-size: 40px"";>מוכנים לשלם: <span id=""c_p_y""></span></p>","23","evaluation","22","12","1C,7C,15C","60","36","23","","","","","","","","","","","","","","",""
"","","","","","html-keyboard-response","216","450023","0.0-25.0-2.2","b06b759d-7bc3-44b3-ac5f-72bfa44f8e6f","null","<p style=""text-align: center;"">+</p>","null","fixation","","","","","","","","","","","","","","","","","","","","",""
"","","","","","html-slider-response","217","451031","0.0-25.0-0.3","b06b759d-7bc3-44b3-ac5f-72bfa44f8e6f","1000","
                  <p style=""text-align: center;"">₪64
                                                <br>50%</p>
                  <p id=""wtp"" style=""text-align:center; margin-top: 0px; margin-bottom: 0px; font-size: 40px"";>&ensp;</p>","-","viewing","0","25","1B,3B,4A","","","","","","","","","","","","","","","","","",""
"","","","","","html-slider-response","218","452911","0.0-25.0-1.3","b06b759d-7bc3-44b3-ac5f-72bfa44f8e6f","1878","
                  <p style=""text-align: center;"">₪64
                                                <br>50%</p>
                  <p id=""wtp"" style=""text-align:center; margin-top: 0px; margin-bottom: 0px; font-size: 40px"";>מוכנים לשלם: <span id=""c_p_y""></span></p>","29","evaluation","36","25","1B,3B,4A","50","64","30","","","","","","","","","","","","","","",""
"","","","","","html-keyboard-response","219","453935","0.0-25.0-2.3","b06b759d-7bc3-44b3-ac5f-72bfa44f8e6f","null","<p style=""text-align: center;"">+</p>","null","fixation","","","","","","","","","","","","","","","","","","","","",""
"","","","","","html-slider-response","220","454944","0.0-25.0-0.4","b06b759d-7bc3-44b3-ac5f-72bfa44f8e6f","1000","
                  <p style=""text-align: center;"">₪11
                                                <br>45%</p>
                  <p id=""wtp"" style=""text-align:center; margin-top: 0px; margin-bottom: 0px; font-size: 40px"";>&ensp;</p>","-","viewing","0","6","14B,21C,25C","","","","","","","","","","","","","","","","","",""
"","","","","","html-slider-response","221","456095","0.0-25.0-1.4","b06b759d-7bc3-44b3-ac5f-72bfa44f8e6f","1149","
                  <p style=""text-align: center;"">₪11
                                                <br>45%</p>
                  <p id=""wtp"" style=""text-align:center; margin-top: 0px; margin-bottom: 0px; font-size: 40px"";>מוכנים לשלם: <span id=""c_p_y""></span></p>","4","evaluation","8","6","14B,21C,25C","45","11","5","","","","","","","","","","","","","","",""
"","","","","","html-keyboard-response","222","457497","0.0-25.0-2.4","b06b759d-7bc3-44b3-ac5f-72bfa44f8e6f","null","<p style=""text-align: center;"">+</p>","null","fixation","","","","","","","","","","","","","","","","","","","","",""
"","","","","","html-slider-response","223","458499","0.0-25.0-0.5","b06b759d-7bc3-44b3-ac5f-72bfa44f8e6f","1000","
                  <p style=""text-align: center;"">₪71
                                                <br>45%</p>
                  <p id=""wtp"" style=""text-align:center; margin-top: 0px; margin-bottom: 0px; font-size: 40px"";>&ensp;</p>","-","viewing","0","26","2B,16A","","","","","","","","","","","","","","","","","",""
"","","","","","html-slider-response","224","459375","0.0-25.0-1.5","b06b759d-7bc3-44b3-ac5f-72bfa44f8e6f","875","
                  <p style=""text-align: center;"">₪71
                                                <br>45%</p>
                  <p id=""wtp"" style=""text-align:center; margin-top: 0px; margin-bottom: 0px; font-size: 40px"";>מוכנים לשלם: <span id=""c_p_y""></span></p>","36","evaluation","21","26","2B,16A","45","71","36","","","","","","","","","","","","","","",""
"","","","","","html-keyboard-response","225","459925","0.0-25.0-2.5","b06b759d-7bc3-44b3-ac5f-72bfa44f8e6f","null","<p style=""text-align: center;"">+</p>","null","fixation","","","","","","","","","","","","","","","","","","","","",""
"","","","","","html-slider-response","226","460927","0.0-25.0-0.6","b06b759d-7bc3-44b3-ac5f-72bfa44f8e6f","1000","
                  <p style=""text-align: center;"">₪61
                                                <br>45%</p>
                  <p id=""wtp"" style=""text-align:center; margin-top: 0px; margin-bottom: 0px; font-size: 40px"";>&ensp;</p>","-","viewing","0","22","10A,11A","","","","","","","","","","","","","","","","","",""
"","","","","","html-slider-response","227","462663","0.0-25.0-1.6","b06b759d-7bc3-44b3-ac5f-72bfa44f8e6f","1734","
                  <p style=""text-align: center;"">₪61
                                                <br>45%</p>
                  <p id=""wtp"" style=""text-align:center; margin-top: 0px; margin-bottom: 0px; font-size: 40px"";>מוכנים לשלם: <span id=""c_p_y""></span></p>","30","evaluation","55","22","10A,11A","45","61","30","","","","","","","","","","","","","","",""
"","","","","","html-keyboard-response","228","463838","0.0-25.0-2.6","b06b759d-7bc3-44b3-ac5f-72bfa44f8e6f","null","<p style=""text-align: center;"">+</p>","null","fixation","","","","","","","","","","","","","","","","","","","","",""
"","","","","","html-slider-response","229","464848","0.0-25.0-0.7","b06b759d-7bc3-44b3-ac5f-72bfa44f8e6f","1000","
                  <p style=""text-align: center;"">₪4
                                                <br>25%</p>
                  <p id=""wtp"" style=""text-align:center; margin-top: 0px; margin-bottom: 0px; font-size: 40px"";>&ensp;</p>","-","viewing","0","1","6C,29B,30C","","","","","","","","","","","","","","","","","",""
"","","","","","html-slider-response","230","465383","0.0-25.0-1.7","b06b759d-7bc3-44b3-ac5f-72bfa44f8e6f","533","
                  <p style=""text-align: center;"">₪4
                                                <br>25%</p>
                  <p id=""wtp"" style=""text-align:center; margin-top: 0px; margin-bottom: 0px; font-size: 40px"";>מוכנים לשלם: <span id=""c_p_y""></span></p>","0","evaluation","65","1","6C,29B,30C","25","4","0","","","","","","","","","","","","","","",""
"","","","","","html-keyboard-response","231","466736","0.0-25.0-2.7","b06b759d-7bc3-44b3-ac5f-72bfa44f8e6f","null","<p style=""text-align: center;"">+</p>","null","fixation","","","","","","","","","","","","","","","","","","","","",""
"","","","","","html-slider-response","232","467744","0.0-25.0-0.8","b06b759d-7bc3-44b3-ac5f-72bfa44f8e6f","1000","
                  <p style=""text-align: center;"">₪36
                                                <br>30%</p>
                  <p id=""wtp"" style=""text-align:center; margin-top: 0px; margin-bottom: 0px; font-size: 40px"";>&ensp;</p>","-","viewing","0","11","3C,20A,22A","","","","","","","","","","","","","","","","","",""
"","","","","","html-slider-response","233","469879","0.0-25.0-1.8","b06b759d-7bc3-44b3-ac5f-72bfa44f8e6f","2134","
                  <p style=""text-align: center;"">₪36
                                                <br>30%</p>
                  <p id=""wtp"" style=""text-align:center; margin-top: 0px; margin-bottom: 0px; font-size: 40px"";>מוכנים לשלם: <span id=""c_p_y""></span></p>","12","evaluation","49","11","3C,20A,22A","30","36","12","","","","","","","","","","","","","","",""
"","","","","","html-keyboard-response","234","471369","0.0-25.0-2.8","b06b759d-7bc3-44b3-ac5f-72bfa44f8e6f","null","<p style=""text-align: center;"">+</p>","null","fixation","","","","","","","","","","","","","","","","","","","","",""
"","","","","","html-slider-response","235","472371","0.0-25.0-0.9","b06b759d-7bc3-44b3-ac5f-72bfa44f8e6f","1000","
                  <p style=""text-align: center;"">₪18
                                                <br>25%</p>
                  <p id=""wtp"" style=""text-align:center; margin-top: 0px; margin-bottom: 0px; font-size: 40px"";>&ensp;</p>","-","viewing","0","9","14A,23A","","","","","","","","","","","","","","","","","",""
"","","","","","html-slider-response","236","473463","0.0-25.0-1.9","b06b759d-7bc3-44b3-ac5f-72bfa44f8e6f","1091","
                  <p style=""text-align: center;"">₪18
                                                <br>25%</p>
                  <p id=""wtp"" style=""text-align:center; margin-top: 0px; margin-bottom: 0px; font-size: 40px"";>מוכנים לשלם: <span id=""c_p_y""></span></p>","3","evaluation","71","9","14A,23A","25","18","4","","","","","","","","","","","","","","",""
"","","","","","html-keyboard-response","237","474561","0.0-25.0-2.9","b06b759d-7bc3-44b3-ac5f-72bfa44f8e6f","null","<p style=""text-align: center;"">+</p>","null","fixation","","","","","","","","","","","","","","","","","","","","",""
"","","","","","html-slider-response","238","475563","0.0-25.0-0.10","b06b759d-7bc3-44b3-ac5f-72bfa44f8e6f","1000","
                  <p style=""text-align: center;"">₪79
                                                <br>65%</p>
                  <p id=""wtp"" style=""text-align:center; margin-top: 0px; margin-bottom: 0px; font-size: 40px"";>&ensp;</p>","-","viewing","0","31","8A","","","","","","","","","","","","","","","","","",""
"","","","","","html-slider-response","239","478503","0.0-25.0-1.10","b06b759d-7bc3-44b3-ac5f-72bfa44f8e6f","2939","
                  <p style=""text-align: center;"">₪79
                                                <br>65%</p>
                  <p id=""wtp"" style=""text-align:center; margin-top: 0px; margin-bottom: 0px; font-size: 40px"";>מוכנים לשלם: <span id=""c_p_y""></span></p>","57","evaluation","68","31","8A","65","79","57","","","","","","","","","","","","","","",""
"","","","","","html-keyboard-response","240","479852","0.0-25.0-2.10","b06b759d-7bc3-44b3-ac5f-72bfa44f8e6f","null","<p style=""text-align: center;"">+</p>","null","fixation","","","","","","","","","","","","","","","","","","","","",""
"","","","","","html-slider-response","241","480860","0.0-25.0-0.11","b06b759d-7bc3-44b3-ac5f-72bfa44f8e6f","1000","
                  <p style=""text-align: center;"">₪61
                                                <br>55%</p>
                  <p id=""wtp"" style=""text-align:center; margin-top: 0px; margin-bottom: 0px; font-size: 40px"";>&ensp;</p>","-","viewing","0","23","7B,26B","","","","","","","","","","","","","","","","","",""
"","","","","","html-slider-response","242","481910","0.0-25.0-1.11","b06b759d-7bc3-44b3-ac5f-72bfa44f8e6f","1050","
                  <p style=""text-align: center;"">₪61
                                                <br>55%</p>
                  <p id=""wtp"" style=""text-align:center; margin-top: 0px; margin-bottom: 0px; font-size: 40px"";>מוכנים לשלם: <span id=""c_p_y""></span></p>","27","evaluation","28","23","7B,26B","55","61","27","","","","","","","","","","","","","","",""
"","","","","","html-keyboard-response","243","482621","0.0-25.0-2.11","b06b759d-7bc3-44b3-ac5f-72bfa44f8e6f","null","<p style=""text-align: center;"">+</p>","null","fixation","","","","","","","","","","","","","","","","","","","","",""
"","","","","","html-slider-response","244","483628","0.0-25.0-0.12","b06b759d-7bc3-44b3-ac5f-72bfa44f8e6f","1000","
                  <p style=""text-align: center;"">₪71
                                                <br>75%</p>
                  <p id=""wtp"" style=""text-align:center; margin-top: 0px; margin-bottom: 0px; font-size: 40px"";>&ensp;</p>","-","viewing","0","28","8B","","","","","","","","","","","","","","","","","",""
"","","","","","html-slider-response","245","484990","0.0-25.0-1.12","b06b759d-7bc3-44b3-ac5f-72bfa44f8e6f","1362","
                  <p style=""text-align: center;"">₪71
                                                <br>75%</p>
                  <p id=""wtp"" style=""text-align:center; margin-top: 0px; margin-bottom: 0px; font-size: 40px"";>מוכנים לשלם: <span id=""c_p_y""></span></p>","61","evaluation","8","28","8B","75","71","60","","","","","","","","","","","","","","",""
"","","","","","html-keyboard-response","246","486324","0.0-25.0-2.12","b06b759d-7bc3-44b3-ac5f-72bfa44f8e6f","null","<p style=""text-align: center;"">+</p>","null","fixation","","","","","","","","","","","","","","","","","","","","",""
"","","","","","html-slider-response","247","487326","0.0-25.0-0.13","b06b759d-7bc3-44b3-ac5f-72bfa44f8e6f","1000","
                  <p style=""text-align: center;"">₪76
                                                <br>65%</p>
                  <p id=""wtp"" style=""text-align:center; margin-top: 0px; margin-bottom: 0px; font-size: 40px"";>&ensp;</p>","-","viewing","0","29","8C,19A,24B","","","","","","","","","","","","","","","","","",""
"","","","","","html-slider-response","248","489119","0.0-25.0-1.13","b06b759d-7bc3-44b3-ac5f-72bfa44f8e6f","1791","
                  <p style=""text-align: center;"">₪76
                                                <br>65%</p>
                  <p id=""wtp"" style=""text-align:center; margin-top: 0px; margin-bottom: 0px; font-size: 40px"";>מוכנים לשלם: <span id=""c_p_y""></span></p>","59","evaluation","62","29","8C,19A,24B","65","76","58","","","","","","","","","","","","","","",""
"","","","","","html-keyboard-response","249","489689","0.0-25.0-2.13","b06b759d-7bc3-44b3-ac5f-72bfa44f8e6f","null","<p style=""text-align: center;"">+</p>","null","fixation","","","","","","","","","","","","","","","","","","","","",""
"","","","","","html-slider-response","250","490695","0.0-25.0-0.14","b06b759d-7bc3-44b3-ac5f-72bfa44f8e6f","1000","
                  <p style=""text-align: center;"">₪58
                                                <br>40%</p>
                  <p id=""wtp"" style=""text-align:center; margin-top: 0px; margin-bottom: 0px; font-size: 40px"";>&ensp;</p>","-","viewing","0","20","10C,13A,19C,21B","","","","","","","","","","","","","","","","","",""
"","","","","","html-slider-response","251","492430","0.0-25.0-1.14","b06b759d-7bc3-44b3-ac5f-72bfa44f8e6f","1734","
                  <p style=""text-align: center;"">₪58
                                                <br>40%</p>
                  <p id=""wtp"" style=""text-align:center; margin-top: 0px; margin-bottom: 0px; font-size: 40px"";>מוכנים לשלם: <span id=""c_p_y""></span></p>","26","evaluation","58","20","10C,13A,19C,21B","40","58","27","","","","","","","","","","","","","","",""
"","","","","","html-keyboard-response","252","493494","0.0-25.0-2.14","b06b759d-7bc3-44b3-ac5f-72bfa44f8e6f","null","<p style=""text-align: center;"">+</p>","null","fixation","","","","","","","","","","","","","","","","","","","","",""
"","","","","","html-slider-response","253","494503","0.0-25.0-0.15","b06b759d-7bc3-44b3-ac5f-72bfa44f8e6f","1000","
