"success","timeout","failed_images","failed_audio","failed_video","trial_type","trial_index","time_elapsed","internal_node_id","subject_id","rt","stimulus","response","part","slider_start","ID","set_ID","prob","amount","last_location","actual_choice","actual_EV","binary_id","trinary_id","catch","A_key","D_key","choice_prob","choice_amount","chosen_part","won_prize","potential_prize_amount","potential_prize_prob","total_prize","accuracy"
"true","false","[]","[]","[]","preload","0","18","0.0-0.0","d1e00293-27c1-4c36-bc26-c1a719a35f3d","","","","","","","","","","","","","","","","","","","","","","","","",""
"","","","","","html-keyboard-response","1","921459","0.0-1.0","d1e00293-27c1-4c36-bc26-c1a719a35f3d","null","
          <h1>שלום וברוכים הבאים!</h1>
          <p>לפניכם ניסוי בקבלת החלטות עם שני חלקים.
          <br><br>לחצו על העכבר כדי להמשיך.</p>","0","example","","","","","","","","","","","","","","","","","","","","",""
"","","","","","html-keyboard-response","2","934507","0.0-2.0","d1e00293-27c1-4c36-bc26-c1a719a35f3d","null","
        <h1>חלק 1</h1>
        <p>בקרוב יוצגו בפניכם הגרלות.
        <br>עליכם לבחור את המחיר המירבי שתהיו מוכנים לשלם כדי להשתתף בהגרלה שתוצג.
        <br>יש לכם תקציב של ₪80 לכל הגרלה. 
        <br>נסו להעריך כל הגרלה בנפרד ולחשוב כמה היא שווה עבורכם, ₪80 זמינים לכל הגרלה בנפרד.
        <br><br>לחצו על העכבר כדי להמשיך.</p>","1","instructions","","","","","","","","","","","","","","","","","","","","",""
"","","","","","html-keyboard-response","3","943442","0.0-3.0","d1e00293-27c1-4c36-bc26-c1a719a35f3d","null","
        <p>בסוף הניסוי, המחשב יבחר את אחת ההגרלות ויקבע מחיר לכרטיס עבורה. 
        <br>במידה והמחיר שבחרתם נמוך מהמחיר שנבחר על ידי המחשב, לא תשתתפו בהגרלה ותשארו עם מלוא התקציב.
        <br>במידה והמחיר שבחרתם גבוה מהמחיר שנבחר על ידי המחשב, תשלמו את המחיר שנקבע ותשתתפו בהגרלה.
        <br><br>לחצו על העכבר כדי להמשיך.</p>","1","instructions","","","","","","","","","","","","","","","","","","","","",""
"","","","","","html-slider-response","4","951891","0.0-4.0","d1e00293-27c1-4c36-bc26-c1a719a35f3d","8332","
        <p style=""font-size: 42px;"">נתחיל עם דוגמא: 
        <br>ההגרלה מטה מציעה 65% סיכוי לזכות ב-₪40 
        <br>&emsp;&emsp;&emsp;&emsp;&emsp;&emsp;&emsp;&emsp;&ensp;35% סיכוי לזכות ב-₪0.
        <br><br>מה המחיר המירבי שתהיו מוכנים לשלם על כרטיס להגרלה זו בין 0 ל-₪80?
        <br>הזיזו את העכבר על פני המלבן ולחצו כדי לבצע בחירה.</p>
        
        <p style=""text-align: center;"">₪40<br>65%</p>

        <p id=""wtp"" style=""text-align:center; margin-top: 0px; margin-bottom: 0px; font-size: 40px"";>מוכנים לשלם: <span id=""c_p_y""></span></p>","40","example","64","","","","","","","","","","","","","","","","","","","",""
"","","","","","html-keyboard-response","5","957834","0.0-5.0","d1e00293-27c1-4c36-bc26-c1a719a35f3d","null","<p>יפה מאוד!
                <br> בחרתם שתהיו מוכנים לשלם ₪40 כדי להשתתף בהגרלה:
                <br><p style=""text-align: center;"">₪40<br>65%</p>
                <p>נשמע נכון?
                <br>נניח שהגרלה זו נבחרה בסוף הניסוי.
                <br>כעת המחשב יקבע מחיר עבורה באקראי.
                <br>לחצו על העכבר להמשך.</p>","1","example","","","","","","","","","","","","","","","","","","","","",""
"","","","","","html-keyboard-response","6","962418","0.0-6.0","d1e00293-27c1-4c36-bc26-c1a719a35f3d","null","<p>המחשב קבע מחיר: ₪70
                <br>ואתם בחרתם לשלם לכל היותר: ₪40
                <br><br>מכיוון שהמחיר שבחרתם נמוך מהמחיר שנקבע, לא תתשתתפו בהגרלה.
                <br>במקרה כזה, בסוף הניסוי תקבלו את כל התקציב ההתחלתי של ₪80.
                <br><br>לחצו על העכבר להמשך.</p>","1","example","","","","","","","","","","","","","","","","","","","","",""
"","","","","","html-slider-response","7","968331","0.0-7.0","d1e00293-27c1-4c36-bc26-c1a719a35f3d","5648","<p style=""font-size: 42px;"">הנה עוד דוגמא:
                <br>ההגרלה מטה מציעה 35% סיכוי לזכות ב-₪18 
                <br>&emsp;&emsp;&emsp;&emsp;&emsp;&emsp;&emsp;&emsp;&ensp;65% סיכוי לזכות ב-₪0.</p>
        
                <p style=""text-align: center;"">₪18<br>35%</p>
                <p id=""wtp"" style=""text-align:center; margin-top: 0px; margin-bottom: 0px; font-size: 40px"";>מוכנים לשלם: <span id=""c_p_y""></span></p>","0","example","71","","","","","","","","","","","","","","","","","","","",""
"","","","","","html-keyboard-response","8","969762","0.0-8.0","d1e00293-27c1-4c36-bc26-c1a719a35f3d","null","<p>הייתם מוכנים לשלם  ₪0 כדי להשתתף בהגרלה:
                <p style=""text-align: center;"">₪18<br>35%</p>
                <p>כעת נניח שהמחשב בחר את ההגרלה הזו בסוף הניסוי, וקבע עבורה מחיר.
                <br><br>לחצו על העכבר כדי להמשיך.</p>","1","instructions","","","","","","","","","","","","","","","","","","","","",""
"","","","","","html-keyboard-response","9","980891","0.0-9.0","d1e00293-27c1-4c36-bc26-c1a719a35f3d","null","<p>המחשב קבע מחיר להגרלה: ₪0
                <br>ואתם בחרתם לשלם לכל היותר: ₪0
                <br><br>כעת המחיר שנקבע זהה לזה שבחרתם, אז תשלמו את המחיר שקבע המחשב (₪0) ותשתתפו בהגרלה.
                <br>במקרה כזה, תסיימו את הניסוי עם תקציב של ₪80 ועם סיכוי לזכות ב-₪18 נוספים מההגרלה.
                <br>כלומר, תוכלו לקבל ₪80 אם לא תזכו בהגרלה, או ₪98 אם תזכו בהגרלה.
                <br><br>לחצו על העכבר להמשך.</p>","1","example","","","","","","","","","","","","","","","","","","","","",""
"","","","","","html-keyboard-response","10","988859","0.0-10.0","d1e00293-27c1-4c36-bc26-c1a719a35f3d","null","<p>במהלך הניסוי, קודם תראו את ההגרלה ורק לאחר מכן תוכלו לבחור.
                <p>כמו כן, יהיו לכם מספר שניות מוגבל להגיב.
                <p>בואו ננסה זאת עם ההגרלה הקודמת.
                <br>לחצו על העכבר כדי להמשיך.</p>","1","instructions","","","","","","","","","","","","","","","","","","","","",""
"","","","","","html-slider-response","11","990126","0.0-11.0","d1e00293-27c1-4c36-bc26-c1a719a35f3d","1000","
                    <p style=""text-align: center;"">₪18<br>35%</p>
                    <p id=""wtp"" style=""text-align:center; margin-top: 0px; margin-bottom: 0px; font-size: 40px"";>&ensp;</p>","25","instructions","0","","","","","","","","","","","","","","","","","","","",""
"","","","","","html-slider-response","12","990491","0.0-12.0","d1e00293-27c1-4c36-bc26-c1a719a35f3d","98","
                    <p style=""text-align: center;"">₪18<br>35%</p>
                    <p id=""wtp"" style=""text-align:center; margin-top: 0px; margin-bottom: 0px; font-size: 40px"";>מוכנים לשלם: <span id=""c_p_y""></span></p>","48","instructions","48","","","","","","","","","","","","","","","","","","","",""
"","","","","","html-keyboard-response","13","993107","0.0-13.0","d1e00293-27c1-4c36-bc26-c1a719a35f3d","null","<p>יפה. הפעם בחרתם לשלם לכל היותר ₪48.
                <br><br>לחצו על העכבר כדי להמשיך.</p>","1","instructions","","","","","","","","","","","","","","","","","","","","",""
"","","","","","html-keyboard-response","14","1000498","0.0-15.0","d1e00293-27c1-4c36-bc26-c1a719a35f3d","null","<p>כעת נתחיל את הניסוי.
                <br><br>אתם תראו הגרלות ותתבקשו לבחור כמה תהיו מוכנים לשלם כדי להשתתף בהן.
                <br>יש לכם תקציב של ₪80 עבור כל הגרלה.
                <br>בסוף הניסוי הגרלה אחת תבחר באקראי ותשוחק.
                <br><br>לחצו על העכבר כדי להתחיל את הניסוי.</p>","1","instructions","","","","","","","","","","","","","","","","","","","","",""
"","","","","","html-keyboard-response","15","1001755","0.0-16.0","d1e00293-27c1-4c36-bc26-c1a719a35f3d","null","<p style=""text-align: center;"">+</p>","null","fixation","","","","","","","","","","","","","","","","","","","","",""
"","","","","","html-slider-response","16","1002770","0.0-17.0-0.0","d1e00293-27c1-4c36-bc26-c1a719a35f3d","1000","
                  <p style=""text-align: center;"">₪11
                                                <br>75%</p>
                  <p id=""wtp"" style=""text-align:center; margin-top: 0px; margin-bottom: 0px; font-size: 40px"";>&ensp;</p>","-","viewing","0","7","6B,18B,22C,24C,29A","","","","","","","","","","","","","","","","","",""
"","","","","","html-slider-response","17","1006774","0.0-17.0-1.0","d1e00293-27c1-4c36-bc26-c1a719a35f3d","null","
                  <p style=""text-align: center;"">₪11
                                                <br>75%</p>
                  <p id=""wtp"" style=""text-align:center; margin-top: 0px; margin-bottom: 0px; font-size: 40px"";>מוכנים לשלם: <span id=""c_p_y""></span></p>","null","evaluation","40","7","6B,18B,22C,24C,29A","75","11","57","","","","","","","","","","","","","","",""
"","","","","","html-keyboard-response","18","1007674","0.0-17.0-2.0","d1e00293-27c1-4c36-bc26-c1a719a35f3d","null","<p style=""text-align: center;"">+</p>","null","fixation","","","","","","","","","","","","","","","","","","","","",""
"","","","","","html-slider-response","19","1008687","0.0-17.0-0.1","d1e00293-27c1-4c36-bc26-c1a719a35f3d","1000","
                  <p style=""text-align: center;"">₪71
                                                <br>55%</p>
                  <p id=""wtp"" style=""text-align:center; margin-top: 0px; margin-bottom: 0px; font-size: 40px"";>&ensp;</p>","-","viewing","0","27","5B,18A","","","","","","","","","","","","","","","","","",""
"","","","","","html-slider-response","20","1011051","0.0-17.0-1.1","d1e00293-27c1-4c36-bc26-c1a719a35f3d","2362","
                  <p style=""text-align: center;"">₪71
                                                <br>55%</p>
                  <p id=""wtp"" style=""text-align:center; margin-top: 0px; margin-bottom: 0px; font-size: 40px"";>מוכנים לשלם: <span id=""c_p_y""></span></p>","62","evaluation","32","27","5B,18A","55","71","62","","","","","","","","","","","","","","",""
"","","","","","html-keyboard-response","21","1012153","0.0-17.0-2.1","d1e00293-27c1-4c36-bc26-c1a719a35f3d","null","<p style=""text-align: center;"">+</p>","null","fixation","","","","","","","","","","","","","","","","","","","","",""
"","","","","","html-slider-response","22","1013157","0.0-17.0-0.2","d1e00293-27c1-4c36-bc26-c1a719a35f3d","1000","
                  <p style=""text-align: center;"">₪71
                                                <br>75%</p>
                  <p id=""wtp"" style=""text-align:center; margin-top: 0px; margin-bottom: 0px; font-size: 40px"";>&ensp;</p>","-","viewing","0","28","8B","","","","","","","","","","","","","","","","","",""
"","","","","","html-slider-response","23","1015699","0.0-17.0-1.2","d1e00293-27c1-4c36-bc26-c1a719a35f3d","2541","
                  <p style=""text-align: center;"">₪71
                                                <br>75%</p>
                  <p id=""wtp"" style=""text-align:center; margin-top: 0px; margin-bottom: 0px; font-size: 40px"";>מוכנים לשלם: <span id=""c_p_y""></span></p>","60","evaluation","20","28","8B","75","71","60","","","","","","","","","","","","","","",""
"","","","","","html-keyboard-response","24","1016751","0.0-17.0-2.2","d1e00293-27c1-4c36-bc26-c1a719a35f3d","null","<p style=""text-align: center;"">+</p>","null","fixation","","","","","","","","","","","","","","","","","","","","",""
"","","","","","html-slider-response","25","1017754","0.0-17.0-0.3","d1e00293-27c1-4c36-bc26-c1a719a35f3d","1000","
                  <p style=""text-align: center;"">₪58
                                                <br>30%</p>
                  <p id=""wtp"" style=""text-align:center; margin-top: 0px; margin-bottom: 0px; font-size: 40px"";>&ensp;</p>","-","viewing","0","19","13C,30A","","","","","","","","","","","","","","","","","",""
"","","","","","html-slider-response","26","1020139","0.0-17.0-1.3","d1e00293-27c1-4c36-bc26-c1a719a35f3d","2384","
                  <p style=""text-align: center;"">₪58
                                                <br>30%</p>
                  <p id=""wtp"" style=""text-align:center; margin-top: 0px; margin-bottom: 0px; font-size: 40px"";>מוכנים לשלם: <span id=""c_p_y""></span></p>","11","evaluation","18","19","13C,30A","30","58","11","","","","","","","","","","","","","","",""
"","","","","","html-keyboard-response","27","1021528","0.0-17.0-2.3","d1e00293-27c1-4c36-bc26-c1a719a35f3d","null","<p style=""text-align: center;"">+</p>","null","fixation","","","","","","","","","","","","","","","","","","","","",""
"","","","","","html-slider-response","28","1022543","0.0-17.0-0.4","d1e00293-27c1-4c36-bc26-c1a719a35f3d","1000","
                  <p style=""text-align: center;"">₪43
                                                <br>60%</p>
                  <p id=""wtp"" style=""text-align:center; margin-top: 0px; margin-bottom: 0px; font-size: 40px"";>&ensp;</p>","-","viewing","0","17","2A,7A,9A,15B","","","","","","","","","","","","","","","","","",""
"","","","","","html-slider-response","29","1026546","0.0-17.0-1.4","d1e00293-27c1-4c36-bc26-c1a719a35f3d","null","
                  <p style=""text-align: center;"">₪43
                                                <br>60%</p>
                  <p id=""wtp"" style=""text-align:center; margin-top: 0px; margin-bottom: 0px; font-size: 40px"";>מוכנים לשלם: <span id=""c_p_y""></span></p>","null","evaluation","34","17","2A,7A,9A,15B","60","43","30","","","","","","","","","","","","","","",""
"","","","","","html-keyboard-response","30","1027212","0.0-17.0-2.4","d1e00293-27c1-4c36-bc26-c1a719a35f3d","null","<p style=""text-align: center;"">+</p>","null","fixation","","","","","","","","","","","","","","","","","","","","",""
"","","","","","html-slider-response","31","1028214","0.0-17.0-0.5","d1e00293-27c1-4c36-bc26-c1a719a35f3d","1000","
                  <p style=""text-align: center;"">₪79
                                                <br>65%</p>
                  <p id=""wtp"" style=""text-align:center; margin-top: 0px; margin-bottom: 0px; font-size: 40px"";>&ensp;</p>","-","viewing","0","31","8A","","","","","","","","","","","","","","","","","",""
"","","","","","html-slider-response","32","1030643","0.0-17.0-1.5","d1e00293-27c1-4c36-bc26-c1a719a35f3d","2428","
                  <p style=""text-align: center;"">₪79
                                                <br>65%</p>
                  <p id=""wtp"" style=""text-align:center; margin-top: 0px; margin-bottom: 0px; font-size: 40px"";>מוכנים לשלם: <span id=""c_p_y""></span></p>","69","evaluation","76","31","8A","65","79","69","","","","","","","","","","","","","","",""
"","","","","","html-keyboard-response","33","1031869","0.0-17.0-2.5","d1e00293-27c1-4c36-bc26-c1a719a35f3d","null","<p style=""text-align: center;"">+</p>","null","fixation","","","","","","","","","","","","","","","","","","","","",""
"","","","","","html-slider-response","34","1032885","0.0-17.0-0.6","d1e00293-27c1-4c36-bc26-c1a719a35f3d","1000","
                  <p style=""text-align: center;"">₪36
                                                <br>30%</p>
                  <p id=""wtp"" style=""text-align:center; margin-top: 0px; margin-bottom: 0px; font-size: 40px"";>&ensp;</p>","-","viewing","0","11","3C,20A,22A","","","","","","","","","","","","","","","","","",""
"","","","","","html-slider-response","35","1034691","0.0-17.0-1.6","d1e00293-27c1-4c36-bc26-c1a719a35f3d","1805","
                  <p style=""text-align: center;"">₪36
                                                <br>30%</p>
                  <p id=""wtp"" style=""text-align:center; margin-top: 0px; margin-bottom: 0px; font-size: 40px"";>מוכנים לשלם: <span id=""c_p_y""></span></p>","20","evaluation","66","11","3C,20A,22A","30","36","20","","","","","","","","","","","","","","",""
"","","","","","html-keyboard-response","36","1035329","0.0-17.0-2.6","d1e00293-27c1-4c36-bc26-c1a719a35f3d","null","<p style=""text-align: center;"">+</p>","null","fixation","","","","","","","","","","","","","","","","","","","","",""
"","","","","","html-slider-response","37","1036333","0.0-17.0-0.7","d1e00293-27c1-4c36-bc26-c1a719a35f3d","1000","
                  <p style=""text-align: center;"">₪71
                                                <br>45%</p>
                  <p id=""wtp"" style=""text-align:center; margin-top: 0px; margin-bottom: 0px; font-size: 40px"";>&ensp;</p>","-","viewing","0","26","2B,16A","","","","","","","","","","","","","","","","","",""
"","","","","","html-slider-response","38","1039795","0.0-17.0-1.7","d1e00293-27c1-4c36-bc26-c1a719a35f3d","3460","
                  <p style=""text-align: center;"">₪71
                                                <br>45%</p>
                  <p id=""wtp"" style=""text-align:center; margin-top: 0px; margin-bottom: 0px; font-size: 40px"";>מוכנים לשלם: <span id=""c_p_y""></span></p>","37","evaluation","23","26","2B,16A","45","71","37","","","","","","","","","","","","","","",""
"","","","","","html-keyboard-response","39","1040747","0.0-17.0-2.7","d1e00293-27c1-4c36-bc26-c1a719a35f3d","null","<p style=""text-align: center;"">+</p>","null","fixation","","","","","","","","","","","","","","","","","","","","",""
"","","","","","html-slider-response","40","1041762","0.0-17.0-0.8","d1e00293-27c1-4c36-bc26-c1a719a35f3d","1000","
                  <p style=""text-align: center;"">₪61
                                                <br>55%</p>
                  <p id=""wtp"" style=""text-align:center; margin-top: 0px; margin-bottom: 0px; font-size: 40px"";>&ensp;</p>","-","viewing","0","23","7B,26B","","","","","","","","","","","","","","","","","",""
"","","","","","html-slider-response","41","1044515","0.0-17.0-1.8","d1e00293-27c1-4c36-bc26-c1a719a35f3d","2752","
                  <p style=""text-align: center;"">₪61
                                                <br>55%</p>
                  <p id=""wtp"" style=""text-align:center; margin-top: 0px; margin-bottom: 0px; font-size: 40px"";>מוכנים לשלם: <span id=""c_p_y""></span></p>","33","evaluation","31","23","7B,26B","55","61","33","","","","","","","","","","","","","","",""
"","","","","","html-keyboard-response","42","1045468","0.0-17.0-2.8","d1e00293-27c1-4c36-bc26-c1a719a35f3d","null","<p style=""text-align: center;"">+</p>","null","fixation","","","","","","","","","","","","","","","","","","","","",""
"","","","","","html-slider-response","43","1046483","0.0-17.0-0.9","d1e00293-27c1-4c36-bc26-c1a719a35f3d","1000","
                  <p style=""text-align: center;"">₪18
                                                <br>50%</p>
                  <p id=""wtp"" style=""text-align:center; margin-top: 0px; margin-bottom: 0px; font-size: 40px"";>&ensp;</p>","-","viewing","0","10","2C,16C,22B,28A","","","","","","","","","","","","","","","","","",""
"","","","","","html-slider-response","44","1050259","0.0-17.0-1.9","d1e00293-27c1-4c36-bc26-c1a719a35f3d","3775","
                  <p style=""text-align: center;"">₪18
                                                <br>50%</p>
                  <p id=""wtp"" style=""text-align:center; margin-top: 0px; margin-bottom: 0px; font-size: 40px"";>מוכנים לשלם: <span id=""c_p_y""></span></p>","9","evaluation","5","10","2C,16C,22B,28A","50","18","9","","","","","","","","","","","","","","",""
"","","","","","html-keyboard-response","45","1050851","0.0-17.0-2.9","d1e00293-27c1-4c36-bc26-c1a719a35f3d","null","<p style=""text-align: center;"">+</p>","null","fixation","","","","","","","","","","","","","","","","","","","","",""
"","","","","","html-slider-response","46","1051856","0.0-17.0-0.10","d1e00293-27c1-4c36-bc26-c1a719a35f3d","1000","
                  <p style=""text-align: center;"">₪58
                                                <br>40%</p>
                  <p id=""wtp"" style=""text-align:center; margin-top: 0px; margin-bottom: 0px; font-size: 40px"";>&ensp;</p>","-","viewing","0","20","10C,13A,19C,21B","","","","","","","","","","","","","","","","","",""
"","","","","","html-slider-response","47","1055163","0.0-17.0-1.10","d1e00293-27c1-4c36-bc26-c1a719a35f3d","3306","
                  <p style=""text-align: center;"">₪58
                                                <br>40%</p>
                  <p id=""wtp"" style=""text-align:center; margin-top: 0px; margin-bottom: 0px; font-size: 40px"";>מוכנים לשלם: <span id=""c_p_y""></span></p>","30","evaluation","72","20","10C,13A,19C,21B","40","58","30","","","","","","","","","","","","","","",""
"","","","","","html-keyboard-response","48","1056145","0.0-17.0-2.10","d1e00293-27c1-4c36-bc26-c1a719a35f3d","null","<p style=""text-align: center;"">+</p>","null","fixation","","","","","","","","","","","","","","","","","","","","",""
"","","","","","html-slider-response","49","1057160","0.0-17.0-0.11","d1e00293-27c1-4c36-bc26-c1a719a35f3d","1000","
                  <p style=""text-align: center;"">₪16
                                                <br>20%</p>
                  <p id=""wtp"" style=""text-align:center; margin-top: 0px; margin-bottom: 0px; font-size: 40px"";>&ensp;</p>","-","viewing","0","8","14C,17A,20C,27A","","","","","","","","","","","","","","","","","",""
"","","","","","html-slider-response","50","1061171","0.0-17.0-1.11","d1e00293-27c1-4c36-bc26-c1a719a35f3d","null","
                  <p style=""text-align: center;"">₪16
                                                <br>20%</p>
                  <p id=""wtp"" style=""text-align:center; margin-top: 0px; margin-bottom: 0px; font-size: 40px"";>מוכנים לשלם: <span id=""c_p_y""></span></p>","null","evaluation","29","8","14C,17A,20C,27A","20","16","4","","","","","","","","","","","","","","",""
"","","","","","html-keyboard-response","51","1062509","0.0-17.0-2.11","d1e00293-27c1-4c36-bc26-c1a719a35f3d","null","<p style=""text-align: center;"">+</p>","null","fixation","","","","","","","","","","","","","","","","","","","","",""
"","","","","","html-slider-response","52","1063517","0.0-17.0-0.12","d1e00293-27c1-4c36-bc26-c1a719a35f3d","1000","
                  <p style=""text-align: center;"">₪79
                                                <br>40%</p>
                  <p id=""wtp"" style=""text-align:center; margin-top: 0px; margin-bottom: 0px; font-size: 40px"";>&ensp;</p>","-","viewing","0","30","9B","","","","","","","","","","","","","","","","","",""
"","","","","","html-slider-response","53","1067091","0.0-17.0-1.12","d1e00293-27c1-4c36-bc26-c1a719a35f3d","3573","
                  <p style=""text-align: center;"">₪79
                                                <br>40%</p>
                  <p id=""wtp"" style=""text-align:center; margin-top: 0px; margin-bottom: 0px; font-size: 40px"";>מוכנים לשלם: <span id=""c_p_y""></span></p>","31","evaluation","56","30","9B","40","79","31","","","","","","","","","","","","","","",""
"","","","","","html-keyboard-response","54","1067856","0.0-17.0-2.12","d1e00293-27c1-4c36-bc26-c1a719a35f3d","null","<p style=""text-align: center;"">+</p>","null","fixation","","","","","","","","","","","","","","","","","","","","",""
"","","","","","html-slider-response","55","1068860","0.0-17.0-0.13","d1e00293-27c1-4c36-bc26-c1a719a35f3d","1000","
                  <p style=""text-align: center;"">₪11
                                                <br>20%</p>
                  <p id=""wtp"" style=""text-align:center; margin-top: 0px; margin-bottom: 0px; font-size: 40px"";>&ensp;</p>","-","viewing","0","4","12C,17C,23C,28C","","","","","","","","","","","","","","","","","",""
"","","","","","html-slider-response","56","1070547","0.0-17.0-1.13","d1e00293-27c1-4c36-bc26-c1a719a35f3d","1686","
                  <p style=""text-align: center;"">₪11
                                                <br>20%</p>
                  <p id=""wtp"" style=""text-align:center; margin-top: 0px; margin-bottom: 0px; font-size: 40px"";>מוכנים לשלם: <span id=""c_p_y""></span></p>","2","evaluation","44","4","12C,17C,23C,28C","20","11","2","","","","","","","","","","","","","","",""
"","","","","","html-keyboard-response","57","1071629","0.0-17.0-2.13","d1e00293-27c1-4c36-bc26-c1a719a35f3d","null","<p style=""text-align: center;"">+</p>","null","fixation","","","","","","","","","","","","","","","","","","","","",""
"","","","","","html-slider-response","58","1072644","0.0-17.0-0.14","d1e00293-27c1-4c36-bc26-c1a719a35f3d","1000","
                  <p style=""text-align: center;"">₪11
                                                <br>45%</p>
                  <p id=""wtp"" style=""text-align:center; margin-top: 0px; margin-bottom: 0px; font-size: 40px"";>&ensp;</p>","-","viewing","0","6","14B,21C,25C","","","","","","","","","","","","","","","","","",""
"","","","","","html-slider-response","59","1075915","0.0-17.0-1.14","d1e00293-27c1-4c36-bc26-c1a719a35f3d","3270","
                  <p style=""text-align: center;"">₪11
                                                <br>45%</p>
                  <p id=""wtp"" style=""text-align:center; margin-top: 0px; margin-bottom: 0px; font-size: 40px"";>מוכנים לשלם: <span id=""c_p_y""></span></p>","6","evaluation","12","6","14B,21C,25C","45","11","6","","","","","","","","","","","","","","",""
"","","","","","html-keyboard-response","60","1077334","0.0-17.0-2.14","d1e00293-27c1-4c36-bc26-c1a719a35f3d","null","<p style=""text-align: center;"">+</p>","null","fixation","","","","","","","","","","","","","","","","","","","","",""
"","","","","","html-slider-response","61","1078348","0.0-17.0-0.15","d1e00293-27c1-4c36-bc26-c1a719a35f3d","1000","
                  <p style=""text-align: center;"">₪4
                                                <br>75%</p>
                  <p id=""wtp"" style=""text-align:center; margin-top: 0px; margin-bottom: 0px; font-size: 40px"";>&ensp;</p>","-","viewing","0","3","12B,20B,23B,27C,29C","","","","","","","","","","","","","","","","","",""
"","","","","","html-slider-response","62","1080227","0.0-17.0-1.15","d1e00293-27c1-4c36-bc26-c1a719a35f3d","1878","
                  <p style=""text-align: center;"">₪4
                                                <br>75%</p>
                  <p id=""wtp"" style=""text-align:center; margin-top: 0px; margin-bottom: 0px; font-size: 40px"";>מוכנים לשלם: <span id=""c_p_y""></span></p>","1","evaluation","28","3","12B,20B,23B,27C,29C","75","4","1","","","","","","","","","","","","","","",""
"","","","","","html-keyboard-response","63","1080909","0.0-17.0-2.15","d1e00293-27c1-4c36-bc26-c1a719a35f3d","null","<p style=""text-align: center;"">+</p>","null","fixation","","","","","","","","","","","","","","","","","","","","",""
"","","","","","html-slider-response","64","1081912","0.0-17.0-0.16","d1e00293-27c1-4c36-bc26-c1a719a35f3d","1000","
                  <p style=""text-align: center;"">₪64
                                                <br>25%</p>
                  <p id=""wtp"" style=""text-align:center; margin-top: 0px; margin-bottom: 0px; font-size: 40px"";>&ensp;</p>","-","viewing","0","24","6A,21A","","","","","","","","","","","","","","","","","",""
"","","","","","html-slider-response","65","1085819","0.0-17.0-1.16","d1e00293-27c1-4c36-bc26-c1a719a35f3d","3906","
                  <p style=""text-align: center;"">₪64
                                                <br>25%</p>
                  <p id=""wtp"" style=""text-align:center; margin-top: 0px; margin-bottom: 0px; font-size: 40px"";>מוכנים לשלם: <span id=""c_p_y""></span></p>","13","evaluation","43","24","6A,21A","25","64","13","","","","","","","","","","","","","","",""
"","","","","","html-keyboard-response","66","1086836","0.0-17.0-2.16","d1e00293-27c1-4c36-bc26-c1a719a35f3d","null","<p style=""text-align: center;"">+</p>","null","fixation","","","","","","","","","","","","","","","","","","","","",""
"","","","","","html-slider-response","67","1087842","0.0-17.0-0.17","d1e00293-27c1-4c36-bc26-c1a719a35f3d","1000","
                  <p style=""text-align: center;"">₪58
                                                <br>45%</p>
                  <p id=""wtp"" style=""text-align:center; margin-top: 0px; margin-bottom: 0px; font-size: 40px"";>&ensp;</p>","-","viewing","0","21","11C,18C,25A","","","","","","","","","","","","","","","","","",""
"","","","","","html-slider-response","68","1090843","0.0-17.0-1.17","d1e00293-27c1-4c36-bc26-c1a719a35f3d","3001","
                  <p style=""text-align: center;"">₪58
                                                <br>45%</p>
                  <p id=""wtp"" style=""text-align:center; margin-top: 0px; margin-bottom: 0px; font-size: 40px"";>מוכנים לשלם: <span id=""c_p_y""></span></p>","28","evaluation","28","21","11C,18C,25A","45","58","28","","","","","","","","","","","","","","",""
"","","","","","html-keyboard-response","69","1091715","0.0-17.0-2.17","d1e00293-27c1-4c36-bc26-c1a719a35f3d","null","<p style=""text-align: center;"">+</p>","null","fixation","","","","","","","","","","","","","","","","","","","","",""
"","","","","","html-slider-response","70","1092732","0.0-17.0-0.18","d1e00293-27c1-4c36-bc26-c1a719a35f3d","1000","
                  <p style=""text-align: center;"">₪18
                                                <br>25%</p>
                  <p id=""wtp"" style=""text-align:center; margin-top: 0px; margin-bottom: 0px; font-size: 40px"";>&ensp;</p>","-","viewing","0","9","14A,23A","","","","","","","","","","","","","","","","","",""
"","","","","","html-slider-response","71","1096059","0.0-17.0-1.18","d1e00293-27c1-4c36-bc26-c1a719a35f3d","3326","
                  <p style=""text-align: center;"">₪18
                                                <br>25%</p>
                  <p id=""wtp"" style=""text-align:center; margin-top: 0px; margin-bottom: 0px; font-size: 40px"";>מוכנים לשלם: <span id=""c_p_y""></span></p>","4","evaluation","70","9","14A,23A","25","18","4","","","","","","","","","","","","","","",""
"","","","","","html-keyboard-response","72","1096629","0.0-17.0-2.18","d1e00293-27c1-4c36-bc26-c1a719a35f3d","null","<p style=""text-align: center;"">+</p>","null","fixation","","","","","","","","","","","","","","","","","","","","",""
"","","","","","html-slider-response","73","1097635","0.0-17.0-0.19","d1e00293-27c1-4c36-bc26-c1a719a35f3d","1000","
                  <p style=""text-align: center;"">₪36
                                                <br>60%</p>
                  <p id=""wtp"" style=""text-align:center; margin-top: 0px; margin-bottom: 0px; font-size: 40px"";>&ensp;</p>","-","viewing","0","12","1C,7C,15C","","","","","","","","","","","","","","","","","",""
"","","","","","html-slider-response","74","1101622","0.0-17.0-1.19","d1e00293-27c1-4c36-bc26-c1a719a35f3d","null","
                  <p style=""text-align: center;"">₪36
                                                <br>60%</p>
                  <p id=""wtp"" style=""text-align:center; margin-top: 0px; margin-bottom: 0px; font-size: 40px"";>מוכנים לשלם: <span id=""c_p_y""></span></p>","null","evaluation","45","12","1C,7C,15C","60","36","29","","","","","","","","","","","","","","",""
"","","","","","html-keyboard-response","75","1102477","0.0-17.0-2.19","d1e00293-27c1-4c36-bc26-c1a719a35f3d","null","<p style=""text-align: center;"">+</p>","null","fixation","","","","","","","","","","","","","","","","","","","","",""
"","","","","","html-slider-response","76","1103484","0.0-17.0-0.20","d1e00293-27c1-4c36-bc26-c1a719a35f3d","1000","
                  <p style=""text-align: center;"">₪36
                                                <br>75%</p>
                  <p id=""wtp"" style=""text-align:center; margin-top: 0px; margin-bottom: 0px; font-size: 40px"";>&ensp;</p>","-","viewing","0","14","4B,5A,13B,16B","","","","","","","","","","","","","","","","","",""
"","","","","","html-slider-response","77","1104396","0.0-17.0-1.20","d1e00293-27c1-4c36-bc26-c1a719a35f3d","910","
                  <p style=""text-align: center;"">₪36
                                                <br>75%</p>
                  <p id=""wtp"" style=""text-align:center; margin-top: 0px; margin-bottom: 0px; font-size: 40px"";>מוכנים לשלם: <span id=""c_p_y""></span></p>","28","evaluation","8","14","4B,5A,13B,16B","75","36","28","","","","","","","","","","","","","","",""
"","","","","","html-keyboard-response","78","1105686","0.0-17.0-2.20","d1e00293-27c1-4c36-bc26-c1a719a35f3d","null","<p style=""text-align: center;"">+</p>","null","fixation","","","","","","","","","","","","","","","","","","","","",""
"","","","","","html-slider-response","79","1106693","0.0-17.0-0.21","d1e00293-27c1-4c36-bc26-c1a719a35f3d","1000","
                  <p style=""text-align: center;"">₪61
                                                <br>45%</p>
                  <p id=""wtp"" style=""text-align:center; margin-top: 0px; margin-bottom: 0px; font-size: 40px"";>&ensp;</p>","-","viewing","0","22","10A,11A","","","","","","","","","","","","","","","","","",""
"","","","","","html-slider-response","80","1109356","0.0-17.0-1.21","d1e00293-27c1-4c36-bc26-c1a719a35f3d","2661","
                  <p style=""text-align: center;"">₪61
                                                <br>45%</p>
                  <p id=""wtp"" style=""text-align:center; margin-top: 0px; margin-bottom: 0px; font-size: 40px"";>מוכנים לשלם: <span id=""c_p_y""></span></p>","18","evaluation","41","22","10A,11A","45","61","18","","","","","","","","","","","","","","",""
"","","","","","html-keyboard-response","81","1110081","0.0-17.0-2.21","d1e00293-27c1-4c36-bc26-c1a719a35f3d","null","<p style=""text-align: center;"">+</p>","null","fixation","","","","","","","","","","","","","","","","","","","","",""
"","","","","","html-slider-response","82","1111099","0.0-17.0-0.22","d1e00293-27c1-4c36-bc26-c1a719a35f3d","1000","
                  <p style=""text-align: center;"">₪4
                                                <br>50%</p>
                  <p id=""wtp"" style=""text-align:center; margin-top: 0px; margin-bottom: 0px; font-size: 40px"";>&ensp;</p>","-","viewing","0","2","4C,17B","","","","","","","","","","","","","","","","","",""
"","","","","","html-slider-response","83","1112956","0.0-17.0-1.22","d1e00293-27c1-4c36-bc26-c1a719a35f3d","1856","
                  <p style=""text-align: center;"">₪4
                                                <br>50%</p>
                  <p id=""wtp"" style=""text-align:center; margin-top: 0px; margin-bottom: 0px; font-size: 40px"";>מוכנים לשלם: <span id=""c_p_y""></span></p>","0","evaluation","27","2","4C,17B","50","4","1","","","","","","","","","","","","","","",""
"","","","","","html-keyboard-response","84","1114168","0.0-17.0-2.22","d1e00293-27c1-4c36-bc26-c1a719a35f3d","null","<p style=""text-align: center;"">+</p>","null","fixation","","","","","","","","","","","","","","","","","","","","",""
"","","","","","html-slider-response","85","1115181","0.0-17.0-0.23","d1e00293-27c1-4c36-bc26-c1a719a35f3d","1000","
                  <p style=""text-align: center;"">₪43
                                                <br>75%</p>
                  <p id=""wtp"" style=""text-align:center; margin-top: 0px; margin-bottom: 0px; font-size: 40px"";>&ensp;</p>","-","viewing","0","18","11B,19B,24A,26A","","","","","","","","","","","","","","","","","",""
"","","","","","html-slider-response","86","1117604","0.0-17.0-1.23","d1e00293-27c1-4c36-bc26-c1a719a35f3d","2422","
                  <p style=""text-align: center;"">₪43
                                                <br>75%</p>
                  <p id=""wtp"" style=""text-align:center; margin-top: 0px; margin-bottom: 0px; font-size: 40px"";>מוכנים לשלם: <span id=""c_p_y""></span></p>","26","evaluation","53","18","11B,19B,24A,26A","75","43","26","","","","","","","","","","","","","","",""
"","","","","","html-keyboard-response","87","1118171","0.0-17.0-2.23","d1e00293-27c1-4c36-bc26-c1a719a35f3d","null","<p style=""text-align: center;"">+</p>","null","fixation","","","","","","","","","","","","","","","","","","","","",""
"","","","","","html-slider-response","88","1119182","0.0-17.0-0.24","d1e00293-27c1-4c36-bc26-c1a719a35f3d","1000","
                  <p style=""text-align: center;"">₪39
                                                <br>60%</p>
                  <p id=""wtp"" style=""text-align:center; margin-top: 0px; margin-bottom: 0px; font-size: 40px"";>&ensp;</p>","-","viewing","0","15","9C,25B","","","","","","","","","","","","","","","","","",""
"","","","","","html-slider-response","89","1122508","0.0-17.0-1.24","d1e00293-27c1-4c36-bc26-c1a719a35f3d","3325","
                  <p style=""text-align: center;"">₪39
                                                <br>60%</p>
                  <p id=""wtp"" style=""text-align:center; margin-top: 0px; margin-bottom: 0px; font-size: 40px"";>מוכנים לשלם: <span id=""c_p_y""></span></p>","28","evaluation","10","15","9C,25B","60","39","28","","","","","","","","","","","","","","",""
"","","","","","html-keyboard-response","90","1123889","0.0-17.0-2.24","d1e00293-27c1-4c36-bc26-c1a719a35f3d","null","<p style=""text-align: center;"">+</p>","null","fixation","","","","","","","","","","","","","","","","","","","","",""
"","","","","","html-slider-response","91","1124897","0.0-17.0-0.25","d1e00293-27c1-4c36-bc26-c1a719a35f3d","1000","
                  <p style=""text-align: center;"">₪39
                                                <br>65%</p>
                  <p id=""wtp"" style=""text-align:center; margin-top: 0px; margin-bottom: 0px; font-size: 40px"";>&ensp;</p>","-","viewing","0","16","1A,15A,26C","","","","","","","","","","","","","","","","","",""
"","","","","","html-slider-response","92","1126804","0.0-17.0-1.25","d1e00293-27c1-4c36-bc26-c1a719a35f3d","1906","
                  <p style=""text-align: center;"">₪39
                                                <br>65%</p>
                  <p id=""wtp"" style=""text-align:center; margin-top: 0px; margin-bottom: 0px; font-size: 40px"";>מוכנים לשלם: <span id=""c_p_y""></span></p>","27","evaluation","75","16","1A,15A,26C","65","39","27","","","","","","","","","","","","","","",""
"","","","","","html-keyboard-response","93","1128042","0.0-17.0-2.25","d1e00293-27c1-4c36-bc26-c1a719a35f3d","null","<p style=""text-align: center;"">+</p>","null","fixation","","","","","","","","","","","","","","","","","","","","",""
"","","","","","html-slider-response","94","1129057","0.0-17.0-0.26","d1e00293-27c1-4c36-bc26-c1a719a35f3d","1000","
                  <p style=""text-align: center;"">₪64
                                                <br>50%</p>
                  <p id=""wtp"" style=""text-align:center; margin-top: 0px; margin-bottom: 0px; font-size: 40px"";>&ensp;</p>","-","viewing","0","25","1B,3B,4A","","","","","","","","","","","","","","","","","",""
"","","","","","html-slider-response","95","1131172","0.0-17.0-1.26","d1e00293-27c1-4c36-bc26-c1a719a35f3d","2114","
                  <p style=""text-align: center;"">₪64
                                                <br>50%</p>
                  <p id=""wtp"" style=""text-align:center; margin-top: 0px; margin-bottom: 0px; font-size: 40px"";>מוכנים לשלם: <span id=""c_p_y""></span></p>","35","evaluation","79","25","1B,3B,4A","50","64","35","","","","","","","","","","","","","","",""
"","","","","","html-keyboard-response","96","1132177","0.0-17.0-2.26","d1e00293-27c1-4c36-bc26-c1a719a35f3d","null","<p style=""text-align: center;"">+</p>","null","fixation","","","","","","","","","","","","","","","","","","","","",""
"","","","","","html-slider-response","97","1133180","0.0-17.0-0.27","d1e00293-27c1-4c36-bc26-c1a719a35f3d","1000","
                  <p style=""text-align: center;"">₪36
                                                <br>70%</p>
                  <p id=""wtp"" style=""text-align:center; margin-top: 0px; margin-bottom: 0px; font-size: 40px"";>&ensp;</p>","-","viewing","0","13","3A,5C,10B","","","","","","","","","","","","","","","","","",""
"","","","","","html-slider-response","98","1135380","0.0-17.0-1.27","d1e00293-27c1-4c36-bc26-c1a719a35f3d","2198","
                  <p style=""text-align: center;"">₪36
                                                <br>70%</p>
                  <p id=""wtp"" style=""text-align:center; margin-top: 0px; margin-bottom: 0px; font-size: 40px"";>מוכנים לשלם: <span id=""c_p_y""></span></p>","30","evaluation","59","13","3A,5C,10B","70","36","30","","","","","","","","","","","","","","",""
"","","","","","html-keyboard-response","99","1136095","0.0-17.0-2.27","d1e00293-27c1-4c36-bc26-c1a719a35f3d","null","<p style=""text-align: center;"">+</p>","null","fixation","","","","","","","","","","","","","","","","","","","","",""
"","","","","","html-slider-response","100","1137097","0.0-17.0-0.28","d1e00293-27c1-4c36-bc26-c1a719a35f3d","1000","
                  <p style=""text-align: center;"">₪4
                                                <br>25%</p>
                  <p id=""wtp"" style=""text-align:center; margin-top: 0px; margin-bottom: 0px; font-size: 40px"";>&ensp;</p>","-","viewing","0","1","6C,29B,30C","","","","","","","","","","","","","","","","","",""
"","","","","","html-slider-response","101","1139148","0.0-17.0-1.28","d1e00293-27c1-4c36-bc26-c1a719a35f3d","2049","
                  <p style=""text-align: center;"">₪4
                                                <br>25%</p>
                  <p id=""wtp"" style=""text-align:center; margin-top: 0px; margin-bottom: 0px; font-size: 40px"";>מוכנים לשלם: <span id=""c_p_y""></span></p>","0","evaluation","54","1","6C,29B,30C","25","4","0","","","","","","","","","","","","","","",""
"","","","","","html-keyboard-response","102","1140621","0.0-17.0-2.28","d1e00293-27c1-4c36-bc26-c1a719a35f3d","null","<p style=""text-align: center;"">+</p>","null","fixation","","","","","","","","","","","","","","","","","","","","",""
"","","","","","html-slider-response","103","1141628","0.0-17.0-0.29","d1e00293-27c1-4c36-bc26-c1a719a35f3d","1000","
                  <p style=""text-align: center;"">₪11
                                                <br>25%</p>
                  <p id=""wtp"" style=""text-align:center; margin-top: 0px; margin-bottom: 0px; font-size: 40px"";>&ensp;</p>","-","viewing","0","5","12A,27B,28B,30B","","","","","","","","","","","","","","","","","",""
"","","","","","html-slider-response","104","1143092","0.0-17.0-1.29","d1e00293-27c1-4c36-bc26-c1a719a35f3d","1463","
                  <p style=""text-align: center;"">₪11
                                                <br>25%</p>
                  <p id=""wtp"" style=""text-align:center; margin-top: 0px; margin-bottom: 0px; font-size: 40px"";>מוכנים לשלם: <span id=""c_p_y""></span></p>","1","evaluation","72","5","12A,27B,28B,30B","25","11","1","","","","","","","","","","","","","","",""
"","","","","","html-keyboard-response","105","1144028","0.0-17.0-2.29","d1e00293-27c1-4c36-bc26-c1a719a35f3d","null","<p style=""text-align: center;"">+</p>","null","fixation","","","","","","","","","","","","","","","","","","","","",""
"","","","","","html-slider-response","106","1145035","0.0-17.0-0.30","d1e00293-27c1-4c36-bc26-c1a719a35f3d","1000","
                  <p style=""text-align: center;"">₪76
                                                <br>65%</p>
                  <p id=""wtp"" style=""text-align:center; margin-top: 0px; margin-bottom: 0px; font-size: 40px"";>&ensp;</p>","-","viewing","0","29","8C,19A,24B","","","","","","","","","","","","","","","","","",""
"","","","","","html-slider-response","107","1148755","0.0-17.0-1.30","d1e00293-27c1-4c36-bc26-c1a719a35f3d","3720","
                  <p style=""text-align: center;"">₪76
                                                <br>65%</p>
                  <p id=""wtp"" style=""text-align:center; margin-top: 0px; margin-bottom: 0px; font-size: 40px"";>מוכנים לשלם: <span id=""c_p_y""></span></p>","55","evaluation","0","29","8C,19A,24B","65","76","55","","","","","","","","","","","","","","",""
"","","","","","html-keyboard-response","108","1150004","0.0-17.0-2.30","d1e00293-27c1-4c36-bc26-c1a719a35f3d","null","<p style=""text-align: center;"">+</p>","null","fixation","","","","","","","","","","","","","","","","","","","","",""
"","","","","","html-keyboard-response","109","1151011","0.0-18.0","d1e00293-27c1-4c36-bc26-c1a719a35f3d","null","<p style=""text-align: center;"">+</p>","null","fixation","","","","","","","","","","","","","","","","","","","","",""
"","","","","","html-keyboard-response","110","1151987","0.0-19.0","d1e00293-27c1-4c36-bc26-c1a719a35f3d","null","<p>הפסקה.
          <br>לחצו כדי להמשיך.</p>","1","scan_wait","","","","","","","","","","","","","","","","","","","","",""
"","","","","","html-keyboard-response","111","1153004","0.0-20.0","d1e00293-27c1-4c36-bc26-c1a719a35f3d","null","<p style=""text-align: center;"">+</p>","null","fixation","","","","","","","","","","","","","","","","","","","","",""
"","","","","","html-slider-response","112","1154013","0.0-21.0-0.0","d1e00293-27c1-4c36-bc26-c1a719a35f3d","1000","
                  <p style=""text-align: center;"">₪61
                                                <br>55%</p>
                  <p id=""wtp"" style=""text-align:center; margin-top: 0px; margin-bottom: 0px; font-size: 40px"";>&ensp;</p>","-","viewing","0","23","7B,26B","","","","","","","","","","","","","","","","","",""
"","","","","","html-slider-response","113","1156500","0.0-21.0-1.0","d1e00293-27c1-4c36-bc26-c1a719a35f3d","2486","
                  <p style=""text-align: center;"">₪61
                                                <br>55%</p>
                  <p id=""wtp"" style=""text-align:center; margin-top: 0px; margin-bottom: 0px; font-size: 40px"";>מוכנים לשלם: <span id=""c_p_y""></span></p>","45","evaluation","55","23","7B,26B","55","61","45","","","","","","","","","","","","","","",""
"","","","","","html-keyboard-response","114","1157651","0.0-21.0-2.0","d1e00293-27c1-4c36-bc26-c1a719a35f3d","null","<p style=""text-align: center;"">+</p>","null","fixation","","","","","","","","","","","","","","","","","","","","",""
"","","","","","html-slider-response","115","1158663","0.0-21.0-0.1","d1e00293-27c1-4c36-bc26-c1a719a35f3d","1000","
                  <p style=""text-align: center;"">₪64
                                                <br>25%</p>
                  <p id=""wtp"" style=""text-align:center; margin-top: 0px; margin-bottom: 0px; font-size: 40px"";>&ensp;</p>","-","viewing","0","24","6A,21A","","","","","","","","","","","","","","","","","",""
"","","","","","html-slider-response","116","1161204","0.0-21.0-1.1","d1e00293-27c1-4c36-bc26-c1a719a35f3d","2556","
                  <p style=""text-align: center;"">₪64
                                                <br>25%</p>
                  <p id=""wtp"" style=""text-align:center; margin-top: 0px; margin-bottom: 0px; font-size: 40px"";>מוכנים לשלם: <span id=""c_p_y""></span></p>","11","evaluation","24","24","6A,21A","25","64","11","","","","","","","","","","","","","","",""
"","","","","","html-keyboard-response","117","1162639","0.0-21.0-2.1","d1e00293-27c1-4c36-bc26-c1a719a35f3d","null","<p style=""text-align: center;"">+</p>","null","fixation","","","","","","","","","","","","","","","","","","","","",""
"","","","","","html-slider-response","118","1163651","0.0-21.0-0.2","d1e00293-27c1-4c36-bc26-c1a719a35f3d","1000","
                  <p style=""text-align: center;"">₪43
                                                <br>75%</p>
                  <p id=""wtp"" style=""text-align:center; margin-top: 0px; margin-bottom: 0px; font-size: 40px"";>&ensp;</p>","-","viewing","0","18","11B,19B,24A,26A","","","","","","","","","","","","","","","","","",""
"","","","","","html-slider-response","119","1166220","0.0-21.0-1.2","d1e00293-27c1-4c36-bc26-c1a719a35f3d","2568","
                  <p style=""text-align: center;"">₪43
                                                <br>75%</p>
                  <p id=""wtp"" style=""text-align:center; margin-top: 0px; margin-bottom: 0px; font-size: 40px"";>מוכנים לשלם: <span id=""c_p_y""></span></p>","29","evaluation","69","18","11B,19B,24A,26A","75","43","29","","","","","","","","","","","","","","",""
"","","","","","html-keyboard-response","120","1167181","0.0-21.0-2.2","d1e00293-27c1-4c36-bc26-c1a719a35f3d","null","<p style=""text-align: center;"">+</p>","null","fixation","","","","","","","","","","","","","","","","","","","","",""
"","","","","","html-slider-response","121","1168191","0.0-21.0-0.3","d1e00293-27c1-4c36-bc26-c1a719a35f3d","1000","
                  <p style=""text-align: center;"">₪11
                                                <br>45%</p>
                  <p id=""wtp"" style=""text-align:center; margin-top: 0px; margin-bottom: 0px; font-size: 40px"";>&ensp;</p>","-","viewing","0","6","14B,21C,25C","","","","","","","","","","","","","","","","","",""
"","","","","","html-slider-response","122","1170380","0.0-21.0-1.3","d1e00293-27c1-4c36-bc26-c1a719a35f3d","2188","
                  <p style=""text-align: center;"">₪11
                                                <br>45%</p>
                  <p id=""wtp"" style=""text-align:center; margin-top: 0px; margin-bottom: 0px; font-size: 40px"";>מוכנים לשלם: <span id=""c_p_y""></span></p>","2","evaluation","60","6","14B,21C,25C","45","11","2","","","","","","","","","","","","","","",""
"","","","","","html-keyboard-response","123","1171484","0.0-21.0-2.3","d1e00293-27c1-4c36-bc26-c1a719a35f3d","null","<p style=""text-align: center;"">+</p>","null","fixation","","","","","","","","","","","","","","","","","","","","",""
"","","","","","html-slider-response","124","1172495","0.0-21.0-0.4","d1e00293-27c1-4c36-bc26-c1a719a35f3d","1000","
                  <p style=""text-align: center;"">₪4
                                                <br>25%</p>
                  <p id=""wtp"" style=""text-align:center; margin-top: 0px; margin-bottom: 0px; font-size: 40px"";>&ensp;</p>","-","viewing","0","1","6C,29B,30C","","","","","","","","","","","","","","","","","",""
"","","","","","html-slider-response","125","1173644","0.0-21.0-1.4","d1e00293-27c1-4c36-bc26-c1a719a35f3d","1148","
                  <p style=""text-align: center;"">₪4
                                                <br>25%</p>
                  <p id=""wtp"" style=""text-align:center; margin-top: 0px; margin-bottom: 0px; font-size: 40px"";>מוכנים לשלם: <span id=""c_p_y""></span></p>","0","evaluation","43","1","6C,29B,30C","25","4","0","","","","","","","","","","","","","","",""
"","","","","","html-keyboard-response","126","1174424","0.0-21.0-2.4","d1e00293-27c1-4c36-bc26-c1a719a35f3d","null","<p style=""text-align: center;"">+</p>","null","fixation","","","","","","","","","","","","","","","","","","","","",""
"","","","","","html-slider-response","127","1175432","0.0-21.0-0.5","d1e00293-27c1-4c36-bc26-c1a719a35f3d","1000","
                  <p style=""text-align: center;"">₪4
                                                <br>50%</p>
                  <p id=""wtp"" style=""text-align:center; margin-top: 0px; margin-bottom: 0px; font-size: 40px"";>&ensp;</p>","-","viewing","0","2","4C,17B","","","","","","","","","","","","","","","","","",""
"","","","","","html-slider-response","128","1177348","0.0-21.0-1.5","d1e00293-27c1-4c36-bc26-c1a719a35f3d","1915","
                  <p style=""text-align: center;"">₪4
                                                <br>50%</p>
                  <p id=""wtp"" style=""text-align:center; margin-top: 0px; margin-bottom: 0px; font-size: 40px"";>מוכנים לשלם: <span id=""c_p_y""></span></p>","1","evaluation","71","2","4C,17B","50","4","1","","","","","","","","","","","","","","",""
"","","","","","html-keyboard-response","129","1178058","0.0-21.0-2.5","d1e00293-27c1-4c36-bc26-c1a719a35f3d","null","<p style=""text-align: center;"">+</p>","null","fixation","","","","","","","","","","","","","","","","","","","","",""
"","","","","","html-slider-response","130","1179068","0.0-21.0-0.6","d1e00293-27c1-4c36-bc26-c1a719a35f3d","1000","
                  <p style=""text-align: center;"">₪36
                                                <br>60%</p>
                  <p id=""wtp"" style=""text-align:center; margin-top: 0px; margin-bottom: 0px; font-size: 40px"";>&ensp;</p>","-","viewing","0","12","1C,7C,15C","","","","","","","","","","","","","","","","","",""
"","","","","","html-slider-response","131","1181132","0.0-21.0-1.6","d1e00293-27c1-4c36-bc26-c1a719a35f3d","2063","
                  <p style=""text-align: center;"">₪36
                                                <br>60%</p>
                  <p id=""wtp"" style=""text-align:center; margin-top: 0px; margin-bottom: 0px; font-size: 40px"";>מוכנים לשלם: <span id=""c_p_y""></span></p>","20","evaluation","26","12","1C,7C,15C","60","36","20","","","","","","","","","","","","","","",""
"","","","","","html-keyboard-response","132","1182203","0.0-21.0-2.6","d1e00293-27c1-4c36-bc26-c1a719a35f3d","null","<p style=""text-align: center;"">+</p>","null","fixation","","","","","","","","","","","","","","","","","","","","",""
"","","","","","html-slider-response","133","1183205","0.0-21.0-0.7","d1e00293-27c1-4c36-bc26-c1a719a35f3d","1000","
                  <p style=""text-align: center;"">₪64
                                                <br>50%</p>
                  <p id=""wtp"" style=""text-align:center; margin-top: 0px; margin-bottom: 0px; font-size: 40px"";>&ensp;</p>","-","viewing","0","25","1B,3B,4A","","","","","","","","","","","","","","","","","",""
"","","","","","html-slider-response","134","1187221","0.0-21.0-1.7","d1e00293-27c1-4c36-bc26-c1a719a35f3d","null","
                  <p style=""text-align: center;"">₪64
                                                <br>50%</p>
                  <p id=""wtp"" style=""text-align:center; margin-top: 0px; margin-bottom: 0px; font-size: 40px"";>מוכנים לשלם: <span id=""c_p_y""></span></p>","null","evaluation","75","25","1B,3B,4A","50","64","31","","","","","","","","","","","","","","",""
"","","","","","html-keyboard-response","135","1187758","0.0-21.0-2.7","d1e00293-27c1-4c36-bc26-c1a719a35f3d","null","<p style=""text-align: center;"">+</p>","null","fixation","","","","","","","","","","","","","","","","","","","","",""
"","","","","","html-slider-response","136","1188772","0.0-21.0-0.8","d1e00293-27c1-4c36-bc26-c1a719a35f3d","1000","
                  <p style=""text-align: center;"">₪39
                                                <br>60%</p>
                  <p id=""wtp"" style=""text-align:center; margin-top: 0px; margin-bottom: 0px; font-size: 40px"";>&ensp;</p>","-","viewing","0","15","9C,25B","","","","","","","","","","","","","","","","","",""
"","","","","","html-slider-response","137","1192404","0.0-21.0-1.8","d1e00293-27c1-4c36-bc26-c1a719a35f3d","3631","
                  <p style=""text-align: center;"">₪39
                                                <br>60%</p>
                  <p id=""wtp"" style=""text-align:center; margin-top: 0px; margin-bottom: 0px; font-size: 40px"";>מוכנים לשלם: <span id=""c_p_y""></span></p>","26","evaluation","21","15","9C,25B","60","39","26","","","","","","","","","","","","","","",""
"","","","","","html-keyboard-response","138","1193897","0.0-21.0-2.8","d1e00293-27c1-4c36-bc26-c1a719a35f3d","null","<p style=""text-align: center;"">+</p>","null","fixation","","","","","","","","","","","","","","","","","","","","",""
"","","","","","html-slider-response","139","1194913","0.0-21.0-0.9","d1e00293-27c1-4c36-bc26-c1a719a35f3d","1000","
                  <p style=""text-align: center;"">₪58
                                                <br>30%</p>
                  <p id=""wtp"" style=""text-align:center; margin-top: 0px; margin-bottom: 0px; font-size: 40px"";>&ensp;</p>","-","viewing","0","19","13C,30A","","","","","","","","","","","","","","","","","",""
"","","","","","html-slider-response","140","1198436","0.0-21.0-1.9","d1e00293-27c1-4c36-bc26-c1a719a35f3d","3522","
                  <p style=""text-align: center;"">₪58
                                                <br>30%</p>
                  <p id=""wtp"" style=""text-align:center; margin-top: 0px; margin-bottom: 0px; font-size: 40px"";>מוכנים לשלם: <span id=""c_p_y""></span></p>","14","evaluation","44","19","13C,30A","30","58","14","","","","","","","","","","","","","","",""
"","","","","","html-keyboard-response","141","1199642","0.0-21.0-2.9","d1e00293-27c1-4c36-bc26-c1a719a35f3d","null","<p style=""text-align: center;"">+</p>","null","fixation","","","","","","","","","","","","","","","","","","","","",""
"","","","","","html-slider-response","142","1200645","0.0-21.0-0.10","d1e00293-27c1-4c36-bc26-c1a719a35f3d","1000","
                  <p style=""text-align: center;"">₪71
                                                <br>45%</p>
                  <p id=""wtp"" style=""text-align:center; margin-top: 0px; margin-bottom: 0px; font-size: 40px"";>&ensp;</p>","-","viewing","0","26","2B,16A","","","","","","","","","","","","","","","","","",""
"","","","","","html-slider-response","143","1202812","0.0-21.0-1.10","d1e00293-27c1-4c36-bc26-c1a719a35f3d","2166","
                  <p style=""text-align: center;"">₪71
                                                <br>45%</p>
                  <p id=""wtp"" style=""text-align:center; margin-top: 0px; margin-bottom: 0px; font-size: 40px"";>מוכנים לשלם: <span id=""c_p_y""></span></p>","27","evaluation","33","26","2B,16A","45","71","27","","","","","","","","","","","","","","",""
"","","","","","html-keyboard-response","144","1204056","0.0-21.0-2.10","d1e00293-27c1-4c36-bc26-c1a719a35f3d","null","<p style=""text-align: center;"">+</p>","null","fixation","","","","","","","","","","","","","","","","","","","","",""
"","","","","","html-slider-response","145","1205062","0.0-21.0-0.11","d1e00293-27c1-4c36-bc26-c1a719a35f3d","1000","
                  <p style=""text-align: center;"">₪71
                                                <br>75%</p>
                  <p id=""wtp"" style=""text-align:center; margin-top: 0px; margin-bottom: 0px; font-size: 40px"";>&ensp;</p>","-","viewing","0","28","8B","","","","","","","","","","","","","","","","","",""
"","","","","","html-slider-response","146","1207572","0.0-21.0-1.11","d1e00293-27c1-4c36-bc26-c1a719a35f3d","2509","
                  <p style=""text-align: center;"">₪71
                                                <br>75%</p>
                  <p id=""wtp"" style=""text-align:center; margin-top: 0px; margin-bottom: 0px; font-size: 40px"";>מוכנים לשלם: <span id=""c_p_y""></span></p>","59","evaluation","61","28","8B","75","71","59","","","","","","","","","","","","","","",""
"","","","","","html-keyboard-response","147","1209077","0.0-21.0-2.11","d1e00293-27c1-4c36-bc26-c1a719a35f3d","null","<p style=""text-align: center;"">+</p>","null","fixation","","","","","","","","","","","","","","","","","","","","",""
"","","","","","html-slider-response","148","1210079","0.0-21.0-0.12","d1e00293-27c1-4c36-bc26-c1a719a35f3d","1000","
                  <p style=""text-align: center;"">₪39
                                                <br>65%</p>
                  <p id=""wtp"" style=""text-align:center; margin-top: 0px; margin-bottom: 0px; font-size: 40px"";>&ensp;</p>","-","viewing","0","16","1A,15A,26C","","","","","","","","","","","","","","","","","",""
"","","","","","html-slider-response","149","1212964","0.0-21.0-1.12","d1e00293-27c1-4c36-bc26-c1a719a35f3d","2884","
                  <p style=""text-align: center;"">₪39
                                                <br>65%</p>
                  <p id=""wtp"" style=""text-align:center; margin-top: 0px; margin-bottom: 0px; font-size: 40px"";>מוכנים לשלם: <span id=""c_p_y""></span></p>","23","evaluation","72","16","1A,15A,26C","65","39","23","","","","","","","","","","","","","","",""
"","","","","","html-keyboard-response","150","1214036","0.0-21.0-2.12","d1e00293-27c1-4c36-bc26-c1a719a35f3d","null","<p style=""text-align: center;"">+</p>","null","fixation","","","","","","","","","","","","","","","","","","","","",""
"","","","","","html-slider-response","151","1215038","0.0-21.0-0.13","d1e00293-27c1-4c36-bc26-c1a719a35f3d","1000","
                  <p style=""text-align: center;"">₪61
                                                <br>45%</p>
                  <p id=""wtp"" style=""text-align:center; margin-top: 0px; margin-bottom: 0px; font-size: 40px"";>&ensp;</p>","-","viewing","0","22","10A,11A","","","","","","","","","","","","","","","","","",""
"","","","","","html-slider-response","152","1217860","0.0-21.0-1.13","d1e00293-27c1-4c36-bc26-c1a719a35f3d","2821","
                  <p style=""text-align: center;"">₪61
                                                <br>45%</p>
                  <p id=""wtp"" style=""text-align:center; margin-top: 0px; margin-bottom: 0px; font-size: 40px"";>מוכנים לשלם: <span id=""c_p_y""></span></p>","21","evaluation","12","22","10A,11A","45","61","21","","","","","","","","","","","","","","",""
"","","","","","html-keyboard-response","153","1219280","0.0-21.0-2.13","d1e00293-27c1-4c36-bc26-c1a719a35f3d","null","<p style=""text-align: center;"">+</p>","null","fixation","","","","","","","","","","","","","","","","","","","","",""
"","","","","","html-slider-response","154","1220292","0.0-21.0-0.14","d1e00293-27c1-4c36-bc26-c1a719a35f3d","1000","
                  <p style=""text-align: center;"">₪43
                                                <br>60%</p>
                  <p id=""wtp"" style=""text-align:center; margin-top: 0px; margin-bottom: 0px; font-size: 40px"";>&ensp;</p>","-","viewing","0","17","2A,7A,9A,15B","","","","","","","","","","","","","","","","","",""
"","","","","","html-slider-response","155","1223493","0.0-21.0-1.14","d1e00293-27c1-4c36-bc26-c1a719a35f3d","3215","
                  <p style=""text-align: center;"">₪43
                                                <br>60%</p>
                  <p id=""wtp"" style=""text-align:center; margin-top: 0px; margin-bottom: 0px; font-size: 40px"";>מוכנים לשלם: <span id=""c_p_y""></span></p>","26","evaluation","44","17","2A,7A,9A,15B","60","43","26","","","","","","","","","","","","","","",""
"","","","","","html-keyboard-response","156","1224741","0.0-21.0-2.14","d1e00293-27c1-4c36-bc26-c1a719a35f3d","null","<p style=""text-align: center;"">+</p>","null","fixation","","","","","","","","","","","","","","","","","","","","",""
"","","","","","html-slider-response","157","1225749","0.0-21.0-0.15","d1e00293-27c1-4c36-bc26-c1a719a35f3d","1000","
                  <p style=""text-align: center;"">₪11
                                                <br>25%</p>
                  <p id=""wtp"" style=""text-align:center; margin-top: 0px; margin-bottom: 0px; font-size: 40px"";>&ensp;</p>","-","viewing","0","5","12A,27B,28B,30B","","","","","","","","","","","","","","","","","",""
"","","","","","html-slider-response","158","1228246","0.0-21.0-1.15","d1e00293-27c1-4c36-bc26-c1a719a35f3d","2496","
                  <p style=""text-align: center;"">₪11
                                                <br>25%</p>
                  <p id=""wtp"" style=""text-align:center; margin-top: 0px; margin-bottom: 0px; font-size: 40px"";>מוכנים לשלם: <span id=""c_p_y""></span></p>","1","evaluation","43","5","12A,27B,28B,30B","25","11","1","","","","","","","","","","","","","","",""
"","","","","","html-keyboard-response","159","1229625","0.0-21.0-2.15","d1e00293-27c1-4c36-bc26-c1a719a35f3d","null","<p style=""text-align: center;"">+</p>","null","fixation","","","","","","","","","","","","","","","","","","","","",""
"","","","","","html-slider-response","160","1230637","0.0-21.0-0.16","d1e00293-27c1-4c36-bc26-c1a719a35f3d","1000","
                  <p style=""text-align: center;"">₪18
                                                <br>25%</p>
                  <p id=""wtp"" style=""text-align:center; margin-top: 0px; margin-bottom: 0px; font-size: 40px"";>&ensp;</p>","-","viewing","0","9","14A,23A","","","","","","","","","","","","","","","","","",""
"","","","","","html-slider-response","161","1233845","0.0-21.0-1.16","d1e00293-27c1-4c36-bc26-c1a719a35f3d","3207","
                  <p style=""text-align: center;"">₪18
                                                <br>25%</p>
                  <p id=""wtp"" style=""text-align:center; margin-top: 0px; margin-bottom: 0px; font-size: 40px"";>מוכנים לשלם: <span id=""c_p_y""></span></p>","4","evaluation","31","9","14A,23A","25","18","4","","","","","","","","","","","","","","",""
"","","","","","html-keyboard-response","162","1235179","0.0-21.0-2.16","d1e00293-27c1-4c36-bc26-c1a719a35f3d","null","<p style=""text-align: center;"">+</p>","null","fixation","","","","","","","","","","","","","","","","","","","","",""
"","","","","","html-slider-response","163","1236193","0.0-21.0-0.17","d1e00293-27c1-4c36-bc26-c1a719a35f3d","1000","
                  <p style=""text-align: center;"">₪36
                                                <br>70%</p>
                  <p id=""wtp"" style=""text-align:center; margin-top: 0px; margin-bottom: 0px; font-size: 40px"";>&ensp;</p>","-","viewing","0","13","3A,5C,10B","","","","","","","","","","","","","","","","","",""
"","","","","","html-slider-response","164","1238293","0.0-21.0-1.17","d1e00293-27c1-4c36-bc26-c1a719a35f3d","2098","
                  <p style=""text-align: center;"">₪36
                                                <br>70%</p>
                  <p id=""wtp"" style=""text-align:center; margin-top: 0px; margin-bottom: 0px; font-size: 40px"";>מוכנים לשלם: <span id=""c_p_y""></span></p>","20","evaluation","16","13","3A,5C,10B","70","36","20","","","","","","","","","","","","","","",""
"","","","","","html-keyboard-response","165","1239153","0.0-21.0-2.17","d1e00293-27c1-4c36-bc26-c1a719a35f3d","null","<p style=""text-align: center;"">+</p>","null","fixation","","","","","","","","","","","","","","","","","","","","",""
"","","","","","html-slider-response","166","1240161","0.0-21.0-0.18","d1e00293-27c1-4c36-bc26-c1a719a35f3d","1000","
                  <p style=""text-align: center;"">₪36
                                                <br>30%</p>
                  <p id=""wtp"" style=""text-align:center; margin-top: 0px; margin-bottom: 0px; font-size: 40px"";>&ensp;</p>","-","viewing","0","11","3C,20A,22A","","","","","","","","","","","","","","","","","",""
"","","","","","html-slider-response","167","1241309","0.0-21.0-1.18","d1e00293-27c1-4c36-bc26-c1a719a35f3d","1147","
                  <p style=""text-align: center;"">₪36
                                                <br>30%</p>
                  <p id=""wtp"" style=""text-align:center; margin-top: 0px; margin-bottom: 0px; font-size: 40px"";>מוכנים לשלם: <span id=""c_p_y""></span></p>","25","evaluation","62","11","3C,20A,22A","30","36","25","","","","","","","","","","","","","","",""
"","","","","","html-keyboard-response","168","1242487","0.0-21.0-2.18","d1e00293-27c1-4c36-bc26-c1a719a35f3d","null","<p style=""text-align: center;"">+</p>","null","fixation","","","","","","","","","","","","","","","","","","","","",""
"","","","","","html-slider-response","169","1243501","0.0-21.0-0.19","d1e00293-27c1-4c36-bc26-c1a719a35f3d","1000","
                  <p style=""text-align: center;"">₪4
                                                <br>75%</p>
                  <p id=""wtp"" style=""text-align:center; margin-top: 0px; margin-bottom: 0px; font-size: 40px"";>&ensp;</p>","-","viewing","0","3","12B,20B,23B,27C,29C","","","","","","","","","","","","","","","","","",""
"","","","","","html-slider-response","170","1246413","0.0-21.0-1.19","d1e00293-27c1-4c36-bc26-c1a719a35f3d","2912","
                  <p style=""text-align: center;"">₪4
                                                <br>75%</p>
                  <p id=""wtp"" style=""text-align:center; margin-top: 0px; margin-bottom: 0px; font-size: 40px"";>מוכנים לשלם: <span id=""c_p_y""></span></p>","1","evaluation","27","3","12B,20B,23B,27C,29C","75","4","2","","","","","","","","","","","","","","",""
"","","","","","html-keyboard-response","171","1247050","0.0-21.0-2.19","d1e00293-27c1-4c36-bc26-c1a719a35f3d","null","<p style=""text-align: center;"">+</p>","null","fixation","","","","","","","","","","","","","","","","","","","","",""
"","","","","","html-slider-response","172","1248052","0.0-21.0-0.20","d1e00293-27c1-4c36-bc26-c1a719a35f3d","1000","
                  <p style=""text-align: center;"">₪58
                                                <br>40%</p>
                  <p id=""wtp"" style=""text-align:center; margin-top: 0px; margin-bottom: 0px; font-size: 40px"";>&ensp;</p>","-","viewing","0","20","10C,13A,19C,21B","","","","","","","","","","","","","","","","","",""
"","","","","","html-slider-response","173","1250717","0.0-21.0-1.20","d1e00293-27c1-4c36-bc26-c1a719a35f3d","2663","
                  <p style=""text-align: center;"">₪58
                                                <br>40%</p>
                  <p id=""wtp"" style=""text-align:center; margin-top: 0px; margin-bottom: 0px; font-size: 40px"";>מוכנים לשלם: <span id=""c_p_y""></span></p>","26","evaluation","46","20","10C,13A,19C,21B","40","58","26","","","","","","","","","","","","","","",""
"","","","","","html-keyboard-response","174","1251396","0.0-21.0-2.20","d1e00293-27c1-4c36-bc26-c1a719a35f3d","null","<p style=""text-align: center;"">+</p>","null","fixation","","","","","","","","","","","","","","","","","","","","",""
"","","","","","html-slider-response","175","1252409","0.0-21.0-0.21","d1e00293-27c1-4c36-bc26-c1a719a35f3d","1000","
                  <p style=""text-align: center;"">₪58
                                                <br>45%</p>
                  <p id=""wtp"" style=""text-align:center; margin-top: 0px; margin-bottom: 0px; font-size: 40px"";>&ensp;</p>","-","viewing","0","21","11C,18C,25A","","","","","","","","","","","","","","","","","",""
"","","","","","html-slider-response","176","1254677","0.0-21.0-1.21","d1e00293-27c1-4c36-bc26-c1a719a35f3d","2267","
                  <p style=""text-align: center;"">₪58
                                                <br>45%</p>
                  <p id=""wtp"" style=""text-align:center; margin-top: 0px; margin-bottom: 0px; font-size: 40px"";>מוכנים לשלם: <span id=""c_p_y""></span></p>","27","evaluation","15","21","11C,18C,25A","45","58","27","","","","","","","","","","","","","","",""
"","","","","","html-keyboard-response","177","1255352","0.0-21.0-2.21","d1e00293-27c1-4c36-bc26-c1a719a35f3d","null","<p style=""text-align: center;"">+</p>","null","fixation","","","","","","","","","","","","","","","","","","","","",""
"","","","","","html-slider-response","178","1256362","0.0-21.0-0.22","d1e00293-27c1-4c36-bc26-c1a719a35f3d","1000","
                  <p style=""text-align: center;"">₪76
                                                <br>65%</p>
                  <p id=""wtp"" style=""text-align:center; margin-top: 0px; margin-bottom: 0px; font-size: 40px"";>&ensp;</p>","-","viewing","0","29","8C,19A,24B","","","","","","","","","","","","","","","","","",""
"","","","","","html-slider-response","179","1259086","0.0-21.0-1.22","d1e00293-27c1-4c36-bc26-c1a719a35f3d","2723","
                  <p style=""text-align: center;"">₪76
                                                <br>65%</p>
                  <p id=""wtp"" style=""text-align:center; margin-top: 0px; margin-bottom: 0px; font-size: 40px"";>מוכנים לשלם: <span id=""c_p_y""></span></p>","39","evaluation","73","29","8C,19A,24B","65","76","39","","","","","","","","","","","","","","",""
"","","","","","html-keyboard-response","180","1259945","0.0-21.0-2.22","d1e00293-27c1-4c36-bc26-c1a719a35f3d","null","<p style=""text-align: center;"">+</p>","null","fixation","","","","","","","","","","","","","","","","","","","","",""
"","","","","","html-slider-response","181","1260952","0.0-21.0-0.23","d1e00293-27c1-4c36-bc26-c1a719a35f3d","1000","
                  <p style=""text-align: center;"">₪79
                                                <br>40%</p>
                  <p id=""wtp"" style=""text-align:center; margin-top: 0px; margin-bottom: 0px; font-size: 40px"";>&ensp;</p>","-","viewing","0","30","9B","","","","","","","","","","","","","","","","","",""
"","","","","","html-slider-response","182","1262253","0.0-21.0-1.23","d1e00293-27c1-4c36-bc26-c1a719a35f3d","1300","
                  <p style=""text-align: center;"">₪79
                                                <br>40%</p>
                  <p id=""wtp"" style=""text-align:center; margin-top: 0px; margin-bottom: 0px; font-size: 40px"";>מוכנים לשלם: <span id=""c_p_y""></span></p>","41","evaluation","5","30","9B","40","79","41","","","","","","","","","","","","","","",""
"","","","","","html-keyboard-response","183","1263411","0.0-21.0-2.23","d1e00293-27c1-4c36-bc26-c1a719a35f3d","null","<p style=""text-align: center;"">+</p>","null","fixation","","","","","","","","","","","","","","","","","","","","",""
"","","","","","html-slider-response","184","1264421","0.0-21.0-0.24","d1e00293-27c1-4c36-bc26-c1a719a35f3d","1000","
                  <p style=""text-align: center;"">₪16
                                                <br>20%</p>
                  <p id=""wtp"" style=""text-align:center; margin-top: 0px; margin-bottom: 0px; font-size: 40px"";>&ensp;</p>","-","viewing","0","8","14C,17A,20C,27A","","","","","","","","","","","","","","","","","",""
"","","","","","html-slider-response","185","1267117","0.0-21.0-1.24","d1e00293-27c1-4c36-bc26-c1a719a35f3d","2695","
                  <p style=""text-align: center;"">₪16
                                                <br>20%</p>
                  <p id=""wtp"" style=""text-align:center; margin-top: 0px; margin-bottom: 0px; font-size: 40px"";>מוכנים לשלם: <span id=""c_p_y""></span></p>","2","evaluation","32","8","14C,17A,20C,27A","20","16","3","","","","","","","","","","","","","","",""
"","","","","","html-keyboard-response","186","1267630","0.0-21.0-2.24","d1e00293-27c1-4c36-bc26-c1a719a35f3d","null","<p style=""text-align: center;"">+</p>","null","fixation","","","","","","","","","","","","","","","","","","","","",""
"","","","","","html-slider-response","187","1268631","0.0-21.0-0.25","d1e00293-27c1-4c36-bc26-c1a719a35f3d","1000","
                  <p style=""text-align: center;"">₪79
                                                <br>65%</p>
                  <p id=""wtp"" style=""text-align:center; margin-top: 0px; margin-bottom: 0px; font-size: 40px"";>&ensp;</p>","-","viewing","0","31","8A","","","","","","","","","","","","","","","","","",""
"","","","","","html-slider-response","188","1271789","0.0-21.0-1.25","d1e00293-27c1-4c36-bc26-c1a719a35f3d","3156","
                  <p style=""text-align: center;"">₪79
                                                <br>65%</p>
                  <p id=""wtp"" style=""text-align:center; margin-top: 0px; margin-bottom: 0px; font-size: 40px"";>מוכנים לשלם: <span id=""c_p_y""></span></p>","41","evaluation","50","31","8A","65","79","41","","","","","","","","","","","","","","",""
"","","","","","html-keyboard-response","189","1272707","0.0-21.0-2.25","d1e00293-27c1-4c36-bc26-c1a719a35f3d","null","<p style=""text-align: center;"">+</p>","null","fixation","","","","","","","","","","","","","","","","","","","","",""
"","","","","","html-slider-response","190","1273714","0.0-21.0-0.26","d1e00293-27c1-4c36-bc26-c1a719a35f3d","1000","
                  <p style=""text-align: center;"">₪18
                                                <br>50%</p>
                  <p id=""wtp"" style=""text-align:center; margin-top: 0px; margin-bottom: 0px; font-size: 40px"";>&ensp;</p>","-","viewing","0","10","2C,16C,22B,28A","","","","","","","","","","","","","","","","","",""
"","","","","","html-slider-response","191","1276141","0.0-21.0-1.26","d1e00293-27c1-4c36-bc26-c1a719a35f3d","2426","
                  <p style=""text-align: center;"">₪18
                                                <br>50%</p>
                  <p id=""wtp"" style=""text-align:center; margin-top: 0px; margin-bottom: 0px; font-size: 40px"";>מוכנים לשלם: <span id=""c_p_y""></span></p>","5","evaluation","32","10","2C,16C,22B,28A","50","18","5","","","","","","","","","","","","","","",""
"","","","","","html-keyboard-response","192","1277249","0.0-21.0-2.26","d1e00293-27c1-4c36-bc26-c1a719a35f3d","null","<p style=""text-align: center;"">+</p>","null","fixation","","","","","","","","","","","","","","","","","","","","",""
"","","","","","html-slider-response","193","1278252","0.0-21.0-0.27","d1e00293-27c1-4c36-bc26-c1a719a35f3d","1000","
                  <p style=""text-align: center;"">₪11
                                                <br>20%</p>
                  <p id=""wtp"" style=""text-align:center; margin-top: 0px; margin-bottom: 0px; font-size: 40px"";>&ensp;</p>","-","viewing","0","4","12C,17C,23C,28C","","","","","","","","","","","","","","","","","",""
"","","","","","html-slider-response","194","1280341","0.0-21.0-1.27","d1e00293-27c1-4c36-bc26-c1a719a35f3d","2088","
                  <p style=""text-align: center;"">₪11
                                                <br>20%</p>
                  <p id=""wtp"" style=""text-align:center; margin-top: 0px; margin-bottom: 0px; font-size: 40px"";>מוכנים לשלם: <span id=""c_p_y""></span></p>","0","evaluation","28","4","12C,17C,23C,28C","20","11","0","","","","","","","","","","","","","","",""
"","","","","","html-keyboard-response","195","1281688","0.0-21.0-2.27","d1e00293-27c1-4c36-bc26-c1a719a35f3d","null","<p style=""text-align: center;"">+</p>","null","fixation","","","","","","","","","","","","","","","","","","","","",""
"","","","","","html-slider-response","196","1282692","0.0-21.0-0.28","d1e00293-27c1-4c36-bc26-c1a719a35f3d","1000","
                  <p style=""text-align: center;"">₪11
                                                <br>75%</p>
                  <p id=""wtp"" style=""text-align:center; margin-top: 0px; margin-bottom: 0px; font-size: 40px"";>&ensp;</p>","-","viewing","0","7","6B,18B,22C,24C,29A","","","","","","","","","","","","","","","","","",""
"","","","","","html-slider-response","197","1285669","0.0-21.0-1.28","d1e00293-27c1-4c36-bc26-c1a719a35f3d","2977","
                  <p style=""text-align: center;"">₪11
                                                <br>75%</p>
                  <p id=""wtp"" style=""text-align:center; margin-top: 0px; margin-bottom: 0px; font-size: 40px"";>מוכנים לשלם: <span id=""c_p_y""></span></p>","1","evaluation","9","7","6B,18B,22C,24C,29A","75","11","2","","","","","","","","","","","","","","",""
"","","","","","html-keyboard-response","198","1286921","0.0-21.0-2.28","d1e00293-27c1-4c36-bc26-c1a719a35f3d","null","<p style=""text-align: center;"">+</p>","null","fixation","","","","","","","","","","","","","","","","","","","","",""
"","","","","","html-slider-response","199","1287927","0.0-21.0-0.29","d1e00293-27c1-4c36-bc26-c1a719a35f3d","1000","
                  <p style=""text-align: center;"">₪36
                                                <br>75%</p>
                  <p id=""wtp"" style=""text-align:center; margin-top: 0px; margin-bottom: 0px; font-size: 40px"";>&ensp;</p>","-","viewing","0","14","4B,5A,13B,16B","","","","","","","","","","","","","","","","","",""
"","","","","","html-slider-response","200","1290229","0.0-21.0-1.29","d1e00293-27c1-4c36-bc26-c1a719a35f3d","2301","
                  <p style=""text-align: center;"">₪36
                                                <br>75%</p>
                  <p id=""wtp"" style=""text-align:center; margin-top: 0px; margin-bottom: 0px; font-size: 40px"";>מוכנים לשלם: <span id=""c_p_y""></span></p>","20","evaluation","36","14","4B,5A,13B,16B","75","36","20","","","","","","","","","","","","","","",""
"","","","","","html-keyboard-response","201","1291253","0.0-21.0-2.29","d1e00293-27c1-4c36-bc26-c1a719a35f3d","null","<p style=""text-align: center;"">+</p>","null","fixation","","","","","","","","","","","","","","","","","","","","",""
"","","","","","html-slider-response","202","1292267","0.0-21.0-0.30","d1e00293-27c1-4c36-bc26-c1a719a35f3d","1000","
                  <p style=""text-align: center;"">₪71
                                                <br>55%</p>
                  <p id=""wtp"" style=""text-align:center; margin-top: 0px; margin-bottom: 0px; font-size: 40px"";>&ensp;</p>","-","viewing","0","27","5B,18A","","","","","","","","","","","","","","","","","",""
"","","","","","html-slider-response","203","1294701","0.0-21.0-1.30","d1e00293-27c1-4c36-bc26-c1a719a35f3d","2433","
                  <p style=""text-align: center;"">₪71
                                                <br>55%</p>
                  <p id=""wtp"" style=""text-align:center; margin-top: 0px; margin-bottom: 0px; font-size: 40px"";>מוכנים לשלם: <span id=""c_p_y""></span></p>","41","evaluation","43","27","5B,18A","55","71","41","","","","","","","","","","","","","","",""
"","","","","","html-keyboard-response","204","1295743","0.0-21.0-2.30","d1e00293-27c1-4c36-bc26-c1a719a35f3d","null","<p style=""text-align: center;"">+</p>","null","fixation","","","","","","","","","","","","","","","","","","","","",""
"","","","","","html-keyboard-response","205","1296749","0.0-22.0","d1e00293-27c1-4c36-bc26-c1a719a35f3d","null","<p style=""text-align: center;"">+</p>","null","fixation","","","","","","","","","","","","","","","","","","","","",""
"","","","","","html-keyboard-response","206","1297613","0.0-23.0","d1e00293-27c1-4c36-bc26-c1a719a35f3d","null","<p>הפסקה.
          <br>לחצו כדי להמשיך.</p>","1","scan_wait","","","","","","","","","","","","","","","","","","","","",""
"","","","","","html-keyboard-response","207","1298623","0.0-24.0","d1e00293-27c1-4c36-bc26-c1a719a35f3d","null","<p style=""text-align: center;"">+</p>","null","fixation","","","","","","","","","","","","","","","","","","","","",""
"","","","","","html-slider-response","208","1299633","0.0-25.0-0.0","d1e00293-27c1-4c36-bc26-c1a719a35f3d","1000","
                  <p style=""text-align: center;"">₪4
                                                <br>50%</p>
                  <p id=""wtp"" style=""text-align:center; margin-top: 0px; margin-bottom: 0px; font-size: 40px"";>&ensp;</p>","-","viewing","0","2","4C,17B","","","","","","","","","","","","","","","","","",""
"","","","","","html-slider-response","209","1301797","0.0-25.0-1.0","d1e00293-27c1-4c36-bc26-c1a719a35f3d","2164","
                  <p style=""text-align: center;"">₪4
                                                <br>50%</p>
                  <p id=""wtp"" style=""text-align:center; margin-top: 0px; margin-bottom: 0px; font-size: 40px"";>מוכנים לשלם: <span id=""c_p_y""></span></p>","0","evaluation","75","2","4C,17B","50","4","0","","","","","","","","","","","","","","",""
"","","","","","html-keyboard-response","210","1302823","0.0-25.0-2.0","d1e00293-27c1-4c36-bc26-c1a719a35f3d","null","<p style=""text-align: center;"">+</p>","null","fixation","","","","","","","","","","","","","","","","","","","","",""
"","","","","","html-slider-response","211","1303826","0.0-25.0-0.1","d1e00293-27c1-4c36-bc26-c1a719a35f3d","1000","
                  <p style=""text-align: center;"">₪43
                                                <br>75%</p>
                  <p id=""wtp"" style=""text-align:center; margin-top: 0px; margin-bottom: 0px; font-size: 40px"";>&ensp;</p>","-","viewing","0","18","11B,19B,24A,26A","","","","","","","","","","","","","","","","","",""
"","","","","","html-slider-response","212","1305941","0.0-25.0-1.1","d1e00293-27c1-4c36-bc26-c1a719a35f3d","2114","
                  <p style=""text-align: center;"">₪43
                                                <br>75%</p>
                  <p id=""wtp"" style=""text-align:center; margin-top: 0px; margin-bottom: 0px; font-size: 40px"";>מוכנים לשלם: <span id=""c_p_y""></span></p>","20","evaluation","42","18","11B,19B,24A,26A","75","43","20","","","","","","","","","","","","","","",""
"","","","","","html-keyboard-response","213","1306444","0.0-25.0-2.1","d1e00293-27c1-4c36-bc26-c1a719a35f3d","null","<p style=""text-align: center;"">+</p>","null","fixation","","","","","","","","","","","","","","","","","","","","",""
"","","","","","html-slider-response","214","1307449","0.0-25.0-0.2","d1e00293-27c1-4c36-bc26-c1a719a35f3d","1000","
                  <p style=""text-align: center;"">₪61
                                                <br>55%</p>
                  <p id=""wtp"" style=""text-align:center; margin-top: 0px; margin-bottom: 0px; font-size: 40px"";>&ensp;</p>","-","viewing","0","23","7B,26B","","","","","","","","","","","","","","","","","",""
"","","","","","html-slider-response","215","1308989","0.0-25.0-1.2","d1e00293-27c1-4c36-bc26-c1a719a35f3d","1538","
                  <p style=""text-align: center;"">₪61
                                                <br>55%</p>
                  <p id=""wtp"" style=""text-align:center; margin-top: 0px; margin-bottom: 0px; font-size: 40px"";>מוכנים לשלם: <span id=""c_p_y""></span></p>","29","evaluation","62","23","7B,26B","55","61","29","","","","","","","","","","","","","","",""
"","","","","","html-keyboard-response","216","1309745","0.0-25.0-2.2","d1e00293-27c1-4c36-bc26-c1a719a35f3d","null","<p style=""text-align: center;"">+</p>","null","fixation","","","","","","","","","","","","","","","","","","","","",""
"","","","","","html-slider-response","217","1310752","0.0-25.0-0.3","d1e00293-27c1-4c36-bc26-c1a719a35f3d","1000","
                  <p style=""text-align: center;"">₪36
                                                <br>30%</p>
                  <p id=""wtp"" style=""text-align:center; margin-top: 0px; margin-bottom: 0px; font-size: 40px"";>&ensp;</p>","-","viewing","0","11","3C,20A,22A","","","","","","","","","","","","","","","","","",""
"","","","","","html-slider-response","218","1312941","0.0-25.0-1.3","d1e00293-27c1-4c36-bc26-c1a719a35f3d","2188","
                  <p style=""text-align: center;"">₪36
                                                <br>30%</p>
                  <p id=""wtp"" style=""text-align:center; margin-top: 0px; margin-bottom: 0px; font-size: 40px"";>מוכנים לשלם: <span id=""c_p_y""></span></p>","4","evaluation","28","11","3C,20A,22A","30","36","5","","","","","","","","","","","","","","",""
"","","","","","html-keyboard-response","219","1314123","0.0-25.0-2.3","d1e00293-27c1-4c36-bc26-c1a719a35f3d","null","<p style=""text-align: center;"">+</p>","null","fixation","","","","","","","","","","","","","","","","","","","","",""
"","","","","","html-slider-response","220","1315140","0.0-25.0-0.4","d1e00293-27c1-4c36-bc26-c1a719a35f3d","1000","
                  <p style=""text-align: center;"">₪61
                                                <br>45%</p>
                  <p id=""wtp"" style=""text-align:center; margin-top: 0px; margin-bottom: 0px; font-size: 40px"";>&ensp;</p>","-","viewing","0","22","10A,11A","","","","","","","","","","","","","","","","","",""
"","","","","","html-slider-response","221","1317781","0.0-25.0-1.4","d1e00293-27c1-4c36-bc26-c1a719a35f3d","2640","
                  <p style=""text-align: center;"">₪61
                                                <br>45%</p>
                  <p id=""wtp"" style=""text-align:center; margin-top: 0px; margin-bottom: 0px; font-size: 40px"";>מוכנים לשלם: <span id=""c_p_y""></span></p>","30","evaluation","69","22","10A,11A","45","61","30","","","","","","","","","","","","","","",""
"","","","","","html-keyboard-response","222","1319036","0.0-25.0-2.4","d1e00293-27c1-4c36-bc26-c1a719a35f3d","null","<p style=""text-align: center;"">+</p>","null","fixation","","","","","","","","","","","","","","","","","","","","",""
"","","","","","html-slider-response","223","1320044","0.0-25.0-0.5","d1e00293-27c1-4c36-bc26-c1a719a35f3d","1000","
                  <p style=""text-align: center;"">₪79
                                                <br>40%</p>
                  <p id=""wtp"" style=""text-align:center; margin-top: 0px; margin-bottom: 0px; font-size: 40px"";>&ensp;</p>","-","viewing","0","30","9B","","","","","","","","","","","","","","","","","",""
"","","","","","html-slider-response","224","1322221","0.0-25.0-1.5","d1e00293-27c1-4c36-bc26-c1a719a35f3d","2176","
                  <p style=""text-align: center;"">₪79
                                                <br>40%</p>
                  <p id=""wtp"" style=""text-align:center; margin-top: 0px; margin-bottom: 0px; font-size: 40px"";>מוכנים לשלם: <span id=""c_p_y""></span></p>","41","evaluation","41","30","9B","40","79","41","","","","","","","","","","","","","","",""
"","","","","","html-keyboard-response","225","1322774","0.0-25.0-2.5","d1e00293-27c1-4c36-bc26-c1a719a35f3d","null","<p style=""text-align: center;"">+</p>","null","fixation","","","","","","","","","","","","","","","","","","","","",""
"","","","","","html-slider-response","226","1323779","0.0-25.0-0.6","d1e00293-27c1-4c36-bc26-c1a719a35f3d","1000","
                  <p style=""text-align: center;"">₪11
                                                <br>25%</p>
                  <p id=""wtp"" style=""text-align:center; margin-top: 0px; margin-bottom: 0px; font-size: 40px"";>&ensp;</p>","-","viewing","0","5","12A,27B,28B,30B","","","","","","","","","","","","","","","","","",""
"","","","","","html-slider-response","227","1326901","0.0-25.0-1.6","d1e00293-27c1-4c36-bc26-c1a719a35f3d","3121","
                  <p style=""text-align: center;"">₪11
                                                <br>25%</p>
                  <p id=""wtp"" style=""text-align:center; margin-top: 0px; margin-bottom: 0px; font-size: 40px"";>מוכנים לשלם: <span id=""c_p_y""></span></p>","1","evaluation","68","5","12A,27B,28B,30B","25","11","2","","","","","","","","","","","","","","",""
"","","","","","html-keyboard-response","228","1327515","0.0-25.0-2.6","d1e00293-27c1-4c36-bc26-c1a719a35f3d","null","<p style=""text-align: center;"">+</p>","null","fixation","","","","","","","","","","","","","","","","","","","","",""
"","","","","","html-slider-response","229","1328517","0.0-25.0-0.7","d1e00293-27c1-4c36-bc26-c1a719a35f3d","1000","
                  <p style=""text-align: center;"">₪11
                                                <br>75%</p>
                  <p id=""wtp"" style=""text-align:center; margin-top: 0px; margin-bottom: 0px; font-size: 40px"";>&ensp;</p>","-","viewing","0","7","6B,18B,22C,24C,29A","","","","","","","","","","","","","","","","","",""
"","","","","","html-slider-response","230","1329909","0.0-25.0-1.7","d1e00293-27c1-4c36-bc26-c1a719a35f3d","1391","
                  <p style=""text-align: center;"">₪11
                                                <br>75%</p>
                  <p id=""wtp"" style=""text-align:center; margin-top: 0px; margin-bottom: 0px; font-size: 40px"";>מוכנים לשלם: <span id=""c_p_y""></span></p>","4","evaluation","44","7","6B,18B,22C,24C,29A","75","11","4","","","","","","","","","","","","","","",""
"","","","","","html-keyboard-response","231","1331219","0.0-25.0-2.7","d1e00293-27c1-4c36-bc26-c1a719a35f3d","null","<p style=""text-align: center;"">+</p>","null","fixation","","","","","","","","","","","","","","","","","","","","",""
"","","","","","html-slider-response","232","1332224","0.0-25.0-0.8","d1e00293-27c1-4c36-bc26-c1a719a35f3d","1000","
                  <p style=""text-align: center;"">₪71
                                                <br>55%</p>
                  <p id=""wtp"" style=""text-align:center; margin-top: 0px; margin-bottom: 0px; font-size: 40px"";>&ensp;</p>","-","viewing","0","27","5B,18A","","","","","","","","","","","","","","","","","",""
"","","","","","html-slider-response","233","1335549","0.0-25.0-1.8","d1e00293-27c1-4c36-bc26-c1a719a35f3d","3325","
                  <p style=""text-align: center;"">₪71
                                                <br>55%</p>
                  <p id=""wtp"" style=""text-align:center; margin-top: 0px; margin-bottom: 0px; font-size: 40px"";>מוכנים לשלם: <span id=""c_p_y""></span></p>","34","evaluation","29","27","5B,18A","55","71","34","","","","","","","","","","","","","","",""
"","","","","","html-keyboard-response","234","1336316","0.0-25.0-2.8","d1e00293-27c1-4c36-bc26-c1a719a35f3d","null","<p style=""text-align: center;"">+</p>","null","fixation","","","","","","","","","","","","","","","","","","","","",""
"","","","","","html-slider-response","235","1337328","0.0-25.0-0.9","d1e00293-27c1-4c36-bc26-c1a719a35f3d","1000","
                  <p style=""text-align: center;"">₪39
                                                <br>65%</p>
                  <p id=""wtp"" style=""text-align:center; margin-top: 0px; margin-bottom: 0px; font-size: 40px"";>&ensp;</p>","-","viewing","0","16","1A,15A,26C","","","","","","","","","","","","","","","","","",""
"","","","","","html-slider-response","236","1339829","0.0-25.0-1.9","d1e00293-27c1-4c36-bc26-c1a719a35f3d","2500","
                  <p style=""text-align: center;"">₪39
                                                <br>65%</p>
                  <p id=""wtp"" style=""text-align:center; margin-top: 0px; margin-bottom: 0px; font-size: 40px"";>מוכנים לשלם: <span id=""c_p_y""></span></p>","25","evaluation","68","16","1A,15A,26C","65","39","25","","","","","","","","","","","","","","",""
"","","","","","html-keyboard-response","237","1340401","0.0-25.0-2.9","d1e00293-27c1-4c36-bc26-c1a719a35f3d","null","<p style=""text-align: center;"">+</p>","null","fixation","","","","","","","","","","","","","","","","","","","","",""
"","","","","","html-slider-response","238","1341400","0.0-25.0-0.10","d1e00293-27c1-4c36-bc26-c1a719a35f3d","1000","
                  <p style=""text-align: center;"">₪36
                                                <br>60%</p>
                  <p id=""wtp"" style=""text-align:center; margin-top: 0px; margin-bottom: 0px; font-size: 40px"";>&ensp;</p>","-","viewing","0","12","1C,7C,15C","","","","","","","","","","","","","","","","","",""
"","","","","","html-slider-response","239","1344718","0.0-25.0-1.10","d1e00293-27c1-4c36-bc26-c1a719a35f3d","3317","
                  <p style=""text-align: center;"">₪36
                                                <br>60%</p>
                  <p id=""wtp"" style=""text-align:center; margin-top: 0px; margin-bottom: 0px; font-size: 40px"";>מוכנים לשלם: <span id=""c_p_y""></span></p>","20","evaluation","44","12","1C,7C,15C","60","36","20","","","","","","","","","","","","","","",""
"","","","","","html-keyboard-response","240","1345267","0.0-25.0-2.10","d1e00293-27c1-4c36-bc26-c1a719a35f3d","null","<p style=""text-align: center;"">+</p>","null","fixation","","","","","","","","","","","","","","","","","","","","",""
"","","","","","html-slider-response","241","1346274","0.0-25.0-0.11","d1e00293-27c1-4c36-bc26-c1a719a35f3d","1000","
                  <p style=""text-align: center;"">₪4
                                                <br>75%</p>
                  <p id=""wtp"" style=""text-align:center; margin-top: 0px; margin-bottom: 0px; font-size: 40px"";>&ensp;</p>","-","viewing","0","3","12B,20B,23B,27C,29C","","","","","","","","","","","","","","","","","",""
"","","","","","html-slider-response","242","1348742","0.0-25.0-1.11","d1e00293-27c1-4c36-bc26-c1a719a35f3d","2467","
                  <p style=""text-align: center;"">₪4
                                                <br>75%</p>
                  <p id=""wtp"" style=""text-align:center; margin-top: 0px; margin-bottom: 0px; font-size: 40px"";>מוכנים לשלם: <span id=""c_p_y""></span></p>","1","evaluation","3","3","12B,20B,23B,27C,29C","75","4","1","","","","","","","","","","","","","","",""
"","","","","","html-keyboard-response","243","1349266","0.0-25.0-2.11","d1e00293-27c1-4c36-bc26-c1a719a35f3d","null","<p style=""text-align: center;"">+</p>","null","fixation","","","","","","","","","","","","","","","","","","","","",""
"","","","","","html-slider-response","244","1350284","0.0-25.0-0.12","d1e00293-27c1-4c36-bc26-c1a719a35f3d","1000","
                  <p style=""text-align: center;"">₪58
                                                <br>45%</p>
                  <p id=""wtp"" style=""text-align:center; margin-top: 0px; margin-bottom: 0px; font-size: 40px"";>&ensp;</p>","-","viewing","0","21","11C,18C,25A","","","","","","","","","","","","","","","","","",""
"","","","","","html-slider-response","245","1353342","0.0-25.0-1.12","d1e00293-27c1-4c36-bc26-c1a719a35f3d","3057","
                  <p style=""text-align: center;"">₪58
                                                <br>45%</p>
                  <p id=""wtp"" style=""text-align:center; margin-top: 0px; margin-bottom: 0px; font-size: 40px"";>מוכנים לשלם: <span id=""c_p_y""></span></p>","22","evaluation","70","21","11C,18C,25A","45","58","22","","","","","","","","","","","","","","",""
"","","","","","html-keyboard-response","246","1354240","0.0-25.0-2.12","d1e00293-27c1-4c36-bc26-c1a719a35f3d","null","<p style=""text-align: center;"">+</p>","null","fixation","","","","","","","","","","","","","","","","","","","","",""
"","","","","","html-slider-response","247","1355246","0.0-25.0-0.13","d1e00293-27c1-4c36-bc26-c1a719a35f3d","1000","
                  <p style=""text-align: center;"">₪43
                                                <br>60%</p>
                  <p id=""wtp"" style=""text-align:center; margin-top: 0px; margin-bottom: 0px; font-size: 40px"";>&ensp;</p>","-","viewing","0","17","2A,7A,9A,15B","","","","","","","","","","","","","","","","","",""
"","","","","","html-slider-response","248","1359253","0.0-25.0-1.13","d1e00293-27c1-4c36-bc26-c1a719a35f3d","null","
                  <p style=""text-align: center;"">₪43
                                                <br>60%</p>
                  <p id=""wtp"" style=""text-align:center; margin-top: 0px; margin-bottom: 0px; font-size: 40px"";>מוכנים לשלם: <span id=""c_p_y""></span></p>","null","evaluation","22","17","2A,7A,9A,15B","60","43","23","","","","","","","","","","","","","","",""
"","","","","","html-keyboard-response","249","1360142","0.0-25.0-2.13","d1e00293-27c1-4c36-bc26-c1a719a35f3d","null","<p style=""text-align: center;"">+</p>","null","fixation","","","","","","","","","","","","","","","","","","","","",""
"","","","","","html-slider-response","250","1361153","0.0-25.0-0.14","d1e00293-27c1-4c36-bc26-c1a719a35f3d","1000","
                  <p style=""text-align: center;"">₪58
                                                <br>30%</p>
                  <p id=""wtp"" style=""text-align:center; margin-top: 0px; margin-bottom: 0px; font-size: 40px"";>&ensp;</p>","-","viewing","0","19","13C,30A","","","","","","","","","","","","","","","","","",""
"","","","","","html-slider-response","251","1362742","0.0-25.0-1.14","d1e00293-27c1-4c36-bc26-c1a719a35f3d","1587","
                  <p style=""text-align: center;"">₪58
                                                <br>30%</p>
                  <p id=""wtp"" style=""text-align:center; margin-top: 0px; margin-bottom: 0px; font-size: 40px"";>מוכנים לשלם: <span id=""c_p_y""></span></p>","22","evaluation","66","19","13C,30A","30","58","22","","","","","","","","","","","","","","",""
"","","","","","html-keyboard-response","252","1363252","0.0-25.0-2.14","d1e00293-27c1-4c36-bc26-c1a719a35f3d","null","<p style=""text-align: center;"">+</p>","null","fixation","","","","","","","","","","","","","","","","","","","","",""
