"success","timeout","failed_images","failed_audio","failed_video","trial_type","trial_index","time_elapsed","internal_node_id","subject_id","rt","stimulus","response","part","slider_start","ID","set_ID","prob","amount","last_location","actual_choice","actual_EV","binary_id","trinary_id","catch","direction","A_key","S_key","D_key","choice_prob","choice_amount","chosen_part","potential_prize_prob","potential_prize_amount","won_prize","total_prize","prize_cost","remaining_budget","accuracy"
"true","false","[]","[]","[]","preload","0","138","0.0-0.0","1431fec5-c2d2-481c-9eea-142efd404d61","","","","","","","","","","","","","","","","","","","","","","","","","","","","",""
"","","","","","html-keyboard-response","1","1101951","0.0-1.0","1431fec5-c2d2-481c-9eea-142efd404d61","null","
          <h1>שלום וברוכים הבאים!</h1>
          <p>לפניכם ניסוי בקבלת החלטות עם שני חלקים.
          <br><br>לחצו על העכבר כדי להמשיך.</p>","0","example","","","","","","","","","","","","","","","","","","","","","","","","",""
"","","","","","html-keyboard-response","2","1107798","0.0-2.0","1431fec5-c2d2-481c-9eea-142efd404d61","null","
        <h1>חלק 1</h1>
        <p>בקרוב יוצגו בפניכם הגרלות.
        <br>עליכם לבחור את המחיר המירבי שתהיו מוכנים לשלם כדי להשתתף בהגרלה שתוצג.
        <br>יש לכם תקציב של ₪80 לכל הגרלה. 
        <br>נסו להעריך כל הגרלה בנפרד ולחשוב כמה היא שווה עבורכם, ₪80 זמינים לכל הגרלה בנפרד.
        <br><br>לחצו על העכבר כדי להמשיך.</p>","1","instructions","","","","","","","","","","","","","","","","","","","","","","","","",""
"","","","","","html-keyboard-response","3","1112999","0.0-3.0","1431fec5-c2d2-481c-9eea-142efd404d61","null","
        <p>בסוף הניסוי, המחשב יבחר את אחת ההגרלות ויקבע מחיר לכרטיס עבורה. 
        <br>במידה והמחיר שבחרתם נמוך מהמחיר שנבחר על ידי המחשב, לא תשתתפו בהגרלה ותשארו עם מלוא התקציב.
        <br>במידה והמחיר שבחרתם גבוה מהמחיר שנבחר על ידי המחשב, תשלמו את המחיר שנקבע ותשתתפו בהגרלה.
        <br><br>לחצו על העכבר כדי להמשיך.</p>","1","instructions","","","","","","","","","","","","","","","","","","","","","","","","",""
"","","","","","html-slider-response","4","1127535","0.0-4.0","1431fec5-c2d2-481c-9eea-142efd404d61","14425","
        <p style=""font-size: 42px;"">נתחיל עם דוגמא: 
        <br>ההגרלה מטה מציעה 65% סיכוי לזכות ב-₪40 
        <br>&emsp;&emsp;&emsp;&emsp;&emsp;&emsp;&emsp;&emsp;&ensp;35% סיכוי לזכות ב-₪0.
        <br><br>מה המחיר המירבי שתהיו מוכנים לשלם על כרטיס להגרלה זו בין 0 ל-₪80?
        <br>הזיזו את העכבר על פני המלבן ולחצו כדי לבצע בחירה.</p>
        
        <p style=""text-align: center;"">₪40<br>65%</p>

        <p id=""wtp"" style=""text-align:center; margin-top: 0px; margin-bottom: 0px; font-size: 40px"";>מוכנים לשלם: <span id=""c_p_y""></span></p>","20","example","62","","","","","","","","","","","","","","","","","","","","","","","",""
"","","","","","html-keyboard-response","5","1134846","0.0-5.0","1431fec5-c2d2-481c-9eea-142efd404d61","null","<p>יפה מאוד!
                <br> בחרתם שתהיו מוכנים לשלם ₪20 כדי להשתתף בהגרלה:
                <br><p style=""text-align: center;"">₪40<br>65%</p>
                <p>נשמע נכון?
                <br>נניח שהגרלה זו נבחרה בסוף הניסוי.
                <br>כעת המחשב יקבע מחיר עבורה באקראי.
                <br>לחצו על העכבר להמשך.</p>","1","example","","","","","","","","","","","","","","","","","","","","","","","","",""
"","","","","","html-keyboard-response","6","1140486","0.0-6.0","1431fec5-c2d2-481c-9eea-142efd404d61","null","<p>המחשב קבע מחיר: ₪22
                <br>ואתם בחרתם לשלם לכל היותר: ₪20
                <br><br>מכיוון שהמחיר שבחרתם נמוך מהמחיר שנקבע, לא תתשתתפו בהגרלה.
                <br>במקרה כזה, בסוף הניסוי תקבלו את כל התקציב ההתחלתי של ₪80.
                <br><br>לחצו על העכבר להמשך.</p>","1","example","","","","","","","","","","","","","","","","","","","","","","","","",""
"","","","","","html-slider-response","7","1148359","0.0-7.0","1431fec5-c2d2-481c-9eea-142efd404d61","7616","<p style=""font-size: 42px;"">הנה עוד דוגמא:
                <br>ההגרלה מטה מציעה 35% סיכוי לזכות ב-₪18 
                <br>&emsp;&emsp;&emsp;&emsp;&emsp;&emsp;&emsp;&emsp;&ensp;65% סיכוי לזכות ב-₪0.</p>
        
                <p style=""text-align: center;"">₪18<br>35%</p>
                <p id=""wtp"" style=""text-align:center; margin-top: 0px; margin-bottom: 0px; font-size: 40px"";>מוכנים לשלם: <span id=""c_p_y""></span></p>","13","example","14","","","","","","","","","","","","","","","","","","","","","","","",""
"","","","","","html-keyboard-response","8","1153278","0.0-8.0","1431fec5-c2d2-481c-9eea-142efd404d61","null","<p>הייתם מוכנים לשלם  ₪13 כדי להשתתף בהגרלה:
                <p style=""text-align: center;"">₪18<br>35%</p>
                <p>כעת נניח שהמחשב בחר את ההגרלה הזו בסוף הניסוי, וקבע עבורה מחיר.
                <br><br>לחצו על העכבר כדי להמשיך.</p>","1","instructions","","","","","","","","","","","","","","","","","","","","","","","","",""
"","","","","","html-keyboard-response","9","1157726","0.0-9.0","1431fec5-c2d2-481c-9eea-142efd404d61","null","<p>המחשב קבע מחיר להגרלה: ₪8<br>ואתם בחרתם לשלם לכל היותר: ₪13
                <br><br>כעת המחיר שנקבע נמוך מזה שבחרתם, אז תשלמו את המחיר שקבע המחשב (₪8) ותשתתפו בהגרלה.
                <br>במקרה כזה, תסיימו את הניסוי עם תקציב של ₪72 ועם סיכוי לזכות ב-₪18 נוספים מההגרלה.
                <br>כלומר, תוכלו לקבל ₪72 אם לא תזכו בהגרלה, או ₪90 אם תזכו בהגרלה.
                <br><br>לחצו על העכבר להמשך.</p>","1","example","","","","","","","","","","","","","","","","","","","","","","","","",""
"","","","","","html-keyboard-response","10","1162622","0.0-10.0","1431fec5-c2d2-481c-9eea-142efd404d61","null","<p>במהלך הניסוי, קודם תראו את ההגרלה ורק לאחר מכן תוכלו לבחור.
                <p>כמו כן, יהיו לכם מספר שניות מוגבל להגיב.
                <p>בואו ננסה זאת עם ההגרלה הקודמת.
                <br>לחצו על העכבר כדי להמשיך.</p>","1","instructions","","","","","","","","","","","","","","","","","","","","","","","","",""
"","","","","","html-slider-response","11","1163886","0.0-11.0","1431fec5-c2d2-481c-9eea-142efd404d61","1000","
                    <p style=""text-align: center;"">₪18<br>35%</p>
                    <p id=""wtp"" style=""text-align:center; margin-top: 0px; margin-bottom: 0px; font-size: 40px"";>&ensp;</p>","64","instructions","0","","","","","","","","","","","","","","","","","","","","","","","",""
"","","","","","html-slider-response","12","1167631","0.0-12.0","1431fec5-c2d2-481c-9eea-142efd404d61","3493","
                    <p style=""text-align: center;"">₪18<br>35%</p>
                    <p id=""wtp"" style=""text-align:center; margin-top: 0px; margin-bottom: 0px; font-size: 40px"";>מוכנים לשלם: <span id=""c_p_y""></span></p>","21","instructions","51","","","","","","","","","","","","","","","","","","","","","","","",""
"","","","","","html-keyboard-response","13","1170055","0.0-13.0","1431fec5-c2d2-481c-9eea-142efd404d61","null","<p>יפה. הפעם בחרתם לשלם לכל היותר ₪21.
                <br><br>לחצו על העכבר כדי להמשיך.</p>","1","instructions","","","","","","","","","","","","","","","","","","","","","","","","",""
"","","","","","html-keyboard-response","14","1175671","0.0-15.0","1431fec5-c2d2-481c-9eea-142efd404d61","null","<p>כעת נתחיל את הניסוי.
                <br><br>אתם תראו הגרלות ותתבקשו לבחור כמה תהיו מוכנים לשלם כדי להשתתף בהן.
                <br>יש לכם תקציב של ₪80 עבור כל הגרלה.
                <br>בסוף הניסוי הגרלה אחת תבחר באקראי ותשוחק.
                <br><br>לחצו על העכבר כדי להתחיל את הניסוי.</p>","1","instructions","","","","","","","","","","","","","","","","","","","","","","","","",""
"","","","","","html-keyboard-response","15","1176939","0.0-16.0","1431fec5-c2d2-481c-9eea-142efd404d61","null","<p style=""text-align: center;"">+</p>","null","fixation","","","","","","","","","","","","","","","","","","","","","","","","",""
"","","","","","html-slider-response","16","1177943","0.0-17.0-0.0","1431fec5-c2d2-481c-9eea-142efd404d61","1000","
                  <p style=""text-align: center;"">₪11
                                                <br>25%</p>
                  <p id=""wtp"" style=""text-align:center; margin-top: 0px; margin-bottom: 0px; font-size: 40px"";>&ensp;</p>","-","viewing","0","5","12A,27B,28B,30B","","","","","","","","","","","","","","","","","","","","","",""
"","","","","","html-slider-response","17","1181946","0.0-17.0-1.0","1431fec5-c2d2-481c-9eea-142efd404d61","null","
                  <p style=""text-align: center;"">₪11
                                                <br>25%</p>
                  <p id=""wtp"" style=""text-align:center; margin-top: 0px; margin-bottom: 0px; font-size: 40px"";>מוכנים לשלם: <span id=""c_p_y""></span></p>","null","evaluation","30","5","12A,27B,28B,30B","25","11","13","","","","","","","","","","","","","","","","","","",""
"","","","","","html-keyboard-response","18","1183372","0.0-17.0-2.0","1431fec5-c2d2-481c-9eea-142efd404d61","null","<p style=""text-align: center;"">+</p>","null","fixation","","","","","","","","","","","","","","","","","","","","","","","","",""
"","","","","","html-slider-response","19","1184376","0.0-17.0-0.1","1431fec5-c2d2-481c-9eea-142efd404d61","1000","
                  <p style=""text-align: center;"">₪71
                                                <br>75%</p>
                  <p id=""wtp"" style=""text-align:center; margin-top: 0px; margin-bottom: 0px; font-size: 40px"";>&ensp;</p>","-","viewing","0","28","8B","","","","","","","","","","","","","","","","","","","","","",""
"","","","","","html-slider-response","20","1188191","0.0-17.0-1.1","1431fec5-c2d2-481c-9eea-142efd404d61","3814","
                  <p style=""text-align: center;"">₪71
                                                <br>75%</p>
                  <p id=""wtp"" style=""text-align:center; margin-top: 0px; margin-bottom: 0px; font-size: 40px"";>מוכנים לשלם: <span id=""c_p_y""></span></p>","59","evaluation","50","28","8B","75","71","59","","","","","","","","","","","","","","","","","","",""
"","","","","","html-keyboard-response","21","1188957","0.0-17.0-2.1","1431fec5-c2d2-481c-9eea-142efd404d61","null","<p style=""text-align: center;"">+</p>","null","fixation","","","","","","","","","","","","","","","","","","","","","","","","",""
"","","","","","html-slider-response","22","1189960","0.0-17.0-0.2","1431fec5-c2d2-481c-9eea-142efd404d61","1000","
                  <p style=""text-align: center;"">₪18
                                                <br>25%</p>
                  <p id=""wtp"" style=""text-align:center; margin-top: 0px; margin-bottom: 0px; font-size: 40px"";>&ensp;</p>","-","viewing","0","9","14A,23A","","","","","","","","","","","","","","","","","","","","","",""
"","","","","","html-slider-response","23","1191695","0.0-17.0-1.2","1431fec5-c2d2-481c-9eea-142efd404d61","1734","
                  <p style=""text-align: center;"">₪18
                                                <br>25%</p>
                  <p id=""wtp"" style=""text-align:center; margin-top: 0px; margin-bottom: 0px; font-size: 40px"";>מוכנים לשלם: <span id=""c_p_y""></span></p>","20","evaluation","20","9","14A,23A","25","18","20","","","","","","","","","","","","","","","","","","",""
"","","","","","html-keyboard-response","24","1192674","0.0-17.0-2.2","1431fec5-c2d2-481c-9eea-142efd404d61","null","<p style=""text-align: center;"">+</p>","null","fixation","","","","","","","","","","","","","","","","","","","","","","","","",""
"","","","","","html-slider-response","25","1193691","0.0-17.0-0.3","1431fec5-c2d2-481c-9eea-142efd404d61","1000","
                  <p style=""text-align: center;"">₪76
                                                <br>65%</p>
                  <p id=""wtp"" style=""text-align:center; margin-top: 0px; margin-bottom: 0px; font-size: 40px"";>&ensp;</p>","-","viewing","0","29","8C,19A,24B","","","","","","","","","","","","","","","","","","","","","",""
"","","","","","html-slider-response","26","1197527","0.0-17.0-1.3","1431fec5-c2d2-481c-9eea-142efd404d61","3835","
                  <p style=""text-align: center;"">₪76
                                                <br>65%</p>
                  <p id=""wtp"" style=""text-align:center; margin-top: 0px; margin-bottom: 0px; font-size: 40px"";>מוכנים לשלם: <span id=""c_p_y""></span></p>","71","evaluation","61","29","8C,19A,24B","65","76","70","","","","","","","","","","","","","","","","","","",""
"","","","","","html-keyboard-response","27","1198666","0.0-17.0-2.3","1431fec5-c2d2-481c-9eea-142efd404d61","null","<p style=""text-align: center;"">+</p>","null","fixation","","","","","","","","","","","","","","","","","","","","","","","","",""
"","","","","","html-slider-response","28","1199675","0.0-17.0-0.4","1431fec5-c2d2-481c-9eea-142efd404d61","1000","
                  <p style=""text-align: center;"">₪71
                                                <br>55%</p>
                  <p id=""wtp"" style=""text-align:center; margin-top: 0px; margin-bottom: 0px; font-size: 40px"";>&ensp;</p>","-","viewing","0","27","5B,18A","","","","","","","","","","","","","","","","","","","","","",""
"","","","","","html-slider-response","29","1203439","0.0-17.0-1.4","1431fec5-c2d2-481c-9eea-142efd404d61","3762","
                  <p style=""text-align: center;"">₪71
                                                <br>55%</p>
                  <p id=""wtp"" style=""text-align:center; margin-top: 0px; margin-bottom: 0px; font-size: 40px"";>מוכנים לשלם: <span id=""c_p_y""></span></p>","53","evaluation","56","27","5B,18A","55","71","53","","","","","","","","","","","","","","","","","","",""
"","","","","","html-keyboard-response","30","1204757","0.0-17.0-2.4","1431fec5-c2d2-481c-9eea-142efd404d61","null","<p style=""text-align: center;"">+</p>","null","fixation","","","","","","","","","","","","","","","","","","","","","","","","",""
"","","","","","html-slider-response","31","1205768","0.0-17.0-0.5","1431fec5-c2d2-481c-9eea-142efd404d61","1000","
                  <p style=""text-align: center;"">₪39
                                                <br>60%</p>
                  <p id=""wtp"" style=""text-align:center; margin-top: 0px; margin-bottom: 0px; font-size: 40px"";>&ensp;</p>","-","viewing","0","15","9C,25B","","","","","","","","","","","","","","","","","","","","","",""
"","","","","","html-slider-response","32","1209087","0.0-17.0-1.5","1431fec5-c2d2-481c-9eea-142efd404d61","3318","
                  <p style=""text-align: center;"">₪39
                                                <br>60%</p>
                  <p id=""wtp"" style=""text-align:center; margin-top: 0px; margin-bottom: 0px; font-size: 40px"";>מוכנים לשלם: <span id=""c_p_y""></span></p>","41","evaluation","4","15","9C,25B","60","39","41","","","","","","","","","","","","","","","","","","",""
"","","","","","html-keyboard-response","33","1210347","0.0-17.0-2.5","1431fec5-c2d2-481c-9eea-142efd404d61","null","<p style=""text-align: center;"">+</p>","null","fixation","","","","","","","","","","","","","","","","","","","","","","","","",""
"","","","","","html-slider-response","34","1211359","0.0-17.0-0.6","1431fec5-c2d2-481c-9eea-142efd404d61","1000","
                  <p style=""text-align: center;"">₪11
                                                <br>75%</p>
                  <p id=""wtp"" style=""text-align:center; margin-top: 0px; margin-bottom: 0px; font-size: 40px"";>&ensp;</p>","-","viewing","0","7","6B,18B,22C,24C,29A","","","","","","","","","","","","","","","","","","","","","",""
"","","","","","html-slider-response","35","1214759","0.0-17.0-1.6","1431fec5-c2d2-481c-9eea-142efd404d61","3399","
                  <p style=""text-align: center;"">₪11
                                                <br>75%</p>
                  <p id=""wtp"" style=""text-align:center; margin-top: 0px; margin-bottom: 0px; font-size: 40px"";>מוכנים לשלם: <span id=""c_p_y""></span></p>","80","evaluation","2","7","6B,18B,22C,24C,29A","75","11","80","","","","","","","","","","","","","","","","","","",""
"","","","","","html-keyboard-response","36","1215625","0.0-17.0-2.6","1431fec5-c2d2-481c-9eea-142efd404d61","null","<p style=""text-align: center;"">+</p>","null","fixation","","","","","","","","","","","","","","","","","","","","","","","","",""
"","","","","","html-slider-response","37","1216632","0.0-17.0-0.7","1431fec5-c2d2-481c-9eea-142efd404d61","1000","
                  <p style=""text-align: center;"">₪4
                                                <br>75%</p>
                  <p id=""wtp"" style=""text-align:center; margin-top: 0px; margin-bottom: 0px; font-size: 40px"";>&ensp;</p>","-","viewing","0","3","12B,20B,23B,27C,29C","","","","","","","","","","","","","","","","","","","","","",""
"","","","","","html-slider-response","38","1220641","0.0-17.0-1.7","1431fec5-c2d2-481c-9eea-142efd404d61","null","
                  <p style=""text-align: center;"">₪4
                                                <br>75%</p>
                  <p id=""wtp"" style=""text-align:center; margin-top: 0px; margin-bottom: 0px; font-size: 40px"";>מוכנים לשלם: <span id=""c_p_y""></span></p>","null","evaluation","51","3","12B,20B,23B,27C,29C","75","4","40","","","","","","","","","","","","","","","","","","",""
"","","","","","html-keyboard-response","39","1221406","0.0-17.0-2.7","1431fec5-c2d2-481c-9eea-142efd404d61","null","<p style=""text-align: center;"">+</p>","null","fixation","","","","","","","","","","","","","","","","","","","","","","","","",""
"","","","","","html-slider-response","40","1222419","0.0-17.0-0.8","1431fec5-c2d2-481c-9eea-142efd404d61","1000","
                  <p style=""text-align: center;"">₪71
                                                <br>45%</p>
                  <p id=""wtp"" style=""text-align:center; margin-top: 0px; margin-bottom: 0px; font-size: 40px"";>&ensp;</p>","-","viewing","0","26","2B,16A","","","","","","","","","","","","","","","","","","","","","",""
"","","","","","html-slider-response","41","1225559","0.0-17.0-1.8","1431fec5-c2d2-481c-9eea-142efd404d61","3138","
                  <p style=""text-align: center;"">₪71
                                                <br>45%</p>
                  <p id=""wtp"" style=""text-align:center; margin-top: 0px; margin-bottom: 0px; font-size: 40px"";>מוכנים לשלם: <span id=""c_p_y""></span></p>","50","evaluation","2","26","2B,16A","45","71","50","","","","","","","","","","","","","","","","","","",""
"","","","","","html-keyboard-response","42","1226736","0.0-17.0-2.8","1431fec5-c2d2-481c-9eea-142efd404d61","null","<p style=""text-align: center;"">+</p>","null","fixation","","","","","","","","","","","","","","","","","","","","","","","","",""
"","","","","","html-slider-response","43","1227738","0.0-17.0-0.9","1431fec5-c2d2-481c-9eea-142efd404d61","1000","
                  <p style=""text-align: center;"">₪79
                                                <br>65%</p>
                  <p id=""wtp"" style=""text-align:center; margin-top: 0px; margin-bottom: 0px; font-size: 40px"";>&ensp;</p>","-","viewing","0","31","8A","","","","","","","","","","","","","","","","","","","","","",""
"","","","","","html-slider-response","44","1229351","0.0-17.0-1.9","1431fec5-c2d2-481c-9eea-142efd404d61","1612","
                  <p style=""text-align: center;"">₪79
                                                <br>65%</p>
                  <p id=""wtp"" style=""text-align:center; margin-top: 0px; margin-bottom: 0px; font-size: 40px"";>מוכנים לשלם: <span id=""c_p_y""></span></p>","80","evaluation","44","31","8A","65","79","80","","","","","","","","","","","","","","","","","","",""
"","","","","","html-keyboard-response","45","1230696","0.0-17.0-2.9","1431fec5-c2d2-481c-9eea-142efd404d61","null","<p style=""text-align: center;"">+</p>","null","fixation","","","","","","","","","","","","","","","","","","","","","","","","",""
"","","","","","html-slider-response","46","1231704","0.0-17.0-0.10","1431fec5-c2d2-481c-9eea-142efd404d61","1000","
                  <p style=""text-align: center;"">₪36
                                                <br>60%</p>
                  <p id=""wtp"" style=""text-align:center; margin-top: 0px; margin-bottom: 0px; font-size: 40px"";>&ensp;</p>","-","viewing","0","12","1C,7C,15C","","","","","","","","","","","","","","","","","","","","","",""
"","","","","","html-slider-response","47","1234151","0.0-17.0-1.10","1431fec5-c2d2-481c-9eea-142efd404d61","2446","
                  <p style=""text-align: center;"">₪36
                                                <br>60%</p>
                  <p id=""wtp"" style=""text-align:center; margin-top: 0px; margin-bottom: 0px; font-size: 40px"";>מוכנים לשלם: <span id=""c_p_y""></span></p>","70","evaluation","14","12","1C,7C,15C","60","36","69","","","","","","","","","","","","","","","","","","",""
"","","","","","html-keyboard-response","48","1235060","0.0-17.0-2.10","1431fec5-c2d2-481c-9eea-142efd404d61","null","<p style=""text-align: center;"">+</p>","null","fixation","","","","","","","","","","","","","","","","","","","","","","","","",""
"","","","","","html-slider-response","49","1236062","0.0-17.0-0.11","1431fec5-c2d2-481c-9eea-142efd404d61","1000","
                  <p style=""text-align: center;"">₪4
                                                <br>25%</p>
                  <p id=""wtp"" style=""text-align:center; margin-top: 0px; margin-bottom: 0px; font-size: 40px"";>&ensp;</p>","-","viewing","0","1","6C,29B,30C","","","","","","","","","","","","","","","","","","","","","",""
"","","","","","html-slider-response","50","1237351","0.0-17.0-1.11","1431fec5-c2d2-481c-9eea-142efd404d61","1288","
                  <p style=""text-align: center;"">₪4
                                                <br>25%</p>
                  <p id=""wtp"" style=""text-align:center; margin-top: 0px; margin-bottom: 0px; font-size: 40px"";>מוכנים לשלם: <span id=""c_p_y""></span></p>","10","evaluation","72","1","6C,29B,30C","25","4","10","","","","","","","","","","","","","","","","","","",""
"","","","","","html-keyboard-response","51","1237893","0.0-17.0-2.11","1431fec5-c2d2-481c-9eea-142efd404d61","null","<p style=""text-align: center;"">+</p>","null","fixation","","","","","","","","","","","","","","","","","","","","","","","","",""
"","","","","","html-slider-response","52","1238907","0.0-17.0-0.12","1431fec5-c2d2-481c-9eea-142efd404d61","1000","
                  <p style=""text-align: center;"">₪58
                                                <br>45%</p>
                  <p id=""wtp"" style=""text-align:center; margin-top: 0px; margin-bottom: 0px; font-size: 40px"";>&ensp;</p>","-","viewing","0","21","11C,18C,25A","","","","","","","","","","","","","","","","","","","","","",""
"","","","","","html-slider-response","53","1241839","0.0-17.0-1.12","1431fec5-c2d2-481c-9eea-142efd404d61","2931","
                  <p style=""text-align: center;"">₪58
                                                <br>45%</p>
                  <p id=""wtp"" style=""text-align:center; margin-top: 0px; margin-bottom: 0px; font-size: 40px"";>מוכנים לשלם: <span id=""c_p_y""></span></p>","50","evaluation","6","21","11C,18C,25A","45","58","50","","","","","","","","","","","","","","","","","","",""
"","","","","","html-keyboard-response","54","1243298","0.0-17.0-2.12","1431fec5-c2d2-481c-9eea-142efd404d61","null","<p style=""text-align: center;"">+</p>","null","fixation","","","","","","","","","","","","","","","","","","","","","","","","",""
"","","","","","html-slider-response","55","1244312","0.0-17.0-0.13","1431fec5-c2d2-481c-9eea-142efd404d61","1000","
                  <p style=""text-align: center;"">₪18
                                                <br>50%</p>
                  <p id=""wtp"" style=""text-align:center; margin-top: 0px; margin-bottom: 0px; font-size: 40px"";>&ensp;</p>","-","viewing","0","10","2C,16C,22B,28A","","","","","","","","","","","","","","","","","","","","","",""
"","","","","","html-slider-response","56","1246071","0.0-17.0-1.13","1431fec5-c2d2-481c-9eea-142efd404d61","1758","
                  <p style=""text-align: center;"">₪18
                                                <br>50%</p>
                  <p id=""wtp"" style=""text-align:center; margin-top: 0px; margin-bottom: 0px; font-size: 40px"";>מוכנים לשלם: <span id=""c_p_y""></span></p>","21","evaluation","1","10","2C,16C,22B,28A","50","18","21","","","","","","","","","","","","","","","","","","",""
"","","","","","html-keyboard-response","57","1246582","0.0-17.0-2.13","1431fec5-c2d2-481c-9eea-142efd404d61","null","<p style=""text-align: center;"">+</p>","null","fixation","","","","","","","","","","","","","","","","","","","","","","","","",""
"","","","","","html-slider-response","58","1247584","0.0-17.0-0.14","1431fec5-c2d2-481c-9eea-142efd404d61","1000","
                  <p style=""text-align: center;"">₪43
                                                <br>75%</p>
                  <p id=""wtp"" style=""text-align:center; margin-top: 0px; margin-bottom: 0px; font-size: 40px"";>&ensp;</p>","-","viewing","0","18","11B,19B,24A,26A","","","","","","","","","","","","","","","","","","","","","",""
"","","","","","html-slider-response","59","1250599","0.0-17.0-1.14","1431fec5-c2d2-481c-9eea-142efd404d61","3014","
                  <p style=""text-align: center;"">₪43
                                                <br>75%</p>
                  <p id=""wtp"" style=""text-align:center; margin-top: 0px; margin-bottom: 0px; font-size: 40px"";>מוכנים לשלם: <span id=""c_p_y""></span></p>","46","evaluation","52","18","11B,19B,24A,26A","75","43","46","","","","","","","","","","","","","","","","","","",""
"","","","","","html-keyboard-response","60","1251558","0.0-17.0-2.14","1431fec5-c2d2-481c-9eea-142efd404d61","null","<p style=""text-align: center;"">+</p>","null","fixation","","","","","","","","","","","","","","","","","","","","","","","","",""
"","","","","","html-slider-response","61","1252560","0.0-17.0-0.15","1431fec5-c2d2-481c-9eea-142efd404d61","1000","
                  <p style=""text-align: center;"">₪11
                                                <br>45%</p>
                  <p id=""wtp"" style=""text-align:center; margin-top: 0px; margin-bottom: 0px; font-size: 40px"";>&ensp;</p>","-","viewing","0","6","14B,21C,25C","","","","","","","","","","","","","","","","","","","","","",""
"","","","","","html-slider-response","62","1254719","0.0-17.0-1.15","1431fec5-c2d2-481c-9eea-142efd404d61","2158","
                  <p style=""text-align: center;"">₪11
                                                <br>45%</p>
                  <p id=""wtp"" style=""text-align:center; margin-top: 0px; margin-bottom: 0px; font-size: 40px"";>מוכנים לשלם: <span id=""c_p_y""></span></p>","8","evaluation","52","6","14B,21C,25C","45","11","8","","","","","","","","","","","","","","","","","","",""
"","","","","","html-keyboard-response","63","1255328","0.0-17.0-2.15","1431fec5-c2d2-481c-9eea-142efd404d61","null","<p style=""text-align: center;"">+</p>","null","fixation","","","","","","","","","","","","","","","","","","","","","","","","",""
"","","","","","html-slider-response","64","1256335","0.0-17.0-0.16","1431fec5-c2d2-481c-9eea-142efd404d61","1000","
                  <p style=""text-align: center;"">₪39
                                                <br>65%</p>
                  <p id=""wtp"" style=""text-align:center; margin-top: 0px; margin-bottom: 0px; font-size: 40px"";>&ensp;</p>","-","viewing","0","16","1A,15A,26C","","","","","","","","","","","","","","","","","","","","","",""
"","","","","","html-slider-response","65","1259991","0.0-17.0-1.16","1431fec5-c2d2-481c-9eea-142efd404d61","3655","
                  <p style=""text-align: center;"">₪39
                                                <br>65%</p>
                  <p id=""wtp"" style=""text-align:center; margin-top: 0px; margin-bottom: 0px; font-size: 40px"";>מוכנים לשלם: <span id=""c_p_y""></span></p>","39","evaluation","32","16","1A,15A,26C","65","39","39","","","","","","","","","","","","","","","","","","",""
"","","","","","html-keyboard-response","66","1260963","0.0-17.0-2.16","1431fec5-c2d2-481c-9eea-142efd404d61","null","<p style=""text-align: center;"">+</p>","null","fixation","","","","","","","","","","","","","","","","","","","","","","","","",""
"","","","","","html-slider-response","67","1261964","0.0-17.0-0.17","1431fec5-c2d2-481c-9eea-142efd404d61","1000","
                  <p style=""text-align: center;"">₪4
                                                <br>50%</p>
                  <p id=""wtp"" style=""text-align:center; margin-top: 0px; margin-bottom: 0px; font-size: 40px"";>&ensp;</p>","-","viewing","0","2","4C,17B","","","","","","","","","","","","","","","","","","","","","",""
"","","","","","html-slider-response","68","1263319","0.0-17.0-1.17","1431fec5-c2d2-481c-9eea-142efd404d61","1353","
                  <p style=""text-align: center;"">₪4
                                                <br>50%</p>
                  <p id=""wtp"" style=""text-align:center; margin-top: 0px; margin-bottom: 0px; font-size: 40px"";>מוכנים לשלם: <span id=""c_p_y""></span></p>","2","evaluation","32","2","4C,17B","50","4","3","","","","","","","","","","","","","","","","","","",""
"","","","","","html-keyboard-response","69","1263883","0.0-17.0-2.17","1431fec5-c2d2-481c-9eea-142efd404d61","null","<p style=""text-align: center;"">+</p>","null","fixation","","","","","","","","","","","","","","","","","","","","","","","","",""
"","","","","","html-slider-response","70","1264893","0.0-17.0-0.18","1431fec5-c2d2-481c-9eea-142efd404d61","1000","
                  <p style=""text-align: center;"">₪43
                                                <br>60%</p>
                  <p id=""wtp"" style=""text-align:center; margin-top: 0px; margin-bottom: 0px; font-size: 40px"";>&ensp;</p>","-","viewing","0","17","2A,7A,9A,15B","","","","","","","","","","","","","","","","","","","","","",""
"","","","","","html-slider-response","71","1267127","0.0-17.0-1.18","1431fec5-c2d2-481c-9eea-142efd404d61","2233","
                  <p style=""text-align: center;"">₪43
                                                <br>60%</p>
                  <p id=""wtp"" style=""text-align:center; margin-top: 0px; margin-bottom: 0px; font-size: 40px"";>מוכנים לשלם: <span id=""c_p_y""></span></p>","43","evaluation","66","17","2A,7A,9A,15B","60","43","43","","","","","","","","","","","","","","","","","","",""
"","","","","","html-keyboard-response","72","1268367","0.0-17.0-2.18","1431fec5-c2d2-481c-9eea-142efd404d61","null","<p style=""text-align: center;"">+</p>","null","fixation","","","","","","","","","","","","","","","","","","","","","","","","",""
"","","","","","html-slider-response","73","1269379","0.0-17.0-0.19","1431fec5-c2d2-481c-9eea-142efd404d61","1000","
                  <p style=""text-align: center;"">₪58
                                                <br>30%</p>
                  <p id=""wtp"" style=""text-align:center; margin-top: 0px; margin-bottom: 0px; font-size: 40px"";>&ensp;</p>","-","viewing","0","19","13C,30A","","","","","","","","","","","","","","","","","","","","","",""
"","","","","","html-slider-response","74","1270911","0.0-17.0-1.19","1431fec5-c2d2-481c-9eea-142efd404d61","1531","
                  <p style=""text-align: center;"">₪58
                                                <br>30%</p>
                  <p id=""wtp"" style=""text-align:center; margin-top: 0px; margin-bottom: 0px; font-size: 40px"";>מוכנים לשלם: <span id=""c_p_y""></span></p>","32","evaluation","17","19","13C,30A","30","58","32","","","","","","","","","","","","","","","","","","",""
"","","","","","html-keyboard-response","75","1272084","0.0-17.0-2.19","1431fec5-c2d2-481c-9eea-142efd404d61","null","<p style=""text-align: center;"">+</p>","null","fixation","","","","","","","","","","","","","","","","","","","","","","","","",""
"","","","","","html-slider-response","76","1273086","0.0-17.0-0.20","1431fec5-c2d2-481c-9eea-142efd404d61","1000","
                  <p style=""text-align: center;"">₪36
                                                <br>30%</p>
                  <p id=""wtp"" style=""text-align:center; margin-top: 0px; margin-bottom: 0px; font-size: 40px"";>&ensp;</p>","-","viewing","0","11","3C,20A,22A","","","","","","","","","","","","","","","","","","","","","",""
"","","","","","html-slider-response","77","1273967","0.0-17.0-1.20","1431fec5-c2d2-481c-9eea-142efd404d61","879","
                  <p style=""text-align: center;"">₪36
                                                <br>30%</p>
                  <p id=""wtp"" style=""text-align:center; margin-top: 0px; margin-bottom: 0px; font-size: 40px"";>מוכנים לשלם: <span id=""c_p_y""></span></p>","21","evaluation","58","11","3C,20A,22A","30","36","21","","","","","","","","","","","","","","","","","","",""
"","","","","","html-keyboard-response","78","1275227","0.0-17.0-2.20","1431fec5-c2d2-481c-9eea-142efd404d61","null","<p style=""text-align: center;"">+</p>","null","fixation","","","","","","","","","","","","","","","","","","","","","","","","",""
"","","","","","html-slider-response","79","1276232","0.0-17.0-0.21","1431fec5-c2d2-481c-9eea-142efd404d61","1000","
                  <p style=""text-align: center;"">₪58
                                                <br>40%</p>
                  <p id=""wtp"" style=""text-align:center; margin-top: 0px; margin-bottom: 0px; font-size: 40px"";>&ensp;</p>","-","viewing","0","20","10C,13A,19C,21B","","","","","","","","","","","","","","","","","","","","","",""
"","","","","","html-slider-response","80","1279679","0.0-17.0-1.21","1431fec5-c2d2-481c-9eea-142efd404d61","3446","
                  <p style=""text-align: center;"">₪58
                                                <br>40%</p>
                  <p id=""wtp"" style=""text-align:center; margin-top: 0px; margin-bottom: 0px; font-size: 40px"";>מוכנים לשלם: <span id=""c_p_y""></span></p>","40","evaluation","35","20","10C,13A,19C,21B","40","58","40","","","","","","","","","","","","","","","","","","",""
"","","","","","html-keyboard-response","81","1280451","0.0-17.0-2.21","1431fec5-c2d2-481c-9eea-142efd404d61","null","<p style=""text-align: center;"">+</p>","null","fixation","","","","","","","","","","","","","","","","","","","","","","","","",""
"","","","","","html-slider-response","82","1281466","0.0-17.0-0.22","1431fec5-c2d2-481c-9eea-142efd404d61","1000","
                  <p style=""text-align: center;"">₪61
                                                <br>55%</p>
                  <p id=""wtp"" style=""text-align:center; margin-top: 0px; margin-bottom: 0px; font-size: 40px"";>&ensp;</p>","-","viewing","0","23","7B,26B","","","","","","","","","","","","","","","","","","","","","",""
"","","","","","html-slider-response","83","1283775","0.0-17.0-1.22","1431fec5-c2d2-481c-9eea-142efd404d61","2307","
                  <p style=""text-align: center;"">₪61
                                                <br>55%</p>
                  <p id=""wtp"" style=""text-align:center; margin-top: 0px; margin-bottom: 0px; font-size: 40px"";>מוכנים לשלם: <span id=""c_p_y""></span></p>","55","evaluation","78","23","7B,26B","55","61","55","","","","","","","","","","","","","","","","","","",""
"","","","","","html-keyboard-response","84","1284681","0.0-17.0-2.22","1431fec5-c2d2-481c-9eea-142efd404d61","null","<p style=""text-align: center;"">+</p>","null","fixation","","","","","","","","","","","","","","","","","","","","","","","","",""
"","","","","","html-slider-response","85","1285695","0.0-17.0-0.23","1431fec5-c2d2-481c-9eea-142efd404d61","1000","
                  <p style=""text-align: center;"">₪11
                                                <br>20%</p>
                  <p id=""wtp"" style=""text-align:center; margin-top: 0px; margin-bottom: 0px; font-size: 40px"";>&ensp;</p>","-","viewing","0","4","12C,17C,23C,28C","","","","","","","","","","","","","","","","","","","","","",""
"","","","","","html-slider-response","86","1287038","0.0-17.0-1.23","1431fec5-c2d2-481c-9eea-142efd404d61","1342","
                  <p style=""text-align: center;"">₪11
                                                <br>20%</p>
                  <p id=""wtp"" style=""text-align:center; margin-top: 0px; margin-bottom: 0px; font-size: 40px"";>מוכנים לשלם: <span id=""c_p_y""></span></p>","5","evaluation","51","4","12C,17C,23C,28C","20","11","5","","","","","","","","","","","","","","","","","","",""
"","","","","","html-keyboard-response","87","1287685","0.0-17.0-2.23","1431fec5-c2d2-481c-9eea-142efd404d61","null","<p style=""text-align: center;"">+</p>","null","fixation","","","","","","","","","","","","","","","","","","","","","","","","",""
"","","","","","html-slider-response","88","1288687","0.0-17.0-0.24","1431fec5-c2d2-481c-9eea-142efd404d61","1000","
                  <p style=""text-align: center;"">₪64
                                                <br>25%</p>
                  <p id=""wtp"" style=""text-align:center; margin-top: 0px; margin-bottom: 0px; font-size: 40px"";>&ensp;</p>","-","viewing","0","24","6A,21A","","","","","","","","","","","","","","","","","","","","","",""
"","","","","","html-slider-response","89","1290783","0.0-17.0-1.24","1431fec5-c2d2-481c-9eea-142efd404d61","2094","
                  <p style=""text-align: center;"">₪64
                                                <br>25%</p>
                  <p id=""wtp"" style=""text-align:center; margin-top: 0px; margin-bottom: 0px; font-size: 40px"";>מוכנים לשלם: <span id=""c_p_y""></span></p>","54","evaluation","46","24","6A,21A","25","64","54","","","","","","","","","","","","","","","","","","",""
"","","","","","html-keyboard-response","90","1292089","0.0-17.0-2.24","1431fec5-c2d2-481c-9eea-142efd404d61","null","<p style=""text-align: center;"">+</p>","null","fixation","","","","","","","","","","","","","","","","","","","","","","","","",""
"","","","","","html-slider-response","91","1293091","0.0-17.0-0.25","1431fec5-c2d2-481c-9eea-142efd404d61","1000","
                  <p style=""text-align: center;"">₪36
                                                <br>70%</p>
                  <p id=""wtp"" style=""text-align:center; margin-top: 0px; margin-bottom: 0px; font-size: 40px"";>&ensp;</p>","-","viewing","0","13","3A,5C,10B","","","","","","","","","","","","","","","","","","","","","",""
"","","","","","html-slider-response","92","1294326","0.0-17.0-1.25","1431fec5-c2d2-481c-9eea-142efd404d61","1234","
                  <p style=""text-align: center;"">₪36
                                                <br>70%</p>
                  <p id=""wtp"" style=""text-align:center; margin-top: 0px; margin-bottom: 0px; font-size: 40px"";>מוכנים לשלם: <span id=""c_p_y""></span></p>","19","evaluation","26","13","3A,5C,10B","70","36","19","","","","","","","","","","","","","","","","","","",""
"","","","","","html-keyboard-response","93","1295238","0.0-17.0-2.25","1431fec5-c2d2-481c-9eea-142efd404d61","null","<p style=""text-align: center;"">+</p>","null","fixation","","","","","","","","","","","","","","","","","","","","","","","","",""
"","","","","","html-slider-response","94","1296240","0.0-17.0-0.26","1431fec5-c2d2-481c-9eea-142efd404d61","1000","
                  <p style=""text-align: center;"">₪16
                                                <br>20%</p>
                  <p id=""wtp"" style=""text-align:center; margin-top: 0px; margin-bottom: 0px; font-size: 40px"";>&ensp;</p>","-","viewing","0","8","14C,17A,20C,27A","","","","","","","","","","","","","","","","","","","","","",""
"","","","","","html-slider-response","95","1299943","0.0-17.0-1.26","1431fec5-c2d2-481c-9eea-142efd404d61","3701","
                  <p style=""text-align: center;"">₪16
                                                <br>20%</p>
                  <p id=""wtp"" style=""text-align:center; margin-top: 0px; margin-bottom: 0px; font-size: 40px"";>מוכנים לשלם: <span id=""c_p_y""></span></p>","10","evaluation","49","8","14C,17A,20C,27A","20","16","11","","","","","","","","","","","","","","","","","","",""
"","","","","","html-keyboard-response","96","1300655","0.0-17.0-2.26","1431fec5-c2d2-481c-9eea-142efd404d61","null","<p style=""text-align: center;"">+</p>","null","fixation","","","","","","","","","","","","","","","","","","","","","","","","",""
"","","","","","html-slider-response","97","1301658","0.0-17.0-0.27","1431fec5-c2d2-481c-9eea-142efd404d61","1000","
                  <p style=""text-align: center;"">₪79
                                                <br>40%</p>
                  <p id=""wtp"" style=""text-align:center; margin-top: 0px; margin-bottom: 0px; font-size: 40px"";>&ensp;</p>","-","viewing","0","30","9B","","","","","","","","","","","","","","","","","","","","","",""
"","","","","","html-slider-response","98","1304663","0.0-17.0-1.27","1431fec5-c2d2-481c-9eea-142efd404d61","3004","
                  <p style=""text-align: center;"">₪79
                                                <br>40%</p>
                  <p id=""wtp"" style=""text-align:center; margin-top: 0px; margin-bottom: 0px; font-size: 40px"";>מוכנים לשלם: <span id=""c_p_y""></span></p>","60","evaluation","26","30","9B","40","79","60","","","","","","","","","","","","","","","","","","",""
"","","","","","html-keyboard-response","99","1305958","0.0-17.0-2.27","1431fec5-c2d2-481c-9eea-142efd404d61","null","<p style=""text-align: center;"">+</p>","null","fixation","","","","","","","","","","","","","","","","","","","","","","","","",""
"","","","","","html-slider-response","100","1306964","0.0-17.0-0.28","1431fec5-c2d2-481c-9eea-142efd404d61","1000","
                  <p style=""text-align: center;"">₪61
                                                <br>45%</p>
                  <p id=""wtp"" style=""text-align:center; margin-top: 0px; margin-bottom: 0px; font-size: 40px"";>&ensp;</p>","-","viewing","0","22","10A,11A","","","","","","","","","","","","","","","","","","","","","",""
"","","","","","html-slider-response","101","1309719","0.0-17.0-1.28","1431fec5-c2d2-481c-9eea-142efd404d61","2754","
                  <p style=""text-align: center;"">₪61
                                                <br>45%</p>
                  <p id=""wtp"" style=""text-align:center; margin-top: 0px; margin-bottom: 0px; font-size: 40px"";>מוכנים לשלם: <span id=""c_p_y""></span></p>","50","evaluation","66","22","10A,11A","45","61","50","","","","","","","","","","","","","","","","","","",""
"","","","","","html-keyboard-response","102","1310915","0.0-17.0-2.28","1431fec5-c2d2-481c-9eea-142efd404d61","null","<p style=""text-align: center;"">+</p>","null","fixation","","","","","","","","","","","","","","","","","","","","","","","","",""
"","","","","","html-slider-response","103","1311929","0.0-17.0-0.29","1431fec5-c2d2-481c-9eea-142efd404d61","1000","
                  <p style=""text-align: center;"">₪36
                                                <br>75%</p>
                  <p id=""wtp"" style=""text-align:center; margin-top: 0px; margin-bottom: 0px; font-size: 40px"";>&ensp;</p>","-","viewing","0","14","4B,5A,13B,16B","","","","","","","","","","","","","","","","","","","","","",""
"","","","","","html-slider-response","104","1313751","0.0-17.0-1.29","1431fec5-c2d2-481c-9eea-142efd404d61","1821","
                  <p style=""text-align: center;"">₪36
                                                <br>75%</p>
                  <p id=""wtp"" style=""text-align:center; margin-top: 0px; margin-bottom: 0px; font-size: 40px"";>מוכנים לשלם: <span id=""c_p_y""></span></p>","20","evaluation","30","14","4B,5A,13B,16B","75","36","20","","","","","","","","","","","","","","","","","","",""
"","","","","","html-keyboard-response","105","1314854","0.0-17.0-2.29","1431fec5-c2d2-481c-9eea-142efd404d61","null","<p style=""text-align: center;"">+</p>","null","fixation","","","","","","","","","","","","","","","","","","","","","","","","",""
"","","","","","html-slider-response","106","1315856","0.0-17.0-0.30","1431fec5-c2d2-481c-9eea-142efd404d61","1000","
                  <p style=""text-align: center;"">₪64
                                                <br>50%</p>
                  <p id=""wtp"" style=""text-align:center; margin-top: 0px; margin-bottom: 0px; font-size: 40px"";>&ensp;</p>","-","viewing","0","25","1B,3B,4A","","","","","","","","","","","","","","","","","","","","","",""
"","","","","","html-slider-response","107","1318367","0.0-17.0-1.30","1431fec5-c2d2-481c-9eea-142efd404d61","2510","
                  <p style=""text-align: center;"">₪64
                                                <br>50%</p>
                  <p id=""wtp"" style=""text-align:center; margin-top: 0px; margin-bottom: 0px; font-size: 40px"";>מוכנים לשלם: <span id=""c_p_y""></span></p>","56","evaluation","66","25","1B,3B,4A","50","64","56","","","","","","","","","","","","","","","","","","",""
"","","","","","html-keyboard-response","108","1319355","0.0-17.0-2.30","1431fec5-c2d2-481c-9eea-142efd404d61","null","<p style=""text-align: center;"">+</p>","null","fixation","","","","","","","","","","","","","","","","","","","","","","","","",""
"","","","","","html-keyboard-response","109","1320367","0.0-18.0","1431fec5-c2d2-481c-9eea-142efd404d61","null","<p style=""text-align: center;"">+</p>","null","fixation","","","","","","","","","","","","","","","","","","","","","","","","",""
"","","","","","html-keyboard-response","110","1321239","0.0-19.0","1431fec5-c2d2-481c-9eea-142efd404d61","null","<p>הפסקה.
          <br>לחצו כדי להמשיך.</p>","1","scan_wait","","","","","","","","","","","","","","","","","","","","","","","","",""
"","","","","","html-keyboard-response","111","1322252","0.0-20.0","1431fec5-c2d2-481c-9eea-142efd404d61","null","<p style=""text-align: center;"">+</p>","null","fixation","","","","","","","","","","","","","","","","","","","","","","","","",""
"","","","","","html-slider-response","112","1323255","0.0-21.0-0.0","1431fec5-c2d2-481c-9eea-142efd404d61","1000","
                  <p style=""text-align: center;"">₪71
                                                <br>75%</p>
                  <p id=""wtp"" style=""text-align:center; margin-top: 0px; margin-bottom: 0px; font-size: 40px"";>&ensp;</p>","-","viewing","0","28","8B","","","","","","","","","","","","","","","","","","","","","",""
"","","","","","html-slider-response","113","1327271","0.0-21.0-1.0","1431fec5-c2d2-481c-9eea-142efd404d61","null","
                  <p style=""text-align: center;"">₪71
                                                <br>75%</p>
                  <p id=""wtp"" style=""text-align:center; margin-top: 0px; margin-bottom: 0px; font-size: 40px"";>מוכנים לשלם: <span id=""c_p_y""></span></p>","null","evaluation","17","28","8B","75","71","60","","","","","","","","","","","","","","","","","","",""
"","","","","","html-keyboard-response","114","1328778","0.0-21.0-2.0","1431fec5-c2d2-481c-9eea-142efd404d61","null","<p style=""text-align: center;"">+</p>","null","fixation","","","","","","","","","","","","","","","","","","","","","","","","",""
"","","","","","html-slider-response","115","1329780","0.0-21.0-0.1","1431fec5-c2d2-481c-9eea-142efd404d61","1000","
                  <p style=""text-align: center;"">₪43
                                                <br>60%</p>
                  <p id=""wtp"" style=""text-align:center; margin-top: 0px; margin-bottom: 0px; font-size: 40px"";>&ensp;</p>","-","viewing","0","17","2A,7A,9A,15B","","","","","","","","","","","","","","","","","","","","","",""
"","","","","","html-slider-response","116","1331311","0.0-21.0-1.1","1431fec5-c2d2-481c-9eea-142efd404d61","1530","
                  <p style=""text-align: center;"">₪43
                                                <br>60%</p>
                  <p id=""wtp"" style=""text-align:center; margin-top: 0px; margin-bottom: 0px; font-size: 40px"";>מוכנים לשלם: <span id=""c_p_y""></span></p>","39","evaluation","79","17","2A,7A,9A,15B","60","43","39","","","","","","","","","","","","","","","","","","",""
"","","","","","html-keyboard-response","117","1332019","0.0-21.0-2.1","1431fec5-c2d2-481c-9eea-142efd404d61","null","<p style=""text-align: center;"">+</p>","null","fixation","","","","","","","","","","","","","","","","","","","","","","","","",""
"","","","","","html-slider-response","118","1333023","0.0-21.0-0.2","1431fec5-c2d2-481c-9eea-142efd404d61","1000","
                  <p style=""text-align: center;"">₪79
                                                <br>40%</p>
                  <p id=""wtp"" style=""text-align:center; margin-top: 0px; margin-bottom: 0px; font-size: 40px"";>&ensp;</p>","-","viewing","0","30","9B","","","","","","","","","","","","","","","","","","","","","",""
"","","","","","html-slider-response","119","1334983","0.0-21.0-1.2","1431fec5-c2d2-481c-9eea-142efd404d61","1959","
                  <p style=""text-align: center;"">₪79
                                                <br>40%</p>
                  <p id=""wtp"" style=""text-align:center; margin-top: 0px; margin-bottom: 0px; font-size: 40px"";>מוכנים לשלם: <span id=""c_p_y""></span></p>","53","evaluation","50","30","9B","40","79","53","","","","","","","","","","","","","","","","","","",""
"","","","","","html-keyboard-response","120","1336016","0.0-21.0-2.2","1431fec5-c2d2-481c-9eea-142efd404d61","null","<p style=""text-align: center;"">+</p>","null","fixation","","","","","","","","","","","","","","","","","","","","","","","","",""
"","","","","","html-slider-response","121","1337027","0.0-21.0-0.3","1431fec5-c2d2-481c-9eea-142efd404d61","1000","
                  <p style=""text-align: center;"">₪64
                                                <br>25%</p>
                  <p id=""wtp"" style=""text-align:center; margin-top: 0px; margin-bottom: 0px; font-size: 40px"";>&ensp;</p>","-","viewing","0","24","6A,21A","","","","","","","","","","","","","","","","","","","","","",""
"","","","","","html-slider-response","122","1340367","0.0-21.0-1.3","1431fec5-c2d2-481c-9eea-142efd404d61","3339","
                  <p style=""text-align: center;"">₪64
                                                <br>25%</p>
                  <p id=""wtp"" style=""text-align:center; margin-top: 0px; margin-bottom: 0px; font-size: 40px"";>מוכנים לשלם: <span id=""c_p_y""></span></p>","41","evaluation","2","24","6A,21A","25","64","41","","","","","","","","","","","","","","","","","","",""
"","","","","","html-keyboard-response","123","1341702","0.0-21.0-2.3","1431fec5-c2d2-481c-9eea-142efd404d61","null","<p style=""text-align: center;"">+</p>","null","fixation","","","","","","","","","","","","","","","","","","","","","","","","",""
"","","","","","html-slider-response","124","1342710","0.0-21.0-0.4","1431fec5-c2d2-481c-9eea-142efd404d61","1000","
                  <p style=""text-align: center;"">₪18
                                                <br>50%</p>
                  <p id=""wtp"" style=""text-align:center; margin-top: 0px; margin-bottom: 0px; font-size: 40px"";>&ensp;</p>","-","viewing","0","10","2C,16C,22B,28A","","","","","","","","","","","","","","","","","","","","","",""
"","","","","","html-slider-response","125","1344398","0.0-21.0-1.4","1431fec5-c2d2-481c-9eea-142efd404d61","1688","
                  <p style=""text-align: center;"">₪18
                                                <br>50%</p>
                  <p id=""wtp"" style=""text-align:center; margin-top: 0px; margin-bottom: 0px; font-size: 40px"";>מוכנים לשלם: <span id=""c_p_y""></span></p>","8","evaluation","47","10","2C,16C,22B,28A","50","18","9","","","","","","","","","","","","","","","","","","",""
"","","","","","html-keyboard-response","126","1345674","0.0-21.0-2.4","1431fec5-c2d2-481c-9eea-142efd404d61","null","<p style=""text-align: center;"">+</p>","null","fixation","","","","","","","","","","","","","","","","","","","","","","","","",""
"","","","","","html-slider-response","127","1346680","0.0-21.0-0.5","1431fec5-c2d2-481c-9eea-142efd404d61","1000","
                  <p style=""text-align: center;"">₪58
                                                <br>30%</p>
                  <p id=""wtp"" style=""text-align:center; margin-top: 0px; margin-bottom: 0px; font-size: 40px"";>&ensp;</p>","-","viewing","0","19","13C,30A","","","","","","","","","","","","","","","","","","","","","",""
"","","","","","html-slider-response","128","1348006","0.0-21.0-1.5","1431fec5-c2d2-481c-9eea-142efd404d61","1325","
                  <p style=""text-align: center;"">₪58
                                                <br>30%</p>
                  <p id=""wtp"" style=""text-align:center; margin-top: 0px; margin-bottom: 0px; font-size: 40px"";>מוכנים לשלם: <span id=""c_p_y""></span></p>","23","evaluation","2","19","13C,30A","30","58","23","","","","","","","","","","","","","","","","","","",""
"","","","","","html-keyboard-response","129","1349375","0.0-21.0-2.5","1431fec5-c2d2-481c-9eea-142efd404d61","null","<p style=""text-align: center;"">+</p>","null","fixation","","","","","","","","","","","","","","","","","","","","","","","","",""
"","","","","","html-slider-response","130","1350383","0.0-21.0-0.6","1431fec5-c2d2-481c-9eea-142efd404d61","1000","
                  <p style=""text-align: center;"">₪18
                                                <br>25%</p>
                  <p id=""wtp"" style=""text-align:center; margin-top: 0px; margin-bottom: 0px; font-size: 40px"";>&ensp;</p>","-","viewing","0","9","14A,23A","","","","","","","","","","","","","","","","","","","","","",""
"","","","","","html-slider-response","131","1353230","0.0-21.0-1.6","1431fec5-c2d2-481c-9eea-142efd404d61","2846","
                  <p style=""text-align: center;"">₪18
                                                <br>25%</p>
                  <p id=""wtp"" style=""text-align:center; margin-top: 0px; margin-bottom: 0px; font-size: 40px"";>מוכנים לשלם: <span id=""c_p_y""></span></p>","11","evaluation","20","9","14A,23A","25","18","11","","","","","","","","","","","","","","","","","","",""
"","","","","","html-keyboard-response","132","1353975","0.0-21.0-2.6","1431fec5-c2d2-481c-9eea-142efd404d61","null","<p style=""text-align: center;"">+</p>","null","fixation","","","","","","","","","","","","","","","","","","","","","","","","",""
"","","","","","html-slider-response","133","1354989","0.0-21.0-0.7","1431fec5-c2d2-481c-9eea-142efd404d61","1000","
                  <p style=""text-align: center;"">₪36
                                                <br>60%</p>
                  <p id=""wtp"" style=""text-align:center; margin-top: 0px; margin-bottom: 0px; font-size: 40px"";>&ensp;</p>","-","viewing","0","12","1C,7C,15C","","","","","","","","","","","","","","","","","","","","","",""
"","","","","","html-slider-response","134","1357782","0.0-21.0-1.7","1431fec5-c2d2-481c-9eea-142efd404d61","2793","
                  <p style=""text-align: center;"">₪36
                                                <br>60%</p>
                  <p id=""wtp"" style=""text-align:center; margin-top: 0px; margin-bottom: 0px; font-size: 40px"";>מוכנים לשלם: <span id=""c_p_y""></span></p>","20","evaluation","50","12","1C,7C,15C","60","36","20","","","","","","","","","","","","","","","","","","",""
"","","","","","html-keyboard-response","135","1358371","0.0-21.0-2.7","1431fec5-c2d2-481c-9eea-142efd404d61","null","<p style=""text-align: center;"">+</p>","null","fixation","","","","","","","","","","","","","","","","","","","","","","","","",""
"","","","","","html-slider-response","136","1359373","0.0-21.0-0.8","1431fec5-c2d2-481c-9eea-142efd404d61","1000","
                  <p style=""text-align: center;"">₪76
                                                <br>65%</p>
                  <p id=""wtp"" style=""text-align:center; margin-top: 0px; margin-bottom: 0px; font-size: 40px"";>&ensp;</p>","-","viewing","0","29","8C,19A,24B","","","","","","","","","","","","","","","","","","","","","",""
"","","","","","html-slider-response","137","1361318","0.0-21.0-1.8","1431fec5-c2d2-481c-9eea-142efd404d61","1944","
                  <p style=""text-align: center;"">₪76
                                                <br>65%</p>
                  <p id=""wtp"" style=""text-align:center; margin-top: 0px; margin-bottom: 0px; font-size: 40px"";>מוכנים לשלם: <span id=""c_p_y""></span></p>","75","evaluation","75","29","8C,19A,24B","65","76","74","","","","","","","","","","","","","","","","","","",""
"","","","","","html-keyboard-response","138","1362001","0.0-21.0-2.8","1431fec5-c2d2-481c-9eea-142efd404d61","null","<p style=""text-align: center;"">+</p>","null","fixation","","","","","","","","","","","","","","","","","","","","","","","","",""
"","","","","","html-slider-response","139","1363004","0.0-21.0-0.9","1431fec5-c2d2-481c-9eea-142efd404d61","1000","
                  <p style=""text-align: center;"">₪36
                                                <br>75%</p>
                  <p id=""wtp"" style=""text-align:center; margin-top: 0px; margin-bottom: 0px; font-size: 40px"";>&ensp;</p>","-","viewing","0","14","4B,5A,13B,16B","","","","","","","","","","","","","","","","","","","","","",""
"","","","","","html-slider-response","140","1365678","0.0-21.0-1.9","1431fec5-c2d2-481c-9eea-142efd404d61","2673","
                  <p style=""text-align: center;"">₪36
                                                <br>75%</p>
                  <p id=""wtp"" style=""text-align:center; margin-top: 0px; margin-bottom: 0px; font-size: 40px"";>מוכנים לשלם: <span id=""c_p_y""></span></p>","32","evaluation","65","14","4B,5A,13B,16B","75","36","32","","","","","","","","","","","","","","","","","","",""
"","","","","","html-keyboard-response","141","1366720","0.0-21.0-2.9","1431fec5-c2d2-481c-9eea-142efd404d61","null","<p style=""text-align: center;"">+</p>","null","fixation","","","","","","","","","","","","","","","","","","","","","","","","",""
"","","","","","html-slider-response","142","1367721","0.0-21.0-0.10","1431fec5-c2d2-481c-9eea-142efd404d61","1000","
                  <p style=""text-align: center;"">₪11
                                                <br>20%</p>
                  <p id=""wtp"" style=""text-align:center; margin-top: 0px; margin-bottom: 0px; font-size: 40px"";>&ensp;</p>","-","viewing","0","4","12C,17C,23C,28C","","","","","","","","","","","","","","","","","","","","","",""
"","","","","","html-slider-response","143","1368966","0.0-21.0-1.10","1431fec5-c2d2-481c-9eea-142efd404d61","1244","
                  <p style=""text-align: center;"">₪11
                                                <br>20%</p>
                  <p id=""wtp"" style=""text-align:center; margin-top: 0px; margin-bottom: 0px; font-size: 40px"";>מוכנים לשלם: <span id=""c_p_y""></span></p>","2","evaluation","2","4","12C,17C,23C,28C","20","11","2","","","","","","","","","","","","","","","","","","",""
"","","","","","html-keyboard-response","144","1369873","0.0-21.0-2.10","1431fec5-c2d2-481c-9eea-142efd404d61","null","<p style=""text-align: center;"">+</p>","null","fixation","","","","","","","","","","","","","","","","","","","","","","","","",""
"","","","","","html-slider-response","145","1370876","0.0-21.0-0.11","1431fec5-c2d2-481c-9eea-142efd404d61","1000","
                  <p style=""text-align: center;"">₪4
                                                <br>75%</p>
                  <p id=""wtp"" style=""text-align:center; margin-top: 0px; margin-bottom: 0px; font-size: 40px"";>&ensp;</p>","-","viewing","0","3","12B,20B,23B,27C,29C","","","","","","","","","","","","","","","","","","","","","",""
"","","","","","html-slider-response","146","1372542","0.0-21.0-1.11","1431fec5-c2d2-481c-9eea-142efd404d61","1666","
                  <p style=""text-align: center;"">₪4
                                                <br>75%</p>
                  <p id=""wtp"" style=""text-align:center; margin-top: 0px; margin-bottom: 0px; font-size: 40px"";>מוכנים לשלם: <span id=""c_p_y""></span></p>","1","evaluation","73","3","12B,20B,23B,27C,29C","75","4","1","","","","","","","","","","","","","","","","","","",""
"","","","","","html-keyboard-response","147","1374035","0.0-21.0-2.11","1431fec5-c2d2-481c-9eea-142efd404d61","null","<p style=""text-align: center;"">+</p>","null","fixation","","","","","","","","","","","","","","","","","","","","","","","","",""
"","","","","","html-slider-response","148","1375043","0.0-21.0-0.12","1431fec5-c2d2-481c-9eea-142efd404d61","1000","
                  <p style=""text-align: center;"">₪39
                                                <br>65%</p>
                  <p id=""wtp"" style=""text-align:center; margin-top: 0px; margin-bottom: 0px; font-size: 40px"";>&ensp;</p>","-","viewing","0","16","1A,15A,26C","","","","","","","","","","","","","","","","","","","","","",""
"","","","","","html-slider-response","149","1377406","0.0-21.0-1.12","1431fec5-c2d2-481c-9eea-142efd404d61","2363","
                  <p style=""text-align: center;"">₪39
                                                <br>65%</p>
                  <p id=""wtp"" style=""text-align:center; margin-top: 0px; margin-bottom: 0px; font-size: 40px"";>מוכנים לשלם: <span id=""c_p_y""></span></p>","31","evaluation","44","16","1A,15A,26C","65","39","31","","","","","","","","","","","","","","","","","","",""
"","","","","","html-keyboard-response","150","1378834","0.0-21.0-2.12","1431fec5-c2d2-481c-9eea-142efd404d61","null","<p style=""text-align: center;"">+</p>","null","fixation","","","","","","","","","","","","","","","","","","","","","","","","",""
"","","","","","html-slider-response","151","1379836","0.0-21.0-0.13","1431fec5-c2d2-481c-9eea-142efd404d61","1000","
                  <p style=""text-align: center;"">₪11
                                                <br>45%</p>
                  <p id=""wtp"" style=""text-align:center; margin-top: 0px; margin-bottom: 0px; font-size: 40px"";>&ensp;</p>","-","viewing","0","6","14B,21C,25C","","","","","","","","","","","","","","","","","","","","","",""
"","","","","","html-slider-response","152","1381671","0.0-21.0-1.13","1431fec5-c2d2-481c-9eea-142efd404d61","1834","
                  <p style=""text-align: center;"">₪11
                                                <br>45%</p>
                  <p id=""wtp"" style=""text-align:center; margin-top: 0px; margin-bottom: 0px; font-size: 40px"";>מוכנים לשלם: <span id=""c_p_y""></span></p>","3","evaluation","4","6","14B,21C,25C","45","11","4","","","","","","","","","","","","","","","","","","",""
"","","","","","html-keyboard-response","153","1383154","0.0-21.0-2.13","1431fec5-c2d2-481c-9eea-142efd404d61","null","<p style=""text-align: center;"">+</p>","null","fixation","","","","","","","","","","","","","","","","","","","","","","","","",""
"","","","","","html-slider-response","154","1384165","0.0-21.0-0.14","1431fec5-c2d2-481c-9eea-142efd404d61","1000","
                  <p style=""text-align: center;"">₪71
                                                <br>45%</p>
                  <p id=""wtp"" style=""text-align:center; margin-top: 0px; margin-bottom: 0px; font-size: 40px"";>&ensp;</p>","-","viewing","0","26","2B,16A","","","","","","","","","","","","","","","","","","","","","",""
"","","","","","html-slider-response","155","1387990","0.0-21.0-1.14","1431fec5-c2d2-481c-9eea-142efd404d61","3825","
                  <p style=""text-align: center;"">₪71
                                                <br>45%</p>
                  <p id=""wtp"" style=""text-align:center; margin-top: 0px; margin-bottom: 0px; font-size: 40px"";>מוכנים לשלם: <span id=""c_p_y""></span></p>","60","evaluation","50","26","2B,16A","45","71","60","","","","","","","","","","","","","","","","","","",""
"","","","","","html-keyboard-response","156","1388604","0.0-21.0-2.14","1431fec5-c2d2-481c-9eea-142efd404d61","null","<p style=""text-align: center;"">+</p>","null","fixation","","","","","","","","","","","","","","","","","","","","","","","","",""
"","","","","","html-slider-response","157","1389607","0.0-21.0-0.15","1431fec5-c2d2-481c-9eea-142efd404d61","1000","
                  <p style=""text-align: center;"">₪58
                                                <br>40%</p>
                  <p id=""wtp"" style=""text-align:center; margin-top: 0px; margin-bottom: 0px; font-size: 40px"";>&ensp;</p>","-","viewing","0","20","10C,13A,19C,21B","","","","","","","","","","","","","","","","","","","","","",""
"","","","","","html-slider-response","158","1392294","0.0-21.0-1.15","1431fec5-c2d2-481c-9eea-142efd404d61","2686","
                  <p style=""text-align: center;"">₪58
                                                <br>40%</p>
                  <p id=""wtp"" style=""text-align:center; margin-top: 0px; margin-bottom: 0px; font-size: 40px"";>מוכנים לשלם: <span id=""c_p_y""></span></p>","50","evaluation","5","20","10C,13A,19C,21B","40","58","50","","","","","","","","","","","","","","","","","","",""
"","","","","","html-keyboard-response","159","1393576","0.0-21.0-2.15","1431fec5-c2d2-481c-9eea-142efd404d61","null","<p style=""text-align: center;"">+</p>","null","fixation","","","","","","","","","","","","","","","","","","","","","","","","",""
"","","","","","html-slider-response","160","1394579","0.0-21.0-0.16","1431fec5-c2d2-481c-9eea-142efd404d61","1000","
                  <p style=""text-align: center;"">₪43
                                                <br>75%</p>
                  <p id=""wtp"" style=""text-align:center; margin-top: 0px; margin-bottom: 0px; font-size: 40px"";>&ensp;</p>","-","viewing","0","18","11B,19B,24A,26A","","","","","","","","","","","","","","","","","","","","","",""
"","","","","","html-slider-response","161","1397710","0.0-21.0-1.16","1431fec5-c2d2-481c-9eea-142efd404d61","3130","
                  <p style=""text-align: center;"">₪43
                                                <br>75%</p>
                  <p id=""wtp"" style=""text-align:center; margin-top: 0px; margin-bottom: 0px; font-size: 40px"";>מוכנים לשלם: <span id=""c_p_y""></span></p>","39","evaluation","53","18","11B,19B,24A,26A","75","43","39","","","","","","","","","","","","","","","","","","",""
"","","","","","html-keyboard-response","162","1398980","0.0-21.0-2.16","1431fec5-c2d2-481c-9eea-142efd404d61","null","<p style=""text-align: center;"">+</p>","null","fixation","","","","","","","","","","","","","","","","","","","","","","","","",""
"","","","","","html-slider-response","163","1399984","0.0-21.0-0.17","1431fec5-c2d2-481c-9eea-142efd404d61","1000","
                  <p style=""text-align: center;"">₪36
                                                <br>30%</p>
                  <p id=""wtp"" style=""text-align:center; margin-top: 0px; margin-bottom: 0px; font-size: 40px"";>&ensp;</p>","-","viewing","0","11","3C,20A,22A","","","","","","","","","","","","","","","","","","","","","",""
"","","","","","html-slider-response","164","1401614","0.0-21.0-1.17","1431fec5-c2d2-481c-9eea-142efd404d61","1629","
                  <p style=""text-align: center;"">₪36
                                                <br>30%</p>
                  <p id=""wtp"" style=""text-align:center; margin-top: 0px; margin-bottom: 0px; font-size: 40px"";>מוכנים לשלם: <span id=""c_p_y""></span></p>","20","evaluation","65","11","3C,20A,22A","30","36","20","","","","","","","","","","","","","","","","","","",""
"","","","","","html-keyboard-response","165","1402792","0.0-21.0-2.17","1431fec5-c2d2-481c-9eea-142efd404d61","null","<p style=""text-align: center;"">+</p>","null","fixation","","","","","","","","","","","","","","","","","","","","","","","","",""
"","","","","","html-slider-response","166","1403804","0.0-21.0-0.18","1431fec5-c2d2-481c-9eea-142efd404d61","1000","
                  <p style=""text-align: center;"">₪61
                                                <br>55%</p>
                  <p id=""wtp"" style=""text-align:center; margin-top: 0px; margin-bottom: 0px; font-size: 40px"";>&ensp;</p>","-","viewing","0","23","7B,26B","","","","","","","","","","","","","","","","","","","","","",""
"","","","","","html-slider-response","167","1405615","0.0-21.0-1.18","1431fec5-c2d2-481c-9eea-142efd404d61","1810","
                  <p style=""text-align: center;"">₪61
                                                <br>55%</p>
                  <p id=""wtp"" style=""text-align:center; margin-top: 0px; margin-bottom: 0px; font-size: 40px"";>מוכנים לשלם: <span id=""c_p_y""></span></p>","56","evaluation","32","23","7B,26B","55","61","56","","","","","","","","","","","","","","","","","","",""
"","","","","","html-keyboard-response","168","1406780","0.0-21.0-2.18","1431fec5-c2d2-481c-9eea-142efd404d61","null","<p style=""text-align: center;"">+</p>","null","fixation","","","","","","","","","","","","","","","","","","","","","","","","",""
"","","","","","html-slider-response","169","1407788","0.0-21.0-0.19","1431fec5-c2d2-481c-9eea-142efd404d61","1000","
                  <p style=""text-align: center;"">₪4
                                                <br>50%</p>
                  <p id=""wtp"" style=""text-align:center; margin-top: 0px; margin-bottom: 0px; font-size: 40px"";>&ensp;</p>","-","viewing","0","2","4C,17B","","","","","","","","","","","","","","","","","","","","","",""
"","","","","","html-slider-response","170","1408799","0.0-21.0-1.19","1431fec5-c2d2-481c-9eea-142efd404d61","1010","
                  <p style=""text-align: center;"">₪4
                                                <br>50%</p>
                  <p id=""wtp"" style=""text-align:center; margin-top: 0px; margin-bottom: 0px; font-size: 40px"";>מוכנים לשלם: <span id=""c_p_y""></span></p>","1","evaluation","0","2","4C,17B","50","4","1","","","","","","","","","","","","","","","","","","",""
"","","","","","html-keyboard-response","171","1410109","0.0-21.0-2.19","1431fec5-c2d2-481c-9eea-142efd404d61","null","<p style=""text-align: center;"">+</p>","null","fixation","","","","","","","","","","","","","","","","","","","","","","","","",""
"","","","","","html-slider-response","172","1411112","0.0-21.0-0.20","1431fec5-c2d2-481c-9eea-142efd404d61","1000","
                  <p style=""text-align: center;"">₪11
                                                <br>25%</p>
                  <p id=""wtp"" style=""text-align:center; margin-top: 0px; margin-bottom: 0px; font-size: 40px"";>&ensp;</p>","-","viewing","0","5","12A,27B,28B,30B","","","","","","","","","","","","","","","","","","","","","",""
"","","","","","html-slider-response","173","1412559","0.0-21.0-1.20","1431fec5-c2d2-481c-9eea-142efd404d61","1446","
                  <p style=""text-align: center;"">₪11
                                                <br>25%</p>
                  <p id=""wtp"" style=""text-align:center; margin-top: 0px; margin-bottom: 0px; font-size: 40px"";>מוכנים לשלם: <span id=""c_p_y""></span></p>","2","evaluation","27","5","12A,27B,28B,30B","25","11","2","","","","","","","","","","","","","","","","","","",""
"","","","","","html-keyboard-response","174","1413505","0.0-21.0-2.20","1431fec5-c2d2-481c-9eea-142efd404d61","null","<p style=""text-align: center;"">+</p>","null","fixation","","","","","","","","","","","","","","","","","","","","","","","","",""
"","","","","","html-slider-response","175","1414507","0.0-21.0-0.21","1431fec5-c2d2-481c-9eea-142efd404d61","1000","
                  <p style=""text-align: center;"">₪16
                                                <br>20%</p>
                  <p id=""wtp"" style=""text-align:center; margin-top: 0px; margin-bottom: 0px; font-size: 40px"";>&ensp;</p>","-","viewing","0","8","14C,17A,20C,27A","","","","","","","","","","","","","","","","","","","","","",""
"","","","","","html-slider-response","176","1416782","0.0-21.0-1.21","1431fec5-c2d2-481c-9eea-142efd404d61","2274","
                  <p style=""text-align: center;"">₪16
                                                <br>20%</p>
                  <p id=""wtp"" style=""text-align:center; margin-top: 0px; margin-bottom: 0px; font-size: 40px"";>מוכנים לשלם: <span id=""c_p_y""></span></p>","10","evaluation","61","8","14C,17A,20C,27A","20","16","10","","","","","","","","","","","","","","","","","","",""
"","","","","","html-keyboard-response","177","1417381","0.0-21.0-2.21","1431fec5-c2d2-481c-9eea-142efd404d61","null","<p style=""text-align: center;"">+</p>","null","fixation","","","","","","","","","","","","","","","","","","","","","","","","",""
"","","","","","html-slider-response","178","1418385","0.0-21.0-0.22","1431fec5-c2d2-481c-9eea-142efd404d61","1000","
                  <p style=""text-align: center;"">₪4
                                                <br>25%</p>
                  <p id=""wtp"" style=""text-align:center; margin-top: 0px; margin-bottom: 0px; font-size: 40px"";>&ensp;</p>","-","viewing","0","1","6C,29B,30C","","","","","","","","","","","","","","","","","","","","","",""
"","","","","","html-slider-response","179","1419927","0.0-21.0-1.22","1431fec5-c2d2-481c-9eea-142efd404d61","1540","
                  <p style=""text-align: center;"">₪4
                                                <br>25%</p>
                  <p id=""wtp"" style=""text-align:center; margin-top: 0px; margin-bottom: 0px; font-size: 40px"";>מוכנים לשלם: <span id=""c_p_y""></span></p>","3","evaluation","56","1","6C,29B,30C","25","4","4","","","","","","","","","","","","","","","","","","",""
"","","","","","html-keyboard-response","180","1420681","0.0-21.0-2.22","1431fec5-c2d2-481c-9eea-142efd404d61","null","<p style=""text-align: center;"">+</p>","null","fixation","","","","","","","","","","","","","","","","","","","","","","","","",""
"","","","","","html-slider-response","181","1421689","0.0-21.0-0.23","1431fec5-c2d2-481c-9eea-142efd404d61","1000","
                  <p style=""text-align: center;"">₪39
                                                <br>60%</p>
                  <p id=""wtp"" style=""text-align:center; margin-top: 0px; margin-bottom: 0px; font-size: 40px"";>&ensp;</p>","-","viewing","0","15","9C,25B","","","","","","","","","","","","","","","","","","","","","",""
"","","","","","html-slider-response","182","1424559","0.0-21.0-1.23","1431fec5-c2d2-481c-9eea-142efd404d61","2868","
                  <p style=""text-align: center;"">₪39
                                                <br>60%</p>
                  <p id=""wtp"" style=""text-align:center; margin-top: 0px; margin-bottom: 0px; font-size: 40px"";>מוכנים לשלם: <span id=""c_p_y""></span></p>","37","evaluation","58","15","9C,25B","60","39","37","","","","","","","","","","","","","","","","","","",""
"","","","","","html-keyboard-response","183","1425288","0.0-21.0-2.23","1431fec5-c2d2-481c-9eea-142efd404d61","null","<p style=""text-align: center;"">+</p>","null","fixation","","","","","","","","","","","","","","","","","","","","","","","","",""
"","","","","","html-slider-response","184","1426294","0.0-21.0-0.24","1431fec5-c2d2-481c-9eea-142efd404d61","1000","
                  <p style=""text-align: center;"">₪58
                                                <br>45%</p>
                  <p id=""wtp"" style=""text-align:center; margin-top: 0px; margin-bottom: 0px; font-size: 40px"";>&ensp;</p>","-","viewing","0","21","11C,18C,25A","","","","","","","","","","","","","","","","","","","","","",""
"","","","","","html-slider-response","185","1428135","0.0-21.0-1.24","1431fec5-c2d2-481c-9eea-142efd404d61","1839","
                  <p style=""text-align: center;"">₪58
                                                <br>45%</p>
                  <p id=""wtp"" style=""text-align:center; margin-top: 0px; margin-bottom: 0px; font-size: 40px"";>מוכנים לשלם: <span id=""c_p_y""></span></p>","54","evaluation","24","21","11C,18C,25A","45","58","54","","","","","","","","","","","","","","","","","","",""
"","","","","","html-keyboard-response","186","1428662","0.0-21.0-2.24","1431fec5-c2d2-481c-9eea-142efd404d61","null","<p style=""text-align: center;"">+</p>","null","fixation","","","","","","","","","","","","","","","","","","","","","","","","",""
"","","","","","html-slider-response","187","1429664","0.0-21.0-0.25","1431fec5-c2d2-481c-9eea-142efd404d61","1000","
                  <p style=""text-align: center;"">₪79
                                                <br>65%</p>
                  <p id=""wtp"" style=""text-align:center; margin-top: 0px; margin-bottom: 0px; font-size: 40px"";>&ensp;</p>","-","viewing","0","31","8A","","","","","","","","","","","","","","","","","","","","","",""
"","","","","","html-slider-response","188","1432015","0.0-21.0-1.25","1431fec5-c2d2-481c-9eea-142efd404d61","2350","
                  <p style=""text-align: center;"">₪79
                                                <br>65%</p>
                  <p id=""wtp"" style=""text-align:center; margin-top: 0px; margin-bottom: 0px; font-size: 40px"";>מוכנים לשלם: <span id=""c_p_y""></span></p>","78","evaluation","76","31","8A","65","79","78","","","","","","","","","","","","","","","","","","",""
"","","","","","html-keyboard-response","189","1432847","0.0-21.0-2.25","1431fec5-c2d2-481c-9eea-142efd404d61","null","<p style=""text-align: center;"">+</p>","null","fixation","","","","","","","","","","","","","","","","","","","","","","","","",""
"","","","","","html-slider-response","190","1433850","0.0-21.0-0.26","1431fec5-c2d2-481c-9eea-142efd404d61","1000","
                  <p style=""text-align: center;"">₪11
                                                <br>75%</p>
                  <p id=""wtp"" style=""text-align:center; margin-top: 0px; margin-bottom: 0px; font-size: 40px"";>&ensp;</p>","-","viewing","0","7","6B,18B,22C,24C,29A","","","","","","","","","","","","","","","","","","","","","",""
"","","","","","html-slider-response","191","1436471","0.0-21.0-1.26","1431fec5-c2d2-481c-9eea-142efd404d61","2620","
                  <p style=""text-align: center;"">₪11
                                                <br>75%</p>
                  <p id=""wtp"" style=""text-align:center; margin-top: 0px; margin-bottom: 0px; font-size: 40px"";>מוכנים לשלם: <span id=""c_p_y""></span></p>","7","evaluation","62","7","6B,18B,22C,24C,29A","75","11","7","","","","","","","","","","","","","","","","","","",""
"","","","","","html-keyboard-response","192","1437264","0.0-21.0-2.26","1431fec5-c2d2-481c-9eea-142efd404d61","null","<p style=""text-align: center;"">+</p>","null","fixation","","","","","","","","","","","","","","","","","","","","","","","","",""
"","","","","","html-slider-response","193","1438272","0.0-21.0-0.27","1431fec5-c2d2-481c-9eea-142efd404d61","1000","
                  <p style=""text-align: center;"">₪71
                                                <br>55%</p>
                  <p id=""wtp"" style=""text-align:center; margin-top: 0px; margin-bottom: 0px; font-size: 40px"";>&ensp;</p>","-","viewing","0","27","5B,18A","","","","","","","","","","","","","","","","","","","","","",""
"","","","","","html-slider-response","194","1440222","0.0-21.0-1.27","1431fec5-c2d2-481c-9eea-142efd404d61","1949","
                  <p style=""text-align: center;"">₪71
                                                <br>55%</p>
                  <p id=""wtp"" style=""text-align:center; margin-top: 0px; margin-bottom: 0px; font-size: 40px"";>מוכנים לשלם: <span id=""c_p_y""></span></p>","66","evaluation","80","27","5B,18A","55","71","66","","","","","","","","","","","","","","","","","","",""
"","","","","","html-keyboard-response","195","1441085","0.0-21.0-2.27","1431fec5-c2d2-481c-9eea-142efd404d61","null","<p style=""text-align: center;"">+</p>","null","fixation","","","","","","","","","","","","","","","","","","","","","","","","",""
"","","","","","html-slider-response","196","1442087","0.0-21.0-0.28","1431fec5-c2d2-481c-9eea-142efd404d61","1000","
                  <p style=""text-align: center;"">₪61
                                                <br>45%</p>
                  <p id=""wtp"" style=""text-align:center; margin-top: 0px; margin-bottom: 0px; font-size: 40px"";>&ensp;</p>","-","viewing","0","22","10A,11A","","","","","","","","","","","","","","","","","","","","","",""
"","","","","","html-slider-response","197","1444111","0.0-21.0-1.28","1431fec5-c2d2-481c-9eea-142efd404d61","2024","
                  <p style=""text-align: center;"">₪61
                                                <br>45%</p>
                  <p id=""wtp"" style=""text-align:center; margin-top: 0px; margin-bottom: 0px; font-size: 40px"";>מוכנים לשלם: <span id=""c_p_y""></span></p>","59","evaluation","11","22","10A,11A","45","61","59","","","","","","","","","","","","","","","","","","",""
"","","","","","html-keyboard-response","198","1444863","0.0-21.0-2.28","1431fec5-c2d2-481c-9eea-142efd404d61","null","<p style=""text-align: center;"">+</p>","null","fixation","","","","","","","","","","","","","","","","","","","","","","","","",""
"","","","","","html-slider-response","199","1445865","0.0-21.0-0.29","1431fec5-c2d2-481c-9eea-142efd404d61","1000","
                  <p style=""text-align: center;"">₪64
                                                <br>50%</p>
                  <p id=""wtp"" style=""text-align:center; margin-top: 0px; margin-bottom: 0px; font-size: 40px"";>&ensp;</p>","-","viewing","0","25","1B,3B,4A","","","","","","","","","","","","","","","","","","","","","",""
"","","","","","html-slider-response","200","1448951","0.0-21.0-1.29","1431fec5-c2d2-481c-9eea-142efd404d61","3085","
                  <p style=""text-align: center;"">₪64
                                                <br>50%</p>
                  <p id=""wtp"" style=""text-align:center; margin-top: 0px; margin-bottom: 0px; font-size: 40px"";>מוכנים לשלם: <span id=""c_p_y""></span></p>","60","evaluation","32","25","1B,3B,4A","50","64","60","","","","","","","","","","","","","","","","","","",""
"","","","","","html-keyboard-response","201","1449983","0.0-21.0-2.29","1431fec5-c2d2-481c-9eea-142efd404d61","null","<p style=""text-align: center;"">+</p>","null","fixation","","","","","","","","","","","","","","","","","","","","","","","","",""
"","","","","","html-slider-response","202","1450985","0.0-21.0-0.30","1431fec5-c2d2-481c-9eea-142efd404d61","1000","
                  <p style=""text-align: center;"">₪36
                                                <br>70%</p>
                  <p id=""wtp"" style=""text-align:center; margin-top: 0px; margin-bottom: 0px; font-size: 40px"";>&ensp;</p>","-","viewing","0","13","3A,5C,10B","","","","","","","","","","","","","","","","","","","","","",""
"","","","","","html-slider-response","203","1453751","0.0-21.0-1.30","1431fec5-c2d2-481c-9eea-142efd404d61","2765","
                  <p style=""text-align: center;"">₪36
                                                <br>70%</p>
                  <p id=""wtp"" style=""text-align:center; margin-top: 0px; margin-bottom: 0px; font-size: 40px"";>מוכנים לשלם: <span id=""c_p_y""></span></p>","34","evaluation","76","13","3A,5C,10B","70","36","34","","","","","","","","","","","","","","","","","","",""
"","","","","","html-keyboard-response","204","1454320","0.0-21.0-2.30","1431fec5-c2d2-481c-9eea-142efd404d61","null","<p style=""text-align: center;"">+</p>","null","fixation","","","","","","","","","","","","","","","","","","","","","","","","",""
"","","","","","html-keyboard-response","205","1455323","0.0-22.0","1431fec5-c2d2-481c-9eea-142efd404d61","null","<p style=""text-align: center;"">+</p>","null","fixation","","","","","","","","","","","","","","","","","","","","","","","","",""
"","","","","","html-keyboard-response","206","1456031","0.0-23.0","1431fec5-c2d2-481c-9eea-142efd404d61","null","<p>הפסקה.
          <br>לחצו כדי להמשיך.</p>","1","scan_wait","","","","","","","","","","","","","","","","","","","","","","","","",""
"","","","","","html-keyboard-response","207","1457036","0.0-24.0","1431fec5-c2d2-481c-9eea-142efd404d61","null","<p style=""text-align: center;"">+</p>","null","fixation","","","","","","","","","","","","","","","","","","","","","","","","",""
"","","","","","html-slider-response","208","1458040","0.0-25.0-0.0","1431fec5-c2d2-481c-9eea-142efd404d61","1000","
                  <p style=""text-align: center;"">₪11
                                                <br>20%</p>
                  <p id=""wtp"" style=""text-align:center; margin-top: 0px; margin-bottom: 0px; font-size: 40px"";>&ensp;</p>","-","viewing","0","4","12C,17C,23C,28C","","","","","","","","","","","","","","","","","","","","","",""
"","","","","","html-slider-response","209","1459302","0.0-25.0-1.0","1431fec5-c2d2-481c-9eea-142efd404d61","1262","
                  <p style=""text-align: center;"">₪11
                                                <br>20%</p>
                  <p id=""wtp"" style=""text-align:center; margin-top: 0px; margin-bottom: 0px; font-size: 40px"";>מוכנים לשלם: <span id=""c_p_y""></span></p>","3","evaluation","2","4","12C,17C,23C,28C","20","11","3","","","","","","","","","","","","","","","","","","",""
"","","","","","html-keyboard-response","210","1460408","0.0-25.0-2.0","1431fec5-c2d2-481c-9eea-142efd404d61","null","<p style=""text-align: center;"">+</p>","null","fixation","","","","","","","","","","","","","","","","","","","","","","","","",""
"","","","","","html-slider-response","211","1461412","0.0-25.0-0.1","1431fec5-c2d2-481c-9eea-142efd404d61","1000","
                  <p style=""text-align: center;"">₪11
                                                <br>25%</p>
                  <p id=""wtp"" style=""text-align:center; margin-top: 0px; margin-bottom: 0px; font-size: 40px"";>&ensp;</p>","-","viewing","0","5","12A,27B,28B,30B","","","","","","","","","","","","","","","","","","","","","",""
"","","","","","html-slider-response","212","1462407","0.0-25.0-1.1","1431fec5-c2d2-481c-9eea-142efd404d61","993","
                  <p style=""text-align: center;"">₪11
                                                <br>25%</p>
                  <p id=""wtp"" style=""text-align:center; margin-top: 0px; margin-bottom: 0px; font-size: 40px"";>מוכנים לשלם: <span id=""c_p_y""></span></p>","1","evaluation","18","5","12A,27B,28B,30B","25","11","2","","","","","","","","","","","","","","","","","","",""
"","","","","","html-keyboard-response","213","1463353","0.0-25.0-2.1","1431fec5-c2d2-481c-9eea-142efd404d61","null","<p style=""text-align: center;"">+</p>","null","fixation","","","","","","","","","","","","","","","","","","","","","","","","",""
"","","","","","html-slider-response","214","1464355","0.0-25.0-0.2","1431fec5-c2d2-481c-9eea-142efd404d61","1000","
                  <p style=""text-align: center;"">₪64
                                                <br>50%</p>
                  <p id=""wtp"" style=""text-align:center; margin-top: 0px; margin-bottom: 0px; font-size: 40px"";>&ensp;</p>","-","viewing","0","25","1B,3B,4A","","","","","","","","","","","","","","","","","","","","","",""
"","","","","","html-slider-response","215","1467111","0.0-25.0-1.2","1431fec5-c2d2-481c-9eea-142efd404d61","2755","
                  <p style=""text-align: center;"">₪64
                                                <br>50%</p>
                  <p id=""wtp"" style=""text-align:center; margin-top: 0px; margin-bottom: 0px; font-size: 40px"";>מוכנים לשלם: <span id=""c_p_y""></span></p>","57","evaluation","31","25","1B,3B,4A","50","64","57","","","","","","","","","","","","","","","","","","",""
"","","","","","html-keyboard-response","216","1468513","0.0-25.0-2.2","1431fec5-c2d2-481c-9eea-142efd404d61","null","<p style=""text-align: center;"">+</p>","null","fixation","","","","","","","","","","","","","","","","","","","","","","","","",""
"","","","","","html-slider-response","217","1469518","0.0-25.0-0.3","1431fec5-c2d2-481c-9eea-142efd404d61","1000","
                  <p style=""text-align: center;"">₪61
                                                <br>45%</p>
                  <p id=""wtp"" style=""text-align:center; margin-top: 0px; margin-bottom: 0px; font-size: 40px"";>&ensp;</p>","-","viewing","0","22","10A,11A","","","","","","","","","","","","","","","","","","","","","",""
"","","","","","html-slider-response","218","1471151","0.0-25.0-1.3","1431fec5-c2d2-481c-9eea-142efd404d61","1632","
                  <p style=""text-align: center;"">₪61
                                                <br>45%</p>
                  <p id=""wtp"" style=""text-align:center; margin-top: 0px; margin-bottom: 0px; font-size: 40px"";>מוכנים לשלם: <span id=""c_p_y""></span></p>","50","evaluation","75","22","10A,11A","45","61","50","","","","","","","","","","","","","","","","","","",""
"","","","","","html-keyboard-response","219","1471968","0.0-25.0-2.3","1431fec5-c2d2-481c-9eea-142efd404d61","null","<p style=""text-align: center;"">+</p>","null","fixation","","","","","","","","","","","","","","","","","","","","","","","","",""
"","","","","","html-slider-response","220","1472970","0.0-25.0-0.4","1431fec5-c2d2-481c-9eea-142efd404d61","1000","
                  <p style=""text-align: center;"">₪58
                                                <br>45%</p>
                  <p id=""wtp"" style=""text-align:center; margin-top: 0px; margin-bottom: 0px; font-size: 40px"";>&ensp;</p>","-","viewing","0","21","11C,18C,25A","","","","","","","","","","","","","","","","","","","","","",""
"","","","","","html-slider-response","221","1475407","0.0-25.0-1.4","1431fec5-c2d2-481c-9eea-142efd404d61","2435","
                  <p style=""text-align: center;"">₪58
                                                <br>45%</p>
                  <p id=""wtp"" style=""text-align:center; margin-top: 0px; margin-bottom: 0px; font-size: 40px"";>מוכנים לשלם: <span id=""c_p_y""></span></p>","48","evaluation","23","21","11C,18C,25A","45","58","48","","","","","","","","","","","","","","","","","","",""
"","","","","","html-keyboard-response","222","1476350","0.0-25.0-2.4","1431fec5-c2d2-481c-9eea-142efd404d61","null","<p style=""text-align: center;"">+</p>","null","fixation","","","","","","","","","","","","","","","","","","","","","","","","",""
"","","","","","html-slider-response","223","1477361","0.0-25.0-0.5","1431fec5-c2d2-481c-9eea-142efd404d61","1000","
                  <p style=""text-align: center;"">₪79
                                                <br>40%</p>
                  <p id=""wtp"" style=""text-align:center; margin-top: 0px; margin-bottom: 0px; font-size: 40px"";>&ensp;</p>","-","viewing","0","30","9B","","","","","","","","","","","","","","","","","","","","","",""
"","","","","","html-slider-response","224","1479791","0.0-25.0-1.5","1431fec5-c2d2-481c-9eea-142efd404d61","2428","
                  <p style=""text-align: center;"">₪79
                                                <br>40%</p>
                  <p id=""wtp"" style=""text-align:center; margin-top: 0px; margin-bottom: 0px; font-size: 40px"";>מוכנים לשלם: <span id=""c_p_y""></span></p>","60","evaluation","14","30","9B","40","79","60","","","","","","","","","","","","","","","","","","",""
"","","","","","html-keyboard-response","225","1481179","0.0-25.0-2.5","1431fec5-c2d2-481c-9eea-142efd404d61","null","<p style=""text-align: center;"">+</p>","null","fixation","","","","","","","","","","","","","","","","","","","","","","","","",""
"","","","","","html-slider-response","226","1482188","0.0-25.0-0.6","1431fec5-c2d2-481c-9eea-142efd404d61","1000","
                  <p style=""text-align: center;"">₪11
                                                <br>75%</p>
                  <p id=""wtp"" style=""text-align:center; margin-top: 0px; margin-bottom: 0px; font-size: 40px"";>&ensp;</p>","-","viewing","0","7","6B,18B,22C,24C,29A","","","","","","","","","","","","","","","","","","","","","",""
"","","","","","html-slider-response","227","1485007","0.0-25.0-1.6","1431fec5-c2d2-481c-9eea-142efd404d61","2819","
                  <p style=""text-align: center;"">₪11
                                                <br>75%</p>
                  <p id=""wtp"" style=""text-align:center; margin-top: 0px; margin-bottom: 0px; font-size: 40px"";>מוכנים לשלם: <span id=""c_p_y""></span></p>","9","evaluation","63","7","6B,18B,22C,24C,29A","75","11","9","","","","","","","","","","","","","","","","","","",""
"","","","","","html-keyboard-response","228","1485650","0.0-25.0-2.6","1431fec5-c2d2-481c-9eea-142efd404d61","null","<p style=""text-align: center;"">+</p>","null","fixation","","","","","","","","","","","","","","","","","","","","","","","","",""
"","","","","","html-slider-response","229","1486651","0.0-25.0-0.7","1431fec5-c2d2-481c-9eea-142efd404d61","1000","
                  <p style=""text-align: center;"">₪4
                                                <br>25%</p>
                  <p id=""wtp"" style=""text-align:center; margin-top: 0px; margin-bottom: 0px; font-size: 40px"";>&ensp;</p>","-","viewing","0","1","6C,29B,30C","","","","","","","","","","","","","","","","","","","","","",""
"","","","","","html-slider-response","230","1487951","0.0-25.0-1.7","1431fec5-c2d2-481c-9eea-142efd404d61","1299","
                  <p style=""text-align: center;"">₪4
                                                <br>25%</p>
                  <p id=""wtp"" style=""text-align:center; margin-top: 0px; margin-bottom: 0px; font-size: 40px"";>מוכנים לשלם: <span id=""c_p_y""></span></p>","1","evaluation","14","1","6C,29B,30C","25","4","1","","","","","","","","","","","","","","","","","","",""
"","","","","","html-keyboard-response","231","1489353","0.0-25.0-2.7","1431fec5-c2d2-481c-9eea-142efd404d61","null","<p style=""text-align: center;"">+</p>","null","fixation","","","","","","","","","","","","","","","","","","","","","","","","",""
"","","","","","html-slider-response","232","1490355","0.0-25.0-0.8","1431fec5-c2d2-481c-9eea-142efd404d61","1000","
                  <p style=""text-align: center;"">₪58
                                                <br>30%</p>
                  <p id=""wtp"" style=""text-align:center; margin-top: 0px; margin-bottom: 0px; font-size: 40px"";>&ensp;</p>","-","viewing","0","19","13C,30A","","","","","","","","","","","","","","","","","","","","","",""
"","","","","","html-slider-response","233","1492239","0.0-25.0-1.8","1431fec5-c2d2-481c-9eea-142efd404d61","1882","
                  <p style=""text-align: center;"">₪58
                                                <br>30%</p>
                  <p id=""wtp"" style=""text-align:center; margin-top: 0px; margin-bottom: 0px; font-size: 40px"";>מוכנים לשלם: <span id=""c_p_y""></span></p>","51","evaluation","48","19","13C,30A","30","58","51","","","","","","","","","","","","","","","","","","",""
"","","","","","html-keyboard-response","234","1492754","0.0-25.0-2.8","1431fec5-c2d2-481c-9eea-142efd404d61","null","<p style=""text-align: center;"">+</p>","null","fixation","","","","","","","","","","","","","","","","","","","","","","","","",""
"","","","","","html-slider-response","235","1493758","0.0-25.0-0.9","1431fec5-c2d2-481c-9eea-142efd404d61","1000","
                  <p style=""text-align: center;"">₪18
                                                <br>25%</p>
                  <p id=""wtp"" style=""text-align:center; margin-top: 0px; margin-bottom: 0px; font-size: 40px"";>&ensp;</p>","-","viewing","0","9","14A,23A","","","","","","","","","","","","","","","","","","","","","",""
"","","","","","html-slider-response","236","1496375","0.0-25.0-1.9","1431fec5-c2d2-481c-9eea-142efd404d61","2616","
                  <p style=""text-align: center;"">₪18
                                                <br>25%</p>
                  <p id=""wtp"" style=""text-align:center; margin-top: 0px; margin-bottom: 0px; font-size: 40px"";>מוכנים לשלם: <span id=""c_p_y""></span></p>","4","evaluation","70","9","14A,23A","25","18","4","","","","","","","","","","","","","","","","","","",""
"","","","","","html-keyboard-response","237","1497000","0.0-25.0-2.9","1431fec5-c2d2-481c-9eea-142efd404d61","null","<p style=""text-align: center;"">+</p>","null","fixation","","","","","","","","","","","","","","","","","","","","","","","","",""
"","","","","","html-slider-response","238","1498008","0.0-25.0-0.10","1431fec5-c2d2-481c-9eea-142efd404d61","1000","
                  <p style=""text-align: center;"">₪39
                                                <br>60%</p>
                  <p id=""wtp"" style=""text-align:center; margin-top: 0px; margin-bottom: 0px; font-size: 40px"";>&ensp;</p>","-","viewing","0","15","9C,25B","","","","","","","","","","","","","","","","","","","","","",""
"","","","","","html-slider-response","239","1500279","0.0-25.0-1.10","1431fec5-c2d2-481c-9eea-142efd404d61","2271","
                  <p style=""text-align: center;"">₪39
                                                <br>60%</p>
                  <p id=""wtp"" style=""text-align:center; margin-top: 0px; margin-bottom: 0px; font-size: 40px"";>מוכנים לשלם: <span id=""c_p_y""></span></p>","35","evaluation","43","15","9C,25B","60","39","35","","","","","","","","","","","","","","","","","","",""
"","","","","","html-keyboard-response","240","1501566","0.0-25.0-2.10","1431fec5-c2d2-481c-9eea-142efd404d61","null","<p style=""text-align: center;"">+</p>","null","fixation","","","","","","","","","","","","","","","","","","","","","","","","",""
"","","","","","html-slider-response","241","1502568","0.0-25.0-0.11","1431fec5-c2d2-481c-9eea-142efd404d61","1000","
                  <p style=""text-align: center;"">₪64
                                                <br>25%</p>
                  <p id=""wtp"" style=""text-align:center; margin-top: 0px; margin-bottom: 0px; font-size: 40px"";>&ensp;</p>","-","viewing","0","24","6A,21A","","","","","","","","","","","","","","","","","","","","","",""
"","","","","","html-slider-response","242","1504575","0.0-25.0-1.11","1431fec5-c2d2-481c-9eea-142efd404d61","2006","
                  <p style=""text-align: center;"">₪64
                                                <br>25%</p>
                  <p id=""wtp"" style=""text-align:center; margin-top: 0px; margin-bottom: 0px; font-size: 40px"";>מוכנים לשלם: <span id=""c_p_y""></span></p>","50","evaluation","16","24","6A,21A","25","64","50","","","","","","","","","","","","","","","","","","",""
"","","","","","html-keyboard-response","243","1505987","0.0-25.0-2.11","1431fec5-c2d2-481c-9eea-142efd404d61","null","<p style=""text-align: center;"">+</p>","null","fixation","","","","","","","","","","","","","","","","","","","","","","","","",""
"","","","","","html-slider-response","244","1506990","0.0-25.0-0.12","1431fec5-c2d2-481c-9eea-142efd404d61","1000","
                  <p style=""text-align: center;"">₪71
                                                <br>75%</p>
                  <p id=""wtp"" style=""text-align:center; margin-top: 0px; margin-bottom: 0px; font-size: 40px"";>&ensp;</p>","-","viewing","0","28","8B","","","","","","","","","","","","","","","","","","","","","",""
"","","","","","html-slider-response","245","1510359","0.0-25.0-1.12","1431fec5-c2d2-481c-9eea-142efd404d61","3368","
                  <p style=""text-align: center;"">₪71
