"success","timeout","failed_images","failed_audio","failed_video","trial_type","trial_index","time_elapsed","internal_node_id","subject_id","rt","stimulus","response","part","slider_start","ID","set_ID","prob","amount","last_location","actual_choice","actual_EV","binary_id","trinary_id","catch","A_key","D_key","choice_prob","choice_amount","won_prize","potential_prize_amount","potential_prize_prob","total_prize","accuracy"
"true","false","[]","[]","[]","preload","0","14","0.0-0.0","51eb357b-2d5f-4529-adb7-70ead931726e","","","","","","","","","","","","","","","","","","","","","","","",""
"","","","","","html-keyboard-response","1","15980","0.0-1.0","51eb357b-2d5f-4529-adb7-70ead931726e","null","
          <h1>שלום וברוכים הבאים!</h1>
          <p>לפניכם ניסוי בקבלת החלטות עם שני חלקים.
          <br><br>לחצו על העכבר כדי להמשיך.</p>","0","example","","","","","","","","","","","","","","","","","","","",""
"","","","","","html-keyboard-response","2","27700","0.0-2.0","51eb357b-2d5f-4529-adb7-70ead931726e","null","
        <h1>חלק 1</h1>
        <p>בקרוב יוצגו בפניכם הגרלות.
        <br>עליכם לבחור את המחיר המירבי שתהיו מוכנים לשלם כדי להשתתף בהגרלה שתוצג.
        <br>יש לכם תקציב של ₪80 לכל הגרלה. 
        <br>נסו להעריך כל הגרלה בנפרד ולחשוב כמה היא שווה עבורכם, ₪80 זמינים לכל הגרלה בנפרד.
        <br><br>לחצו על העכבר כדי להמשיך.</p>","1","instructions","","","","","","","","","","","","","","","","","","","",""
"","","","","","html-keyboard-response","3","36220","0.0-3.0","51eb357b-2d5f-4529-adb7-70ead931726e","null","
        <p>בסוף הניסוי, המחשב יבחר את אחת ההגרלות ויקבע מחיר לכרטיס עבורה. 
        <br>במידה והמחיר שבחרתם נמוך מהמחיר שנבחר על ידי המחשב, לא תשתתפו בהגרלה ותשארו עם מלוא התקציב.
        <br>במידה והמחיר שבחרתם גבוה מהמחיר שנבחר על ידי המחשב, תשלמו את המחיר שנקבע ותשתתפו בהגרלה.
        <br><br>לחצו על העכבר כדי להמשיך.</p>","1","instructions","","","","","","","","","","","","","","","","","","","",""
"","","","","","html-slider-response","4","69965","0.0-4.0","51eb357b-2d5f-4529-adb7-70ead931726e","33634","
        <p style=""font-size: 42px;"">נתחיל עם דוגמא: 
        <br>ההגרלה מטה מציעה 65% סיכוי לזכות ב-₪40 
        <br>&emsp;&emsp;&emsp;&emsp;&emsp;&emsp;&emsp;&emsp;&ensp;35% סיכוי לזכות ב-₪0.
        <br><br>מה המחיר המירבי שתהיו מוכנים לשלם על כרטיס להגרלה זו בין 0 ל-₪80?
        <br>הזיזו את העכבר על פני המלבן ולחצו כדי לבצע בחירה.</p>
        
        <p style=""text-align: center;"">₪40<br>65%</p>

        <p id=""wtp"" style=""text-align:center; margin-top: 0px; margin-bottom: 0px; font-size: 40px"";>מוכנים לשלם: <span id=""c_p_y""></span></p>","25","example","30","","","","","","","","","","","","","","","","","","",""
"","","","","","html-keyboard-response","5","77004","0.0-5.0","51eb357b-2d5f-4529-adb7-70ead931726e","null","<p>יפה מאוד!
                <br> בחרתם שתהיו מוכנים לשלם ₪25 כדי להשתתף בהגרלה:
                <br><p style=""text-align: center;"">₪40<br>65%</p>
                <p>נשמע נכון?
                <br>נניח שהגרלה זו נבחרה בסוף הניסוי.
                <br>כעת המחשב יקבע מחיר עבורה באקראי.
                <br>לחצו על העכבר להמשך.</p>","1","example","","","","","","","","","","","","","","","","","","","",""
"","","","","","html-keyboard-response","6","86628","0.0-6.0","51eb357b-2d5f-4529-adb7-70ead931726e","null","<p>המחשב קבע מחיר: ₪78
                <br>ואתם בחרתם לשלם לכל היותר: ₪25
                <br><br>מכיוון שהמחיר שבחרתם נמוך מהמחיר שנקבע, לא תתשתתפו בהגרלה.
                <br>במקרה כזה, בסוף הניסוי תקבלו את כל התקציב ההתחלתי של ₪80.
                <br><br>לחצו על העכבר להמשך.</p>","1","example","","","","","","","","","","","","","","","","","","","",""
"","","","","","html-slider-response","7","105244","0.0-7.0","51eb357b-2d5f-4529-adb7-70ead931726e","18351","<p style=""font-size: 42px;"">הנה עוד דוגמא:
                <br>ההגרלה מטה מציעה 35% סיכוי לזכות ב-₪18 
                <br>&emsp;&emsp;&emsp;&emsp;&emsp;&emsp;&emsp;&emsp;&ensp;65% סיכוי לזכות ב-₪0.</p>
        
                <p style=""text-align: center;"">₪18<br>35%</p>
                <p id=""wtp"" style=""text-align:center; margin-top: 0px; margin-bottom: 0px; font-size: 40px"";>מוכנים לשלם: <span id=""c_p_y""></span></p>","7","example","6","","","","","","","","","","","","","","","","","","",""
"","","","","","html-keyboard-response","8","110724","0.0-8.0","51eb357b-2d5f-4529-adb7-70ead931726e","null","<p>הייתם מוכנים לשלם  ₪7 כדי להשתתף בהגרלה:
                <p style=""text-align: center;"">₪18<br>35%</p>
                <p>כעת נניח שהמחשב בחר את ההגרלה הזו בסוף הניסוי, וקבע עבורה מחיר.
                <br><br>לחצו על העכבר כדי להמשיך.</p>","1","instructions","","","","","","","","","","","","","","","","","","","",""
"","","","","","html-keyboard-response","9","118724","0.0-9.0","51eb357b-2d5f-4529-adb7-70ead931726e","null","<p>המחשב קבע מחיר להגרלה: ₪5<br>ואתם בחרתם לשלם לכל היותר: ₪7
                <br><br>כעת המחיר שנקבע נמוך מזה שבחרתם, אז תשלמו את המחיר שקבע המחשב (₪5) ותשתתפו בהגרלה.
                <br>במקרה כזה, תסיימו את הניסוי עם תקציב של ₪75 ועם סיכוי לזכות ב-₪18 נוספים מההגרלה.
                <br>כלומר, תוכלו לקבל ₪75 אם לא תזכו בהגרלה, או ₪93 אם תזכו בהגרלה.
                <br><br>לחצו על העכבר להמשך.</p>","1","example","","","","","","","","","","","","","","","","","","","",""
"","","","","","html-keyboard-response","10","126988","0.0-10.0","51eb357b-2d5f-4529-adb7-70ead931726e","null","<p>במהלך הניסוי, קודם תראו את ההגרלה ורק לאחר מכן תוכלו לבחור.
                <p>כמו כן, יהיו לכם מספר שניות מוגבל להגיב.
                <p>בואו ננסה זאת עם ההגרלה הקודמת.
                <br>לחצו על העכבר כדי להמשיך.</p>","1","instructions","","","","","","","","","","","","","","","","","","","",""
"","","","","","html-slider-response","11","128251","0.0-11.0","51eb357b-2d5f-4529-adb7-70ead931726e","1000","
                    <p style=""text-align: center;"">₪18<br>35%</p>
                    <p id=""wtp"" style=""text-align:center; margin-top: 0px; margin-bottom: 0px; font-size: 40px"";>&ensp;</p>","44","instructions","0","","","","","","","","","","","","","","","","","","",""
"","","","","","html-slider-response","12","132504","0.0-12.0","51eb357b-2d5f-4529-adb7-70ead931726e","null","
                    <p style=""text-align: center;"">₪18<br>35%</p>
                    <p id=""wtp"" style=""text-align:center; margin-top: 0px; margin-bottom: 0px; font-size: 40px"";>מוכנים לשלם: <span id=""c_p_y""></span></p>","null","instructions","47","","","","","","","","","","","","","","","","","","",""
"","","","","","html-keyboard-response","13","132892","0.0-13.0","51eb357b-2d5f-4529-adb7-70ead931726e","null","<p>לא הגבתם בזמן המוקצב לתגובה. 
                <br>נסו להגיב מהר יותר בפעם הבאה.
                <br><br>לחצו על העכבר כדי להמשיך.</p>","1","instructions","","","","","","","","","","","","","","","","","","","",""
"","","","","","html-slider-response","14","137144","0.0-14.0-0.0","51eb357b-2d5f-4529-adb7-70ead931726e","null","
                    <p style=""text-align: center;"">₪40<br>65%</p>
                    <p id=""wtp"" style=""text-align:center; margin-top: 0px; margin-bottom: 0px; font-size: 40px"";>מוכנים לשלם: <span id=""c_p_y""></span></p>","null","instructions","23","","","","","","","","","","","","","","","","","","",""
"","","","","","html-keyboard-response","15","141468","0.0-14.0-1.0","51eb357b-2d5f-4529-adb7-70ead931726e","null","<p>לא הגבתם בזמן המוקצב לתגובה. 
                <br>נסו להגיב מהר יותר בפעם הבאה.
                <br><br>לחצו על העכבר כדי להמשיך.</p>","1","instructions","","","","","","","","","","","","","","","","","","","",""
"","","","","","html-keyboard-response","16","150004","0.0-15.0","51eb357b-2d5f-4529-adb7-70ead931726e","null","<p>כעת נתחיל את הניסוי.
                <br><br>אתם תראו הגרלות ותתבקשו לבחור כמה תהיו מוכנים לשלם כדי להשתתף בהן.
                <br>יש לכם תקציב של ₪80 עבור כל הגרלה.
                <br>בסוף הניסוי הגרלה אחת תבחר באקראי ותשוחק.
                <br><br>לחצו על העכבר כדי להתחיל את הניסוי.</p>","1","instructions","","","","","","","","","","","","","","","","","","","",""
"","","","","","html-keyboard-response","17","151256","0.0-16.0","51eb357b-2d5f-4529-adb7-70ead931726e","null","<p style=""text-align: center;"">+</p>","null","fixation","","","","","","","","","","","","","","","","","","","",""
"","","","","","html-slider-response","18","152262","0.0-17.0-0.0","51eb357b-2d5f-4529-adb7-70ead931726e","1000","
                  <p style=""text-align: center;"">₪61
                                                <br>55%</p>
                  <p id=""wtp"" style=""text-align:center; margin-top: 0px; margin-bottom: 0px; font-size: 40px"";>&ensp;</p>","-","viewing","0","23","7B,26B","","","","","","","","","","","","","","","","",""
"","","","","","html-slider-response","19","156264","0.0-17.0-1.0","51eb357b-2d5f-4529-adb7-70ead931726e","null","
                  <p style=""text-align: center;"">₪61
                                                <br>55%</p>
                  <p id=""wtp"" style=""text-align:center; margin-top: 0px; margin-bottom: 0px; font-size: 40px"";>מוכנים לשלם: <span id=""c_p_y""></span></p>","null","evaluation","12","23","7B,26B","55","61","45","","","","","","","","","","","","","",""
"","","","","","html-keyboard-response","20","157505","0.0-17.0-2.0","51eb357b-2d5f-4529-adb7-70ead931726e","null","<p style=""text-align: center;"">+</p>","null","fixation","","","","","","","","","","","","","","","","","","","",""
"","","","","","html-slider-response","21","158511","0.0-17.0-0.1","51eb357b-2d5f-4529-adb7-70ead931726e","1000","
                  <p style=""text-align: center;"">₪39
                                                <br>65%</p>
                  <p id=""wtp"" style=""text-align:center; margin-top: 0px; margin-bottom: 0px; font-size: 40px"";>&ensp;</p>","-","viewing","0","16","1A,15A,26C","","","","","","","","","","","","","","","","",""
"","","","","","html-slider-response","22","161276","0.0-17.0-1.1","51eb357b-2d5f-4529-adb7-70ead931726e","2764","
                  <p style=""text-align: center;"">₪39
                                                <br>65%</p>
                  <p id=""wtp"" style=""text-align:center; margin-top: 0px; margin-bottom: 0px; font-size: 40px"";>מוכנים לשלם: <span id=""c_p_y""></span></p>","40","evaluation","27","16","1A,15A,26C","65","39","40","","","","","","","","","","","","","",""
"","","","","","html-keyboard-response","23","161842","0.0-17.0-2.1","51eb357b-2d5f-4529-adb7-70ead931726e","null","<p style=""text-align: center;"">+</p>","null","fixation","","","","","","","","","","","","","","","","","","","",""
"","","","","","html-slider-response","24","162850","0.0-17.0-0.2","51eb357b-2d5f-4529-adb7-70ead931726e","1000","
                  <p style=""text-align: center;"">₪58
                                                <br>45%</p>
                  <p id=""wtp"" style=""text-align:center; margin-top: 0px; margin-bottom: 0px; font-size: 40px"";>&ensp;</p>","-","viewing","0","21","11C,18C,25A","","","","","","","","","","","","","","","","",""
"","","","","","html-slider-response","25","165500","0.0-17.0-1.2","51eb357b-2d5f-4529-adb7-70ead931726e","2649","
                  <p style=""text-align: center;"">₪58
                                                <br>45%</p>
                  <p id=""wtp"" style=""text-align:center; margin-top: 0px; margin-bottom: 0px; font-size: 40px"";>מוכנים לשלם: <span id=""c_p_y""></span></p>","24","evaluation","63","21","11C,18C,25A","45","58","25","","","","","","","","","","","","","",""
"","","","","","html-keyboard-response","26","166582","0.0-17.0-2.2","51eb357b-2d5f-4529-adb7-70ead931726e","null","<p style=""text-align: center;"">+</p>","null","fixation","","","","","","","","","","","","","","","","","","","",""
"","","","","","html-slider-response","27","167587","0.0-17.0-0.3","51eb357b-2d5f-4529-adb7-70ead931726e","1000","
                  <p style=""text-align: center;"">₪64
                                                <br>50%</p>
                  <p id=""wtp"" style=""text-align:center; margin-top: 0px; margin-bottom: 0px; font-size: 40px"";>&ensp;</p>","-","viewing","0","25","1B,3B,4A","","","","","","","","","","","","","","","","",""
"","","","","","html-slider-response","28","171260","0.0-17.0-1.3","51eb357b-2d5f-4529-adb7-70ead931726e","3672","
                  <p style=""text-align: center;"">₪64
                                                <br>50%</p>
                  <p id=""wtp"" style=""text-align:center; margin-top: 0px; margin-bottom: 0px; font-size: 40px"";>מוכנים לשלם: <span id=""c_p_y""></span></p>","52","evaluation","29","25","1B,3B,4A","50","64","51","","","","","","","","","","","","","",""
"","","","","","html-keyboard-response","29","172407","0.0-17.0-2.3","51eb357b-2d5f-4529-adb7-70ead931726e","null","<p style=""text-align: center;"">+</p>","null","fixation","","","","","","","","","","","","","","","","","","","",""
"","","","","","html-slider-response","30","173424","0.0-17.0-0.4","51eb357b-2d5f-4529-adb7-70ead931726e","1000","
                  <p style=""text-align: center;"">₪79
                                                <br>65%</p>
                  <p id=""wtp"" style=""text-align:center; margin-top: 0px; margin-bottom: 0px; font-size: 40px"";>&ensp;</p>","-","viewing","0","31","8A","","","","","","","","","","","","","","","","",""
"","","","","","html-slider-response","31","176388","0.0-17.0-1.4","51eb357b-2d5f-4529-adb7-70ead931726e","2963","
                  <p style=""text-align: center;"">₪79
                                                <br>65%</p>
                  <p id=""wtp"" style=""text-align:center; margin-top: 0px; margin-bottom: 0px; font-size: 40px"";>מוכנים לשלם: <span id=""c_p_y""></span></p>","80","evaluation","45","31","8A","65","79","80","","","","","","","","","","","","","",""
"","","","","","html-keyboard-response","32","177833","0.0-17.0-2.4","51eb357b-2d5f-4529-adb7-70ead931726e","null","<p style=""text-align: center;"">+</p>","null","fixation","","","","","","","","","","","","","","","","","","","",""
"","","","","","html-slider-response","33","178845","0.0-17.0-0.5","51eb357b-2d5f-4529-adb7-70ead931726e","1000","
                  <p style=""text-align: center;"">₪71
                                                <br>75%</p>
                  <p id=""wtp"" style=""text-align:center; margin-top: 0px; margin-bottom: 0px; font-size: 40px"";>&ensp;</p>","-","viewing","0","28","8B","","","","","","","","","","","","","","","","",""
"","","","","","html-slider-response","34","181100","0.0-17.0-1.5","51eb357b-2d5f-4529-adb7-70ead931726e","2254","
                  <p style=""text-align: center;"">₪71
                                                <br>75%</p>
                  <p id=""wtp"" style=""text-align:center; margin-top: 0px; margin-bottom: 0px; font-size: 40px"";>מוכנים לשלם: <span id=""c_p_y""></span></p>","80","evaluation","21","28","8B","75","71","79","","","","","","","","","","","","","",""
"","","","","","html-keyboard-response","35","182160","0.0-17.0-2.5","51eb357b-2d5f-4529-adb7-70ead931726e","null","<p style=""text-align: center;"">+</p>","null","fixation","","","","","","","","","","","","","","","","","","","",""
"","","","","","html-slider-response","36","183166","0.0-17.0-0.6","51eb357b-2d5f-4529-adb7-70ead931726e","1000","
                  <p style=""text-align: center;"">₪4
                                                <br>50%</p>
                  <p id=""wtp"" style=""text-align:center; margin-top: 0px; margin-bottom: 0px; font-size: 40px"";>&ensp;</p>","-","viewing","0","2","4C,17B","","","","","","","","","","","","","","","","",""
"","","","","","html-slider-response","37","185101","0.0-17.0-1.6","51eb357b-2d5f-4529-adb7-70ead931726e","1933","
                  <p style=""text-align: center;"">₪4
                                                <br>50%</p>
                  <p id=""wtp"" style=""text-align:center; margin-top: 0px; margin-bottom: 0px; font-size: 40px"";>מוכנים לשלם: <span id=""c_p_y""></span></p>","1","evaluation","5","2","4C,17B","50","4","2","","","","","","","","","","","","","",""
"","","","","","html-keyboard-response","38","185986","0.0-17.0-2.6","51eb357b-2d5f-4529-adb7-70ead931726e","null","<p style=""text-align: center;"">+</p>","null","fixation","","","","","","","","","","","","","","","","","","","",""
"","","","","","html-slider-response","39","186995","0.0-17.0-0.7","51eb357b-2d5f-4529-adb7-70ead931726e","1000","
                  <p style=""text-align: center;"">₪11
                                                <br>75%</p>
                  <p id=""wtp"" style=""text-align:center; margin-top: 0px; margin-bottom: 0px; font-size: 40px"";>&ensp;</p>","-","viewing","0","7","6B,18B,22C,24C,29A","","","","","","","","","","","","","","","","",""
"","","","","","html-slider-response","40","190606","0.0-17.0-1.7","51eb357b-2d5f-4529-adb7-70ead931726e","3610","
                  <p style=""text-align: center;"">₪11
                                                <br>75%</p>
                  <p id=""wtp"" style=""text-align:center; margin-top: 0px; margin-bottom: 0px; font-size: 40px"";>מוכנים לשלם: <span id=""c_p_y""></span></p>","8","evaluation","6","7","6B,18B,22C,24C,29A","75","11","9","","","","","","","","","","","","","",""
"","","","","","html-keyboard-response","41","191479","0.0-17.0-2.7","51eb357b-2d5f-4529-adb7-70ead931726e","null","<p style=""text-align: center;"">+</p>","null","fixation","","","","","","","","","","","","","","","","","","","",""
"","","","","","html-slider-response","42","192482","0.0-17.0-0.8","51eb357b-2d5f-4529-adb7-70ead931726e","1000","
                  <p style=""text-align: center;"">₪79
                                                <br>40%</p>
                  <p id=""wtp"" style=""text-align:center; margin-top: 0px; margin-bottom: 0px; font-size: 40px"";>&ensp;</p>","-","viewing","0","30","9B","","","","","","","","","","","","","","","","",""
"","","","","","html-slider-response","43","195933","0.0-17.0-1.8","51eb357b-2d5f-4529-adb7-70ead931726e","3450","
                  <p style=""text-align: center;"">₪79
                                                <br>40%</p>
                  <p id=""wtp"" style=""text-align:center; margin-top: 0px; margin-bottom: 0px; font-size: 40px"";>מוכנים לשלם: <span id=""c_p_y""></span></p>","80","evaluation","80","30","9B","40","79","80","","","","","","","","","","","","","",""
"","","","","","html-keyboard-response","44","197014","0.0-17.0-2.8","51eb357b-2d5f-4529-adb7-70ead931726e","null","<p style=""text-align: center;"">+</p>","null","fixation","","","","","","","","","","","","","","","","","","","",""
"","","","","","html-slider-response","45","198017","0.0-17.0-0.9","51eb357b-2d5f-4529-adb7-70ead931726e","1000","
                  <p style=""text-align: center;"">₪11
                                                <br>25%</p>
                  <p id=""wtp"" style=""text-align:center; margin-top: 0px; margin-bottom: 0px; font-size: 40px"";>&ensp;</p>","-","viewing","0","5","12A,27B,28B,30B","","","","","","","","","","","","","","","","",""
"","","","","","html-slider-response","46","201661","0.0-17.0-1.9","51eb357b-2d5f-4529-adb7-70ead931726e","3643","
                  <p style=""text-align: center;"">₪11
                                                <br>25%</p>
                  <p id=""wtp"" style=""text-align:center; margin-top: 0px; margin-bottom: 0px; font-size: 40px"";>מוכנים לשלם: <span id=""c_p_y""></span></p>","5","evaluation","31","5","12A,27B,28B,30B","25","11","6","","","","","","","","","","","","","",""
"","","","","","html-keyboard-response","47","202217","0.0-17.0-2.9","51eb357b-2d5f-4529-adb7-70ead931726e","null","<p style=""text-align: center;"">+</p>","null","fixation","","","","","","","","","","","","","","","","","","","",""
"","","","","","html-slider-response","48","203219","0.0-17.0-0.10","51eb357b-2d5f-4529-adb7-70ead931726e","1000","
                  <p style=""text-align: center;"">₪4
                                                <br>25%</p>
                  <p id=""wtp"" style=""text-align:center; margin-top: 0px; margin-bottom: 0px; font-size: 40px"";>&ensp;</p>","-","viewing","0","1","6C,29B,30C","","","","","","","","","","","","","","","","",""
"","","","","","html-slider-response","49","206165","0.0-17.0-1.10","51eb357b-2d5f-4529-adb7-70ead931726e","2944","
                  <p style=""text-align: center;"">₪4
                                                <br>25%</p>
                  <p id=""wtp"" style=""text-align:center; margin-top: 0px; margin-bottom: 0px; font-size: 40px"";>מוכנים לשלם: <span id=""c_p_y""></span></p>","1","evaluation","23","1","6C,29B,30C","25","4","2","","","","","","","","","","","","","",""
"","","","","","html-keyboard-response","50","207112","0.0-17.0-2.10","51eb357b-2d5f-4529-adb7-70ead931726e","null","<p style=""text-align: center;"">+</p>","null","fixation","","","","","","","","","","","","","","","","","","","",""
"","","","","","html-slider-response","51","208123","0.0-17.0-0.11","51eb357b-2d5f-4529-adb7-70ead931726e","1000","
                  <p style=""text-align: center;"">₪11
                                                <br>20%</p>
                  <p id=""wtp"" style=""text-align:center; margin-top: 0px; margin-bottom: 0px; font-size: 40px"";>&ensp;</p>","-","viewing","0","4","12C,17C,23C,28C","","","","","","","","","","","","","","","","",""
"","","","","","html-slider-response","52","211213","0.0-17.0-1.11","51eb357b-2d5f-4529-adb7-70ead931726e","3088","
                  <p style=""text-align: center;"">₪11
                                                <br>20%</p>
                  <p id=""wtp"" style=""text-align:center; margin-top: 0px; margin-bottom: 0px; font-size: 40px"";>מוכנים לשלם: <span id=""c_p_y""></span></p>","1","evaluation","69","4","12C,17C,23C,28C","20","11","2","","","","","","","","","","","","","",""
"","","","","","html-keyboard-response","53","212147","0.0-17.0-2.11","51eb357b-2d5f-4529-adb7-70ead931726e","null","<p style=""text-align: center;"">+</p>","null","fixation","","","","","","","","","","","","","","","","","","","",""
"","","","","","html-slider-response","54","213158","0.0-17.0-0.12","51eb357b-2d5f-4529-adb7-70ead931726e","1000","
                  <p style=""text-align: center;"">₪39
                                                <br>60%</p>
                  <p id=""wtp"" style=""text-align:center; margin-top: 0px; margin-bottom: 0px; font-size: 40px"";>&ensp;</p>","-","viewing","0","15","9C,25B","","","","","","","","","","","","","","","","",""
"","","","","","html-slider-response","55","217160","0.0-17.0-1.12","51eb357b-2d5f-4529-adb7-70ead931726e","null","
                  <p style=""text-align: center;"">₪39
                                                <br>60%</p>
                  <p id=""wtp"" style=""text-align:center; margin-top: 0px; margin-bottom: 0px; font-size: 40px"";>מוכנים לשלם: <span id=""c_p_y""></span></p>","null","evaluation","70","15","9C,25B","60","39","31","","","","","","","","","","","","","",""
"","","","","","html-keyboard-response","56","218541","0.0-17.0-2.12","51eb357b-2d5f-4529-adb7-70ead931726e","null","<p style=""text-align: center;"">+</p>","null","fixation","","","","","","","","","","","","","","","","","","","",""
"","","","","","html-slider-response","57","219557","0.0-17.0-0.13","51eb357b-2d5f-4529-adb7-70ead931726e","1000","
                  <p style=""text-align: center;"">₪36
                                                <br>75%</p>
                  <p id=""wtp"" style=""text-align:center; margin-top: 0px; margin-bottom: 0px; font-size: 40px"";>&ensp;</p>","-","viewing","0","14","4B,5A,13B,16B","","","","","","","","","","","","","","","","",""
"","","","","","html-slider-response","58","222525","0.0-17.0-1.13","51eb357b-2d5f-4529-adb7-70ead931726e","2967","
                  <p style=""text-align: center;"">₪36
                                                <br>75%</p>
                  <p id=""wtp"" style=""text-align:center; margin-top: 0px; margin-bottom: 0px; font-size: 40px"";>מוכנים לשלם: <span id=""c_p_y""></span></p>","52","evaluation","80","14","4B,5A,13B,16B","75","36","52","","","","","","","","","","","","","",""
"","","","","","html-keyboard-response","59","223887","0.0-17.0-2.13","51eb357b-2d5f-4529-adb7-70ead931726e","null","<p style=""text-align: center;"">+</p>","null","fixation","","","","","","","","","","","","","","","","","","","",""
"","","","","","html-slider-response","60","224892","0.0-17.0-0.14","51eb357b-2d5f-4529-adb7-70ead931726e","1000","
                  <p style=""text-align: center;"">₪43
                                                <br>75%</p>
                  <p id=""wtp"" style=""text-align:center; margin-top: 0px; margin-bottom: 0px; font-size: 40px"";>&ensp;</p>","-","viewing","0","18","11B,19B,24A,26A","","","","","","","","","","","","","","","","",""
"","","","","","html-slider-response","61","227805","0.0-17.0-1.14","51eb357b-2d5f-4529-adb7-70ead931726e","2911","
                  <p style=""text-align: center;"">₪43
                                                <br>75%</p>
                  <p id=""wtp"" style=""text-align:center; margin-top: 0px; margin-bottom: 0px; font-size: 40px"";>מוכנים לשלם: <span id=""c_p_y""></span></p>","59","evaluation","5","18","11B,19B,24A,26A","75","43","58","","","","","","","","","","","","","",""
"","","","","","html-keyboard-response","62","228739","0.0-17.0-2.14","51eb357b-2d5f-4529-adb7-70ead931726e","null","<p style=""text-align: center;"">+</p>","null","fixation","","","","","","","","","","","","","","","","","","","",""
"","","","","","html-slider-response","63","229740","0.0-17.0-0.15","51eb357b-2d5f-4529-adb7-70ead931726e","1000","
                  <p style=""text-align: center;"">₪36
                                                <br>60%</p>
                  <p id=""wtp"" style=""text-align:center; margin-top: 0px; margin-bottom: 0px; font-size: 40px"";>&ensp;</p>","-","viewing","0","12","1C,7C,15C","","","","","","","","","","","","","","","","",""
"","","","","","html-slider-response","64","232453","0.0-17.0-1.15","51eb357b-2d5f-4529-adb7-70ead931726e","2711","
                  <p style=""text-align: center;"">₪36
                                                <br>60%</p>
                  <p id=""wtp"" style=""text-align:center; margin-top: 0px; margin-bottom: 0px; font-size: 40px"";>מוכנים לשלם: <span id=""c_p_y""></span></p>","37","evaluation","8","12","1C,7C,15C","60","36","37","","","","","","","","","","","","","",""
"","","","","","html-keyboard-response","65","233004","0.0-17.0-2.15","51eb357b-2d5f-4529-adb7-70ead931726e","null","<p style=""text-align: center;"">+</p>","null","fixation","","","","","","","","","","","","","","","","","","","",""
"","","","","","html-slider-response","66","234014","0.0-17.0-0.16","51eb357b-2d5f-4529-adb7-70ead931726e","1000","
                  <p style=""text-align: center;"">₪18
                                                <br>25%</p>
                  <p id=""wtp"" style=""text-align:center; margin-top: 0px; margin-bottom: 0px; font-size: 40px"";>&ensp;</p>","-","viewing","0","9","14A,23A","","","","","","","","","","","","","","","","",""
"","","","","","html-slider-response","67","236638","0.0-17.0-1.16","51eb357b-2d5f-4529-adb7-70ead931726e","2623","
                  <p style=""text-align: center;"">₪18
                                                <br>25%</p>
                  <p id=""wtp"" style=""text-align:center; margin-top: 0px; margin-bottom: 0px; font-size: 40px"";>מוכנים לשלם: <span id=""c_p_y""></span></p>","7","evaluation","43","9","14A,23A","25","18","7","","","","","","","","","","","","","",""
"","","","","","html-keyboard-response","68","237170","0.0-17.0-2.16","51eb357b-2d5f-4529-adb7-70ead931726e","null","<p style=""text-align: center;"">+</p>","null","fixation","","","","","","","","","","","","","","","","","","","",""
"","","","","","html-slider-response","69","238171","0.0-17.0-0.17","51eb357b-2d5f-4529-adb7-70ead931726e","1000","
                  <p style=""text-align: center;"">₪71
                                                <br>55%</p>
                  <p id=""wtp"" style=""text-align:center; margin-top: 0px; margin-bottom: 0px; font-size: 40px"";>&ensp;</p>","-","viewing","0","27","5B,18A","","","","","","","","","","","","","","","","",""
"","","","","","html-slider-response","70","241189","0.0-17.0-1.17","51eb357b-2d5f-4529-adb7-70ead931726e","3016","
                  <p style=""text-align: center;"">₪71
                                                <br>55%</p>
                  <p id=""wtp"" style=""text-align:center; margin-top: 0px; margin-bottom: 0px; font-size: 40px"";>מוכנים לשלם: <span id=""c_p_y""></span></p>","69","evaluation","16","27","5B,18A","55","71","68","","","","","","","","","","","","","",""
"","","","","","html-keyboard-response","71","242060","0.0-17.0-2.17","51eb357b-2d5f-4529-adb7-70ead931726e","null","<p style=""text-align: center;"">+</p>","null","fixation","","","","","","","","","","","","","","","","","","","",""
"","","","","","html-slider-response","72","243075","0.0-17.0-0.18","51eb357b-2d5f-4529-adb7-70ead931726e","1000","
                  <p style=""text-align: center;"">₪36
                                                <br>30%</p>
                  <p id=""wtp"" style=""text-align:center; margin-top: 0px; margin-bottom: 0px; font-size: 40px"";>&ensp;</p>","-","viewing","0","11","3C,20A,22A","","","","","","","","","","","","","","","","",""
"","","","","","html-slider-response","73","245805","0.0-17.0-1.18","51eb357b-2d5f-4529-adb7-70ead931726e","2729","
                  <p style=""text-align: center;"">₪36
                                                <br>30%</p>
                  <p id=""wtp"" style=""text-align:center; margin-top: 0px; margin-bottom: 0px; font-size: 40px"";>מוכנים לשלם: <span id=""c_p_y""></span></p>","9","evaluation","33","11","3C,20A,22A","30","36","9","","","","","","","","","","","","","",""
"","","","","","html-keyboard-response","74","246753","0.0-17.0-2.18","51eb357b-2d5f-4529-adb7-70ead931726e","null","<p style=""text-align: center;"">+</p>","null","fixation","","","","","","","","","","","","","","","","","","","",""
"","","","","","html-slider-response","75","247754","0.0-17.0-0.19","51eb357b-2d5f-4529-adb7-70ead931726e","1000","
                  <p style=""text-align: center;"">₪58
                                                <br>40%</p>
                  <p id=""wtp"" style=""text-align:center; margin-top: 0px; margin-bottom: 0px; font-size: 40px"";>&ensp;</p>","-","viewing","0","20","10C,13A,19C,21B","","","","","","","","","","","","","","","","",""
"","","","","","html-slider-response","76","249973","0.0-17.0-1.19","51eb357b-2d5f-4529-adb7-70ead931726e","2218","
                  <p style=""text-align: center;"">₪58
                                                <br>40%</p>
                  <p id=""wtp"" style=""text-align:center; margin-top: 0px; margin-bottom: 0px; font-size: 40px"";>מוכנים לשלם: <span id=""c_p_y""></span></p>","14","evaluation","80","20","10C,13A,19C,21B","40","58","15","","","","","","","","","","","","","",""
"","","","","","html-keyboard-response","77","250781","0.0-17.0-2.19","51eb357b-2d5f-4529-adb7-70ead931726e","null","<p style=""text-align: center;"">+</p>","null","fixation","","","","","","","","","","","","","","","","","","","",""
"","","","","","html-slider-response","78","251783","0.0-17.0-0.20","51eb357b-2d5f-4529-adb7-70ead931726e","1000","
                  <p style=""text-align: center;"">₪43
                                                <br>60%</p>
                  <p id=""wtp"" style=""text-align:center; margin-top: 0px; margin-bottom: 0px; font-size: 40px"";>&ensp;</p>","-","viewing","0","17","2A,7A,9A,15B","","","","","","","","","","","","","","","","",""
"","","","","","html-slider-response","79","254605","0.0-17.0-1.20","51eb357b-2d5f-4529-adb7-70ead931726e","2821","
                  <p style=""text-align: center;"">₪43
                                                <br>60%</p>
                  <p id=""wtp"" style=""text-align:center; margin-top: 0px; margin-bottom: 0px; font-size: 40px"";>מוכנים לשלם: <span id=""c_p_y""></span></p>","33","evaluation","73","17","2A,7A,9A,15B","60","43","33","","","","","","","","","","","","","",""
"","","","","","html-keyboard-response","80","255173","0.0-17.0-2.20","51eb357b-2d5f-4529-adb7-70ead931726e","null","<p style=""text-align: center;"">+</p>","null","fixation","","","","","","","","","","","","","","","","","","","",""
"","","","","","html-slider-response","81","256189","0.0-17.0-0.21","51eb357b-2d5f-4529-adb7-70ead931726e","1000","
                  <p style=""text-align: center;"">₪36
                                                <br>70%</p>
                  <p id=""wtp"" style=""text-align:center; margin-top: 0px; margin-bottom: 0px; font-size: 40px"";>&ensp;</p>","-","viewing","0","13","3A,5C,10B","","","","","","","","","","","","","","","","",""
"","","","","","html-slider-response","82","259445","0.0-17.0-1.21","51eb357b-2d5f-4529-adb7-70ead931726e","3254","
                  <p style=""text-align: center;"">₪36
                                                <br>70%</p>
                  <p id=""wtp"" style=""text-align:center; margin-top: 0px; margin-bottom: 0px; font-size: 40px"";>מוכנים לשלם: <span id=""c_p_y""></span></p>","66","evaluation","51","13","3A,5C,10B","70","36","65","","","","","","","","","","","","","",""
"","","","","","html-keyboard-response","83","260488","0.0-17.0-2.21","51eb357b-2d5f-4529-adb7-70ead931726e","null","<p style=""text-align: center;"">+</p>","null","fixation","","","","","","","","","","","","","","","","","","","",""
"","","","","","html-slider-response","84","261501","0.0-17.0-0.22","51eb357b-2d5f-4529-adb7-70ead931726e","1000","
                  <p style=""text-align: center;"">₪64
                                                <br>25%</p>
                  <p id=""wtp"" style=""text-align:center; margin-top: 0px; margin-bottom: 0px; font-size: 40px"";>&ensp;</p>","-","viewing","0","24","6A,21A","","","","","","","","","","","","","","","","",""
"","","","","","html-slider-response","85","263845","0.0-17.0-1.22","51eb357b-2d5f-4529-adb7-70ead931726e","2342","
                  <p style=""text-align: center;"">₪64
                                                <br>25%</p>
                  <p id=""wtp"" style=""text-align:center; margin-top: 0px; margin-bottom: 0px; font-size: 40px"";>מוכנים לשלם: <span id=""c_p_y""></span></p>","21","evaluation","14","24","6A,21A","25","64","22","","","","","","","","","","","","","",""
"","","","","","html-keyboard-response","86","264471","0.0-17.0-2.22","51eb357b-2d5f-4529-adb7-70ead931726e","null","<p style=""text-align: center;"">+</p>","null","fixation","","","","","","","","","","","","","","","","","","","",""
"","","","","","html-slider-response","87","265484","0.0-17.0-0.23","51eb357b-2d5f-4529-adb7-70ead931726e","1000","
                  <p style=""text-align: center;"">₪11
                                                <br>45%</p>
                  <p id=""wtp"" style=""text-align:center; margin-top: 0px; margin-bottom: 0px; font-size: 40px"";>&ensp;</p>","-","viewing","0","6","14B,21C,25C","","","","","","","","","","","","","","","","",""
"","","","","","html-slider-response","88","268949","0.0-17.0-1.23","51eb357b-2d5f-4529-adb7-70ead931726e","3463","
                  <p style=""text-align: center;"">₪11
                                                <br>45%</p>
                  <p id=""wtp"" style=""text-align:center; margin-top: 0px; margin-bottom: 0px; font-size: 40px"";>מוכנים לשלם: <span id=""c_p_y""></span></p>","7","evaluation","34","6","14B,21C,25C","45","11","8","","","","","","","","","","","","","",""
"","","","","","html-keyboard-response","89","270438","0.0-17.0-2.23","51eb357b-2d5f-4529-adb7-70ead931726e","null","<p style=""text-align: center;"">+</p>","null","fixation","","","","","","","","","","","","","","","","","","","",""
"","","","","","html-slider-response","90","271446","0.0-17.0-0.24","51eb357b-2d5f-4529-adb7-70ead931726e","1000","
                  <p style=""text-align: center;"">₪4
                                                <br>75%</p>
                  <p id=""wtp"" style=""text-align:center; margin-top: 0px; margin-bottom: 0px; font-size: 40px"";>&ensp;</p>","-","viewing","0","3","12B,20B,23B,27C,29C","","","","","","","","","","","","","","","","",""
"","","","","","html-slider-response","91","274221","0.0-17.0-1.24","51eb357b-2d5f-4529-adb7-70ead931726e","2773","
                  <p style=""text-align: center;"">₪4
                                                <br>75%</p>
                  <p id=""wtp"" style=""text-align:center; margin-top: 0px; margin-bottom: 0px; font-size: 40px"";>מוכנים לשלם: <span id=""c_p_y""></span></p>","7","evaluation","36","3","12B,20B,23B,27C,29C","75","4","8","","","","","","","","","","","","","",""
"","","","","","html-keyboard-response","92","275593","0.0-17.0-2.24","51eb357b-2d5f-4529-adb7-70ead931726e","null","<p style=""text-align: center;"">+</p>","null","fixation","","","","","","","","","","","","","","","","","","","",""
"","","","","","html-slider-response","93","276610","0.0-17.0-0.25","51eb357b-2d5f-4529-adb7-70ead931726e","1000","
                  <p style=""text-align: center;"">₪18
                                                <br>50%</p>
                  <p id=""wtp"" style=""text-align:center; margin-top: 0px; margin-bottom: 0px; font-size: 40px"";>&ensp;</p>","-","viewing","0","10","2C,16C,22B,28A","","","","","","","","","","","","","","","","",""
"","","","","","html-slider-response","94","279293","0.0-17.0-1.25","51eb357b-2d5f-4529-adb7-70ead931726e","2682","
                  <p style=""text-align: center;"">₪18
                                                <br>50%</p>
                  <p id=""wtp"" style=""text-align:center; margin-top: 0px; margin-bottom: 0px; font-size: 40px"";>מוכנים לשלם: <span id=""c_p_y""></span></p>","7","evaluation","57","10","2C,16C,22B,28A","50","18","8","","","","","","","","","","","","","",""
"","","","","","html-keyboard-response","95","280655","0.0-17.0-2.25","51eb357b-2d5f-4529-adb7-70ead931726e","null","<p style=""text-align: center;"">+</p>","null","fixation","","","","","","","","","","","","","","","","","","","",""
"","","","","","html-slider-response","96","281660","0.0-17.0-0.26","51eb357b-2d5f-4529-adb7-70ead931726e","1000","
                  <p style=""text-align: center;"">₪71
                                                <br>45%</p>
                  <p id=""wtp"" style=""text-align:center; margin-top: 0px; margin-bottom: 0px; font-size: 40px"";>&ensp;</p>","-","viewing","0","26","2B,16A","","","","","","","","","","","","","","","","",""
"","","","","","html-slider-response","97","284773","0.0-17.0-1.26","51eb357b-2d5f-4529-adb7-70ead931726e","3111","
                  <p style=""text-align: center;"">₪71
                                                <br>45%</p>
                  <p id=""wtp"" style=""text-align:center; margin-top: 0px; margin-bottom: 0px; font-size: 40px"";>מוכנים לשלם: <span id=""c_p_y""></span></p>","33","evaluation","16","26","2B,16A","45","71","34","","","","","","","","","","","","","",""
"","","","","","html-keyboard-response","98","285852","0.0-17.0-2.26","51eb357b-2d5f-4529-adb7-70ead931726e","null","<p style=""text-align: center;"">+</p>","null","fixation","","","","","","","","","","","","","","","","","","","",""
"","","","","","html-slider-response","99","286858","0.0-17.0-0.27","51eb357b-2d5f-4529-adb7-70ead931726e","1000","
                  <p style=""text-align: center;"">₪61
                                                <br>45%</p>
                  <p id=""wtp"" style=""text-align:center; margin-top: 0px; margin-bottom: 0px; font-size: 40px"";>&ensp;</p>","-","viewing","0","22","10A,11A","","","","","","","","","","","","","","","","",""
"","","","","","html-slider-response","100","290253","0.0-17.0-1.27","51eb357b-2d5f-4529-adb7-70ead931726e","3394","
                  <p style=""text-align: center;"">₪61
                                                <br>45%</p>
                  <p id=""wtp"" style=""text-align:center; margin-top: 0px; margin-bottom: 0px; font-size: 40px"";>מוכנים לשלם: <span id=""c_p_y""></span></p>","45","evaluation","6","22","10A,11A","45","61","44","","","","","","","","","","","","","",""
"","","","","","html-keyboard-response","101","291709","0.0-17.0-2.27","51eb357b-2d5f-4529-adb7-70ead931726e","null","<p style=""text-align: center;"">+</p>","null","fixation","","","","","","","","","","","","","","","","","","","",""
"","","","","","html-slider-response","102","292710","0.0-17.0-0.28","51eb357b-2d5f-4529-adb7-70ead931726e","1000","
                  <p style=""text-align: center;"">₪58
                                                <br>30%</p>
                  <p id=""wtp"" style=""text-align:center; margin-top: 0px; margin-bottom: 0px; font-size: 40px"";>&ensp;</p>","-","viewing","0","19","13C,30A","","","","","","","","","","","","","","","","",""
"","","","","","html-slider-response","103","295981","0.0-17.0-1.28","51eb357b-2d5f-4529-adb7-70ead931726e","3269","
                  <p style=""text-align: center;"">₪58
                                                <br>30%</p>
                  <p id=""wtp"" style=""text-align:center; margin-top: 0px; margin-bottom: 0px; font-size: 40px"";>מוכנים לשלם: <span id=""c_p_y""></span></p>","17","evaluation","74","19","13C,30A","30","58","17","","","","","","","","","","","","","",""
"","","","","","html-keyboard-response","104","296814","0.0-17.0-2.28","51eb357b-2d5f-4529-adb7-70ead931726e","null","<p style=""text-align: center;"">+</p>","null","fixation","","","","","","","","","","","","","","","","","","","",""
"","","","","","html-slider-response","105","297827","0.0-17.0-0.29","51eb357b-2d5f-4529-adb7-70ead931726e","1000","
                  <p style=""text-align: center;"">₪76
                                                <br>65%</p>
                  <p id=""wtp"" style=""text-align:center; margin-top: 0px; margin-bottom: 0px; font-size: 40px"";>&ensp;</p>","-","viewing","0","29","8C,19A,24B","","","","","","","","","","","","","","","","",""
"","","","","","html-slider-response","106","301373","0.0-17.0-1.29","51eb357b-2d5f-4529-adb7-70ead931726e","3545","
                  <p style=""text-align: center;"">₪76
                                                <br>65%</p>
                  <p id=""wtp"" style=""text-align:center; margin-top: 0px; margin-bottom: 0px; font-size: 40px"";>מוכנים לשלם: <span id=""c_p_y""></span></p>","80","evaluation","18","29","8C,19A,24B","65","76","80","","","","","","","","","","","","","",""
"","","","","","html-keyboard-response","107","302542","0.0-17.0-2.29","51eb357b-2d5f-4529-adb7-70ead931726e","null","<p style=""text-align: center;"">+</p>","null","fixation","","","","","","","","","","","","","","","","","","","",""
"","","","","","html-slider-response","108","303549","0.0-17.0-0.30","51eb357b-2d5f-4529-adb7-70ead931726e","1000","
                  <p style=""text-align: center;"">₪16
                                                <br>20%</p>
                  <p id=""wtp"" style=""text-align:center; margin-top: 0px; margin-bottom: 0px; font-size: 40px"";>&ensp;</p>","-","viewing","0","8","14C,17A,20C,27A","","","","","","","","","","","","","","","","",""
"","","","","","html-slider-response","109","305500","0.0-17.0-1.30","51eb357b-2d5f-4529-adb7-70ead931726e","1951","
                  <p style=""text-align: center;"">₪16
                                                <br>20%</p>
                  <p id=""wtp"" style=""text-align:center; margin-top: 0px; margin-bottom: 0px; font-size: 40px"";>מוכנים לשלם: <span id=""c_p_y""></span></p>","3","evaluation","63","8","14C,17A,20C,27A","20","16","4","","","","","","","","","","","","","",""
"","","","","","html-keyboard-response","110","306504","0.0-17.0-2.30","51eb357b-2d5f-4529-adb7-70ead931726e","null","<p style=""text-align: center;"">+</p>","null","fixation","","","","","","","","","","","","","","","","","","","",""
"","","","","","html-keyboard-response","111","307505","0.0-18.0","51eb357b-2d5f-4529-adb7-70ead931726e","null","<p style=""text-align: center;"">+</p>","null","fixation","","","","","","","","","","","","","","","","","","","",""
"","","","","","html-keyboard-response","112","315388","0.0-19.0","51eb357b-2d5f-4529-adb7-70ead931726e","null","<p>הפסקה.
          <br>לחצו כדי להמשיך.</p>","1","scan_wait","","","","","","","","","","","","","","","","","","","",""
"","","","","","html-keyboard-response","113","316399","0.0-20.0","51eb357b-2d5f-4529-adb7-70ead931726e","null","<p style=""text-align: center;"">+</p>","null","fixation","","","","","","","","","","","","","","","","","","","",""
"","","","","","html-slider-response","114","317413","0.0-21.0-0.0","51eb357b-2d5f-4529-adb7-70ead931726e","1000","
                  <p style=""text-align: center;"">₪11
                                                <br>45%</p>
                  <p id=""wtp"" style=""text-align:center; margin-top: 0px; margin-bottom: 0px; font-size: 40px"";>&ensp;</p>","-","viewing","0","6","14B,21C,25C","","","","","","","","","","","","","","","","",""
"","","","","","html-slider-response","115","319964","0.0-21.0-1.0","51eb357b-2d5f-4529-adb7-70ead931726e","2550","
                  <p style=""text-align: center;"">₪11
                                                <br>45%</p>
                  <p id=""wtp"" style=""text-align:center; margin-top: 0px; margin-bottom: 0px; font-size: 40px"";>מוכנים לשלם: <span id=""c_p_y""></span></p>","4","evaluation","0","6","14B,21C,25C","45","11","5","","","","","","","","","","","","","",""
"","","","","","html-keyboard-response","116","320749","0.0-21.0-2.0","51eb357b-2d5f-4529-adb7-70ead931726e","null","<p style=""text-align: center;"">+</p>","null","fixation","","","","","","","","","","","","","","","","","","","",""
"","","","","","html-slider-response","117","321755","0.0-21.0-0.1","51eb357b-2d5f-4529-adb7-70ead931726e","1000","
                  <p style=""text-align: center;"">₪4
                                                <br>75%</p>
                  <p id=""wtp"" style=""text-align:center; margin-top: 0px; margin-bottom: 0px; font-size: 40px"";>&ensp;</p>","-","viewing","0","3","12B,20B,23B,27C,29C","","","","","","","","","","","","","","","","",""
"","","","","","html-slider-response","118","323884","0.0-21.0-1.1","51eb357b-2d5f-4529-adb7-70ead931726e","2128","
                  <p style=""text-align: center;"">₪4
                                                <br>75%</p>
                  <p id=""wtp"" style=""text-align:center; margin-top: 0px; margin-bottom: 0px; font-size: 40px"";>מוכנים לשלם: <span id=""c_p_y""></span></p>","7","evaluation","31","3","12B,20B,23B,27C,29C","75","4","7","","","","","","","","","","","","","",""
"","","","","","html-keyboard-response","119","324738","0.0-21.0-2.1","51eb357b-2d5f-4529-adb7-70ead931726e","null","<p style=""text-align: center;"">+</p>","null","fixation","","","","","","","","","","","","","","","","","","","",""
"","","","","","html-slider-response","120","325740","0.0-21.0-0.2","51eb357b-2d5f-4529-adb7-70ead931726e","1000","
                  <p style=""text-align: center;"">₪64
                                                <br>25%</p>
                  <p id=""wtp"" style=""text-align:center; margin-top: 0px; margin-bottom: 0px; font-size: 40px"";>&ensp;</p>","-","viewing","0","24","6A,21A","","","","","","","","","","","","","","","","",""
"","","","","","html-slider-response","121","328380","0.0-21.0-1.2","51eb357b-2d5f-4529-adb7-70ead931726e","2639","
                  <p style=""text-align: center;"">₪64
                                                <br>25%</p>
                  <p id=""wtp"" style=""text-align:center; margin-top: 0px; margin-bottom: 0px; font-size: 40px"";>מוכנים לשלם: <span id=""c_p_y""></span></p>","14","evaluation","75","24","6A,21A","25","64","15","","","","","","","","","","","","","",""
"","","","","","html-keyboard-response","122","329643","0.0-21.0-2.2","51eb357b-2d5f-4529-adb7-70ead931726e","null","<p style=""text-align: center;"">+</p>","null","fixation","","","","","","","","","","","","","","","","","","","",""
"","","","","","html-slider-response","123","330646","0.0-21.0-0.3","51eb357b-2d5f-4529-adb7-70ead931726e","1000","
                  <p style=""text-align: center;"">₪71
                                                <br>55%</p>
                  <p id=""wtp"" style=""text-align:center; margin-top: 0px; margin-bottom: 0px; font-size: 40px"";>&ensp;</p>","-","viewing","0","27","5B,18A","","","","","","","","","","","","","","","","",""
"","","","","","html-slider-response","124","334300","0.0-21.0-1.3","51eb357b-2d5f-4529-adb7-70ead931726e","3653","
                  <p style=""text-align: center;"">₪71
                                                <br>55%</p>
                  <p id=""wtp"" style=""text-align:center; margin-top: 0px; margin-bottom: 0px; font-size: 40px"";>מוכנים לשלם: <span id=""c_p_y""></span></p>","77","evaluation","72","27","5B,18A","55","71","76","","","","","","","","","","","","","",""
"","","","","","html-keyboard-response","125","335769","0.0-21.0-2.3","51eb357b-2d5f-4529-adb7-70ead931726e","null","<p style=""text-align: center;"">+</p>","null","fixation","","","","","","","","","","","","","","","","","","","",""
"","","","","","html-slider-response","126","336772","0.0-21.0-0.4","51eb357b-2d5f-4529-adb7-70ead931726e","1000","
                  <p style=""text-align: center;"">₪61
                                                <br>55%</p>
                  <p id=""wtp"" style=""text-align:center; margin-top: 0px; margin-bottom: 0px; font-size: 40px"";>&ensp;</p>","-","viewing","0","23","7B,26B","","","","","","","","","","","","","","","","",""
"","","","","","html-slider-response","127","340173","0.0-21.0-1.4","51eb357b-2d5f-4529-adb7-70ead931726e","3399","
                  <p style=""text-align: center;"">₪61
                                                <br>55%</p>
                  <p id=""wtp"" style=""text-align:center; margin-top: 0px; margin-bottom: 0px; font-size: 40px"";>מוכנים לשלם: <span id=""c_p_y""></span></p>","64","evaluation","19","23","7B,26B","55","61","64","","","","","","","","","","","","","",""
"","","","","","html-keyboard-response","128","341252","0.0-21.0-2.4","51eb357b-2d5f-4529-adb7-70ead931726e","null","<p style=""text-align: center;"">+</p>","null","fixation","","","","","","","","","","","","","","","","","","","",""
"","","","","","html-slider-response","129","342260","0.0-21.0-0.5","51eb357b-2d5f-4529-adb7-70ead931726e","1000","
                  <p style=""text-align: center;"">₪71
                                                <br>45%</p>
                  <p id=""wtp"" style=""text-align:center; margin-top: 0px; margin-bottom: 0px; font-size: 40px"";>&ensp;</p>","-","viewing","0","26","2B,16A","","","","","","","","","","","","","","","","",""
"","","","","","html-slider-response","130","346273","0.0-21.0-1.5","51eb357b-2d5f-4529-adb7-70ead931726e","null","
                  <p style=""text-align: center;"">₪71
                                                <br>45%</p>
                  <p id=""wtp"" style=""text-align:center; margin-top: 0px; margin-bottom: 0px; font-size: 40px"";>מוכנים לשלם: <span id=""c_p_y""></span></p>","null","evaluation","40","26","2B,16A","45","71","48","","","","","","","","","","","","","",""
"","","","","","html-keyboard-response","131","347032","0.0-21.0-2.5","51eb357b-2d5f-4529-adb7-70ead931726e","null","<p style=""text-align: center;"">+</p>","null","fixation","","","","","","","","","","","","","","","","","","","",""
"","","","","","html-slider-response","132","348036","0.0-21.0-0.6","51eb357b-2d5f-4529-adb7-70ead931726e","1000","
                  <p style=""text-align: center;"">₪18
                                                <br>25%</p>
                  <p id=""wtp"" style=""text-align:center; margin-top: 0px; margin-bottom: 0px; font-size: 40px"";>&ensp;</p>","-","viewing","0","9","14A,23A","","","","","","","","","","","","","","","","",""
"","","","","","html-slider-response","133","350292","0.0-21.0-1.6","51eb357b-2d5f-4529-adb7-70ead931726e","2255","
                  <p style=""text-align: center;"">₪18
                                                <br>25%</p>
                  <p id=""wtp"" style=""text-align:center; margin-top: 0px; margin-bottom: 0px; font-size: 40px"";>מוכנים לשלם: <span id=""c_p_y""></span></p>","6","evaluation","51","9","14A,23A","25","18","6","","","","","","","","","","","","","",""
"","","","","","html-keyboard-response","134","351342","0.0-21.0-2.6","51eb357b-2d5f-4529-adb7-70ead931726e","null","<p style=""text-align: center;"">+</p>","null","fixation","","","","","","","","","","","","","","","","","","","",""
"","","","","","html-slider-response","135","352350","0.0-21.0-0.7","51eb357b-2d5f-4529-adb7-70ead931726e","1000","
                  <p style=""text-align: center;"">₪4
                                                <br>25%</p>
                  <p id=""wtp"" style=""text-align:center; margin-top: 0px; margin-bottom: 0px; font-size: 40px"";>&ensp;</p>","-","viewing","0","1","6C,29B,30C","","","","","","","","","","","","","","","","",""
"","","","","","html-slider-response","136","355005","0.0-21.0-1.7","51eb357b-2d5f-4529-adb7-70ead931726e","2653","
                  <p style=""text-align: center;"">₪4
                                                <br>25%</p>
                  <p id=""wtp"" style=""text-align:center; margin-top: 0px; margin-bottom: 0px; font-size: 40px"";>מוכנים לשלם: <span id=""c_p_y""></span></p>","1","evaluation","14","1","6C,29B,30C","25","4","1","","","","","","","","","","","","","",""
"","","","","","html-keyboard-response","137","356500","0.0-21.0-2.7","51eb357b-2d5f-4529-adb7-70ead931726e","null","<p style=""text-align: center;"">+</p>","null","fixation","","","","","","","","","","","","","","","","","","","",""
"","","","","","html-slider-response","138","357512","0.0-21.0-0.8","51eb357b-2d5f-4529-adb7-70ead931726e","1000","
                  <p style=""text-align: center;"">₪43
                                                <br>75%</p>
                  <p id=""wtp"" style=""text-align:center; margin-top: 0px; margin-bottom: 0px; font-size: 40px"";>&ensp;</p>","-","viewing","0","18","11B,19B,24A,26A","","","","","","","","","","","","","","","","",""
"","","","","","html-slider-response","139","359844","0.0-21.0-1.8","51eb357b-2d5f-4529-adb7-70ead931726e","2332","
                  <p style=""text-align: center;"">₪43
                                                <br>75%</p>
                  <p id=""wtp"" style=""text-align:center; margin-top: 0px; margin-bottom: 0px; font-size: 40px"";>מוכנים לשלם: <span id=""c_p_y""></span></p>","61","evaluation","22","18","11B,19B,24A,26A","75","43","60","","","","","","","","","","","","","",""
"","","","","","html-keyboard-response","140","360634","0.0-21.0-2.8","51eb357b-2d5f-4529-adb7-70ead931726e","null","<p style=""text-align: center;"">+</p>","null","fixation","","","","","","","","","","","","","","","","","","","",""
"","","","","","html-slider-response","141","361650","0.0-21.0-0.9","51eb357b-2d5f-4529-adb7-70ead931726e","1000","
                  <p style=""text-align: center;"">₪76
                                                <br>65%</p>
                  <p id=""wtp"" style=""text-align:center; margin-top: 0px; margin-bottom: 0px; font-size: 40px"";>&ensp;</p>","-","viewing","0","29","8C,19A,24B","","","","","","","","","","","","","","","","",""
"","","","","","html-slider-response","142","364836","0.0-21.0-1.9","51eb357b-2d5f-4529-adb7-70ead931726e","3185","
                  <p style=""text-align: center;"">₪76
                                                <br>65%</p>
                  <p id=""wtp"" style=""text-align:center; margin-top: 0px; margin-bottom: 0px; font-size: 40px"";>מוכנים לשלם: <span id=""c_p_y""></span></p>","80","evaluation","0","29","8C,19A,24B","65","76","80","","","","","","","","","","","","","",""
"","","","","","html-keyboard-response","143","365761","0.0-21.0-2.9","51eb357b-2d5f-4529-adb7-70ead931726e","null","<p style=""text-align: center;"">+</p>","null","fixation","","","","","","","","","","","","","","","","","","","",""
"","","","","","html-slider-response","144","366762","0.0-21.0-0.10","51eb357b-2d5f-4529-adb7-70ead931726e","1000","
                  <p style=""text-align: center;"">₪18
                                                <br>50%</p>
                  <p id=""wtp"" style=""text-align:center; margin-top: 0px; margin-bottom: 0px; font-size: 40px"";>&ensp;</p>","-","viewing","0","10","2C,16C,22B,28A","","","","","","","","","","","","","","","","",""
"","","","","","html-slider-response","145","369397","0.0-21.0-1.10","51eb357b-2d5f-4529-adb7-70ead931726e","2634","
                  <p style=""text-align: center;"">₪18
                                                <br>50%</p>
                  <p id=""wtp"" style=""text-align:center; margin-top: 0px; margin-bottom: 0px; font-size: 40px"";>מוכנים לשלם: <span id=""c_p_y""></span></p>","9","evaluation","46","10","2C,16C,22B,28A","50","18","10","","","","","","","","","","","","","",""
"","","","","","html-keyboard-response","146","370697","0.0-21.0-2.10","51eb357b-2d5f-4529-adb7-70ead931726e","null","<p style=""text-align: center;"">+</p>","null","fixation","","","","","","","","","","","","","","","","","","","",""
"","","","","","html-slider-response","147","371700","0.0-21.0-0.11","51eb357b-2d5f-4529-adb7-70ead931726e","1000","
                  <p style=""text-align: center;"">₪16
                                                <br>20%</p>
                  <p id=""wtp"" style=""text-align:center; margin-top: 0px; margin-bottom: 0px; font-size: 40px"";>&ensp;</p>","-","viewing","0","8","14C,17A,20C,27A","","","","","","","","","","","","","","","","",""
"","","","","","html-slider-response","148","374300","0.0-21.0-1.11","51eb357b-2d5f-4529-adb7-70ead931726e","2599","
                  <p style=""text-align: center;"">₪16
                                                <br>20%</p>
                  <p id=""wtp"" style=""text-align:center; margin-top: 0px; margin-bottom: 0px; font-size: 40px"";>מוכנים לשלם: <span id=""c_p_y""></span></p>","3","evaluation","78","8","14C,17A,20C,27A","20","16","4","","","","","","","","","","","","","",""
"","","","","","html-keyboard-response","149","375728","0.0-21.0-2.11","51eb357b-2d5f-4529-adb7-70ead931726e","null","<p style=""text-align: center;"">+</p>","null","fixation","","","","","","","","","","","","","","","","","","","",""
"","","","","","html-slider-response","150","376731","0.0-21.0-0.12","51eb357b-2d5f-4529-adb7-70ead931726e","1000","
                  <p style=""text-align: center;"">₪71
                                                <br>75%</p>
                  <p id=""wtp"" style=""text-align:center; margin-top: 0px; margin-bottom: 0px; font-size: 40px"";>&ensp;</p>","-","viewing","0","28","8B","","","","","","","","","","","","","","","","",""
"","","","","","html-slider-response","151","378669","0.0-21.0-1.12","51eb357b-2d5f-4529-adb7-70ead931726e","1936","
                  <p style=""text-align: center;"">₪71
                                                <br>75%</p>
                  <p id=""wtp"" style=""text-align:center; margin-top: 0px; margin-bottom: 0px; font-size: 40px"";>מוכנים לשלם: <span id=""c_p_y""></span></p>","80","evaluation","42","28","8B","75","71","80","","","","","","","","","","","","","",""
"","","","","","html-keyboard-response","152","379349","0.0-21.0-2.12","51eb357b-2d5f-4529-adb7-70ead931726e","null","<p style=""text-align: center;"">+</p>","null","fixation","","","","","","","","","","","","","","","","","","","",""
"","","","","","html-slider-response","153","380359","0.0-21.0-0.13","51eb357b-2d5f-4529-adb7-70ead931726e","1000","
                  <p style=""text-align: center;"">₪36
                                                <br>70%</p>
                  <p id=""wtp"" style=""text-align:center; margin-top: 0px; margin-bottom: 0px; font-size: 40px"";>&ensp;</p>","-","viewing","0","13","3A,5C,10B","","","","","","","","","","","","","","","","",""
"","","","","","html-slider-response","154","383012","0.0-21.0-1.13","51eb357b-2d5f-4529-adb7-70ead931726e","2653","
                  <p style=""text-align: center;"">₪36
                                                <br>70%</p>
                  <p id=""wtp"" style=""text-align:center; margin-top: 0px; margin-bottom: 0px; font-size: 40px"";>מוכנים לשלם: <span id=""c_p_y""></span></p>","68","evaluation","6","13","3A,5C,10B","70","36","67","","","","","","","","","","","","","",""
"","","","","","html-keyboard-response","155","384327","0.0-21.0-2.13","51eb357b-2d5f-4529-adb7-70ead931726e","null","<p style=""text-align: center;"">+</p>","null","fixation","","","","","","","","","","","","","","","","","","","",""
"","","","","","html-slider-response","156","385334","0.0-21.0-0.14","51eb357b-2d5f-4529-adb7-70ead931726e","1000","
                  <p style=""text-align: center;"">₪43
                                                <br>60%</p>
                  <p id=""wtp"" style=""text-align:center; margin-top: 0px; margin-bottom: 0px; font-size: 40px"";>&ensp;</p>","-","viewing","0","17","2A,7A,9A,15B","","","","","","","","","","","","","","","","",""
"","","","","","html-slider-response","157","387685","0.0-21.0-1.14","51eb357b-2d5f-4529-adb7-70ead931726e","2349","
                  <p style=""text-align: center;"">₪43
                                                <br>60%</p>
                  <p id=""wtp"" style=""text-align:center; margin-top: 0px; margin-bottom: 0px; font-size: 40px"";>מוכנים לשלם: <span id=""c_p_y""></span></p>","51","evaluation","0","17","2A,7A,9A,15B","60","43","50","","","","","","","","","","","","","",""
"","","","","","html-keyboard-response","158","388482","0.0-21.0-2.14","51eb357b-2d5f-4529-adb7-70ead931726e","null","<p style=""text-align: center;"">+</p>","null","fixation","","","","","","","","","","","","","","","","","","","",""
"","","","","","html-slider-response","159","389498","0.0-21.0-0.15","51eb357b-2d5f-4529-adb7-70ead931726e","1000","
                  <p style=""text-align: center;"">₪36
                                                <br>60%</p>
                  <p id=""wtp"" style=""text-align:center; margin-top: 0px; margin-bottom: 0px; font-size: 40px"";>&ensp;</p>","-","viewing","0","12","1C,7C,15C","","","","","","","","","","","","","","","","",""
"","","","","","html-slider-response","160","393501","0.0-21.0-1.15","51eb357b-2d5f-4529-adb7-70ead931726e","null","
                  <p style=""text-align: center;"">₪36
                                                <br>60%</p>
                  <p id=""wtp"" style=""text-align:center; margin-top: 0px; margin-bottom: 0px; font-size: 40px"";>מוכנים לשלם: <span id=""c_p_y""></span></p>","null","evaluation","74","12","1C,7C,15C","60","36","39","","","","","","","","","","","","","",""
"","","","","","html-keyboard-response","161","394414","0.0-21.0-2.15","51eb357b-2d5f-4529-adb7-70ead931726e","null","<p style=""text-align: center;"">+</p>","null","fixation","","","","","","","","","","","","","","","","","","","",""
"","","","","","html-slider-response","162","395417","0.0-21.0-0.16","51eb357b-2d5f-4529-adb7-70ead931726e","1000","
                  <p style=""text-align: center;"">₪4
                                                <br>50%</p>
                  <p id=""wtp"" style=""text-align:center; margin-top: 0px; margin-bottom: 0px; font-size: 40px"";>&ensp;</p>","-","viewing","0","2","4C,17B","","","","","","","","","","","","","","","","",""
"","","","","","html-slider-response","163","398045","0.0-21.0-1.16","51eb357b-2d5f-4529-adb7-70ead931726e","2626","
                  <p style=""text-align: center;"">₪4
                                                <br>50%</p>
                  <p id=""wtp"" style=""text-align:center; margin-top: 0px; margin-bottom: 0px; font-size: 40px"";>מוכנים לשלם: <span id=""c_p_y""></span></p>","4","evaluation","42","2","4C,17B","50","4","5","","","","","","","","","","","","","",""
"","","","","","html-keyboard-response","164","398981","0.0-21.0-2.16","51eb357b-2d5f-4529-adb7-70ead931726e","null","<p style=""text-align: center;"">+</p>","null","fixation","","","","","","","","","","","","","","","","","","","",""
"","","","","","html-slider-response","165","399983","0.0-21.0-0.17","51eb357b-2d5f-4529-adb7-70ead931726e","1000","
                  <p style=""text-align: center;"">₪58
                                                <br>30%</p>
                  <p id=""wtp"" style=""text-align:center; margin-top: 0px; margin-bottom: 0px; font-size: 40px"";>&ensp;</p>","-","viewing","0","19","13C,30A","","","","","","","","","","","","","","","","",""
"","","","","","html-slider-response","166","403645","0.0-21.0-1.17","51eb357b-2d5f-4529-adb7-70ead931726e","3661","
                  <p style=""text-align: center;"">₪58
                                                <br>30%</p>
                  <p id=""wtp"" style=""text-align:center; margin-top: 0px; margin-bottom: 0px; font-size: 40px"";>מוכנים לשלם: <span id=""c_p_y""></span></p>","17","evaluation","13","19","13C,30A","30","58","18","","","","","","","","","","","","","",""
"","","","","","html-keyboard-response","167","404202","0.0-21.0-2.17","51eb357b-2d5f-4529-adb7-70ead931726e","null","<p style=""text-align: center;"">+</p>","null","fixation","","","","","","","","","","","","","","","","","","","",""
"","","","","","html-slider-response","168","405212","0.0-21.0-0.18","51eb357b-2d5f-4529-adb7-70ead931726e","1000","
                  <p style=""text-align: center;"">₪61
                                                <br>45%</p>
                  <p id=""wtp"" style=""text-align:center; margin-top: 0px; margin-bottom: 0px; font-size: 40px"";>&ensp;</p>","-","viewing","0","22","10A,11A","","","","","","","","","","","","","","","","",""
"","","","","","html-slider-response","169","408333","0.0-21.0-1.18","51eb357b-2d5f-4529-adb7-70ead931726e","3119","
                  <p style=""text-align: center;"">₪61
                                                <br>45%</p>
                  <p id=""wtp"" style=""text-align:center; margin-top: 0px; margin-bottom: 0px; font-size: 40px"";>מוכנים לשלם: <span id=""c_p_y""></span></p>","42","evaluation","75","22","10A,11A","45","61","42","","","","","","","","","","","","","",""
"","","","","","html-keyboard-response","170","409452","0.0-21.0-2.18","51eb357b-2d5f-4529-adb7-70ead931726e","null","<p style=""text-align: center;"">+</p>","null","fixation","","","","","","","","","","","","","","","","","","","",""
"","","","","","html-slider-response","171","410457","0.0-21.0-0.19","51eb357b-2d5f-4529-adb7-70ead931726e","1000","
                  <p style=""text-align: center;"">₪58
                                                <br>45%</p>
                  <p id=""wtp"" style=""text-align:center; margin-top: 0px; margin-bottom: 0px; font-size: 40px"";>&ensp;</p>","-","viewing","0","21","11C,18C,25A","","","","","","","","","","","","","","","","",""
"","","","","","html-slider-response","172","413925","0.0-21.0-1.19","51eb357b-2d5f-4529-adb7-70ead931726e","3467","
                  <p style=""text-align: center;"">₪58
                                                <br>45%</p>
                  <p id=""wtp"" style=""text-align:center; margin-top: 0px; margin-bottom: 0px; font-size: 40px"";>מוכנים לשלם: <span id=""c_p_y""></span></p>","40","evaluation","30","21","11C,18C,25A","45","58","40","","","","","","","","","","","","","",""
"","","","","","html-keyboard-response","173","415203","0.0-21.0-2.19","51eb357b-2d5f-4529-adb7-70ead931726e","null","<p style=""text-align: center;"">+</p>","null","fixation","","","","","","","","","","","","","","","","","","","",""
"","","","","","html-slider-response","174","416206","0.0-21.0-0.20","51eb357b-2d5f-4529-adb7-70ead931726e","1000","
                  <p style=""text-align: center;"">₪39
                                                <br>65%</p>
                  <p id=""wtp"" style=""text-align:center; margin-top: 0px; margin-bottom: 0px; font-size: 40px"";>&ensp;</p>","-","viewing","0","16","1A,15A,26C","","","","","","","","","","","","","","","","",""
"","","","","","html-slider-response","175","418205","0.0-21.0-1.20","51eb357b-2d5f-4529-adb7-70ead931726e","1997","
                  <p style=""text-align: center;"">₪39
                                                <br>65%</p>
                  <p id=""wtp"" style=""text-align:center; margin-top: 0px; margin-bottom: 0px; font-size: 40px"";>מוכנים לשלם: <span id=""c_p_y""></span></p>","46","evaluation","54","16","1A,15A,26C","65","39","46","","","","","","","","","","","","","",""
"","","","","","html-keyboard-response","176","419461","0.0-21.0-2.20","51eb357b-2d5f-4529-adb7-70ead931726e","null","<p style=""text-align: center;"">+</p>","null","fixation","","","","","","","","","","","","","","","","","","","",""
"","","","","","html-slider-response","177","420472","0.0-21.0-0.21","51eb357b-2d5f-4529-adb7-70ead931726e","1000","
                  <p style=""text-align: center;"">₪79
                                                <br>40%</p>
                  <p id=""wtp"" style=""text-align:center; margin-top: 0px; margin-bottom: 0px; font-size: 40px"";>&ensp;</p>","-","viewing","0","30","9B","","","","","","","","","","","","","","","","",""
"","","","","","html-slider-response","178","422557","0.0-21.0-1.21","51eb357b-2d5f-4529-adb7-70ead931726e","2083","
                  <p style=""text-align: center;"">₪79
                                                <br>40%</p>
                  <p id=""wtp"" style=""text-align:center; margin-top: 0px; margin-bottom: 0px; font-size: 40px"";>מוכנים לשלם: <span id=""c_p_y""></span></p>","49","evaluation","67","30","9B","40","79","49","","","","","","","","","","","","","",""
"","","","","","html-keyboard-response","179","423809","0.0-21.0-2.21","51eb357b-2d5f-4529-adb7-70ead931726e","null","<p style=""text-align: center;"">+</p>","null","fixation","","","","","","","","","","","","","","","","","","","",""
"","","","","","html-slider-response","180","424817","0.0-21.0-0.22","51eb357b-2d5f-4529-adb7-70ead931726e","1000","
                  <p style=""text-align: center;"">₪64
                                                <br>50%</p>
                  <p id=""wtp"" style=""text-align:center; margin-top: 0px; margin-bottom: 0px; font-size: 40px"";>&ensp;</p>","-","viewing","0","25","1B,3B,4A","","","","","","","","","","","","","","","","",""
"","","","","","html-slider-response","181","428005","0.0-21.0-1.22","51eb357b-2d5f-4529-adb7-70ead931726e","3187","
                  <p style=""text-align: center;"">₪64
                                                <br>50%</p>
                  <p id=""wtp"" style=""text-align:center; margin-top: 0px; margin-bottom: 0px; font-size: 40px"";>מוכנים לשלם: <span id=""c_p_y""></span></p>","54","evaluation","68","25","1B,3B,4A","50","64","54","","","","","","","","","","","","","",""
"","","","","","html-keyboard-response","182","428564","0.0-21.0-2.22","51eb357b-2d5f-4529-adb7-70ead931726e","null","<p style=""text-align: center;"">+</p>","null","fixation","","","","","","","","","","","","","","","","","","","",""
"","","","","","html-slider-response","183","429568","0.0-21.0-0.23","51eb357b-2d5f-4529-adb7-70ead931726e","1000","
                  <p style=""text-align: center;"">₪36
                                                <br>30%</p>
                  <p id=""wtp"" style=""text-align:center; margin-top: 0px; margin-bottom: 0px; font-size: 40px"";>&ensp;</p>","-","viewing","0","11","3C,20A,22A","","","","","","","","","","","","","","","","",""
"","","","","","html-slider-response","184","432333","0.0-21.0-1.23","51eb357b-2d5f-4529-adb7-70ead931726e","2764","
                  <p style=""text-align: center;"">₪36
                                                <br>30%</p>
                  <p id=""wtp"" style=""text-align:center; margin-top: 0px; margin-bottom: 0px; font-size: 40px"";>מוכנים לשלם: <span id=""c_p_y""></span></p>","16","evaluation","65","11","3C,20A,22A","30","36","17","","","","","","","","","","","","","",""
"","","","","","html-keyboard-response","185","433684","0.0-21.0-2.23","51eb357b-2d5f-4529-adb7-70ead931726e","null","<p style=""text-align: center;"">+</p>","null","fixation","","","","","","","","","","","","","","","","","","","",""
"","","","","","html-slider-response","186","434696","0.0-21.0-0.24","51eb357b-2d5f-4529-adb7-70ead931726e","1000","
                  <p style=""text-align: center;"">₪58
                                                <br>40%</p>
                  <p id=""wtp"" style=""text-align:center; margin-top: 0px; margin-bottom: 0px; font-size: 40px"";>&ensp;</p>","-","viewing","0","20","10C,13A,19C,21B","","","","","","","","","","","","","","","","",""
"","","","","","html-slider-response","187","438269","0.0-21.0-1.24","51eb357b-2d5f-4529-adb7-70ead931726e","3571","
                  <p style=""text-align: center;"">₪58
                                                <br>40%</p>
                  <p id=""wtp"" style=""text-align:center; margin-top: 0px; margin-bottom: 0px; font-size: 40px"";>מוכנים לשלם: <span id=""c_p_y""></span></p>","32","evaluation","77","20","10C,13A,19C,21B","40","58","32","","","","","","","","","","","","","",""
"","","","","","html-keyboard-response","188","438946","0.0-21.0-2.24","51eb357b-2d5f-4529-adb7-70ead931726e","null","<p style=""text-align: center;"">+</p>","null","fixation","","","","","","","","","","","","","","","","","","","",""
"","","","","","html-slider-response","189","439956","0.0-21.0-0.25","51eb357b-2d5f-4529-adb7-70ead931726e","1000","
                  <p style=""text-align: center;"">₪11
                                                <br>25%</p>
                  <p id=""wtp"" style=""text-align:center; margin-top: 0px; margin-bottom: 0px; font-size: 40px"";>&ensp;</p>","-","viewing","0","5","12A,27B,28B,30B","","","","","","","","","","","","","","","","",""
"","","","","","html-slider-response","190","443021","0.0-21.0-1.25","51eb357b-2d5f-4529-adb7-70ead931726e","3063","
                  <p style=""text-align: center;"">₪11
                                                <br>25%</p>
                  <p id=""wtp"" style=""text-align:center; margin-top: 0px; margin-bottom: 0px; font-size: 40px"";>מוכנים לשלם: <span id=""c_p_y""></span></p>","4","evaluation","9","5","12A,27B,28B,30B","25","11","5","","","","","","","","","","","","","",""
"","","","","","html-keyboard-response","191","444182","0.0-21.0-2.25","51eb357b-2d5f-4529-adb7-70ead931726e","null","<p style=""text-align: center;"">+</p>","null","fixation","","","","","","","","","","","","","","","","","","","",""
"","","","","","html-slider-response","192","445185","0.0-21.0-0.26","51eb357b-2d5f-4529-adb7-70ead931726e","1000","
                  <p style=""text-align: center;"">₪79
                                                <br>65%</p>
                  <p id=""wtp"" style=""text-align:center; margin-top: 0px; margin-bottom: 0px; font-size: 40px"";>&ensp;</p>","-","viewing","0","31","8A","","","","","","","","","","","","","","","","",""
"","","","","","html-slider-response","193","449187","0.0-21.0-1.26","51eb357b-2d5f-4529-adb7-70ead931726e","null","
                  <p style=""text-align: center;"">₪79
                                                <br>65%</p>
                  <p id=""wtp"" style=""text-align:center; margin-top: 0px; margin-bottom: 0px; font-size: 40px"";>מוכנים לשלם: <span id=""c_p_y""></span></p>","null","evaluation","64","31","8A","65","79","80","","","","","","","","","","","","","",""
"","","","","","html-keyboard-response","194","450048","0.0-21.0-2.26","51eb357b-2d5f-4529-adb7-70ead931726e","null","<p style=""text-align: center;"">+</p>","null","fixation","","","","","","","","","","","","","","","","","","","",""
"","","","","","html-slider-response","195","451050","0.0-21.0-0.27","51eb357b-2d5f-4529-adb7-70ead931726e","1000","
                  <p style=""text-align: center;"">₪39
                                                <br>60%</p>
                  <p id=""wtp"" style=""text-align:center; margin-top: 0px; margin-bottom: 0px; font-size: 40px"";>&ensp;</p>","-","viewing","0","15","9C,25B","","","","","","","","","","","","","","","","",""
"","","","","","html-slider-response","196","454741","0.0-21.0-1.27","51eb357b-2d5f-4529-adb7-70ead931726e","3689","
                  <p style=""text-align: center;"">₪39
                                                <br>60%</p>
                  <p id=""wtp"" style=""text-align:center; margin-top: 0px; margin-bottom: 0px; font-size: 40px"";>מוכנים לשלם: <span id=""c_p_y""></span></p>","51","evaluation","15","15","9C,25B","60","39","50","","","","","","","","","","","","","",""
"","","","","","html-keyboard-response","197","456027","0.0-21.0-2.27","51eb357b-2d5f-4529-adb7-70ead931726e","null","<p style=""text-align: center;"">+</p>","null","fixation","","","","","","","","","","","","","","","","","","","",""
"","","","","","html-slider-response","198","457033","0.0-21.0-0.28","51eb357b-2d5f-4529-adb7-70ead931726e","1000","
                  <p style=""text-align: center;"">₪36
                                                <br>75%</p>
                  <p id=""wtp"" style=""text-align:center; margin-top: 0px; margin-bottom: 0px; font-size: 40px"";>&ensp;</p>","-","viewing","0","14","4B,5A,13B,16B","","","","","","","","","","","","","","","","",""
"","","","","","html-slider-response","199","460461","0.0-21.0-1.28","51eb357b-2d5f-4529-adb7-70ead931726e","3426","
                  <p style=""text-align: center;"">₪36
                                                <br>75%</p>
                  <p id=""wtp"" style=""text-align:center; margin-top: 0px; margin-bottom: 0px; font-size: 40px"";>מוכנים לשלם: <span id=""c_p_y""></span></p>","67","evaluation","33","14","4B,5A,13B,16B","75","36","67","","","","","","","","","","","","","",""
"","","","","","html-keyboard-response","200","461547","0.0-21.0-2.28","51eb357b-2d5f-4529-adb7-70ead931726e","null","<p style=""text-align: center;"">+</p>","null","fixation","","","","","","","","","","","","","","","","","","","",""
"","","","","","html-slider-response","201","462549","0.0-21.0-0.29","51eb357b-2d5f-4529-adb7-70ead931726e","1000","
                  <p style=""text-align: center;"">₪11
                                                <br>75%</p>
                  <p id=""wtp"" style=""text-align:center; margin-top: 0px; margin-bottom: 0px; font-size: 40px"";>&ensp;</p>","-","viewing","0","7","6B,18B,22C,24C,29A","","","","","","","","","","","","","","","","",""
"","","","","","html-slider-response","202","465437","0.0-21.0-1.29","51eb357b-2d5f-4529-adb7-70ead931726e","2886","
                  <p style=""text-align: center;"">₪11
                                                <br>75%</p>
                  <p id=""wtp"" style=""text-align:center; margin-top: 0px; margin-bottom: 0px; font-size: 40px"";>מוכנים לשלם: <span id=""c_p_y""></span></p>","18","evaluation","42","7","6B,18B,22C,24C,29A","75","11","18","","","","","","","","","","","","","",""
"","","","","","html-keyboard-response","203","466582","0.0-21.0-2.29","51eb357b-2d5f-4529-adb7-70ead931726e","null","<p style=""text-align: center;"">+</p>","null","fixation","","","","","","","","","","","","","","","","","","","",""
"","","","","","html-slider-response","204","467587","0.0-21.0-0.30","51eb357b-2d5f-4529-adb7-70ead931726e","1000","
                  <p style=""text-align: center;"">₪11
                                                <br>20%</p>
                  <p id=""wtp"" style=""text-align:center; margin-top: 0px; margin-bottom: 0px; font-size: 40px"";>&ensp;</p>","-","viewing","0","4","12C,17C,23C,28C","","","","","","","","","","","","","","","","",""
"","","","","","html-slider-response","205","470517","0.0-21.0-1.30","51eb357b-2d5f-4529-adb7-70ead931726e","2929","
                  <p style=""text-align: center;"">₪11
                                                <br>20%</p>
                  <p id=""wtp"" style=""text-align:center; margin-top: 0px; margin-bottom: 0px; font-size: 40px"";>מוכנים לשלם: <span id=""c_p_y""></span></p>","4","evaluation","17","4","12C,17C,23C,28C","20","11","5","","","","","","","","","","","","","",""
"","","","","","html-keyboard-response","206","471136","0.0-21.0-2.30","51eb357b-2d5f-4529-adb7-70ead931726e","null","<p style=""text-align: center;"">+</p>","null","fixation","","","","","","","","","","","","","","","","","","","",""
"","","","","","html-keyboard-response","207","472138","0.0-22.0","51eb357b-2d5f-4529-adb7-70ead931726e","null","<p style=""text-align: center;"">+</p>","null","fixation","","","","","","","","","","","","","","","","","","","",""
"","","","","","html-keyboard-response","208","479132","0.0-23.0","51eb357b-2d5f-4529-adb7-70ead931726e","null","<p>הפסקה.
          <br>לחצו כדי להמשיך.</p>","1","scan_wait","","","","","","","","","","","","","","","","","","","",""
"","","","","","html-keyboard-response","209","480148","0.0-24.0","51eb357b-2d5f-4529-adb7-70ead931726e","null","<p style=""text-align: center;"">+</p>","null","fixation","","","","","","","","","","","","","","","","","","","",""
"","","","","","html-slider-response","210","481155","0.0-25.0-0.0","51eb357b-2d5f-4529-adb7-70ead931726e","1000","
                  <p style=""text-align: center;"">₪36
                                                <br>30%</p>
                  <p id=""wtp"" style=""text-align:center; margin-top: 0px; margin-bottom: 0px; font-size: 40px"";>&ensp;</p>","-","viewing","0","11","3C,20A,22A","","","","","","","","","","","","","","","","",""
"","","","","","html-slider-response","211","483917","0.0-25.0-1.0","51eb357b-2d5f-4529-adb7-70ead931726e","2761","
                  <p style=""text-align: center;"">₪36
                                                <br>30%</p>
                  <p id=""wtp"" style=""text-align:center; margin-top: 0px; margin-bottom: 0px; font-size: 40px"";>מוכנים לשלם: <span id=""c_p_y""></span></p>","12","evaluation","41","11","3C,20A,22A","30","36","12","","","","","","","","","","","","","",""
"","","","","","html-keyboard-response","212","485102","0.0-25.0-2.0","51eb357b-2d5f-4529-adb7-70ead931726e","null","<p style=""text-align: center;"">+</p>","null","fixation","","","","","","","","","","","","","","","","","","","",""
"","","","","","html-slider-response","213","486118","0.0-25.0-0.1","51eb357b-2d5f-4529-adb7-70ead931726e","1000","
                  <p style=""text-align: center;"">₪4
                                                <br>75%</p>
                  <p id=""wtp"" style=""text-align:center; margin-top: 0px; margin-bottom: 0px; font-size: 40px"";>&ensp;</p>","-","viewing","0","3","12B,20B,23B,27C,29C","","","","","","","","","","","","","","","","",""
"","","","","","html-slider-response","214","488588","0.0-25.0-1.1","51eb357b-2d5f-4529-adb7-70ead931726e","2469","
                  <p style=""text-align: center;"">₪4
                                                <br>75%</p>
                  <p id=""wtp"" style=""text-align:center; margin-top: 0px; margin-bottom: 0px; font-size: 40px"";>מוכנים לשלם: <span id=""c_p_y""></span></p>","6","evaluation","59","3","12B,20B,23B,27C,29C","75","4","7","","","","","","","","","","","","","",""
"","","","","","html-keyboard-response","215","489484","0.0-25.0-2.1","51eb357b-2d5f-4529-adb7-70ead931726e","null","<p style=""text-align: center;"">+</p>","null","fixation","","","","","","","","","","","","","","","","","","","",""
"","","","","","html-slider-response","216","490486","0.0-25.0-0.2","51eb357b-2d5f-4529-adb7-70ead931726e","1000","
                  <p style=""text-align: center;"">₪64
                                                <br>25%</p>
                  <p id=""wtp"" style=""text-align:center; margin-top: 0px; margin-bottom: 0px; font-size: 40px"";>&ensp;</p>","-","viewing","0","24","6A,21A","","","","","","","","","","","","","","","","",""
"","","","","","html-slider-response","217","493940","0.0-25.0-1.2","51eb357b-2d5f-4529-adb7-70ead931726e","3453","
                  <p style=""text-align: center;"">₪64
                                                <br>25%</p>
                  <p id=""wtp"" style=""text-align:center; margin-top: 0px; margin-bottom: 0px; font-size: 40px"";>מוכנים לשלם: <span id=""c_p_y""></span></p>","14","evaluation","76","24","6A,21A","25","64","14","","","","","","","","","","","","","",""
"","","","","","html-keyboard-response","218","494899","0.0-25.0-2.2","51eb357b-2d5f-4529-adb7-70ead931726e","null","<p style=""text-align: center;"">+</p>","null","fixation","","","","","","","","","","","","","","","","","","","",""
"","","","","","html-slider-response","219","495913","0.0-25.0-0.3","51eb357b-2d5f-4529-adb7-70ead931726e","1000","
                  <p style=""text-align: center;"">₪61
                                                <br>55%</p>
                  <p id=""wtp"" style=""text-align:center; margin-top: 0px; margin-bottom: 0px; font-size: 40px"";>&ensp;</p>","-","viewing","0","23","7B,26B","","","","","","","","","","","","","","","","",""
"","","","","","html-slider-response","220","498756","0.0-25.0-1.3","51eb357b-2d5f-4529-adb7-70ead931726e","2842","
                  <p style=""text-align: center;"">₪61
                                                <br>55%</p>
                  <p id=""wtp"" style=""text-align:center; margin-top: 0px; margin-bottom: 0px; font-size: 40px"";>מוכנים לשלם: <span id=""c_p_y""></span></p>","61","evaluation","13","23","7B,26B","55","61","60","","","","","","","","","","","","","",""
"","","","","","html-keyboard-response","221","499699","0.0-25.0-2.3","51eb357b-2d5f-4529-adb7-70ead931726e","null","<p style=""text-align: center;"">+</p>","null","fixation","","","","","","","","","","","","","","","","","","","",""
"","","","","","html-slider-response","222","500701","0.0-25.0-0.4","51eb357b-2d5f-4529-adb7-70ead931726e","1000","
                  <p style=""text-align: center;"">₪43
                                                <br>75%</p>
                  <p id=""wtp"" style=""text-align:center; margin-top: 0px; margin-bottom: 0px; font-size: 40px"";>&ensp;</p>","-","viewing","0","18","11B,19B,24A,26A","","","","","","","","","","","","","","","","",""
"","","","","","html-slider-response","223","503124","0.0-25.0-1.4","51eb357b-2d5f-4529-adb7-70ead931726e","2422","
                  <p style=""text-align: center;"">₪43
                                                <br>75%</p>
                  <p id=""wtp"" style=""text-align:center; margin-top: 0px; margin-bottom: 0px; font-size: 40px"";>מוכנים לשלם: <span id=""c_p_y""></span></p>","63","evaluation","36","18","11B,19B,24A,26A","75","43","62","","","","","","","","","","","","","",""
"","","","","","html-keyboard-response","224","503720","0.0-25.0-2.4","51eb357b-2d5f-4529-adb7-70ead931726e","null","<p style=""text-align: center;"">+</p>","null","fixation","","","","","","","","","","","","","","","","","","","",""
"","","","","","html-slider-response","225","504734","0.0-25.0-0.5","51eb357b-2d5f-4529-adb7-70ead931726e","1000","
                  <p style=""text-align: center;"">₪18
                                                <br>25%</p>
                  <p id=""wtp"" style=""text-align:center; margin-top: 0px; margin-bottom: 0px; font-size: 40px"";>&ensp;</p>","-","viewing","0","9","14A,23A","","","","","","","","","","","","","","","","",""
"","","","","","html-slider-response","226","507236","0.0-25.0-1.5","51eb357b-2d5f-4529-adb7-70ead931726e","2501","
                  <p style=""text-align: center;"">₪18
                                                <br>25%</p>
                  <p id=""wtp"" style=""text-align:center; margin-top: 0px; margin-bottom: 0px; font-size: 40px"";>מוכנים לשלם: <span id=""c_p_y""></span></p>","8","evaluation","20","9","14A,23A","25","18","9","","","","","","","","","","","","","",""
"","","","","","html-keyboard-response","227","508692","0.0-25.0-2.5","51eb357b-2d5f-4529-adb7-70ead931726e","null","<p style=""text-align: center;"">+</p>","null","fixation","","","","","","","","","","","","","","","","","","","",""
"","","","","","html-slider-response","228","509694","0.0-25.0-0.6","51eb357b-2d5f-4529-adb7-70ead931726e","1000","
                  <p style=""text-align: center;"">₪36
                                                <br>60%</p>
                  <p id=""wtp"" style=""text-align:center; margin-top: 0px; margin-bottom: 0px; font-size: 40px"";>&ensp;</p>","-","viewing","0","12","1C,7C,15C","","","","","","","","","","","","","","","","",""
"","","","","","html-slider-response","229","512388","0.0-25.0-1.6","51eb357b-2d5f-4529-adb7-70ead931726e","2692","
                  <p style=""text-align: center;"">₪36
                                                <br>60%</p>
                  <p id=""wtp"" style=""text-align:center; margin-top: 0px; margin-bottom: 0px; font-size: 40px"";>מוכנים לשלם: <span id=""c_p_y""></span></p>","32","evaluation","41","12","1C,7C,15C","60","36","32","","","","","","","","","","","","","",""
"","","","","","html-keyboard-response","230","513570","0.0-25.0-2.6","51eb357b-2d5f-4529-adb7-70ead931726e","null","<p style=""text-align: center;"">+</p>","null","fixation","","","","","","","","","","","","","","","","","","","",""
"","","","","","html-slider-response","231","514588","0.0-25.0-0.7","51eb357b-2d5f-4529-adb7-70ead931726e","1000","
                  <p style=""text-align: center;"">₪18
                                                <br>50%</p>
                  <p id=""wtp"" style=""text-align:center; margin-top: 0px; margin-bottom: 0px; font-size: 40px"";>&ensp;</p>","-","viewing","0","10","2C,16C,22B,28A","","","","","","","","","","","","","","","","",""
"","","","","","html-slider-response","232","516884","0.0-25.0-1.7","51eb357b-2d5f-4529-adb7-70ead931726e","2296","
                  <p style=""text-align: center;"">₪18
                                                <br>50%</p>
                  <p id=""wtp"" style=""text-align:center; margin-top: 0px; margin-bottom: 0px; font-size: 40px"";>מוכנים לשלם: <span id=""c_p_y""></span></p>","17","evaluation","26","10","2C,16C,22B,28A","50","18","18","","","","","","","","","","","","","",""
"","","","","","html-keyboard-response","233","518051","0.0-25.0-2.7","51eb357b-2d5f-4529-adb7-70ead931726e","null","<p style=""text-align: center;"">+</p>","null","fixation","","","","","","","","","","","","","","","","","","","",""
"","","","","","html-slider-response","234","519066","0.0-25.0-0.8","51eb357b-2d5f-4529-adb7-70ead931726e","1000","
                  <p style=""text-align: center;"">₪61
                                                <br>45%</p>
                  <p id=""wtp"" style=""text-align:center; margin-top: 0px; margin-bottom: 0px; font-size: 40px"";>&ensp;</p>","-","viewing","0","22","10A,11A","","","","","","","","","","","","","","","","",""
"","","","","","html-slider-response","235","522837","0.0-25.0-1.8","51eb357b-2d5f-4529-adb7-70ead931726e","3769","
                  <p style=""text-align: center;"">₪61
                                                <br>45%</p>
                  <p id=""wtp"" style=""text-align:center; margin-top: 0px; margin-bottom: 0px; font-size: 40px"";>מוכנים לשלם: <span id=""c_p_y""></span></p>","56","evaluation","21","22","10A,11A","45","61","56","","","","","","","","","","","","","",""
"","","","","","html-keyboard-response","236","524295","0.0-25.0-2.8","51eb357b-2d5f-4529-adb7-70ead931726e","null","<p style=""text-align: center;"">+</p>","null","fixation","","","","","","","","","","","","","","","","","","","",""
"","","","","","html-slider-response","237","525297","0.0-25.0-0.9","51eb357b-2d5f-4529-adb7-70ead931726e","1000","
                  <p style=""text-align: center;"">₪4
                                                <br>50%</p>
                  <p id=""wtp"" style=""text-align:center; margin-top: 0px; margin-bottom: 0px; font-size: 40px"";>&ensp;</p>","-","viewing","0","2","4C,17B","","","","","","","","","","","","","","","","",""
"","","","","","html-slider-response","238","528732","0.0-25.0-1.9","51eb357b-2d5f-4529-adb7-70ead931726e","3433","
                  <p style=""text-align: center;"">₪4
                                                <br>50%</p>
                  <p id=""wtp"" style=""text-align:center; margin-top: 0px; margin-bottom: 0px; font-size: 40px"";>מוכנים לשלם: <span id=""c_p_y""></span></p>","3","evaluation","66","2","4C,17B","50","4","4","","","","","","","","","","","","","",""
"","","","","","html-keyboard-response","239","530117","0.0-25.0-2.9","51eb357b-2d5f-4529-adb7-70ead931726e","null","<p style=""text-align: center;"">+</p>","null","fixation","","","","","","","","","","","","","","","","","","","",""
"","","","","","html-slider-response","240","531119","0.0-25.0-0.10","51eb357b-2d5f-4529-adb7-70ead931726e","1000","
                  <p style=""text-align: center;"">₪71
                                                <br>45%</p>
                  <p id=""wtp"" style=""text-align:center; margin-top: 0px; margin-bottom: 0px; font-size: 40px"";>&ensp;</p>","-","viewing","0","26","2B,16A","","","","","","","","","","","","","","","","",""
"","","","","","html-slider-response","241","534340","0.0-25.0-1.10","51eb357b-2d5f-4529-adb7-70ead931726e","3220","
                  <p style=""text-align: center;"">₪71
                                                <br>45%</p>
                  <p id=""wtp"" style=""text-align:center; margin-top: 0px; margin-bottom: 0px; font-size: 40px"";>מוכנים לשלם: <span id=""c_p_y""></span></p>","56","evaluation","13","26","2B,16A","45","71","56","","","","","","","","","","","","","",""
"","","","","","html-keyboard-response","242","535101","0.0-25.0-2.10","51eb357b-2d5f-4529-adb7-70ead931726e","null","<p style=""text-align: center;"">+</p>","null","fixation","","","","","","","","","","","","","","","","","","","",""
"","","","","","html-slider-response","243","536110","0.0-25.0-0.11","51eb357b-2d5f-4529-adb7-70ead931726e","1000","
                  <p style=""text-align: center;"">₪43
                                                <br>60%</p>
                  <p id=""wtp"" style=""text-align:center; margin-top: 0px; margin-bottom: 0px; font-size: 40px"";>&ensp;</p>","-","viewing","0","17","2A,7A,9A,15B","","","","","","","","","","","","","","","","",""
"","","","","","html-slider-response","244","538900","0.0-25.0-1.11","51eb357b-2d5f-4529-adb7-70ead931726e","2789","
                  <p style=""text-align: center;"">₪43
                                                <br>60%</p>
                  <p id=""wtp"" style=""text-align:center; margin-top: 0px; margin-bottom: 0px; font-size: 40px"";>מוכנים לשלם: <span id=""c_p_y""></span></p>","51","evaluation","41","17","2A,7A,9A,15B","60","43","51","","","","","","","","","","","","","",""
"","","","","","html-keyboard-response","245","539943","0.0-25.0-2.11","51eb357b-2d5f-4529-adb7-70ead931726e","null","<p style=""text-align: center;"">+</p>","null","fixation","","","","","","","","","","","","","","","","","","","",""
"","","","","","html-slider-response","246","540945","0.0-25.0-0.12","51eb357b-2d5f-4529-adb7-70ead931726e","1000","
                  <p style=""text-align: center;"">₪58
                                                <br>45%</p>
                  <p id=""wtp"" style=""text-align:center; margin-top: 0px; margin-bottom: 0px; font-size: 40px"";>&ensp;</p>","-","viewing","0","21","11C,18C,25A","","","","","","","","","","","","","","","","",""
"","","","","","html-slider-response","247","544788","0.0-25.0-1.12","51eb357b-2d5f-4529-adb7-70ead931726e","3842","
                  <p style=""text-align: center;"">₪58
                                                <br>45%</p>
                  <p id=""wtp"" style=""text-align:center; margin-top: 0px; margin-bottom: 0px; font-size: 40px"";>מוכנים לשלם: <span id=""c_p_y""></span></p>","50","evaluation","31","21","11C,18C,25A","45","58","50","","","","","","","","","","","","","",""
"","","","","","html-keyboard-response","248","545734","0.0-25.0-2.12","51eb357b-2d5f-4529-adb7-70ead931726e","null","<p style=""text-align: center;"">+</p>","null","fixation","","","","","","","","","","","","","","","","","","","",""
"","","","","","html-slider-response","249","546737","0.0-25.0-0.13","51eb357b-2d5f-4529-adb7-70ead931726e","1000","
                  <p style=""text-align: center;"">₪64
                                                <br>50%</p>
                  <p id=""wtp"" style=""text-align:center; margin-top: 0px; margin-bottom: 0px; font-size: 40px"";>&ensp;</p>","-","viewing","0","25","1B,3B,4A","","","","","","","","","","","","","","","","",""
"","","","","","html-slider-response","250","549653","0.0-25.0-1.13","51eb357b-2d5f-4529-adb7-70ead931726e","2915","
                  <p style=""text-align: center;"">₪64
                                                <br>50%</p>
                  <p id=""wtp"" style=""text-align:center; margin-top: 0px; margin-bottom: 0px; font-size: 40px"";>מוכנים לשלם: <span id=""c_p_y""></span></p>","64","evaluation","45","25","1B,3B,4A","50","64","63","","","","","","","","","","","","","",""
"","","","","","html-keyboard-response","251","550639","0.0-25.0-2.13","51eb357b-2d5f-4529-adb7-70ead931726e","null","<p style=""text-align: center;"">+</p>","null","fixation","","","","","","","","","","","","","","","","","","","",""
"","","","","","html-slider-response","252","551641","0.0-25.0-0.14","51eb357b-2d5f-4529-adb7-70ead931726e","1000","
                  <p style=""text-align: center;"">₪79
                                                <br>65%</p>
                  <p id=""wtp"" style=""text-align:center; margin-top: 0px; margin-bottom: 0px; font-size: 40px"";>&ensp;</p>","-","viewing","0","31","8A","","","","","","","","","","","","","","","","",""
"","","","","","html-slider-response","253","554965","0.0-25.0-1.14","51eb357b-2d5f-4529-adb7-70ead931726e","3322","
                  <p style=""text-align: center;"">₪79
                                                <br>65%</p>
                  <p id=""wtp"" style=""text-align:center; margin-top: 0px; margin-bottom: 0px; font-size: 40px"";>מוכנים לשלם: <span id=""c_p_y""></span></p>","80","evaluation","29","31","8A","65","79","80","","","","","","","","","","","","","",""
"","","","","","html-keyboard-response","254","555930","0.0-25.0-2.14","51eb357b-2d5f-4529-adb7-70ead931726e","null","<p style=""text-align: center;"">+</p>","null","fixation","","","","","","","","","","","","","","","","","","","",""
