"success","timeout","failed_images","failed_audio","failed_video","trial_type","trial_index","time_elapsed","internal_node_id","subject_id","rt","stimulus","response","part","slider_start","ID","set_ID","prob","amount","last_location","actual_choice","actual_EV","binary_id","trinary_id","catch","direction","A_key","S_key","D_key","choice_prob","choice_amount","chosen_part","won_prize","potential_prize_amount","potential_prize_prob","total_prize","accuracy"
"true","false","[]","[]","[]","preload","0","121","0.0-0.0","d8d4dec0-5008-4f83-8f65-fe5e80244341","","","","","","","","","","","","","","","","","","","","","","","","","","",""
"","","","","","html-keyboard-response","1","1101716","0.0-1.0","d8d4dec0-5008-4f83-8f65-fe5e80244341","null","
          <h1>שלום וברוכים הבאים!</h1>
          <p>לפניכם ניסוי בקבלת החלטות עם שני חלקים.
          <br><br>לחצו על העכבר כדי להמשיך.</p>","0","example","","","","","","","","","","","","","","","","","","","","","","",""
"","","","","","html-keyboard-response","2","1109755","0.0-2.0","d8d4dec0-5008-4f83-8f65-fe5e80244341","null","
        <h1>חלק 1</h1>
        <p>בקרוב יוצגו בפניכם הגרלות.
        <br>עליכם לבחור את המחיר המירבי שתהיו מוכנים לשלם כדי להשתתף בהגרלה שתוצג.
        <br>יש לכם תקציב של ₪80 לכל הגרלה. 
        <br>נסו להעריך כל הגרלה בנפרד ולחשוב כמה היא שווה עבורכם, ₪80 זמינים לכל הגרלה בנפרד.
        <br><br>לחצו על העכבר כדי להמשיך.</p>","1","instructions","","","","","","","","","","","","","","","","","","","","","","",""
"","","","","","html-keyboard-response","3","1118171","0.0-3.0","d8d4dec0-5008-4f83-8f65-fe5e80244341","null","
        <p>בסוף הניסוי, המחשב יבחר את אחת ההגרלות ויקבע מחיר לכרטיס עבורה. 
        <br>במידה והמחיר שבחרתם נמוך מהמחיר שנבחר על ידי המחשב, לא תשתתפו בהגרלה ותשארו עם מלוא התקציב.
        <br>במידה והמחיר שבחרתם גבוה מהמחיר שנבחר על ידי המחשב, תשלמו את המחיר שנקבע ותשתתפו בהגרלה.
        <br><br>לחצו על העכבר כדי להמשיך.</p>","1","instructions","","","","","","","","","","","","","","","","","","","","","","",""
"","","","","","html-slider-response","4","1132756","0.0-4.0","d8d4dec0-5008-4f83-8f65-fe5e80244341","14467","
        <p style=""font-size: 42px;"">נתחיל עם דוגמא: 
        <br>ההגרלה מטה מציעה 65% סיכוי לזכות ב-₪40 
        <br>&emsp;&emsp;&emsp;&emsp;&emsp;&emsp;&emsp;&emsp;&ensp;35% סיכוי לזכות ב-₪0.
        <br><br>מה המחיר המירבי שתהיו מוכנים לשלם על כרטיס להגרלה זו בין 0 ל-₪80?
        <br>הזיזו את העכבר על פני המלבן ולחצו כדי לבצע בחירה.</p>
        
        <p style=""text-align: center;"">₪40<br>65%</p>

        <p id=""wtp"" style=""text-align:center; margin-top: 0px; margin-bottom: 0px; font-size: 40px"";>מוכנים לשלם: <span id=""c_p_y""></span></p>","20","example","46","","","","","","","","","","","","","","","","","","","","","",""
"","","","","","html-keyboard-response","5","1138971","0.0-5.0","d8d4dec0-5008-4f83-8f65-fe5e80244341","null","<p>יפה מאוד!
                <br> בחרתם שתהיו מוכנים לשלם ₪20 כדי להשתתף בהגרלה:
                <br><p style=""text-align: center;"">₪40<br>65%</p>
                <p>נשמע נכון?
                <br>נניח שהגרלה זו נבחרה בסוף הניסוי.
                <br>כעת המחשב יקבע מחיר עבורה באקראי.
                <br>לחצו על העכבר להמשך.</p>","1","example","","","","","","","","","","","","","","","","","","","","","","",""
"","","","","","html-keyboard-response","6","1144691","0.0-6.0","d8d4dec0-5008-4f83-8f65-fe5e80244341","null","<p>המחשב קבע מחיר: ₪39
                <br>ואתם בחרתם לשלם לכל היותר: ₪20
                <br><br>מכיוון שהמחיר שבחרתם נמוך מהמחיר שנקבע, לא תתשתתפו בהגרלה.
                <br>במקרה כזה, בסוף הניסוי תקבלו את כל התקציב ההתחלתי של ₪80.
                <br><br>לחצו על העכבר להמשך.</p>","1","example","","","","","","","","","","","","","","","","","","","","","","",""
"","","","","","html-slider-response","7","1155787","0.0-7.0","d8d4dec0-5008-4f83-8f65-fe5e80244341","10834","<p style=""font-size: 42px;"">הנה עוד דוגמא:
                <br>ההגרלה מטה מציעה 35% סיכוי לזכות ב-₪18 
                <br>&emsp;&emsp;&emsp;&emsp;&emsp;&emsp;&emsp;&emsp;&ensp;65% סיכוי לזכות ב-₪0.</p>
        
                <p style=""text-align: center;"">₪18<br>35%</p>
                <p id=""wtp"" style=""text-align:center; margin-top: 0px; margin-bottom: 0px; font-size: 40px"";>מוכנים לשלם: <span id=""c_p_y""></span></p>","10","example","12","","","","","","","","","","","","","","","","","","","","","",""
"","","","","","html-keyboard-response","8","1158123","0.0-8.0","d8d4dec0-5008-4f83-8f65-fe5e80244341","null","<p>הייתם מוכנים לשלם  ₪10 כדי להשתתף בהגרלה:
                <p style=""text-align: center;"">₪18<br>35%</p>
                <p>כעת נניח שהמחשב בחר את ההגרלה הזו בסוף הניסוי, וקבע עבורה מחיר.
                <br><br>לחצו על העכבר כדי להמשיך.</p>","1","instructions","","","","","","","","","","","","","","","","","","","","","","",""
"","","","","","html-keyboard-response","9","1168883","0.0-9.0","d8d4dec0-5008-4f83-8f65-fe5e80244341","null","<p>המחשב קבע מחיר להגרלה: ₪4<br>ואתם בחרתם לשלם לכל היותר: ₪10
                <br><br>כעת המחיר שנקבע נמוך מזה שבחרתם, אז תשלמו את המחיר שקבע המחשב (₪4) ותשתתפו בהגרלה.
                <br>במקרה כזה, תסיימו את הניסוי עם תקציב של ₪76 ועם סיכוי לזכות ב-₪18 נוספים מההגרלה.
                <br>כלומר, תוכלו לקבל ₪76 אם לא תזכו בהגרלה, או ₪94 אם תזכו בהגרלה.
                <br><br>לחצו על העכבר להמשך.</p>","1","example","","","","","","","","","","","","","","","","","","","","","","",""
"","","","","","html-keyboard-response","10","1175699","0.0-10.0","d8d4dec0-5008-4f83-8f65-fe5e80244341","null","<p>במהלך הניסוי, קודם תראו את ההגרלה ורק לאחר מכן תוכלו לבחור.
                <p>כמו כן, יהיו לכם מספר שניות מוגבל להגיב.
                <p>בואו ננסה זאת עם ההגרלה הקודמת.
                <br>לחצו על העכבר כדי להמשיך.</p>","1","instructions","","","","","","","","","","","","","","","","","","","","","","",""
"","","","","","html-slider-response","11","1176967","0.0-11.0","d8d4dec0-5008-4f83-8f65-fe5e80244341","1000","
                    <p style=""text-align: center;"">₪18<br>35%</p>
                    <p id=""wtp"" style=""text-align:center; margin-top: 0px; margin-bottom: 0px; font-size: 40px"";>&ensp;</p>","36","instructions","0","","","","","","","","","","","","","","","","","","","","","",""
"","","","","","html-slider-response","12","1180747","0.0-12.0","d8d4dec0-5008-4f83-8f65-fe5e80244341","3513","
                    <p style=""text-align: center;"">₪18<br>35%</p>
                    <p id=""wtp"" style=""text-align:center; margin-top: 0px; margin-bottom: 0px; font-size: 40px"";>מוכנים לשלם: <span id=""c_p_y""></span></p>","10","instructions","23","","","","","","","","","","","","","","","","","","","","","",""
"","","","","","html-keyboard-response","13","1182795","0.0-13.0","d8d4dec0-5008-4f83-8f65-fe5e80244341","null","<p>יפה. הפעם בחרתם לשלם לכל היותר ₪10.
                <br><br>לחצו על העכבר כדי להמשיך.</p>","1","instructions","","","","","","","","","","","","","","","","","","","","","","",""
"","","","","","html-keyboard-response","14","1188107","0.0-15.0","d8d4dec0-5008-4f83-8f65-fe5e80244341","null","<p>כעת נתחיל את הניסוי.
                <br><br>אתם תראו הגרלות ותתבקשו לבחור כמה תהיו מוכנים לשלם כדי להשתתף בהן.
                <br>יש לכם תקציב של ₪80 עבור כל הגרלה.
                <br>בסוף הניסוי הגרלה אחת תבחר באקראי ותשוחק.
                <br><br>לחצו על העכבר כדי להתחיל את הניסוי.</p>","1","instructions","","","","","","","","","","","","","","","","","","","","","","",""
"","","","","","html-keyboard-response","15","1189364","0.0-16.0","d8d4dec0-5008-4f83-8f65-fe5e80244341","null","<p style=""text-align: center;"">+</p>","null","fixation","","","","","","","","","","","","","","","","","","","","","","",""
"","","","","","html-slider-response","16","1190380","0.0-17.0-0.0","d8d4dec0-5008-4f83-8f65-fe5e80244341","1000","
                  <p style=""text-align: center;"">₪58
                                                <br>45%</p>
                  <p id=""wtp"" style=""text-align:center; margin-top: 0px; margin-bottom: 0px; font-size: 40px"";>&ensp;</p>","-","viewing","0","21","11C,18C,25A","","","","","","","","","","","","","","","","","","","",""
"","","","","","html-slider-response","17","1192515","0.0-17.0-1.0","d8d4dec0-5008-4f83-8f65-fe5e80244341","2133","
                  <p style=""text-align: center;"">₪58
                                                <br>45%</p>
                  <p id=""wtp"" style=""text-align:center; margin-top: 0px; margin-bottom: 0px; font-size: 40px"";>מוכנים לשלם: <span id=""c_p_y""></span></p>","20","evaluation","43","21","11C,18C,25A","45","58","20","","","","","","","","","","","","","","","","",""
"","","","","","html-keyboard-response","18","1193986","0.0-17.0-2.0","d8d4dec0-5008-4f83-8f65-fe5e80244341","null","<p style=""text-align: center;"">+</p>","null","fixation","","","","","","","","","","","","","","","","","","","","","","",""
"","","","","","html-slider-response","19","1195001","0.0-17.0-0.1","d8d4dec0-5008-4f83-8f65-fe5e80244341","1000","
                  <p style=""text-align: center;"">₪11
                                                <br>45%</p>
                  <p id=""wtp"" style=""text-align:center; margin-top: 0px; margin-bottom: 0px; font-size: 40px"";>&ensp;</p>","-","viewing","0","6","14B,21C,25C","","","","","","","","","","","","","","","","","","","",""
"","","","","","html-slider-response","20","1199012","0.0-17.0-1.1","d8d4dec0-5008-4f83-8f65-fe5e80244341","null","
                  <p style=""text-align: center;"">₪11
                                                <br>45%</p>
                  <p id=""wtp"" style=""text-align:center; margin-top: 0px; margin-bottom: 0px; font-size: 40px"";>מוכנים לשלם: <span id=""c_p_y""></span></p>","null","evaluation","33","6","14B,21C,25C","45","11","3","","","","","","","","","","","","","","","","",""
"","","","","","html-keyboard-response","21","1200102","0.0-17.0-2.1","d8d4dec0-5008-4f83-8f65-fe5e80244341","null","<p style=""text-align: center;"">+</p>","null","fixation","","","","","","","","","","","","","","","","","","","","","","",""
"","","","","","html-slider-response","22","1201108","0.0-17.0-0.2","d8d4dec0-5008-4f83-8f65-fe5e80244341","1000","
                  <p style=""text-align: center;"">₪36
                                                <br>30%</p>
                  <p id=""wtp"" style=""text-align:center; margin-top: 0px; margin-bottom: 0px; font-size: 40px"";>&ensp;</p>","-","viewing","0","11","3C,20A,22A","","","","","","","","","","","","","","","","","","","",""
"","","","","","html-slider-response","23","1205110","0.0-17.0-1.2","d8d4dec0-5008-4f83-8f65-fe5e80244341","null","
                  <p style=""text-align: center;"">₪36
                                                <br>30%</p>
                  <p id=""wtp"" style=""text-align:center; margin-top: 0px; margin-bottom: 0px; font-size: 40px"";>מוכנים לשלם: <span id=""c_p_y""></span></p>","null","evaluation","69","11","3C,20A,22A","30","36","10","","","","","","","","","","","","","","","","",""
"","","","","","html-keyboard-response","24","1206486","0.0-17.0-2.2","d8d4dec0-5008-4f83-8f65-fe5e80244341","null","<p style=""text-align: center;"">+</p>","null","fixation","","","","","","","","","","","","","","","","","","","","","","",""
"","","","","","html-slider-response","25","1207499","0.0-17.0-0.3","d8d4dec0-5008-4f83-8f65-fe5e80244341","1000","
                  <p style=""text-align: center;"">₪18
                                                <br>25%</p>
                  <p id=""wtp"" style=""text-align:center; margin-top: 0px; margin-bottom: 0px; font-size: 40px"";>&ensp;</p>","-","viewing","0","9","14A,23A","","","","","","","","","","","","","","","","","","","",""
"","","","","","html-slider-response","26","1210195","0.0-17.0-1.3","d8d4dec0-5008-4f83-8f65-fe5e80244341","2695","
                  <p style=""text-align: center;"">₪18
                                                <br>25%</p>
                  <p id=""wtp"" style=""text-align:center; margin-top: 0px; margin-bottom: 0px; font-size: 40px"";>מוכנים לשלם: <span id=""c_p_y""></span></p>","2","evaluation","46","9","14A,23A","25","18","3","","","","","","","","","","","","","","","","",""
"","","","","","html-keyboard-response","27","1210826","0.0-17.0-2.3","d8d4dec0-5008-4f83-8f65-fe5e80244341","null","<p style=""text-align: center;"">+</p>","null","fixation","","","","","","","","","","","","","","","","","","","","","","",""
"","","","","","html-slider-response","28","1211833","0.0-17.0-0.4","d8d4dec0-5008-4f83-8f65-fe5e80244341","1000","
                  <p style=""text-align: center;"">₪39
                                                <br>65%</p>
                  <p id=""wtp"" style=""text-align:center; margin-top: 0px; margin-bottom: 0px; font-size: 40px"";>&ensp;</p>","-","viewing","0","16","1A,15A,26C","","","","","","","","","","","","","","","","","","","",""
"","","","","","html-slider-response","29","1214867","0.0-17.0-1.4","d8d4dec0-5008-4f83-8f65-fe5e80244341","3033","
                  <p style=""text-align: center;"">₪39
                                                <br>65%</p>
                  <p id=""wtp"" style=""text-align:center; margin-top: 0px; margin-bottom: 0px; font-size: 40px"";>מוכנים לשלם: <span id=""c_p_y""></span></p>","14","evaluation","51","16","1A,15A,26C","65","39","14","","","","","","","","","","","","","","","","",""
"","","","","","html-keyboard-response","30","1216074","0.0-17.0-2.4","d8d4dec0-5008-4f83-8f65-fe5e80244341","null","<p style=""text-align: center;"">+</p>","null","fixation","","","","","","","","","","","","","","","","","","","","","","",""
"","","","","","html-slider-response","31","1217089","0.0-17.0-0.5","d8d4dec0-5008-4f83-8f65-fe5e80244341","1000","
                  <p style=""text-align: center;"">₪76
                                                <br>65%</p>
                  <p id=""wtp"" style=""text-align:center; margin-top: 0px; margin-bottom: 0px; font-size: 40px"";>&ensp;</p>","-","viewing","0","29","8C,19A,24B","","","","","","","","","","","","","","","","","","","",""
"","","","","","html-slider-response","32","1221091","0.0-17.0-1.5","d8d4dec0-5008-4f83-8f65-fe5e80244341","null","
                  <p style=""text-align: center;"">₪76
                                                <br>65%</p>
                  <p id=""wtp"" style=""text-align:center; margin-top: 0px; margin-bottom: 0px; font-size: 40px"";>מוכנים לשלם: <span id=""c_p_y""></span></p>","null","evaluation","11","29","8C,19A,24B","65","76","25","","","","","","","","","","","","","","","","",""
"","","","","","html-keyboard-response","33","1221851","0.0-17.0-2.5","d8d4dec0-5008-4f83-8f65-fe5e80244341","null","<p style=""text-align: center;"">+</p>","null","fixation","","","","","","","","","","","","","","","","","","","","","","",""
"","","","","","html-slider-response","34","1222862","0.0-17.0-0.6","d8d4dec0-5008-4f83-8f65-fe5e80244341","1000","
                  <p style=""text-align: center;"">₪43
                                                <br>75%</p>
                  <p id=""wtp"" style=""text-align:center; margin-top: 0px; margin-bottom: 0px; font-size: 40px"";>&ensp;</p>","-","viewing","0","18","11B,19B,24A,26A","","","","","","","","","","","","","","","","","","","",""
"","","","","","html-slider-response","35","1226403","0.0-17.0-1.6","d8d4dec0-5008-4f83-8f65-fe5e80244341","3540","
                  <p style=""text-align: center;"">₪43
                                                <br>75%</p>
                  <p id=""wtp"" style=""text-align:center; margin-top: 0px; margin-bottom: 0px; font-size: 40px"";>מוכנים לשלם: <span id=""c_p_y""></span></p>","19","evaluation","73","18","11B,19B,24A,26A","75","43","20","","","","","","","","","","","","","","","","",""
"","","","","","html-keyboard-response","36","1227814","0.0-17.0-2.6","d8d4dec0-5008-4f83-8f65-fe5e80244341","null","<p style=""text-align: center;"">+</p>","null","fixation","","","","","","","","","","","","","","","","","","","","","","",""
"","","","","","html-slider-response","37","1228818","0.0-17.0-0.7","d8d4dec0-5008-4f83-8f65-fe5e80244341","1000","
                  <p style=""text-align: center;"">₪61
                                                <br>45%</p>
                  <p id=""wtp"" style=""text-align:center; margin-top: 0px; margin-bottom: 0px; font-size: 40px"";>&ensp;</p>","-","viewing","0","22","10A,11A","","","","","","","","","","","","","","","","","","","",""
"","","","","","html-slider-response","38","1231330","0.0-17.0-1.7","d8d4dec0-5008-4f83-8f65-fe5e80244341","2511","
                  <p style=""text-align: center;"">₪61
                                                <br>45%</p>
                  <p id=""wtp"" style=""text-align:center; margin-top: 0px; margin-bottom: 0px; font-size: 40px"";>מוכנים לשלם: <span id=""c_p_y""></span></p>","20","evaluation","6","22","10A,11A","45","61","20","","","","","","","","","","","","","","","","",""
"","","","","","html-keyboard-response","39","1232760","0.0-17.0-2.7","d8d4dec0-5008-4f83-8f65-fe5e80244341","null","<p style=""text-align: center;"">+</p>","null","fixation","","","","","","","","","","","","","","","","","","","","","","",""
"","","","","","html-slider-response","40","1233773","0.0-17.0-0.8","d8d4dec0-5008-4f83-8f65-fe5e80244341","1000","
                  <p style=""text-align: center;"">₪36
                                                <br>70%</p>
                  <p id=""wtp"" style=""text-align:center; margin-top: 0px; margin-bottom: 0px; font-size: 40px"";>&ensp;</p>","-","viewing","0","13","3A,5C,10B","","","","","","","","","","","","","","","","","","","",""
"","","","","","html-slider-response","41","1236346","0.0-17.0-1.8","d8d4dec0-5008-4f83-8f65-fe5e80244341","2572","
                  <p style=""text-align: center;"">₪36
                                                <br>70%</p>
                  <p id=""wtp"" style=""text-align:center; margin-top: 0px; margin-bottom: 0px; font-size: 40px"";>מוכנים לשלם: <span id=""c_p_y""></span></p>","20","evaluation","73","13","3A,5C,10B","70","36","20","","","","","","","","","","","","","","","","",""
"","","","","","html-keyboard-response","42","1237156","0.0-17.0-2.8","d8d4dec0-5008-4f83-8f65-fe5e80244341","null","<p style=""text-align: center;"">+</p>","null","fixation","","","","","","","","","","","","","","","","","","","","","","",""
"","","","","","html-slider-response","43","1238168","0.0-17.0-0.9","d8d4dec0-5008-4f83-8f65-fe5e80244341","1000","
                  <p style=""text-align: center;"">₪43
                                                <br>60%</p>
                  <p id=""wtp"" style=""text-align:center; margin-top: 0px; margin-bottom: 0px; font-size: 40px"";>&ensp;</p>","-","viewing","0","17","2A,7A,9A,15B","","","","","","","","","","","","","","","","","","","",""
"","","","","","html-slider-response","44","1240314","0.0-17.0-1.9","d8d4dec0-5008-4f83-8f65-fe5e80244341","2145","
                  <p style=""text-align: center;"">₪43
                                                <br>60%</p>
                  <p id=""wtp"" style=""text-align:center; margin-top: 0px; margin-bottom: 0px; font-size: 40px"";>מוכנים לשלם: <span id=""c_p_y""></span></p>","25","evaluation","1","17","2A,7A,9A,15B","60","43","25","","","","","","","","","","","","","","","","",""
"","","","","","html-keyboard-response","45","1241689","0.0-17.0-2.9","d8d4dec0-5008-4f83-8f65-fe5e80244341","null","<p style=""text-align: center;"">+</p>","null","fixation","","","","","","","","","","","","","","","","","","","","","","",""
"","","","","","html-slider-response","46","1242699","0.0-17.0-0.10","d8d4dec0-5008-4f83-8f65-fe5e80244341","1000","
                  <p style=""text-align: center;"">₪4
                                                <br>50%</p>
                  <p id=""wtp"" style=""text-align:center; margin-top: 0px; margin-bottom: 0px; font-size: 40px"";>&ensp;</p>","-","viewing","0","2","4C,17B","","","","","","","","","","","","","","","","","","","",""
"","","","","","html-slider-response","47","1245626","0.0-17.0-1.10","d8d4dec0-5008-4f83-8f65-fe5e80244341","2926","
                  <p style=""text-align: center;"">₪4
                                                <br>50%</p>
                  <p id=""wtp"" style=""text-align:center; margin-top: 0px; margin-bottom: 0px; font-size: 40px"";>מוכנים לשלם: <span id=""c_p_y""></span></p>","1","evaluation","77","2","4C,17B","50","4","1","","","","","","","","","","","","","","","","",""
"","","","","","html-keyboard-response","48","1246531","0.0-17.0-2.10","d8d4dec0-5008-4f83-8f65-fe5e80244341","null","<p style=""text-align: center;"">+</p>","null","fixation","","","","","","","","","","","","","","","","","","","","","","",""
"","","","","","html-slider-response","49","1247537","0.0-17.0-0.11","d8d4dec0-5008-4f83-8f65-fe5e80244341","1000","
                  <p style=""text-align: center;"">₪58
                                                <br>40%</p>
                  <p id=""wtp"" style=""text-align:center; margin-top: 0px; margin-bottom: 0px; font-size: 40px"";>&ensp;</p>","-","viewing","0","20","10C,13A,19C,21B","","","","","","","","","","","","","","","","","","","",""
"","","","","","html-slider-response","50","1251346","0.0-17.0-1.11","d8d4dec0-5008-4f83-8f65-fe5e80244341","3808","
                  <p style=""text-align: center;"">₪58
                                                <br>40%</p>
                  <p id=""wtp"" style=""text-align:center; margin-top: 0px; margin-bottom: 0px; font-size: 40px"";>מוכנים לשלם: <span id=""c_p_y""></span></p>","15","evaluation","38","20","10C,13A,19C,21B","40","58","15","","","","","","","","","","","","","","","","",""
"","","","","","html-keyboard-response","51","1252155","0.0-17.0-2.11","d8d4dec0-5008-4f83-8f65-fe5e80244341","null","<p style=""text-align: center;"">+</p>","null","fixation","","","","","","","","","","","","","","","","","","","","","","",""
"","","","","","html-slider-response","52","1253160","0.0-17.0-0.12","d8d4dec0-5008-4f83-8f65-fe5e80244341","1000","
                  <p style=""text-align: center;"">₪64
                                                <br>50%</p>
                  <p id=""wtp"" style=""text-align:center; margin-top: 0px; margin-bottom: 0px; font-size: 40px"";>&ensp;</p>","-","viewing","0","25","1B,3B,4A","","","","","","","","","","","","","","","","","","","",""
"","","","","","html-slider-response","53","1257175","0.0-17.0-1.12","d8d4dec0-5008-4f83-8f65-fe5e80244341","null","
                  <p style=""text-align: center;"">₪64
                                                <br>50%</p>
                  <p id=""wtp"" style=""text-align:center; margin-top: 0px; margin-bottom: 0px; font-size: 40px"";>מוכנים לשלם: <span id=""c_p_y""></span></p>","null","evaluation","16","25","1B,3B,4A","50","64","20","","","","","","","","","","","","","","","","",""
"","","","","","html-keyboard-response","54","1258464","0.0-17.0-2.12","d8d4dec0-5008-4f83-8f65-fe5e80244341","null","<p style=""text-align: center;"">+</p>","null","fixation","","","","","","","","","","","","","","","","","","","","","","",""
"","","","","","html-slider-response","55","1259481","0.0-17.0-0.13","d8d4dec0-5008-4f83-8f65-fe5e80244341","1000","
                  <p style=""text-align: center;"">₪16
                                                <br>20%</p>
                  <p id=""wtp"" style=""text-align:center; margin-top: 0px; margin-bottom: 0px; font-size: 40px"";>&ensp;</p>","-","viewing","0","8","14C,17A,20C,27A","","","","","","","","","","","","","","","","","","","",""
"","","","","","html-slider-response","56","1262274","0.0-17.0-1.13","d8d4dec0-5008-4f83-8f65-fe5e80244341","2792","
                  <p style=""text-align: center;"">₪16
                                                <br>20%</p>
                  <p id=""wtp"" style=""text-align:center; margin-top: 0px; margin-bottom: 0px; font-size: 40px"";>מוכנים לשלם: <span id=""c_p_y""></span></p>","5","evaluation","67","8","14C,17A,20C,27A","20","16","5","","","","","","","","","","","","","","","","",""
"","","","","","html-keyboard-response","57","1263535","0.0-17.0-2.13","d8d4dec0-5008-4f83-8f65-fe5e80244341","null","<p style=""text-align: center;"">+</p>","null","fixation","","","","","","","","","","","","","","","","","","","","","","",""
"","","","","","html-slider-response","58","1264538","0.0-17.0-0.14","d8d4dec0-5008-4f83-8f65-fe5e80244341","1000","
                  <p style=""text-align: center;"">₪11
                                                <br>25%</p>
                  <p id=""wtp"" style=""text-align:center; margin-top: 0px; margin-bottom: 0px; font-size: 40px"";>&ensp;</p>","-","viewing","0","5","12A,27B,28B,30B","","","","","","","","","","","","","","","","","","","",""
"","","","","","html-slider-response","59","1266410","0.0-17.0-1.14","d8d4dec0-5008-4f83-8f65-fe5e80244341","1871","
                  <p style=""text-align: center;"">₪11
                                                <br>25%</p>
                  <p id=""wtp"" style=""text-align:center; margin-top: 0px; margin-bottom: 0px; font-size: 40px"";>מוכנים לשלם: <span id=""c_p_y""></span></p>","2","evaluation","72","5","12A,27B,28B,30B","25","11","2","","","","","","","","","","","","","","","","",""
"","","","","","html-keyboard-response","60","1267414","0.0-17.0-2.14","d8d4dec0-5008-4f83-8f65-fe5e80244341","null","<p style=""text-align: center;"">+</p>","null","fixation","","","","","","","","","","","","","","","","","","","","","","",""
"","","","","","html-slider-response","61","1268421","0.0-17.0-0.15","d8d4dec0-5008-4f83-8f65-fe5e80244341","1000","
                  <p style=""text-align: center;"">₪4
                                                <br>25%</p>
                  <p id=""wtp"" style=""text-align:center; margin-top: 0px; margin-bottom: 0px; font-size: 40px"";>&ensp;</p>","-","viewing","0","1","6C,29B,30C","","","","","","","","","","","","","","","","","","","",""
"","","","","","html-slider-response","62","1270122","0.0-17.0-1.15","d8d4dec0-5008-4f83-8f65-fe5e80244341","1700","
                  <p style=""text-align: center;"">₪4
                                                <br>25%</p>
                  <p id=""wtp"" style=""text-align:center; margin-top: 0px; margin-bottom: 0px; font-size: 40px"";>מוכנים לשלם: <span id=""c_p_y""></span></p>","1","evaluation","32","1","6C,29B,30C","25","4","1","","","","","","","","","","","","","","","","",""
"","","","","","html-keyboard-response","63","1271596","0.0-17.0-2.15","d8d4dec0-5008-4f83-8f65-fe5e80244341","null","<p style=""text-align: center;"">+</p>","null","fixation","","","","","","","","","","","","","","","","","","","","","","",""
"","","","","","html-slider-response","64","1272611","0.0-17.0-0.16","d8d4dec0-5008-4f83-8f65-fe5e80244341","1000","
                  <p style=""text-align: center;"">₪71
                                                <br>55%</p>
                  <p id=""wtp"" style=""text-align:center; margin-top: 0px; margin-bottom: 0px; font-size: 40px"";>&ensp;</p>","-","viewing","0","27","5B,18A","","","","","","","","","","","","","","","","","","","",""
"","","","","","html-slider-response","65","1276026","0.0-17.0-1.16","d8d4dec0-5008-4f83-8f65-fe5e80244341","3413","
                  <p style=""text-align: center;"">₪71
                                                <br>55%</p>
                  <p id=""wtp"" style=""text-align:center; margin-top: 0px; margin-bottom: 0px; font-size: 40px"";>מוכנים לשלם: <span id=""c_p_y""></span></p>","20","evaluation","56","27","5B,18A","55","71","20","","","","","","","","","","","","","","","","",""
"","","","","","html-keyboard-response","66","1277329","0.0-17.0-2.16","d8d4dec0-5008-4f83-8f65-fe5e80244341","null","<p style=""text-align: center;"">+</p>","null","fixation","","","","","","","","","","","","","","","","","","","","","","",""
"","","","","","html-slider-response","67","1278334","0.0-17.0-0.17","d8d4dec0-5008-4f83-8f65-fe5e80244341","1000","
                  <p style=""text-align: center;"">₪11
                                                <br>75%</p>
                  <p id=""wtp"" style=""text-align:center; margin-top: 0px; margin-bottom: 0px; font-size: 40px"";>&ensp;</p>","-","viewing","0","7","6B,18B,22C,24C,29A","","","","","","","","","","","","","","","","","","","",""
"","","","","","html-slider-response","68","1280722","0.0-17.0-1.17","d8d4dec0-5008-4f83-8f65-fe5e80244341","2387","
                  <p style=""text-align: center;"">₪11
                                                <br>75%</p>
                  <p id=""wtp"" style=""text-align:center; margin-top: 0px; margin-bottom: 0px; font-size: 40px"";>מוכנים לשלם: <span id=""c_p_y""></span></p>","1","evaluation","6","7","6B,18B,22C,24C,29A","75","11","2","","","","","","","","","","","","","","","","",""
"","","","","","html-keyboard-response","69","1281893","0.0-17.0-2.17","d8d4dec0-5008-4f83-8f65-fe5e80244341","null","<p style=""text-align: center;"">+</p>","null","fixation","","","","","","","","","","","","","","","","","","","","","","",""
"","","","","","html-slider-response","70","1282905","0.0-17.0-0.18","d8d4dec0-5008-4f83-8f65-fe5e80244341","1000","
                  <p style=""text-align: center;"">₪64
                                                <br>25%</p>
                  <p id=""wtp"" style=""text-align:center; margin-top: 0px; margin-bottom: 0px; font-size: 40px"";>&ensp;</p>","-","viewing","0","24","6A,21A","","","","","","","","","","","","","","","","","","","",""
"","","","","","html-slider-response","71","1285778","0.0-17.0-1.18","d8d4dec0-5008-4f83-8f65-fe5e80244341","2872","
                  <p style=""text-align: center;"">₪64
                                                <br>25%</p>
                  <p id=""wtp"" style=""text-align:center; margin-top: 0px; margin-bottom: 0px; font-size: 40px"";>מוכנים לשלם: <span id=""c_p_y""></span></p>","10","evaluation","73","24","6A,21A","25","64","10","","","","","","","","","","","","","","","","",""
"","","","","","html-keyboard-response","72","1286870","0.0-17.0-2.18","d8d4dec0-5008-4f83-8f65-fe5e80244341","null","<p style=""text-align: center;"">+</p>","null","fixation","","","","","","","","","","","","","","","","","","","","","","",""
"","","","","","html-slider-response","73","1287876","0.0-17.0-0.19","d8d4dec0-5008-4f83-8f65-fe5e80244341","1000","
                  <p style=""text-align: center;"">₪58
                                                <br>30%</p>
                  <p id=""wtp"" style=""text-align:center; margin-top: 0px; margin-bottom: 0px; font-size: 40px"";>&ensp;</p>","-","viewing","0","19","13C,30A","","","","","","","","","","","","","","","","","","","",""
"","","","","","html-slider-response","74","1291895","0.0-17.0-1.19","d8d4dec0-5008-4f83-8f65-fe5e80244341","null","
                  <p style=""text-align: center;"">₪58
                                                <br>30%</p>
                  <p id=""wtp"" style=""text-align:center; margin-top: 0px; margin-bottom: 0px; font-size: 40px"";>מוכנים לשלם: <span id=""c_p_y""></span></p>","null","evaluation","70","19","13C,30A","30","58","9","","","","","","","","","","","","","","","","",""
"","","","","","html-keyboard-response","75","1292438","0.0-17.0-2.19","d8d4dec0-5008-4f83-8f65-fe5e80244341","null","<p style=""text-align: center;"">+</p>","null","fixation","","","","","","","","","","","","","","","","","","","","","","",""
"","","","","","html-slider-response","76","1293444","0.0-17.0-0.20","d8d4dec0-5008-4f83-8f65-fe5e80244341","1000","
                  <p style=""text-align: center;"">₪36
                                                <br>75%</p>
                  <p id=""wtp"" style=""text-align:center; margin-top: 0px; margin-bottom: 0px; font-size: 40px"";>&ensp;</p>","-","viewing","0","14","4B,5A,13B,16B","","","","","","","","","","","","","","","","","","","",""
"","","","","","html-slider-response","77","1296698","0.0-17.0-1.20","d8d4dec0-5008-4f83-8f65-fe5e80244341","3253","
                  <p style=""text-align: center;"">₪36
                                                <br>75%</p>
                  <p id=""wtp"" style=""text-align:center; margin-top: 0px; margin-bottom: 0px; font-size: 40px"";>מוכנים לשלם: <span id=""c_p_y""></span></p>","13","evaluation","40","14","4B,5A,13B,16B","75","36","13","","","","","","","","","","","","","","","","",""
"","","","","","html-keyboard-response","78","1297672","0.0-17.0-2.20","d8d4dec0-5008-4f83-8f65-fe5e80244341","null","<p style=""text-align: center;"">+</p>","null","fixation","","","","","","","","","","","","","","","","","","","","","","",""
"","","","","","html-slider-response","79","1298687","0.0-17.0-0.21","d8d4dec0-5008-4f83-8f65-fe5e80244341","1000","
                  <p style=""text-align: center;"">₪36
                                                <br>60%</p>
                  <p id=""wtp"" style=""text-align:center; margin-top: 0px; margin-bottom: 0px; font-size: 40px"";>&ensp;</p>","-","viewing","0","12","1C,7C,15C","","","","","","","","","","","","","","","","","","","",""
"","","","","","html-slider-response","80","1301914","0.0-17.0-1.21","d8d4dec0-5008-4f83-8f65-fe5e80244341","3226","
                  <p style=""text-align: center;"">₪36
                                                <br>60%</p>
                  <p id=""wtp"" style=""text-align:center; margin-top: 0px; margin-bottom: 0px; font-size: 40px"";>מוכנים לשלם: <span id=""c_p_y""></span></p>","12","evaluation","74","12","1C,7C,15C","60","36","12","","","","","","","","","","","","","","","","",""
"","","","","","html-keyboard-response","81","1303269","0.0-17.0-2.21","d8d4dec0-5008-4f83-8f65-fe5e80244341","null","<p style=""text-align: center;"">+</p>","null","fixation","","","","","","","","","","","","","","","","","","","","","","",""
"","","","","","html-slider-response","82","1304275","0.0-17.0-0.22","d8d4dec0-5008-4f83-8f65-fe5e80244341","1000","
                  <p style=""text-align: center;"">₪11
                                                <br>20%</p>
                  <p id=""wtp"" style=""text-align:center; margin-top: 0px; margin-bottom: 0px; font-size: 40px"";>&ensp;</p>","-","viewing","0","4","12C,17C,23C,28C","","","","","","","","","","","","","","","","","","","",""
"","","","","","html-slider-response","83","1306010","0.0-17.0-1.22","d8d4dec0-5008-4f83-8f65-fe5e80244341","1733","
                  <p style=""text-align: center;"">₪11
                                                <br>20%</p>
                  <p id=""wtp"" style=""text-align:center; margin-top: 0px; margin-bottom: 0px; font-size: 40px"";>מוכנים לשלם: <span id=""c_p_y""></span></p>","3","evaluation","27","4","12C,17C,23C,28C","20","11","3","","","","","","","","","","","","","","","","",""
"","","","","","html-keyboard-response","84","1307091","0.0-17.0-2.22","d8d4dec0-5008-4f83-8f65-fe5e80244341","null","<p style=""text-align: center;"">+</p>","null","fixation","","","","","","","","","","","","","","","","","","","","","","",""
"","","","","","html-slider-response","85","1308098","0.0-17.0-0.23","d8d4dec0-5008-4f83-8f65-fe5e80244341","1000","
                  <p style=""text-align: center;"">₪79
                                                <br>40%</p>
                  <p id=""wtp"" style=""text-align:center; margin-top: 0px; margin-bottom: 0px; font-size: 40px"";>&ensp;</p>","-","viewing","0","30","9B","","","","","","","","","","","","","","","","","","","",""
"","","","","","html-slider-response","86","1311546","0.0-17.0-1.23","d8d4dec0-5008-4f83-8f65-fe5e80244341","3447","
                  <p style=""text-align: center;"">₪79
                                                <br>40%</p>
                  <p id=""wtp"" style=""text-align:center; margin-top: 0px; margin-bottom: 0px; font-size: 40px"";>מוכנים לשלם: <span id=""c_p_y""></span></p>","21","evaluation","44","30","9B","40","79","21","","","","","","","","","","","","","","","","",""
"","","","","","html-keyboard-response","87","1312099","0.0-17.0-2.23","d8d4dec0-5008-4f83-8f65-fe5e80244341","null","<p style=""text-align: center;"">+</p>","null","fixation","","","","","","","","","","","","","","","","","","","","","","",""
"","","","","","html-slider-response","88","1313103","0.0-17.0-0.24","d8d4dec0-5008-4f83-8f65-fe5e80244341","1000","
                  <p style=""text-align: center;"">₪71
                                                <br>75%</p>
                  <p id=""wtp"" style=""text-align:center; margin-top: 0px; margin-bottom: 0px; font-size: 40px"";>&ensp;</p>","-","viewing","0","28","8B","","","","","","","","","","","","","","","","","","","",""
"","","","","","html-slider-response","89","1315835","0.0-17.0-1.24","d8d4dec0-5008-4f83-8f65-fe5e80244341","2731","
                  <p style=""text-align: center;"">₪71
                                                <br>75%</p>
                  <p id=""wtp"" style=""text-align:center; margin-top: 0px; margin-bottom: 0px; font-size: 40px"";>מוכנים לשלם: <span id=""c_p_y""></span></p>","24","evaluation","67","28","8B","75","71","24","","","","","","","","","","","","","","","","",""
"","","","","","html-keyboard-response","90","1316747","0.0-17.0-2.24","d8d4dec0-5008-4f83-8f65-fe5e80244341","null","<p style=""text-align: center;"">+</p>","null","fixation","","","","","","","","","","","","","","","","","","","","","","",""
"","","","","","html-slider-response","91","1317756","0.0-17.0-0.25","d8d4dec0-5008-4f83-8f65-fe5e80244341","1000","
                  <p style=""text-align: center;"">₪39
                                                <br>60%</p>
                  <p id=""wtp"" style=""text-align:center; margin-top: 0px; margin-bottom: 0px; font-size: 40px"";>&ensp;</p>","-","viewing","0","15","9C,25B","","","","","","","","","","","","","","","","","","","",""
"","","","","","html-slider-response","92","1321394","0.0-17.0-1.25","d8d4dec0-5008-4f83-8f65-fe5e80244341","3636","
                  <p style=""text-align: center;"">₪39
                                                <br>60%</p>
                  <p id=""wtp"" style=""text-align:center; margin-top: 0px; margin-bottom: 0px; font-size: 40px"";>מוכנים לשלם: <span id=""c_p_y""></span></p>","15","evaluation","29","15","9C,25B","60","39","15","","","","","","","","","","","","","","","","",""
"","","","","","html-keyboard-response","93","1322459","0.0-17.0-2.25","d8d4dec0-5008-4f83-8f65-fe5e80244341","null","<p style=""text-align: center;"">+</p>","null","fixation","","","","","","","","","","","","","","","","","","","","","","",""
"","","","","","html-slider-response","94","1323463","0.0-17.0-0.26","d8d4dec0-5008-4f83-8f65-fe5e80244341","1000","
                  <p style=""text-align: center;"">₪18
                                                <br>50%</p>
                  <p id=""wtp"" style=""text-align:center; margin-top: 0px; margin-bottom: 0px; font-size: 40px"";>&ensp;</p>","-","viewing","0","10","2C,16C,22B,28A","","","","","","","","","","","","","","","","","","","",""
"","","","","","html-slider-response","95","1325434","0.0-17.0-1.26","d8d4dec0-5008-4f83-8f65-fe5e80244341","1969","
                  <p style=""text-align: center;"">₪18
                                                <br>50%</p>
                  <p id=""wtp"" style=""text-align:center; margin-top: 0px; margin-bottom: 0px; font-size: 40px"";>מוכנים לשלם: <span id=""c_p_y""></span></p>","4","evaluation","38","10","2C,16C,22B,28A","50","18","4","","","","","","","","","","","","","","","","",""
"","","","","","html-keyboard-response","96","1326428","0.0-17.0-2.26","d8d4dec0-5008-4f83-8f65-fe5e80244341","null","<p style=""text-align: center;"">+</p>","null","fixation","","","","","","","","","","","","","","","","","","","","","","",""
"","","","","","html-slider-response","97","1327431","0.0-17.0-0.27","d8d4dec0-5008-4f83-8f65-fe5e80244341","1000","
                  <p style=""text-align: center;"">₪61
                                                <br>55%</p>
                  <p id=""wtp"" style=""text-align:center; margin-top: 0px; margin-bottom: 0px; font-size: 40px"";>&ensp;</p>","-","viewing","0","23","7B,26B","","","","","","","","","","","","","","","","","","","",""
"","","","","","html-slider-response","98","1329706","0.0-17.0-1.27","d8d4dec0-5008-4f83-8f65-fe5e80244341","2274","
                  <p style=""text-align: center;"">₪61
                                                <br>55%</p>
                  <p id=""wtp"" style=""text-align:center; margin-top: 0px; margin-bottom: 0px; font-size: 40px"";>מוכנים לשלם: <span id=""c_p_y""></span></p>","20","evaluation","76","23","7B,26B","55","61","20","","","","","","","","","","","","","","","","",""
"","","","","","html-keyboard-response","99","1331000","0.0-17.0-2.27","d8d4dec0-5008-4f83-8f65-fe5e80244341","null","<p style=""text-align: center;"">+</p>","null","fixation","","","","","","","","","","","","","","","","","","","","","","",""
"","","","","","html-slider-response","100","1332005","0.0-17.0-0.28","d8d4dec0-5008-4f83-8f65-fe5e80244341","1000","
                  <p style=""text-align: center;"">₪4
                                                <br>75%</p>
                  <p id=""wtp"" style=""text-align:center; margin-top: 0px; margin-bottom: 0px; font-size: 40px"";>&ensp;</p>","-","viewing","0","3","12B,20B,23B,27C,29C","","","","","","","","","","","","","","","","","","","",""
"","","","","","html-slider-response","101","1334250","0.0-17.0-1.28","d8d4dec0-5008-4f83-8f65-fe5e80244341","2244","
                  <p style=""text-align: center;"">₪4
                                                <br>75%</p>
                  <p id=""wtp"" style=""text-align:center; margin-top: 0px; margin-bottom: 0px; font-size: 40px"";>מוכנים לשלם: <span id=""c_p_y""></span></p>","1","evaluation","72","3","12B,20B,23B,27C,29C","75","4","1","","","","","","","","","","","","","","","","",""
"","","","","","html-keyboard-response","102","1334804","0.0-17.0-2.28","d8d4dec0-5008-4f83-8f65-fe5e80244341","null","<p style=""text-align: center;"">+</p>","null","fixation","","","","","","","","","","","","","","","","","","","","","","",""
"","","","","","html-slider-response","103","1335809","0.0-17.0-0.29","d8d4dec0-5008-4f83-8f65-fe5e80244341","1000","
                  <p style=""text-align: center;"">₪71
                                                <br>45%</p>
                  <p id=""wtp"" style=""text-align:center; margin-top: 0px; margin-bottom: 0px; font-size: 40px"";>&ensp;</p>","-","viewing","0","26","2B,16A","","","","","","","","","","","","","","","","","","","",""
"","","","","","html-slider-response","104","1338674","0.0-17.0-1.29","d8d4dec0-5008-4f83-8f65-fe5e80244341","2864","
                  <p style=""text-align: center;"">₪71
                                                <br>45%</p>
                  <p id=""wtp"" style=""text-align:center; margin-top: 0px; margin-bottom: 0px; font-size: 40px"";>מוכנים לשלם: <span id=""c_p_y""></span></p>","20","evaluation","59","26","2B,16A","45","71","20","","","","","","","","","","","","","","","","",""
"","","","","","html-keyboard-response","105","1339806","0.0-17.0-2.29","d8d4dec0-5008-4f83-8f65-fe5e80244341","null","<p style=""text-align: center;"">+</p>","null","fixation","","","","","","","","","","","","","","","","","","","","","","",""
"","","","","","html-slider-response","106","1340813","0.0-17.0-0.30","d8d4dec0-5008-4f83-8f65-fe5e80244341","1000","
                  <p style=""text-align: center;"">₪79
                                                <br>65%</p>
                  <p id=""wtp"" style=""text-align:center; margin-top: 0px; margin-bottom: 0px; font-size: 40px"";>&ensp;</p>","-","viewing","0","31","8A","","","","","","","","","","","","","","","","","","","",""
"","","","","","html-slider-response","107","1342802","0.0-17.0-1.30","d8d4dec0-5008-4f83-8f65-fe5e80244341","1988","
                  <p style=""text-align: center;"">₪79
                                                <br>65%</p>
                  <p id=""wtp"" style=""text-align:center; margin-top: 0px; margin-bottom: 0px; font-size: 40px"";>מוכנים לשלם: <span id=""c_p_y""></span></p>","18","evaluation","36","31","8A","65","79","18","","","","","","","","","","","","","","","","",""
"","","","","","html-keyboard-response","108","1343316","0.0-17.0-2.30","d8d4dec0-5008-4f83-8f65-fe5e80244341","null","<p style=""text-align: center;"">+</p>","null","fixation","","","","","","","","","","","","","","","","","","","","","","",""
"","","","","","html-keyboard-response","109","1344318","0.0-18.0","d8d4dec0-5008-4f83-8f65-fe5e80244341","null","<p style=""text-align: center;"">+</p>","null","fixation","","","","","","","","","","","","","","","","","","","","","","",""
"","","","","","html-keyboard-response","110","1350538","0.0-19.0","d8d4dec0-5008-4f83-8f65-fe5e80244341","null","<p>הפסקה.
          <br>לחצו כדי להמשיך.</p>","1","scan_wait","","","","","","","","","","","","","","","","","","","","","","",""
"","","","","","html-keyboard-response","111","1351542","0.0-20.0","d8d4dec0-5008-4f83-8f65-fe5e80244341","null","<p style=""text-align: center;"">+</p>","null","fixation","","","","","","","","","","","","","","","","","","","","","","",""
"","","","","","html-slider-response","112","1352558","0.0-21.0-0.0","d8d4dec0-5008-4f83-8f65-fe5e80244341","1000","
                  <p style=""text-align: center;"">₪79
                                                <br>40%</p>
                  <p id=""wtp"" style=""text-align:center; margin-top: 0px; margin-bottom: 0px; font-size: 40px"";>&ensp;</p>","-","viewing","0","30","9B","","","","","","","","","","","","","","","","","","","",""
"","","","","","html-slider-response","113","1356074","0.0-21.0-1.0","d8d4dec0-5008-4f83-8f65-fe5e80244341","3515","
                  <p style=""text-align: center;"">₪79
                                                <br>40%</p>
                  <p id=""wtp"" style=""text-align:center; margin-top: 0px; margin-bottom: 0px; font-size: 40px"";>מוכנים לשלם: <span id=""c_p_y""></span></p>","19","evaluation","22","30","9B","40","79","19","","","","","","","","","","","","","","","","",""
"","","","","","html-keyboard-response","114","1357502","0.0-21.0-2.0","d8d4dec0-5008-4f83-8f65-fe5e80244341","null","<p style=""text-align: center;"">+</p>","null","fixation","","","","","","","","","","","","","","","","","","","","","","",""
"","","","","","html-slider-response","115","1358513","0.0-21.0-0.1","d8d4dec0-5008-4f83-8f65-fe5e80244341","1000","
                  <p style=""text-align: center;"">₪39
                                                <br>65%</p>
                  <p id=""wtp"" style=""text-align:center; margin-top: 0px; margin-bottom: 0px; font-size: 40px"";>&ensp;</p>","-","viewing","0","16","1A,15A,26C","","","","","","","","","","","","","","","","","","","",""
"","","","","","html-slider-response","116","1360818","0.0-21.0-1.1","d8d4dec0-5008-4f83-8f65-fe5e80244341","2303","
                  <p style=""text-align: center;"">₪39
                                                <br>65%</p>
                  <p id=""wtp"" style=""text-align:center; margin-top: 0px; margin-bottom: 0px; font-size: 40px"";>מוכנים לשלם: <span id=""c_p_y""></span></p>","5","evaluation","22","16","1A,15A,26C","65","39","5","","","","","","","","","","","","","","","","",""
"","","","","","html-keyboard-response","117","1361709","0.0-21.0-2.1","d8d4dec0-5008-4f83-8f65-fe5e80244341","null","<p style=""text-align: center;"">+</p>","null","fixation","","","","","","","","","","","","","","","","","","","","","","",""
"","","","","","html-slider-response","118","1362717","0.0-21.0-0.2","d8d4dec0-5008-4f83-8f65-fe5e80244341","1000","
                  <p style=""text-align: center;"">₪4
                                                <br>25%</p>
                  <p id=""wtp"" style=""text-align:center; margin-top: 0px; margin-bottom: 0px; font-size: 40px"";>&ensp;</p>","-","viewing","0","1","6C,29B,30C","","","","","","","","","","","","","","","","","","","",""
"","","","","","html-slider-response","119","1364466","0.0-21.0-1.2","d8d4dec0-5008-4f83-8f65-fe5e80244341","1748","
                  <p style=""text-align: center;"">₪4
                                                <br>25%</p>
                  <p id=""wtp"" style=""text-align:center; margin-top: 0px; margin-bottom: 0px; font-size: 40px"";>מוכנים לשלם: <span id=""c_p_y""></span></p>","1","evaluation","65","1","6C,29B,30C","25","4","1","","","","","","","","","","","","","","","","",""
"","","","","","html-keyboard-response","120","1365894","0.0-21.0-2.2","d8d4dec0-5008-4f83-8f65-fe5e80244341","null","<p style=""text-align: center;"">+</p>","null","fixation","","","","","","","","","","","","","","","","","","","","","","",""
"","","","","","html-slider-response","121","1366906","0.0-21.0-0.3","d8d4dec0-5008-4f83-8f65-fe5e80244341","1000","
                  <p style=""text-align: center;"">₪4
                                                <br>75%</p>
                  <p id=""wtp"" style=""text-align:center; margin-top: 0px; margin-bottom: 0px; font-size: 40px"";>&ensp;</p>","-","viewing","0","3","12B,20B,23B,27C,29C","","","","","","","","","","","","","","","","","","","",""
"","","","","","html-slider-response","122","1368610","0.0-21.0-1.3","d8d4dec0-5008-4f83-8f65-fe5e80244341","1703","
                  <p style=""text-align: center;"">₪4
                                                <br>75%</p>
                  <p id=""wtp"" style=""text-align:center; margin-top: 0px; margin-bottom: 0px; font-size: 40px"";>מוכנים לשלם: <span id=""c_p_y""></span></p>","0","evaluation","18","3","12B,20B,23B,27C,29C","75","4","0","","","","","","","","","","","","","","","","",""
"","","","","","html-keyboard-response","123","1370030","0.0-21.0-2.3","d8d4dec0-5008-4f83-8f65-fe5e80244341","null","<p style=""text-align: center;"">+</p>","null","fixation","","","","","","","","","","","","","","","","","","","","","","",""
"","","","","","html-slider-response","124","1371043","0.0-21.0-0.4","d8d4dec0-5008-4f83-8f65-fe5e80244341","1000","
                  <p style=""text-align: center;"">₪11
                                                <br>45%</p>
                  <p id=""wtp"" style=""text-align:center; margin-top: 0px; margin-bottom: 0px; font-size: 40px"";>&ensp;</p>","-","viewing","0","6","14B,21C,25C","","","","","","","","","","","","","","","","","","","",""
"","","","","","html-slider-response","125","1374338","0.0-21.0-1.4","d8d4dec0-5008-4f83-8f65-fe5e80244341","3294","
                  <p style=""text-align: center;"">₪11
                                                <br>45%</p>
                  <p id=""wtp"" style=""text-align:center; margin-top: 0px; margin-bottom: 0px; font-size: 40px"";>מוכנים לשלם: <span id=""c_p_y""></span></p>","1","evaluation","58","6","14B,21C,25C","45","11","2","","","","","","","","","","","","","","","","",""
"","","","","","html-keyboard-response","126","1374891","0.0-21.0-2.4","d8d4dec0-5008-4f83-8f65-fe5e80244341","null","<p style=""text-align: center;"">+</p>","null","fixation","","","","","","","","","","","","","","","","","","","","","","",""
"","","","","","html-slider-response","127","1375899","0.0-21.0-0.5","d8d4dec0-5008-4f83-8f65-fe5e80244341","1000","
                  <p style=""text-align: center;"">₪61
                                                <br>45%</p>
                  <p id=""wtp"" style=""text-align:center; margin-top: 0px; margin-bottom: 0px; font-size: 40px"";>&ensp;</p>","-","viewing","0","22","10A,11A","","","","","","","","","","","","","","","","","","","",""
"","","","","","html-slider-response","128","1378426","0.0-21.0-1.5","d8d4dec0-5008-4f83-8f65-fe5e80244341","2526","
                  <p style=""text-align: center;"">₪61
                                                <br>45%</p>
                  <p id=""wtp"" style=""text-align:center; margin-top: 0px; margin-bottom: 0px; font-size: 40px"";>מוכנים לשלם: <span id=""c_p_y""></span></p>","15","evaluation","67","22","10A,11A","45","61","15","","","","","","","","","","","","","","","","",""
"","","","","","html-keyboard-response","129","1379201","0.0-21.0-2.5","d8d4dec0-5008-4f83-8f65-fe5e80244341","null","<p style=""text-align: center;"">+</p>","null","fixation","","","","","","","","","","","","","","","","","","","","","","",""
"","","","","","html-slider-response","130","1380203","0.0-21.0-0.6","d8d4dec0-5008-4f83-8f65-fe5e80244341","1000","
                  <p style=""text-align: center;"">₪11
                                                <br>75%</p>
                  <p id=""wtp"" style=""text-align:center; margin-top: 0px; margin-bottom: 0px; font-size: 40px"";>&ensp;</p>","-","viewing","0","7","6B,18B,22C,24C,29A","","","","","","","","","","","","","","","","","","","",""
"","","","","","html-slider-response","131","1381970","0.0-21.0-1.6","d8d4dec0-5008-4f83-8f65-fe5e80244341","1765","
                  <p style=""text-align: center;"">₪11
                                                <br>75%</p>
                  <p id=""wtp"" style=""text-align:center; margin-top: 0px; margin-bottom: 0px; font-size: 40px"";>מוכנים לשלם: <span id=""c_p_y""></span></p>","0","evaluation","72","7","6B,18B,22C,24C,29A","75","11","1","","","","","","","","","","","","","","","","",""
"","","","","","html-keyboard-response","132","1383051","0.0-21.0-2.6","d8d4dec0-5008-4f83-8f65-fe5e80244341","null","<p style=""text-align: center;"">+</p>","null","fixation","","","","","","","","","","","","","","","","","","","","","","",""
"","","","","","html-slider-response","133","1384057","0.0-21.0-0.7","d8d4dec0-5008-4f83-8f65-fe5e80244341","1000","
                  <p style=""text-align: center;"">₪58
                                                <br>45%</p>
                  <p id=""wtp"" style=""text-align:center; margin-top: 0px; margin-bottom: 0px; font-size: 40px"";>&ensp;</p>","-","viewing","0","21","11C,18C,25A","","","","","","","","","","","","","","","","","","","",""
"","","","","","html-slider-response","134","1387106","0.0-21.0-1.7","d8d4dec0-5008-4f83-8f65-fe5e80244341","3048","
                  <p style=""text-align: center;"">₪58
                                                <br>45%</p>
                  <p id=""wtp"" style=""text-align:center; margin-top: 0px; margin-bottom: 0px; font-size: 40px"";>מוכנים לשלם: <span id=""c_p_y""></span></p>","10","evaluation","16","21","11C,18C,25A","45","58","10","","","","","","","","","","","","","","","","",""
"","","","","","html-keyboard-response","135","1388253","0.0-21.0-2.7","d8d4dec0-5008-4f83-8f65-fe5e80244341","null","<p style=""text-align: center;"">+</p>","null","fixation","","","","","","","","","","","","","","","","","","","","","","",""
"","","","","","html-slider-response","136","1389261","0.0-21.0-0.8","d8d4dec0-5008-4f83-8f65-fe5e80244341","1000","
                  <p style=""text-align: center;"">₪16
                                                <br>20%</p>
                  <p id=""wtp"" style=""text-align:center; margin-top: 0px; margin-bottom: 0px; font-size: 40px"";>&ensp;</p>","-","viewing","0","8","14C,17A,20C,27A","","","","","","","","","","","","","","","","","","","",""
"","","","","","html-slider-response","137","1391090","0.0-21.0-1.8","d8d4dec0-5008-4f83-8f65-fe5e80244341","1828","
                  <p style=""text-align: center;"">₪16
                                                <br>20%</p>
                  <p id=""wtp"" style=""text-align:center; margin-top: 0px; margin-bottom: 0px; font-size: 40px"";>מוכנים לשלם: <span id=""c_p_y""></span></p>","1","evaluation","76","8","14C,17A,20C,27A","20","16","1","","","","","","","","","","","","","","","","",""
"","","","","","html-keyboard-response","138","1391675","0.0-21.0-2.8","d8d4dec0-5008-4f83-8f65-fe5e80244341","null","<p style=""text-align: center;"">+</p>","null","fixation","","","","","","","","","","","","","","","","","","","","","","",""
"","","","","","html-slider-response","139","1392683","0.0-21.0-0.9","d8d4dec0-5008-4f83-8f65-fe5e80244341","1000","
                  <p style=""text-align: center;"">₪43
                                                <br>60%</p>
                  <p id=""wtp"" style=""text-align:center; margin-top: 0px; margin-bottom: 0px; font-size: 40px"";>&ensp;</p>","-","viewing","0","17","2A,7A,9A,15B","","","","","","","","","","","","","","","","","","","",""
"","","","","","html-slider-response","140","1396697","0.0-21.0-1.9","d8d4dec0-5008-4f83-8f65-fe5e80244341","null","
                  <p style=""text-align: center;"">₪43
                                                <br>60%</p>
                  <p id=""wtp"" style=""text-align:center; margin-top: 0px; margin-bottom: 0px; font-size: 40px"";>מוכנים לשלם: <span id=""c_p_y""></span></p>","null","evaluation","3","17","2A,7A,9A,15B","60","43","10","","","","","","","","","","","","","","","","",""
"","","","","","html-keyboard-response","141","1397593","0.0-21.0-2.9","d8d4dec0-5008-4f83-8f65-fe5e80244341","null","<p style=""text-align: center;"">+</p>","null","fixation","","","","","","","","","","","","","","","","","","","","","","",""
"","","","","","html-slider-response","142","1398610","0.0-21.0-0.10","d8d4dec0-5008-4f83-8f65-fe5e80244341","1000","
                  <p style=""text-align: center;"">₪18
                                                <br>50%</p>
                  <p id=""wtp"" style=""text-align:center; margin-top: 0px; margin-bottom: 0px; font-size: 40px"";>&ensp;</p>","-","viewing","0","10","2C,16C,22B,28A","","","","","","","","","","","","","","","","","","","",""
"","","","","","html-slider-response","143","1400538","0.0-21.0-1.10","d8d4dec0-5008-4f83-8f65-fe5e80244341","1926","
                  <p style=""text-align: center;"">₪18
                                                <br>50%</p>
                  <p id=""wtp"" style=""text-align:center; margin-top: 0px; margin-bottom: 0px; font-size: 40px"";>מוכנים לשלם: <span id=""c_p_y""></span></p>","5","evaluation","31","10","2C,16C,22B,28A","50","18","5","","","","","","","","","","","","","","","","",""
"","","","","","html-keyboard-response","144","1401603","0.0-21.0-2.10","d8d4dec0-5008-4f83-8f65-fe5e80244341","null","<p style=""text-align: center;"">+</p>","null","fixation","","","","","","","","","","","","","","","","","","","","","","",""
"","","","","","html-slider-response","145","1402609","0.0-21.0-0.11","d8d4dec0-5008-4f83-8f65-fe5e80244341","1000","
                  <p style=""text-align: center;"">₪39
                                                <br>60%</p>
                  <p id=""wtp"" style=""text-align:center; margin-top: 0px; margin-bottom: 0px; font-size: 40px"";>&ensp;</p>","-","viewing","0","15","9C,25B","","","","","","","","","","","","","","","","","","","",""
"","","","","","html-slider-response","146","1406624","0.0-21.0-1.11","d8d4dec0-5008-4f83-8f65-fe5e80244341","null","
                  <p style=""text-align: center;"">₪39
                                                <br>60%</p>
                  <p id=""wtp"" style=""text-align:center; margin-top: 0px; margin-bottom: 0px; font-size: 40px"";>מוכנים לשלם: <span id=""c_p_y""></span></p>","null","evaluation","24","15","9C,25B","60","39","12","","","","","","","","","","","","","","","","",""
"","","","","","html-keyboard-response","147","1407784","0.0-21.0-2.11","d8d4dec0-5008-4f83-8f65-fe5e80244341","null","<p style=""text-align: center;"">+</p>","null","fixation","","","","","","","","","","","","","","","","","","","","","","",""
"","","","","","html-slider-response","148","1408797","0.0-21.0-0.12","d8d4dec0-5008-4f83-8f65-fe5e80244341","1000","
                  <p style=""text-align: center;"">₪61
                                                <br>55%</p>
                  <p id=""wtp"" style=""text-align:center; margin-top: 0px; margin-bottom: 0px; font-size: 40px"";>&ensp;</p>","-","viewing","0","23","7B,26B","","","","","","","","","","","","","","","","","","","",""
"","","","","","html-slider-response","149","1411122","0.0-21.0-1.12","d8d4dec0-5008-4f83-8f65-fe5e80244341","2324","
                  <p style=""text-align: center;"">₪61
                                                <br>55%</p>
                  <p id=""wtp"" style=""text-align:center; margin-top: 0px; margin-bottom: 0px; font-size: 40px"";>מוכנים לשלם: <span id=""c_p_y""></span></p>","20","evaluation","10","23","7B,26B","55","61","20","","","","","","","","","","","","","","","","",""
"","","","","","html-keyboard-response","150","1412399","0.0-21.0-2.12","d8d4dec0-5008-4f83-8f65-fe5e80244341","null","<p style=""text-align: center;"">+</p>","null","fixation","","","","","","","","","","","","","","","","","","","","","","",""
"","","","","","html-slider-response","151","1413402","0.0-21.0-0.13","d8d4dec0-5008-4f83-8f65-fe5e80244341","1000","
                  <p style=""text-align: center;"">₪11
                                                <br>20%</p>
                  <p id=""wtp"" style=""text-align:center; margin-top: 0px; margin-bottom: 0px; font-size: 40px"";>&ensp;</p>","-","viewing","0","4","12C,17C,23C,28C","","","","","","","","","","","","","","","","","","","",""
"","","","","","html-slider-response","152","1415489","0.0-21.0-1.13","d8d4dec0-5008-4f83-8f65-fe5e80244341","2085","
                  <p style=""text-align: center;"">₪11
                                                <br>20%</p>
                  <p id=""wtp"" style=""text-align:center; margin-top: 0px; margin-bottom: 0px; font-size: 40px"";>מוכנים לשלם: <span id=""c_p_y""></span></p>","2","evaluation","52","4","12C,17C,23C,28C","20","11","2","","","","","","","","","","","","","","","","",""
"","","","","","html-keyboard-response","153","1416895","0.0-21.0-2.13","d8d4dec0-5008-4f83-8f65-fe5e80244341","null","<p style=""text-align: center;"">+</p>","null","fixation","","","","","","","","","","","","","","","","","","","","","","",""
"","","","","","html-slider-response","154","1417906","0.0-21.0-0.14","d8d4dec0-5008-4f83-8f65-fe5e80244341","1000","
                  <p style=""text-align: center;"">₪64
                                                <br>25%</p>
                  <p id=""wtp"" style=""text-align:center; margin-top: 0px; margin-bottom: 0px; font-size: 40px"";>&ensp;</p>","-","viewing","0","24","6A,21A","","","","","","","","","","","","","","","","","","","",""
"","","","","","html-slider-response","155","1420265","0.0-21.0-1.14","d8d4dec0-5008-4f83-8f65-fe5e80244341","2359","
                  <p style=""text-align: center;"">₪64
                                                <br>25%</p>
                  <p id=""wtp"" style=""text-align:center; margin-top: 0px; margin-bottom: 0px; font-size: 40px"";>מוכנים לשלם: <span id=""c_p_y""></span></p>","10","evaluation","7","24","6A,21A","25","64","10","","","","","","","","","","","","","","","","",""
"","","","","","html-keyboard-response","156","1421104","0.0-21.0-2.14","d8d4dec0-5008-4f83-8f65-fe5e80244341","null","<p style=""text-align: center;"">+</p>","null","fixation","","","","","","","","","","","","","","","","","","","","","","",""
"","","","","","html-slider-response","157","1422108","0.0-21.0-0.15","d8d4dec0-5008-4f83-8f65-fe5e80244341","1000","
                  <p style=""text-align: center;"">₪71
                                                <br>55%</p>
                  <p id=""wtp"" style=""text-align:center; margin-top: 0px; margin-bottom: 0px; font-size: 40px"";>&ensp;</p>","-","viewing","0","27","5B,18A","","","","","","","","","","","","","","","","","","","",""
"","","","","","html-slider-response","158","1424081","0.0-21.0-1.15","d8d4dec0-5008-4f83-8f65-fe5e80244341","1972","
                  <p style=""text-align: center;"">₪71
                                                <br>55%</p>
                  <p id=""wtp"" style=""text-align:center; margin-top: 0px; margin-bottom: 0px; font-size: 40px"";>מוכנים לשלם: <span id=""c_p_y""></span></p>","20","evaluation","75","27","5B,18A","55","71","20","","","","","","","","","","","","","","","","",""
"","","","","","html-keyboard-response","159","1425440","0.0-21.0-2.15","d8d4dec0-5008-4f83-8f65-fe5e80244341","null","<p style=""text-align: center;"">+</p>","null","fixation","","","","","","","","","","","","","","","","","","","","","","",""
"","","","","","html-slider-response","160","1426448","0.0-21.0-0.16","d8d4dec0-5008-4f83-8f65-fe5e80244341","1000","
                  <p style=""text-align: center;"">₪36
                                                <br>75%</p>
                  <p id=""wtp"" style=""text-align:center; margin-top: 0px; margin-bottom: 0px; font-size: 40px"";>&ensp;</p>","-","viewing","0","14","4B,5A,13B,16B","","","","","","","","","","","","","","","","","","","",""
"","","","","","html-slider-response","161","1427898","0.0-21.0-1.16","d8d4dec0-5008-4f83-8f65-fe5e80244341","1448","
                  <p style=""text-align: center;"">₪36
                                                <br>75%</p>
                  <p id=""wtp"" style=""text-align:center; margin-top: 0px; margin-bottom: 0px; font-size: 40px"";>מוכנים לשלם: <span id=""c_p_y""></span></p>","22","evaluation","17","14","4B,5A,13B,16B","75","36","22","","","","","","","","","","","","","","","","",""
"","","","","","html-keyboard-response","162","1429338","0.0-21.0-2.16","d8d4dec0-5008-4f83-8f65-fe5e80244341","null","<p style=""text-align: center;"">+</p>","null","fixation","","","","","","","","","","","","","","","","","","","","","","",""
"","","","","","html-slider-response","163","1430351","0.0-21.0-0.17","d8d4dec0-5008-4f83-8f65-fe5e80244341","1000","
                  <p style=""text-align: center;"">₪79
                                                <br>65%</p>
                  <p id=""wtp"" style=""text-align:center; margin-top: 0px; margin-bottom: 0px; font-size: 40px"";>&ensp;</p>","-","viewing","0","31","8A","","","","","","","","","","","","","","","","","","","",""
"","","","","","html-slider-response","164","1431986","0.0-21.0-1.17","d8d4dec0-5008-4f83-8f65-fe5e80244341","1635","
                  <p style=""text-align: center;"">₪79
                                                <br>65%</p>
                  <p id=""wtp"" style=""text-align:center; margin-top: 0px; margin-bottom: 0px; font-size: 40px"";>מוכנים לשלם: <span id=""c_p_y""></span></p>","20","evaluation","21","31","8A","65","79","20","","","","","","","","","","","","","","","","",""
"","","","","","html-keyboard-response","165","1432551","0.0-21.0-2.17","d8d4dec0-5008-4f83-8f65-fe5e80244341","null","<p style=""text-align: center;"">+</p>","null","fixation","","","","","","","","","","","","","","","","","","","","","","",""
"","","","","","html-slider-response","166","1433556","0.0-21.0-0.18","d8d4dec0-5008-4f83-8f65-fe5e80244341","1000","
                  <p style=""text-align: center;"">₪18
                                                <br>25%</p>
                  <p id=""wtp"" style=""text-align:center; margin-top: 0px; margin-bottom: 0px; font-size: 40px"";>&ensp;</p>","-","viewing","0","9","14A,23A","","","","","","","","","","","","","","","","","","","",""
"","","","","","html-slider-response","167","1436530","0.0-21.0-1.18","d8d4dec0-5008-4f83-8f65-fe5e80244341","2972","
                  <p style=""text-align: center;"">₪18
                                                <br>25%</p>
                  <p id=""wtp"" style=""text-align:center; margin-top: 0px; margin-bottom: 0px; font-size: 40px"";>מוכנים לשלם: <span id=""c_p_y""></span></p>","4","evaluation","18","9","14A,23A","25","18","4","","","","","","","","","","","","","","","","",""
"","","","","","html-keyboard-response","168","1437339","0.0-21.0-2.18","d8d4dec0-5008-4f83-8f65-fe5e80244341","null","<p style=""text-align: center;"">+</p>","null","fixation","","","","","","","","","","","","","","","","","","","","","","",""
"","","","","","html-slider-response","169","1438344","0.0-21.0-0.19","d8d4dec0-5008-4f83-8f65-fe5e80244341","1000","
                  <p style=""text-align: center;"">₪43
                                                <br>75%</p>
                  <p id=""wtp"" style=""text-align:center; margin-top: 0px; margin-bottom: 0px; font-size: 40px"";>&ensp;</p>","-","viewing","0","18","11B,19B,24A,26A","","","","","","","","","","","","","","","","","","","",""
"","","","","","html-slider-response","170","1440697","0.0-21.0-1.19","d8d4dec0-5008-4f83-8f65-fe5e80244341","2352","
                  <p style=""text-align: center;"">₪43
                                                <br>75%</p>
                  <p id=""wtp"" style=""text-align:center; margin-top: 0px; margin-bottom: 0px; font-size: 40px"";>מוכנים לשלם: <span id=""c_p_y""></span></p>","15","evaluation","33","18","11B,19B,24A,26A","75","43","15","","","","","","","","","","","","","","","","",""
"","","","","","html-keyboard-response","171","1441353","0.0-21.0-2.19","d8d4dec0-5008-4f83-8f65-fe5e80244341","null","<p style=""text-align: center;"">+</p>","null","fixation","","","","","","","","","","","","","","","","","","","","","","",""
"","","","","","html-slider-response","172","1442363","0.0-21.0-0.20","d8d4dec0-5008-4f83-8f65-fe5e80244341","1000","
                  <p style=""text-align: center;"">₪4
                                                <br>50%</p>
                  <p id=""wtp"" style=""text-align:center; margin-top: 0px; margin-bottom: 0px; font-size: 40px"";>&ensp;</p>","-","viewing","0","2","4C,17B","","","","","","","","","","","","","","","","","","","",""
"","","","","","html-slider-response","173","1444946","0.0-21.0-1.20","d8d4dec0-5008-4f83-8f65-fe5e80244341","2582","
                  <p style=""text-align: center;"">₪4
                                                <br>50%</p>
                  <p id=""wtp"" style=""text-align:center; margin-top: 0px; margin-bottom: 0px; font-size: 40px"";>מוכנים לשלם: <span id=""c_p_y""></span></p>","1","evaluation","59","2","4C,17B","50","4","2","","","","","","","","","","","","","","","","",""
"","","","","","html-keyboard-response","174","1445796","0.0-21.0-2.20","d8d4dec0-5008-4f83-8f65-fe5e80244341","null","<p style=""text-align: center;"">+</p>","null","fixation","","","","","","","","","","","","","","","","","","","","","","",""
"","","","","","html-slider-response","175","1446802","0.0-21.0-0.21","d8d4dec0-5008-4f83-8f65-fe5e80244341","1000","
                  <p style=""text-align: center;"">₪36
                                                <br>60%</p>
                  <p id=""wtp"" style=""text-align:center; margin-top: 0px; margin-bottom: 0px; font-size: 40px"";>&ensp;</p>","-","viewing","0","12","1C,7C,15C","","","","","","","","","","","","","","","","","","","",""
"","","","","","html-slider-response","176","1449730","0.0-21.0-1.21","d8d4dec0-5008-4f83-8f65-fe5e80244341","2927","
                  <p style=""text-align: center;"">₪36
                                                <br>60%</p>
                  <p id=""wtp"" style=""text-align:center; margin-top: 0px; margin-bottom: 0px; font-size: 40px"";>מוכנים לשלם: <span id=""c_p_y""></span></p>","10","evaluation","65","12","1C,7C,15C","60","36","10","","","","","","","","","","","","","","","","",""
"","","","","","html-keyboard-response","177","1450926","0.0-21.0-2.21","d8d4dec0-5008-4f83-8f65-fe5e80244341","null","<p style=""text-align: center;"">+</p>","null","fixation","","","","","","","","","","","","","","","","","","","","","","",""
"","","","","","html-slider-response","178","1451940","0.0-21.0-0.22","d8d4dec0-5008-4f83-8f65-fe5e80244341","1000","
                  <p style=""text-align: center;"">₪11
                                                <br>25%</p>
                  <p id=""wtp"" style=""text-align:center; margin-top: 0px; margin-bottom: 0px; font-size: 40px"";>&ensp;</p>","-","viewing","0","5","12A,27B,28B,30B","","","","","","","","","","","","","","","","","","","",""
"","","","","","html-slider-response","179","1453641","0.0-21.0-1.22","d8d4dec0-5008-4f83-8f65-fe5e80244341","1700","
                  <p style=""text-align: center;"">₪11
                                                <br>25%</p>
                  <p id=""wtp"" style=""text-align:center; margin-top: 0px; margin-bottom: 0px; font-size: 40px"";>מוכנים לשלם: <span id=""c_p_y""></span></p>","2","evaluation","11","5","12A,27B,28B,30B","25","11","2","","","","","","","","","","","","","","","","",""
"","","","","","html-keyboard-response","180","1454236","0.0-21.0-2.22","d8d4dec0-5008-4f83-8f65-fe5e80244341","null","<p style=""text-align: center;"">+</p>","null","fixation","","","","","","","","","","","","","","","","","","","","","","",""
"","","","","","html-slider-response","181","1455242","0.0-21.0-0.23","d8d4dec0-5008-4f83-8f65-fe5e80244341","1000","
                  <p style=""text-align: center;"">₪71
                                                <br>75%</p>
                  <p id=""wtp"" style=""text-align:center; margin-top: 0px; margin-bottom: 0px; font-size: 40px"";>&ensp;</p>","-","viewing","0","28","8B","","","","","","","","","","","","","","","","","","","",""
"","","","","","html-slider-response","182","1457801","0.0-21.0-1.23","d8d4dec0-5008-4f83-8f65-fe5e80244341","2559","
                  <p style=""text-align: center;"">₪71
                                                <br>75%</p>
                  <p id=""wtp"" style=""text-align:center; margin-top: 0px; margin-bottom: 0px; font-size: 40px"";>מוכנים לשלם: <span id=""c_p_y""></span></p>","25","evaluation","68","28","8B","75","71","25","","","","","","","","","","","","","","","","",""
"","","","","","html-keyboard-response","183","1459251","0.0-21.0-2.23","d8d4dec0-5008-4f83-8f65-fe5e80244341","null","<p style=""text-align: center;"">+</p>","null","fixation","","","","","","","","","","","","","","","","","","","","","","",""
"","","","","","html-slider-response","184","1460264","0.0-21.0-0.24","d8d4dec0-5008-4f83-8f65-fe5e80244341","1000","
                  <p style=""text-align: center;"">₪36
                                                <br>70%</p>
                  <p id=""wtp"" style=""text-align:center; margin-top: 0px; margin-bottom: 0px; font-size: 40px"";>&ensp;</p>","-","viewing","0","13","3A,5C,10B","","","","","","","","","","","","","","","","","","","",""
"","","","","","html-slider-response","185","1462890","0.0-21.0-1.24","d8d4dec0-5008-4f83-8f65-fe5e80244341","2624","
                  <p style=""text-align: center;"">₪36
                                                <br>70%</p>
                  <p id=""wtp"" style=""text-align:center; margin-top: 0px; margin-bottom: 0px; font-size: 40px"";>מוכנים לשלם: <span id=""c_p_y""></span></p>","11","evaluation","66","13","3A,5C,10B","70","36","11","","","","","","","","","","","","","","","","",""
"","","","","","html-keyboard-response","186","1463887","0.0-21.0-2.24","d8d4dec0-5008-4f83-8f65-fe5e80244341","null","<p style=""text-align: center;"">+</p>","null","fixation","","","","","","","","","","","","","","","","","","","","","","",""
"","","","","","html-slider-response","187","1464903","0.0-21.0-0.25","d8d4dec0-5008-4f83-8f65-fe5e80244341","1000","
                  <p style=""text-align: center;"">₪58
                                                <br>30%</p>
                  <p id=""wtp"" style=""text-align:center; margin-top: 0px; margin-bottom: 0px; font-size: 40px"";>&ensp;</p>","-","viewing","0","19","13C,30A","","","","","","","","","","","","","","","","","","","",""
"","","","","","html-slider-response","188","1467658","0.0-21.0-1.25","d8d4dec0-5008-4f83-8f65-fe5e80244341","2753","
                  <p style=""text-align: center;"">₪58
                                                <br>30%</p>
                  <p id=""wtp"" style=""text-align:center; margin-top: 0px; margin-bottom: 0px; font-size: 40px"";>מוכנים לשלם: <span id=""c_p_y""></span></p>","11","evaluation","46","19","13C,30A","30","58","11","","","","","","","","","","","","","","","","",""
"","","","","","html-keyboard-response","189","1468627","0.0-21.0-2.25","d8d4dec0-5008-4f83-8f65-fe5e80244341","null","<p style=""text-align: center;"">+</p>","null","fixation","","","","","","","","","","","","","","","","","","","","","","",""
"","","","","","html-slider-response","190","1469641","0.0-21.0-0.26","d8d4dec0-5008-4f83-8f65-fe5e80244341","1000","
                  <p style=""text-align: center;"">₪76
                                                <br>65%</p>
                  <p id=""wtp"" style=""text-align:center; margin-top: 0px; margin-bottom: 0px; font-size: 40px"";>&ensp;</p>","-","viewing","0","29","8C,19A,24B","","","","","","","","","","","","","","","","","","","",""
"","","","","","html-slider-response","191","1472994","0.0-21.0-1.26","d8d4dec0-5008-4f83-8f65-fe5e80244341","3351","
                  <p style=""text-align: center;"">₪76
                                                <br>65%</p>
                  <p id=""wtp"" style=""text-align:center; margin-top: 0px; margin-bottom: 0px; font-size: 40px"";>מוכנים לשלם: <span id=""c_p_y""></span></p>","20","evaluation","71","29","8C,19A,24B","65","76","20","","","","","","","","","","","","","","","","",""
"","","","","","html-keyboard-response","192","1473684","0.0-21.0-2.26","d8d4dec0-5008-4f83-8f65-fe5e80244341","null","<p style=""text-align: center;"">+</p>","null","fixation","","","","","","","","","","","","","","","","","","","","","","",""
"","","","","","html-slider-response","193","1474696","0.0-21.0-0.27","d8d4dec0-5008-4f83-8f65-fe5e80244341","1000","
                  <p style=""text-align: center;"">₪36
                                                <br>30%</p>
                  <p id=""wtp"" style=""text-align:center; margin-top: 0px; margin-bottom: 0px; font-size: 40px"";>&ensp;</p>","-","viewing","0","11","3C,20A,22A","","","","","","","","","","","","","","","","","","","",""
"","","","","","html-slider-response","194","1476642","0.0-21.0-1.27","d8d4dec0-5008-4f83-8f65-fe5e80244341","1945","
                  <p style=""text-align: center;"">₪36
                                                <br>30%</p>
                  <p id=""wtp"" style=""text-align:center; margin-top: 0px; margin-bottom: 0px; font-size: 40px"";>מוכנים לשלם: <span id=""c_p_y""></span></p>","5","evaluation","8","11","3C,20A,22A","30","36","5","","","","","","","","","","","","","","","","",""
"","","","","","html-keyboard-response","195","1478009","0.0-21.0-2.27","d8d4dec0-5008-4f83-8f65-fe5e80244341","null","<p style=""text-align: center;"">+</p>","null","fixation","","","","","","","","","","","","","","","","","","","","","","",""
"","","","","","html-slider-response","196","1479018","0.0-21.0-0.28","d8d4dec0-5008-4f83-8f65-fe5e80244341","1000","
                  <p style=""text-align: center;"">₪58
                                                <br>40%</p>
                  <p id=""wtp"" style=""text-align:center; margin-top: 0px; margin-bottom: 0px; font-size: 40px"";>&ensp;</p>","-","viewing","0","20","10C,13A,19C,21B","","","","","","","","","","","","","","","","","","","",""
"","","","","","html-slider-response","197","1481194","0.0-21.0-1.28","d8d4dec0-5008-4f83-8f65-fe5e80244341","2175","
                  <p style=""text-align: center;"">₪58
                                                <br>40%</p>
                  <p id=""wtp"" style=""text-align:center; margin-top: 0px; margin-bottom: 0px; font-size: 40px"";>מוכנים לשלם: <span id=""c_p_y""></span></p>","15","evaluation","50","20","10C,13A,19C,21B","40","58","15","","","","","","","","","","","","","","","","",""
"","","","","","html-keyboard-response","198","1481923","0.0-21.0-2.28","d8d4dec0-5008-4f83-8f65-fe5e80244341","null","<p style=""text-align: center;"">+</p>","null","fixation","","","","","","","","","","","","","","","","","","","","","","",""
"","","","","","html-slider-response","199","1482938","0.0-21.0-0.29","d8d4dec0-5008-4f83-8f65-fe5e80244341","1000","
                  <p style=""text-align: center;"">₪71
                                                <br>45%</p>
                  <p id=""wtp"" style=""text-align:center; margin-top: 0px; margin-bottom: 0px; font-size: 40px"";>&ensp;</p>","-","viewing","0","26","2B,16A","","","","","","","","","","","","","","","","","","","",""
"","","","","","html-slider-response","200","1486940","0.0-21.0-1.29","d8d4dec0-5008-4f83-8f65-fe5e80244341","null","
                  <p style=""text-align: center;"">₪71
                                                <br>45%</p>
                  <p id=""wtp"" style=""text-align:center; margin-top: 0px; margin-bottom: 0px; font-size: 40px"";>מוכנים לשלם: <span id=""c_p_y""></span></p>","null","evaluation","2","26","2B,16A","45","71","15","","","","","","","","","","","","","","","","",""
"","","","","","html-keyboard-response","201","1488422","0.0-21.0-2.29","d8d4dec0-5008-4f83-8f65-fe5e80244341","null","<p style=""text-align: center;"">+</p>","null","fixation","","","","","","","","","","","","","","","","","","","","","","",""
"","","","","","html-slider-response","202","1489431","0.0-21.0-0.30","d8d4dec0-5008-4f83-8f65-fe5e80244341","1000","
                  <p style=""text-align: center;"">₪64
                                                <br>50%</p>
                  <p id=""wtp"" style=""text-align:center; margin-top: 0px; margin-bottom: 0px; font-size: 40px"";>&ensp;</p>","-","viewing","0","25","1B,3B,4A","","","","","","","","","","","","","","","","","","","",""
"","","","","","html-slider-response","203","1491498","0.0-21.0-1.30","d8d4dec0-5008-4f83-8f65-fe5e80244341","2066","
                  <p style=""text-align: center;"">₪64
                                                <br>50%</p>
                  <p id=""wtp"" style=""text-align:center; margin-top: 0px; margin-bottom: 0px; font-size: 40px"";>מוכנים לשלם: <span id=""c_p_y""></span></p>","20","evaluation","69","25","1B,3B,4A","50","64","20","","","","","","","","","","","","","","","","",""
"","","","","","html-keyboard-response","204","1492374","0.0-21.0-2.30","d8d4dec0-5008-4f83-8f65-fe5e80244341","null","<p style=""text-align: center;"">+</p>","null","fixation","","","","","","","","","","","","","","","","","","","","","","",""
"","","","","","html-keyboard-response","205","1493381","0.0-22.0","d8d4dec0-5008-4f83-8f65-fe5e80244341","null","<p style=""text-align: center;"">+</p>","null","fixation","","","","","","","","","","","","","","","","","","","","","","",""
"","","","","","html-keyboard-response","206","1494802","0.0-23.0","d8d4dec0-5008-4f83-8f65-fe5e80244341","null","<p>הפסקה.
          <br>לחצו כדי להמשיך.</p>","1","scan_wait","","","","","","","","","","","","","","","","","","","","","","",""
"","","","","","html-keyboard-response","207","1495817","0.0-24.0","d8d4dec0-5008-4f83-8f65-fe5e80244341","null","<p style=""text-align: center;"">+</p>","null","fixation","","","","","","","","","","","","","","","","","","","","","","",""
"","","","","","html-slider-response","208","1496835","0.0-25.0-0.0","d8d4dec0-5008-4f83-8f65-fe5e80244341","1000","
                  <p style=""text-align: center;"">₪36
                                                <br>60%</p>
                  <p id=""wtp"" style=""text-align:center; margin-top: 0px; margin-bottom: 0px; font-size: 40px"";>&ensp;</p>","-","viewing","0","12","1C,7C,15C","","","","","","","","","","","","","","","","","","","",""
"","","","","","html-slider-response","209","1498754","0.0-25.0-1.0","d8d4dec0-5008-4f83-8f65-fe5e80244341","1919","
                  <p style=""text-align: center;"">₪36
                                                <br>60%</p>
                  <p id=""wtp"" style=""text-align:center; margin-top: 0px; margin-bottom: 0px; font-size: 40px"";>מוכנים לשלם: <span id=""c_p_y""></span></p>","10","evaluation","64","12","1C,7C,15C","60","36","10","","","","","","","","","","","","","","","","",""
"","","","","","html-keyboard-response","210","1499646","0.0-25.0-2.0","d8d4dec0-5008-4f83-8f65-fe5e80244341","null","<p style=""text-align: center;"">+</p>","null","fixation","","","","","","","","","","","","","","","","","","","","","","",""
"","","","","","html-slider-response","211","1500655","0.0-25.0-0.1","d8d4dec0-5008-4f83-8f65-fe5e80244341","1000","
                  <p style=""text-align: center;"">₪39
                                                <br>60%</p>
                  <p id=""wtp"" style=""text-align:center; margin-top: 0px; margin-bottom: 0px; font-size: 40px"";>&ensp;</p>","-","viewing","0","15","9C,25B","","","","","","","","","","","","","","","","","","","",""
"","","","","","html-slider-response","212","1502274","0.0-25.0-1.1","d8d4dec0-5008-4f83-8f65-fe5e80244341","1618","
                  <p style=""text-align: center;"">₪39
                                                <br>60%</p>
                  <p id=""wtp"" style=""text-align:center; margin-top: 0px; margin-bottom: 0px; font-size: 40px"";>מוכנים לשלם: <span id=""c_p_y""></span></p>","9","evaluation","53","15","9C,25B","60","39","10","","","","","","","","","","","","","","","","",""
"","","","","","html-keyboard-response","213","1503150","0.0-25.0-2.1","d8d4dec0-5008-4f83-8f65-fe5e80244341","null","<p style=""text-align: center;"">+</p>","null","fixation","","","","","","","","","","","","","","","","","","","","","","",""
"","","","","","html-slider-response","214","1504157","0.0-25.0-0.2","d8d4dec0-5008-4f83-8f65-fe5e80244341","1000","
                  <p style=""text-align: center;"">₪61
                                                <br>45%</p>
                  <p id=""wtp"" style=""text-align:center; margin-top: 0px; margin-bottom: 0px; font-size: 40px"";>&ensp;</p>","-","viewing","0","22","10A,11A","","","","","","","","","","","","","","","","","","","",""
"","","","","","html-slider-response","215","1506354","0.0-25.0-1.2","d8d4dec0-5008-4f83-8f65-fe5e80244341","2195","
                  <p style=""text-align: center;"">₪61
                                                <br>45%</p>
                  <p id=""wtp"" style=""text-align:center; margin-top: 0px; margin-bottom: 0px; font-size: 40px"";>מוכנים לשלם: <span id=""c_p_y""></span></p>","15","evaluation","39","22","10A,11A","45","61","15","","","","","","","","","","","","","","","","",""
"","","","","","html-keyboard-response","216","1507237","0.0-25.0-2.2","d8d4dec0-5008-4f83-8f65-fe5e80244341","null","<p style=""text-align: center;"">+</p>","null","fixation","","","","","","","","","","","","","","","","","","","","","","",""
"","","","","","html-slider-response","217","1508244","0.0-25.0-0.3","d8d4dec0-5008-4f83-8f65-fe5e80244341","1000","
                  <p style=""text-align: center;"">₪58
                                                <br>30%</p>
                  <p id=""wtp"" style=""text-align:center; margin-top: 0px; margin-bottom: 0px; font-size: 40px"";>&ensp;</p>","-","viewing","0","19","13C,30A","","","","","","","","","","","","","","","","","","","",""
"","","","","","html-slider-response","218","1510146","0.0-25.0-1.3","d8d4dec0-5008-4f83-8f65-fe5e80244341","1901","
                  <p style=""text-align: center;"">₪58
                                                <br>30%</p>
                  <p id=""wtp"" style=""text-align:center; margin-top: 0px; margin-bottom: 0px; font-size: 40px"";>מוכנים לשלם: <span id=""c_p_y""></span></p>","6","evaluation","18","19","13C,30A","30","58","7","","","","","","","","","","","","","","","","",""
"","","","","","html-keyboard-response","219","1510792","0.0-25.0-2.3","d8d4dec0-5008-4f83-8f65-fe5e80244341","null","<p style=""text-align: center;"">+</p>","null","fixation","","","","","","","","","","","","","","","","","","","","","","",""
"","","","","","html-slider-response","220","1511802","0.0-25.0-0.4","d8d4dec0-5008-4f83-8f65-fe5e80244341","1000","
                  <p style=""text-align: center;"">₪39
                                                <br>65%</p>
                  <p id=""wtp"" style=""text-align:center; margin-top: 0px; margin-bottom: 0px; font-size: 40px"";>&ensp;</p>","-","viewing","0","16","1A,15A,26C","","","","","","","","","","","","","","","","","","","",""
"","","","","","html-slider-response","221","1513194","0.0-25.0-1.4","d8d4dec0-5008-4f83-8f65-fe5e80244341","1391","
                  <p style=""text-align: center;"">₪39
                                                <br>65%</p>
                  <p id=""wtp"" style=""text-align:center; margin-top: 0px; margin-bottom: 0px; font-size: 40px"";>מוכנים לשלם: <span id=""c_p_y""></span></p>","5","evaluation","54","16","1A,15A,26C","65","39","5","","","","","","","","","","","","","","","","",""
"","","","","","html-keyboard-response","222","1514343","0.0-25.0-2.4","d8d4dec0-5008-4f83-8f65-fe5e80244341","null","<p style=""text-align: center;"">+</p>","null","fixation","","","","","","","","","","","","","","","","","","","","","","",""
"","","","","","html-slider-response","223","1515353","0.0-25.0-0.5","d8d4dec0-5008-4f83-8f65-fe5e80244341","1000","
                  <p style=""text-align: center;"">₪36
                                                <br>70%</p>
                  <p id=""wtp"" style=""text-align:center; margin-top: 0px; margin-bottom: 0px; font-size: 40px"";>&ensp;</p>","-","viewing","0","13","3A,5C,10B","","","","","","","","","","","","","","","","","","","",""
"","","","","","html-slider-response","224","1517154","0.0-25.0-1.5","d8d4dec0-5008-4f83-8f65-fe5e80244341","1800","
                  <p style=""text-align: center;"">₪36
                                                <br>70%</p>
                  <p id=""wtp"" style=""text-align:center; margin-top: 0px; margin-bottom: 0px; font-size: 40px"";>מוכנים לשלם: <span id=""c_p_y""></span></p>","12","evaluation","49","13","3A,5C,10B","70","36","12","","","","","","","","","","","","","","","","",""
"","","","","","html-keyboard-response","225","1518173","0.0-25.0-2.5","d8d4dec0-5008-4f83-8f65-fe5e80244341","null","<p style=""text-align: center;"">+</p>","null","fixation","","","","","","","","","","","","","","","","","","","","","","",""
"","","","","","html-slider-response","226","1519175","0.0-25.0-0.6","d8d4dec0-5008-4f83-8f65-fe5e80244341","1000","
                  <p style=""text-align: center;"">₪61
                                                <br>55%</p>
                  <p id=""wtp"" style=""text-align:center; margin-top: 0px; margin-bottom: 0px; font-size: 40px"";>&ensp;</p>","-","viewing","0","23","7B,26B","","","","","","","","","","","","","","","","","","","",""
"","","","","","html-slider-response","227","1521546","0.0-25.0-1.6","d8d4dec0-5008-4f83-8f65-fe5e80244341","2369","
                  <p style=""text-align: center;"">₪61
                                                <br>55%</p>
                  <p id=""wtp"" style=""text-align:center; margin-top: 0px; margin-bottom: 0px; font-size: 40px"";>מוכנים לשלם: <span id=""c_p_y""></span></p>","20","evaluation","43","23","7B,26B","55","61","20","","","","","","","","","","","","","","","","",""
"","","","","","html-keyboard-response","228","1522952","0.0-25.0-2.6","d8d4dec0-5008-4f83-8f65-fe5e80244341","null","<p style=""text-align: center;"">+</p>","null","fixation","","","","","","","","","","","","","","","","","","","","","","",""
"","","","","","html-slider-response","229","1523962","0.0-25.0-0.7","d8d4dec0-5008-4f83-8f65-fe5e80244341","1000","
                  <p style=""text-align: center;"">₪71
                                                <br>45%</p>
                  <p id=""wtp"" style=""text-align:center; margin-top: 0px; margin-bottom: 0px; font-size: 40px"";>&ensp;</p>","-","viewing","0","26","2B,16A","","","","","","","","","","","","","","","","","","","",""
"","","","","","html-slider-response","230","1525658","0.0-25.0-1.7","d8d4dec0-5008-4f83-8f65-fe5e80244341","1694","
                  <p style=""text-align: center;"">₪71
                                                <br>45%</p>
                  <p id=""wtp"" style=""text-align:center; margin-top: 0px; margin-bottom: 0px; font-size: 40px"";>מוכנים לשלם: <span id=""c_p_y""></span></p>","15","evaluation","23","26","2B,16A","45","71","15","","","","","","","","","","","","","","","","",""
"","","","","","html-keyboard-response","231","1526743","0.0-25.0-2.7","d8d4dec0-5008-4f83-8f65-fe5e80244341","null","<p style=""text-align: center;"">+</p>","null","fixation","","","","","","","","","","","","","","","","","","","","","","",""
"","","","","","html-slider-response","232","1527750","0.0-25.0-0.8","d8d4dec0-5008-4f83-8f65-fe5e80244341","1000","
                  <p style=""text-align: center;"">₪58
                                                <br>45%</p>
                  <p id=""wtp"" style=""text-align:center; margin-top: 0px; margin-bottom: 0px; font-size: 40px"";>&ensp;</p>","-","viewing","0","21","11C,18C,25A","","","","","","","","","","","","","","","","","","","",""
"","","","","","html-slider-response","233","1529738","0.0-25.0-1.8","d8d4dec0-5008-4f83-8f65-fe5e80244341","1987","
                  <p style=""text-align: center;"">₪58
                                                <br>45%</p>
                  <p id=""wtp"" style=""text-align:center; margin-top: 0px; margin-bottom: 0px; font-size: 40px"";>מוכנים לשלם: <span id=""c_p_y""></span></p>","6","evaluation","22","21","11C,18C,25A","45","58","7","","","","","","","","","","","","","","","","",""
"","","","","","html-keyboard-response","234","1530268","0.0-25.0-2.8","d8d4dec0-5008-4f83-8f65-fe5e80244341","null","<p style=""text-align: center;"">+</p>","null","fixation","","","","","","","","","","","","","","","","","","","","","","",""
"","","","","","html-slider-response","235","1531281","0.0-25.0-0.9","d8d4dec0-5008-4f83-8f65-fe5e80244341","1000","
                  <p style=""text-align: center;"">₪43
                                                <br>75%</p>
                  <p id=""wtp"" style=""text-align:center; margin-top: 0px; margin-bottom: 0px; font-size: 40px"";>&ensp;</p>","-","viewing","0","18","11B,19B,24A,26A","","","","","","","","","","","","","","","","","","","",""
"","","","","","html-slider-response","236","1532970","0.0-25.0-1.9","d8d4dec0-5008-4f83-8f65-fe5e80244341","1687","
                  <p style=""text-align: center;"">₪43
                                                <br>75%</p>
                  <p id=""wtp"" style=""text-align:center; margin-top: 0px; margin-bottom: 0px; font-size: 40px"";>מוכנים לשלם: <span id=""c_p_y""></span></p>","21","evaluation","11","18","11B,19B,24A,26A","75","43","21","","","","","","","","","","","","","","","","",""
"","","","","","html-keyboard-response","237","1533786","0.0-25.0-2.9","d8d4dec0-5008-4f83-8f65-fe5e80244341","null","<p style=""text-align: center;"">+</p>","null","fixation","","","","","","","","","","","","","","","","","","","","","","",""
"","","","","","html-slider-response","238","1534790","0.0-25.0-0.10","d8d4dec0-5008-4f83-8f65-fe5e80244341","1000","
                  <p style=""text-align: center;"">₪4
                                                <br>75%</p>
                  <p id=""wtp"" style=""text-align:center; margin-top: 0px; margin-bottom: 0px; font-size: 40px"";>&ensp;</p>","-","viewing","0","3","12B,20B,23B,27C,29C","","","","","","","","","","","","","","","","","","","",""
"","","","","","html-slider-response","239","1536570","0.0-25.0-1.10","d8d4dec0-5008-4f83-8f65-fe5e80244341","1778","
                  <p style=""text-align: center;"">₪4
                                                <br>75%</p>
                  <p id=""wtp"" style=""text-align:center; margin-top: 0px; margin-bottom: 0px; font-size: 40px"";>מוכנים לשלם: <span id=""c_p_y""></span></p>","2","evaluation","75","3","12B,20B,23B,27C,29C","75","4","2","","","","","","","","","","","","","","","","",""
"","","","","","html-keyboard-response","240","1537310","0.0-25.0-2.10","d8d4dec0-5008-4f83-8f65-fe5e80244341","null","<p style=""text-align: center;"">+</p>","null","fixation","","","","","","","","","","","","","","","","","","","","","","",""
"","","","","","html-slider-response","241","1538326","0.0-25.0-0.11","d8d4dec0-5008-4f83-8f65-fe5e80244341","1000","
                  <p style=""text-align: center;"">₪11
                                                <br>75%</p>
                  <p id=""wtp"" style=""text-align:center; margin-top: 0px; margin-bottom: 0px; font-size: 40px"";>&ensp;</p>","-","viewing","0","7","6B,18B,22C,24C,29A","","","","","","","","","","","","","","","","","","","",""
"","","","","","html-slider-response","242","1539946","0.0-25.0-1.11","d8d4dec0-5008-4f83-8f65-fe5e80244341","1619","
                  <p style=""text-align: center;"">₪11
                                                <br>75%</p>
                  <p id=""wtp"" style=""text-align:center; margin-top: 0px; margin-bottom: 0px; font-size: 40px"";>מוכנים לשלם: <span id=""c_p_y""></span></p>","1","evaluation","67","7","6B,18B,22C,24C,29A","75","11","1","","","","","","","","","","","","","","","","",""
"","","","","","html-keyboard-response","243","1540619","0.0-25.0-2.11","d8d4dec0-5008-4f83-8f65-fe5e80244341","null","<p style=""text-align: center;"">+</p>","null","fixation","","","","","","","","","","","","","","","","","","","","","","",""
"","","","","","html-slider-response","244","1541629","0.0-25.0-0.12","d8d4dec0-5008-4f83-8f65-fe5e80244341","1000","
                  <p style=""text-align: center;"">₪64
                                                <br>25%</p>
                  <p id=""wtp"" style=""text-align:center; margin-top: 0px; margin-bottom: 0px; font-size: 40px"";>&ensp;</p>","-","viewing","0","24","6A,21A","","","","","","","","","","","","","","","","","","","",""
"","","","","","html-slider-response","245","1545632","0.0-25.0-1.12","d8d4dec0-5008-4f83-8f65-fe5e80244341","null","
                  <p style=""text-align: center;"">₪64
                                                <br>25%</p>
                  <p id=""wtp"" style=""text-align:center; margin-top: 0px; margin-bottom: 0px; font-size: 40px"";>מוכנים לשלם: <span id=""c_p_y""></span></p>","null","evaluation","56","24","6A,21A","25","64","10","","","","","","","","","","","","","","","","",""
"","","","","","html-keyboard-response","246","1547009","0.0-25.0-2.12","d8d4dec0-5008-4f83-8f65-fe5e80244341","null","<p style=""text-align: center;"">+</p>","null","fixation","","","","","","","","","","","","","","","","","","","","","","",""
"","","","","","html-slider-response","247","1548013","0.0-25.0-0.13","d8d4dec0-5008-4f83-8f65-fe5e80244341","1000","
                  <p style=""text-align: center;"">₪79
                                                <br>40%</p>
                  <p id=""wtp"" style=""text-align:center; margin-top: 0px; margin-bottom: 0px; font-size: 40px"";>&ensp;</p>","-","viewing","0","30","9B","","","","","","","","","","","","","","","","","","","",""
"","","","","","html-slider-response","248","1549826","0.0-25.0-1.13","d8d4dec0-5008-4f83-8f65-fe5e80244341","1812","
                  <p style=""text-align: center;"">₪79
                                                <br>40%</p>
                  <p id=""wtp"" style=""text-align:center; margin-top: 0px; margin-bottom: 0px; font-size: 40px"";>מוכנים לשלם: <span id=""c_p_y""></span></p>","15","evaluation","43","30","9B","40","79","15","","","","","","","","","","","","","","","","",""
