"success","timeout","failed_images","failed_audio","failed_video","trial_type","trial_index","time_elapsed","internal_node_id","subject_id","rt","stimulus","response","part","slider_start","ID","set_ID","prob","amount","last_location","actual_choice","actual_EV","binary_id","trinary_id","catch","direction","A_key","S_key","D_key","choice_prob","choice_amount","won_prize","potential_prize_amount","potential_prize_prob","total_prize","accuracy"
"true","false","[]","[]","[]","preload","0","9","0.0-0.0","8076971d-2494-452c-8104-9b6adec121a1","","","","","","","","","","","","","","","","","","","","","","","","","",""
"","","","","","html-keyboard-response","1","38429","0.0-1.0","8076971d-2494-452c-8104-9b6adec121a1","null","
          <h1>שלום וברוכים הבאים!</h1>
          <p>לפניכם ניסוי בקבלת החלטות עם שני חלקים.
          <br><br>לחצו על העכבר כדי להמשיך.</p>","0","example","","","","","","","","","","","","","","","","","","","","","",""
"","","","","","html-keyboard-response","2","44212","0.0-2.0","8076971d-2494-452c-8104-9b6adec121a1","null","
        <h1>חלק 1</h1>
        <p>בקרוב יוצגו בפניכם הגרלות.
        <br>עליכם לבחור את המחיר המירבי שתהיו מוכנים לשלם כדי להשתתף בהגרלה שתוצג.
        <br>יש לכם תקציב של ₪80 לכל הגרלה. 
        <br>נסו להעריך כל הגרלה בנפרד ולחשוב כמה היא שווה עבורכם, ₪80 זמינים לכל הגרלה בנפרד.
        <br><br>לחצו על העכבר כדי להמשיך.</p>","1","instructions","","","","","","","","","","","","","","","","","","","","","",""
"","","","","","html-keyboard-response","3","45892","0.0-3.0","8076971d-2494-452c-8104-9b6adec121a1","null","
        <p>בסוף הניסוי, המחשב יבחר את אחת ההגרלות ויקבע מחיר לכרטיס עבורה. 
        <br>במידה והמחיר שבחרתם נמוך מהמחיר שנבחר על ידי המחשב, לא תשתתפו בהגרלה ותשארו עם מלוא התקציב.
        <br>במידה והמחיר שבחרתם גבוה מהמחיר שנבחר על ידי המחשב, תשלמו את המחיר שנקבע ותשתתפו בהגרלה.
        <br><br>לחצו על העכבר כדי להמשיך.</p>","1","instructions","","","","","","","","","","","","","","","","","","","","","",""
"","","","","","html-slider-response","4","83876","0.0-4.0","8076971d-2494-452c-8104-9b6adec121a1","37867","
        <p style=""font-size: 42px;"">נתחיל עם דוגמא: 
        <br>ההגרלה מטה מציעה 65% סיכוי לזכות ב-₪40 
        <br>&emsp;&emsp;&emsp;&emsp;&emsp;&emsp;&emsp;&emsp;&ensp;35% סיכוי לזכות ב-₪0.
        <br><br>מה המחיר המירבי שתהיו מוכנים לשלם על כרטיס להגרלה זו בין 0 ל-₪80?
        <br>הזיזו את העכבר על פני המלבן ולחצו כדי לבצע בחירה.</p>
        
        <p style=""text-align: center;"">₪40<br>65%</p>

        <p id=""wtp"" style=""text-align:center; margin-top: 0px; margin-bottom: 0px; font-size: 40px"";>מוכנים לשלם: <span id=""c_p_y""></span></p>","20","example","1","","","","","","","","","","","","","","","","","","","","",""
"","","","","","html-keyboard-response","5","92948","0.0-5.0","8076971d-2494-452c-8104-9b6adec121a1","null","<p>יפה מאוד!
                <br> בחרתם שתהיו מוכנים לשלם ₪20 כדי להשתתף בהגרלה:
                <br><p style=""text-align: center;"">₪40<br>65%</p>
                <p>נשמע נכון?
                <br>נניח שהגרלה זו נבחרה בסוף הניסוי.
                <br>כעת המחשב יקבע מחיר עבורה באקראי.
                <br>לחצו על העכבר להמשך.</p>","1","example","","","","","","","","","","","","","","","","","","","","","",""
"","","","","","html-keyboard-response","6","114628","0.0-6.0","8076971d-2494-452c-8104-9b6adec121a1","null","<p>המחשב קבע מחיר: ₪41
                <br>ואתם בחרתם לשלם לכל היותר: ₪20
                <br><br>מכיוון שהמחיר שבחרתם נמוך מהמחיר שנקבע, לא תתשתתפו בהגרלה.
                <br>במקרה כזה, בסוף הניסוי תקבלו את כל התקציב ההתחלתי של ₪80.
                <br><br>לחצו על העכבר להמשך.</p>","1","example","","","","","","","","","","","","","","","","","","","","","",""
"","","","","","html-slider-response","7","121829","0.0-7.0","8076971d-2494-452c-8104-9b6adec121a1","6934","<p style=""font-size: 42px;"">הנה עוד דוגמא:
                <br>ההגרלה מטה מציעה 35% סיכוי לזכות ב-₪18 
                <br>&emsp;&emsp;&emsp;&emsp;&emsp;&emsp;&emsp;&emsp;&ensp;65% סיכוי לזכות ב-₪0.</p>
        
                <p style=""text-align: center;"">₪18<br>35%</p>
                <p id=""wtp"" style=""text-align:center; margin-top: 0px; margin-bottom: 0px; font-size: 40px"";>מוכנים לשלם: <span id=""c_p_y""></span></p>","0","example","46","","","","","","","","","","","","","","","","","","","","",""
"","","","","","html-keyboard-response","8","132341","0.0-8.0","8076971d-2494-452c-8104-9b6adec121a1","null","<p>הייתם מוכנים לשלם  ₪0 כדי להשתתף בהגרלה:
                <p style=""text-align: center;"">₪18<br>35%</p>
                <p>כעת נניח שהמחשב בחר את ההגרלה הזו בסוף הניסוי, וקבע עבורה מחיר.
                <br><br>לחצו על העכבר כדי להמשיך.</p>","1","instructions","","","","","","","","","","","","","","","","","","","","","",""
"","","","","","html-keyboard-response","9","145845","0.0-9.0","8076971d-2494-452c-8104-9b6adec121a1","null","<p>המחשב קבע מחיר להגרלה: ₪0
                <br>ואתם בחרתם לשלם לכל היותר: ₪0
                <br><br>כעת המחיר שנקבע זהה לזה שבחרתם, אז תשלמו את המחיר שקבע המחשב (₪0) ותשתתפו בהגרלה.
                <br>במקרה כזה, תסיימו את הניסוי עם תקציב של ₪80 ועם סיכוי לזכות ב-₪18 נוספים מההגרלה.
                <br>כלומר, תוכלו לקבל ₪80 אם לא תזכו בהגרלה, או ₪98 אם תזכו בהגרלה.
                <br><br>לחצו על העכבר להמשך.</p>","1","example","","","","","","","","","","","","","","","","","","","","","",""
"","","","","","html-keyboard-response","10","154957","0.0-10.0","8076971d-2494-452c-8104-9b6adec121a1","null","<p>במהלך הניסוי, קודם תראו את ההגרלה ורק לאחר מכן תוכלו לבחור.
                <p>כמו כן, יהיו לכם מספר שניות מוגבל להגיב.
                <p>בואו ננסה זאת עם ההגרלה הקודמת.
                <br>לחצו על העכבר כדי להמשיך.</p>","1","instructions","","","","","","","","","","","","","","","","","","","","","",""
"","","","","","html-slider-response","11","156239","0.0-11.0","8076971d-2494-452c-8104-9b6adec121a1","1000","
                    <p style=""text-align: center;"">₪18<br>35%</p>
                    <p id=""wtp"" style=""text-align:center; margin-top: 0px; margin-bottom: 0px; font-size: 40px"";>&ensp;</p>","52","instructions","0","","","","","","","","","","","","","","","","","","","","",""
"","","","","","html-slider-response","12","160503","0.0-12.0","8076971d-2494-452c-8104-9b6adec121a1","null","
                    <p style=""text-align: center;"">₪18<br>35%</p>
                    <p id=""wtp"" style=""text-align:center; margin-top: 0px; margin-bottom: 0px; font-size: 40px"";>מוכנים לשלם: <span id=""c_p_y""></span></p>","null","instructions","31","","","","","","","","","","","","","","","","","","","","",""
"","","","","","html-keyboard-response","13","160781","0.0-13.0","8076971d-2494-452c-8104-9b6adec121a1","null","<p>לא הגבתם בזמן המוקצב לתגובה. 
                <br>נסו להגיב מהר יותר בפעם הבאה.
                <br><br>לחצו על העכבר כדי להמשיך.</p>","1","instructions","","","","","","","","","","","","","","","","","","","","","",""
"","","","","","html-slider-response","14","164189","0.0-14.0-0.0","8076971d-2494-452c-8104-9b6adec121a1","3146","
                    <p style=""text-align: center;"">₪40<br>65%</p>
                    <p id=""wtp"" style=""text-align:center; margin-top: 0px; margin-bottom: 0px; font-size: 40px"";>מוכנים לשלם: <span id=""c_p_y""></span></p>","34","instructions","39","","","","","","","","","","","","","","","","","","","","",""
"","","","","","html-keyboard-response","15","168341","0.0-14.0-1.0","8076971d-2494-452c-8104-9b6adec121a1","null","<p>יפה. הפעם בחרתם לשלם לכל היותר ₪34.
                <br><br>לחצו על העכבר כדי להמשיך.</p>","1","instructions","","","","","","","","","","","","","","","","","","","","","",""
"","","","","","html-keyboard-response","16","178285","0.0-15.0","8076971d-2494-452c-8104-9b6adec121a1","null","<p>כעת נתחיל את הניסוי.
                <br><br>אתם תראו הגרלות ותתבקשו לבחור כמה תהיו מוכנים לשלם כדי להשתתף בהן.
                <br>יש לכם תקציב של ₪80 עבור כל הגרלה.
                <br>בסוף הניסוי הגרלה אחת תבחר באקראי ותשוחק.
                <br><br>לחצו על העכבר כדי להתחיל את הניסוי.</p>","1","instructions","","","","","","","","","","","","","","","","","","","","","",""
"","","","","","html-keyboard-response","17","179550","0.0-16.0","8076971d-2494-452c-8104-9b6adec121a1","null","<p style=""text-align: center;"">+</p>","null","fixation","","","","","","","","","","","","","","","","","","","","","",""
"","","","","","html-slider-response","18","180554","0.0-17.0-0.0","8076971d-2494-452c-8104-9b6adec121a1","1000","
                  <p style=""text-align: center;"">₪71
                                                <br>55%</p>
                  <p id=""wtp"" style=""text-align:center; margin-top: 0px; margin-bottom: 0px; font-size: 40px"";>&ensp;</p>","-","viewing","0","27","5B,18A","","","","","","","","","","","","","","","","","","",""
"","","","","","html-slider-response","19","183421","0.0-17.0-1.0","8076971d-2494-452c-8104-9b6adec121a1","2866","
                  <p style=""text-align: center;"">₪71
                                                <br>55%</p>
                  <p id=""wtp"" style=""text-align:center; margin-top: 0px; margin-bottom: 0px; font-size: 40px"";>מוכנים לשלם: <span id=""c_p_y""></span></p>","36","evaluation","73","27","5B,18A","55","71","36","","","","","","","","","","","","","","","",""
"","","","","","html-keyboard-response","20","184324","0.0-17.0-2.0","8076971d-2494-452c-8104-9b6adec121a1","null","<p style=""text-align: center;"">+</p>","null","fixation","","","","","","","","","","","","","","","","","","","","","",""
"","","","","","html-slider-response","21","185327","0.0-17.0-0.1","8076971d-2494-452c-8104-9b6adec121a1","1000","
                  <p style=""text-align: center;"">₪61
                                                <br>55%</p>
                  <p id=""wtp"" style=""text-align:center; margin-top: 0px; margin-bottom: 0px; font-size: 40px"";>&ensp;</p>","-","viewing","0","23","7B,26B","","","","","","","","","","","","","","","","","","",""
"","","","","","html-slider-response","22","189021","0.0-17.0-1.1","8076971d-2494-452c-8104-9b6adec121a1","3692","
                  <p style=""text-align: center;"">₪61
                                                <br>55%</p>
                  <p id=""wtp"" style=""text-align:center; margin-top: 0px; margin-bottom: 0px; font-size: 40px"";>מוכנים לשלם: <span id=""c_p_y""></span></p>","41","evaluation","51","23","7B,26B","55","61","41","","","","","","","","","","","","","","","",""
"","","","","","html-keyboard-response","23","189853","0.0-17.0-2.1","8076971d-2494-452c-8104-9b6adec121a1","null","<p style=""text-align: center;"">+</p>","null","fixation","","","","","","","","","","","","","","","","","","","","","",""
"","","","","","html-slider-response","24","190859","0.0-17.0-0.2","8076971d-2494-452c-8104-9b6adec121a1","1000","
                  <p style=""text-align: center;"">₪36
                                                <br>70%</p>
                  <p id=""wtp"" style=""text-align:center; margin-top: 0px; margin-bottom: 0px; font-size: 40px"";>&ensp;</p>","-","viewing","0","13","3A,5C,10B","","","","","","","","","","","","","","","","","","",""
"","","","","","html-slider-response","25","194437","0.0-17.0-1.2","8076971d-2494-452c-8104-9b6adec121a1","3577","
                  <p style=""text-align: center;"">₪36
                                                <br>70%</p>
                  <p id=""wtp"" style=""text-align:center; margin-top: 0px; margin-bottom: 0px; font-size: 40px"";>מוכנים לשלם: <span id=""c_p_y""></span></p>","56","evaluation","35","13","3A,5C,10B","70","36","56","","","","","","","","","","","","","","","",""
"","","","","","html-keyboard-response","26","195352","0.0-17.0-2.2","8076971d-2494-452c-8104-9b6adec121a1","null","<p style=""text-align: center;"">+</p>","null","fixation","","","","","","","","","","","","","","","","","","","","","",""
"","","","","","html-slider-response","27","196360","0.0-17.0-0.3","8076971d-2494-452c-8104-9b6adec121a1","1000","
                  <p style=""text-align: center;"">₪64
                                                <br>25%</p>
                  <p id=""wtp"" style=""text-align:center; margin-top: 0px; margin-bottom: 0px; font-size: 40px"";>&ensp;</p>","-","viewing","0","24","6A,21A","","","","","","","","","","","","","","","","","","",""
"","","","","","html-slider-response","28","199414","0.0-17.0-1.3","8076971d-2494-452c-8104-9b6adec121a1","3052","
                  <p style=""text-align: center;"">₪64
                                                <br>25%</p>
                  <p id=""wtp"" style=""text-align:center; margin-top: 0px; margin-bottom: 0px; font-size: 40px"";>מוכנים לשלם: <span id=""c_p_y""></span></p>","0","evaluation","72","24","6A,21A","25","64","0","","","","","","","","","","","","","","","",""
"","","","","","html-keyboard-response","29","200231","0.0-17.0-2.3","8076971d-2494-452c-8104-9b6adec121a1","null","<p style=""text-align: center;"">+</p>","null","fixation","","","","","","","","","","","","","","","","","","","","","",""
"","","","","","html-slider-response","30","201239","0.0-17.0-0.4","8076971d-2494-452c-8104-9b6adec121a1","1000","
                  <p style=""text-align: center;"">₪43
                                                <br>60%</p>
                  <p id=""wtp"" style=""text-align:center; margin-top: 0px; margin-bottom: 0px; font-size: 40px"";>&ensp;</p>","-","viewing","0","17","2A,7A,9A,15B","","","","","","","","","","","","","","","","","","",""
"","","","","","html-slider-response","31","205256","0.0-17.0-1.4","8076971d-2494-452c-8104-9b6adec121a1","null","
                  <p style=""text-align: center;"">₪43
                                                <br>60%</p>
                  <p id=""wtp"" style=""text-align:center; margin-top: 0px; margin-bottom: 0px; font-size: 40px"";>מוכנים לשלם: <span id=""c_p_y""></span></p>","null","evaluation","32","17","2A,7A,9A,15B","60","43","39","","","","","","","","","","","","","","","",""
"","","","","","html-keyboard-response","32","206223","0.0-17.0-2.4","8076971d-2494-452c-8104-9b6adec121a1","null","<p style=""text-align: center;"">+</p>","null","fixation","","","","","","","","","","","","","","","","","","","","","",""
"","","","","","html-slider-response","33","207230","0.0-17.0-0.5","8076971d-2494-452c-8104-9b6adec121a1","1000","
                  <p style=""text-align: center;"">₪39
                                                <br>60%</p>
                  <p id=""wtp"" style=""text-align:center; margin-top: 0px; margin-bottom: 0px; font-size: 40px"";>&ensp;</p>","-","viewing","0","15","9C,25B","","","","","","","","","","","","","","","","","","",""
"","","","","","html-slider-response","34","209701","0.0-17.0-1.5","8076971d-2494-452c-8104-9b6adec121a1","2469","
                  <p style=""text-align: center;"">₪39
                                                <br>60%</p>
                  <p id=""wtp"" style=""text-align:center; margin-top: 0px; margin-bottom: 0px; font-size: 40px"";>מוכנים לשלם: <span id=""c_p_y""></span></p>","43","evaluation","11","15","9C,25B","60","39","43","","","","","","","","","","","","","","","",""
"","","","","","html-keyboard-response","35","210758","0.0-17.0-2.5","8076971d-2494-452c-8104-9b6adec121a1","null","<p style=""text-align: center;"">+</p>","null","fixation","","","","","","","","","","","","","","","","","","","","","",""
"","","","","","html-slider-response","36","211767","0.0-17.0-0.6","8076971d-2494-452c-8104-9b6adec121a1","1000","
                  <p style=""text-align: center;"">₪4
                                                <br>75%</p>
                  <p id=""wtp"" style=""text-align:center; margin-top: 0px; margin-bottom: 0px; font-size: 40px"";>&ensp;</p>","-","viewing","0","3","12B,20B,23B,27C,29C","","","","","","","","","","","","","","","","","","",""
"","","","","","html-slider-response","37","213997","0.0-17.0-1.6","8076971d-2494-452c-8104-9b6adec121a1","2229","
                  <p style=""text-align: center;"">₪4
                                                <br>75%</p>
                  <p id=""wtp"" style=""text-align:center; margin-top: 0px; margin-bottom: 0px; font-size: 40px"";>מוכנים לשלם: <span id=""c_p_y""></span></p>","68","evaluation","21","3","12B,20B,23B,27C,29C","75","4","67","","","","","","","","","","","","","","","",""
"","","","","","html-keyboard-response","38","214931","0.0-17.0-2.6","8076971d-2494-452c-8104-9b6adec121a1","null","<p style=""text-align: center;"">+</p>","null","fixation","","","","","","","","","","","","","","","","","","","","","",""
"","","","","","html-slider-response","39","215936","0.0-17.0-0.7","8076971d-2494-452c-8104-9b6adec121a1","1000","
                  <p style=""text-align: center;"">₪39
                                                <br>65%</p>
                  <p id=""wtp"" style=""text-align:center; margin-top: 0px; margin-bottom: 0px; font-size: 40px"";>&ensp;</p>","-","viewing","0","16","1A,15A,26C","","","","","","","","","","","","","","","","","","",""
"","","","","","html-slider-response","40","219245","0.0-17.0-1.7","8076971d-2494-452c-8104-9b6adec121a1","3307","
                  <p style=""text-align: center;"">₪39
                                                <br>65%</p>
                  <p id=""wtp"" style=""text-align:center; margin-top: 0px; margin-bottom: 0px; font-size: 40px"";>מוכנים לשלם: <span id=""c_p_y""></span></p>","52","evaluation","12","16","1A,15A,26C","65","39","52","","","","","","","","","","","","","","","",""
"","","","","","html-keyboard-response","41","220725","0.0-17.0-2.7","8076971d-2494-452c-8104-9b6adec121a1","null","<p style=""text-align: center;"">+</p>","null","fixation","","","","","","","","","","","","","","","","","","","","","",""
"","","","","","html-slider-response","42","221731","0.0-17.0-0.8","8076971d-2494-452c-8104-9b6adec121a1","1000","
                  <p style=""text-align: center;"">₪18
                                                <br>50%</p>
                  <p id=""wtp"" style=""text-align:center; margin-top: 0px; margin-bottom: 0px; font-size: 40px"";>&ensp;</p>","-","viewing","0","10","2C,16C,22B,28A","","","","","","","","","","","","","","","","","","",""
"","","","","","html-slider-response","43","223557","0.0-17.0-1.8","8076971d-2494-452c-8104-9b6adec121a1","1825","
                  <p style=""text-align: center;"">₪18
                                                <br>50%</p>
                  <p id=""wtp"" style=""text-align:center; margin-top: 0px; margin-bottom: 0px; font-size: 40px"";>מוכנים לשלם: <span id=""c_p_y""></span></p>","29","evaluation","57","10","2C,16C,22B,28A","50","18","29","","","","","","","","","","","","","","","",""
"","","","","","html-keyboard-response","44","224907","0.0-17.0-2.8","8076971d-2494-452c-8104-9b6adec121a1","null","<p style=""text-align: center;"">+</p>","null","fixation","","","","","","","","","","","","","","","","","","","","","",""
"","","","","","html-slider-response","45","225912","0.0-17.0-0.9","8076971d-2494-452c-8104-9b6adec121a1","1000","
                  <p style=""text-align: center;"">₪71
                                                <br>75%</p>
                  <p id=""wtp"" style=""text-align:center; margin-top: 0px; margin-bottom: 0px; font-size: 40px"";>&ensp;</p>","-","viewing","0","28","8B","","","","","","","","","","","","","","","","","","",""
"","","","","","html-slider-response","46","227773","0.0-17.0-1.9","8076971d-2494-452c-8104-9b6adec121a1","1860","
                  <p style=""text-align: center;"">₪71
                                                <br>75%</p>
                  <p id=""wtp"" style=""text-align:center; margin-top: 0px; margin-bottom: 0px; font-size: 40px"";>מוכנים לשלם: <span id=""c_p_y""></span></p>","61","evaluation","62","28","8B","75","71","61","","","","","","","","","","","","","","","",""
"","","","","","html-keyboard-response","47","228974","0.0-17.0-2.9","8076971d-2494-452c-8104-9b6adec121a1","null","<p style=""text-align: center;"">+</p>","null","fixation","","","","","","","","","","","","","","","","","","","","","",""
"","","","","","html-slider-response","48","229980","0.0-17.0-0.10","8076971d-2494-452c-8104-9b6adec121a1","1000","
                  <p style=""text-align: center;"">₪11
                                                <br>75%</p>
                  <p id=""wtp"" style=""text-align:center; margin-top: 0px; margin-bottom: 0px; font-size: 40px"";>&ensp;</p>","-","viewing","0","7","6B,18B,22C,24C,29A","","","","","","","","","","","","","","","","","","",""
"","","","","","html-slider-response","49","232861","0.0-17.0-1.10","8076971d-2494-452c-8104-9b6adec121a1","2880","
                  <p style=""text-align: center;"">₪11
                                                <br>75%</p>
                  <p id=""wtp"" style=""text-align:center; margin-top: 0px; margin-bottom: 0px; font-size: 40px"";>מוכנים לשלם: <span id=""c_p_y""></span></p>","22","evaluation","44","7","6B,18B,22C,24C,29A","75","11","22","","","","","","","","","","","","","","","",""
"","","","","","html-keyboard-response","50","233720","0.0-17.0-2.10","8076971d-2494-452c-8104-9b6adec121a1","null","<p style=""text-align: center;"">+</p>","null","fixation","","","","","","","","","","","","","","","","","","","","","",""
"","","","","","html-slider-response","51","234721","0.0-17.0-0.11","8076971d-2494-452c-8104-9b6adec121a1","1000","
                  <p style=""text-align: center;"">₪11
                                                <br>20%</p>
                  <p id=""wtp"" style=""text-align:center; margin-top: 0px; margin-bottom: 0px; font-size: 40px"";>&ensp;</p>","-","viewing","0","4","12C,17C,23C,28C","","","","","","","","","","","","","","","","","","",""
"","","","","","html-slider-response","52","237197","0.0-17.0-1.11","8076971d-2494-452c-8104-9b6adec121a1","2474","
                  <p style=""text-align: center;"">₪11
                                                <br>20%</p>
                  <p id=""wtp"" style=""text-align:center; margin-top: 0px; margin-bottom: 0px; font-size: 40px"";>מוכנים לשלם: <span id=""c_p_y""></span></p>","0","evaluation","37","4","12C,17C,23C,28C","20","11","0","","","","","","","","","","","","","","","",""
"","","","","","html-keyboard-response","53","238579","0.0-17.0-2.11","8076971d-2494-452c-8104-9b6adec121a1","null","<p style=""text-align: center;"">+</p>","null","fixation","","","","","","","","","","","","","","","","","","","","","",""
"","","","","","html-slider-response","54","239580","0.0-17.0-0.12","8076971d-2494-452c-8104-9b6adec121a1","1000","
                  <p style=""text-align: center;"">₪18
                                                <br>25%</p>
                  <p id=""wtp"" style=""text-align:center; margin-top: 0px; margin-bottom: 0px; font-size: 40px"";>&ensp;</p>","-","viewing","0","9","14A,23A","","","","","","","","","","","","","","","","","","",""
"","","","","","html-slider-response","55","241093","0.0-17.0-1.12","8076971d-2494-452c-8104-9b6adec121a1","1512","
                  <p style=""text-align: center;"">₪18
                                                <br>25%</p>
                  <p id=""wtp"" style=""text-align:center; margin-top: 0px; margin-bottom: 0px; font-size: 40px"";>מוכנים לשלם: <span id=""c_p_y""></span></p>","3","evaluation","78","9","14A,23A","25","18","3","","","","","","","","","","","","","","","",""
"","","","","","html-keyboard-response","56","242054","0.0-17.0-2.12","8076971d-2494-452c-8104-9b6adec121a1","null","<p style=""text-align: center;"">+</p>","null","fixation","","","","","","","","","","","","","","","","","","","","","",""
"","","","","","html-slider-response","57","243067","0.0-17.0-0.13","8076971d-2494-452c-8104-9b6adec121a1","1000","
                  <p style=""text-align: center;"">₪64
                                                <br>50%</p>
                  <p id=""wtp"" style=""text-align:center; margin-top: 0px; margin-bottom: 0px; font-size: 40px"";>&ensp;</p>","-","viewing","0","25","1B,3B,4A","","","","","","","","","","","","","","","","","","",""
"","","","","","html-slider-response","58","245645","0.0-17.0-1.13","8076971d-2494-452c-8104-9b6adec121a1","2576","
                  <p style=""text-align: center;"">₪64
                                                <br>50%</p>
                  <p id=""wtp"" style=""text-align:center; margin-top: 0px; margin-bottom: 0px; font-size: 40px"";>מוכנים לשלם: <span id=""c_p_y""></span></p>","47","evaluation","40","25","1B,3B,4A","50","64","47","","","","","","","","","","","","","","","",""
"","","","","","html-keyboard-response","59","247038","0.0-17.0-2.13","8076971d-2494-452c-8104-9b6adec121a1","null","<p style=""text-align: center;"">+</p>","null","fixation","","","","","","","","","","","","","","","","","","","","","",""
"","","","","","html-slider-response","60","248041","0.0-17.0-0.14","8076971d-2494-452c-8104-9b6adec121a1","1000","
                  <p style=""text-align: center;"">₪36
                                                <br>30%</p>
                  <p id=""wtp"" style=""text-align:center; margin-top: 0px; margin-bottom: 0px; font-size: 40px"";>&ensp;</p>","-","viewing","0","11","3C,20A,22A","","","","","","","","","","","","","","","","","","",""
"","","","","","html-slider-response","61","249893","0.0-17.0-1.14","8076971d-2494-452c-8104-9b6adec121a1","1850","
                  <p style=""text-align: center;"">₪36
                                                <br>30%</p>
                  <p id=""wtp"" style=""text-align:center; margin-top: 0px; margin-bottom: 0px; font-size: 40px"";>מוכנים לשלם: <span id=""c_p_y""></span></p>","4","evaluation","0","11","3C,20A,22A","30","36","5","","","","","","","","","","","","","","","",""
"","","","","","html-keyboard-response","62","251159","0.0-17.0-2.14","8076971d-2494-452c-8104-9b6adec121a1","null","<p style=""text-align: center;"">+</p>","null","fixation","","","","","","","","","","","","","","","","","","","","","",""
"","","","","","html-slider-response","63","252171","0.0-17.0-0.15","8076971d-2494-452c-8104-9b6adec121a1","1000","
                  <p style=""text-align: center;"">₪76
                                                <br>65%</p>
                  <p id=""wtp"" style=""text-align:center; margin-top: 0px; margin-bottom: 0px; font-size: 40px"";>&ensp;</p>","-","viewing","0","29","8C,19A,24B","","","","","","","","","","","","","","","","","","",""
"","","","","","html-slider-response","64","254053","0.0-17.0-1.15","8076971d-2494-452c-8104-9b6adec121a1","1880","
                  <p style=""text-align: center;"">₪76
                                                <br>65%</p>
                  <p id=""wtp"" style=""text-align:center; margin-top: 0px; margin-bottom: 0px; font-size: 40px"";>מוכנים לשלם: <span id=""c_p_y""></span></p>","50","evaluation","70","29","8C,19A,24B","65","76","50","","","","","","","","","","","","","","","",""
"","","","","","html-keyboard-response","65","254853","0.0-17.0-2.15","8076971d-2494-452c-8104-9b6adec121a1","null","<p style=""text-align: center;"">+</p>","null","fixation","","","","","","","","","","","","","","","","","","","","","",""
"","","","","","html-slider-response","66","255868","0.0-17.0-0.16","8076971d-2494-452c-8104-9b6adec121a1","1000","
                  <p style=""text-align: center;"">₪79
                                                <br>65%</p>
                  <p id=""wtp"" style=""text-align:center; margin-top: 0px; margin-bottom: 0px; font-size: 40px"";>&ensp;</p>","-","viewing","0","31","8A","","","","","","","","","","","","","","","","","","",""
"","","","","","html-slider-response","67","258157","0.0-17.0-1.16","8076971d-2494-452c-8104-9b6adec121a1","2288","
                  <p style=""text-align: center;"">₪79
                                                <br>65%</p>
                  <p id=""wtp"" style=""text-align:center; margin-top: 0px; margin-bottom: 0px; font-size: 40px"";>מוכנים לשלם: <span id=""c_p_y""></span></p>","46","evaluation","3","31","8A","65","79","46","","","","","","","","","","","","","","","",""
"","","","","","html-keyboard-response","68","259372","0.0-17.0-2.16","8076971d-2494-452c-8104-9b6adec121a1","null","<p style=""text-align: center;"">+</p>","null","fixation","","","","","","","","","","","","","","","","","","","","","",""
"","","","","","html-slider-response","69","260379","0.0-17.0-0.17","8076971d-2494-452c-8104-9b6adec121a1","1000","
                  <p style=""text-align: center;"">₪43
                                                <br>75%</p>
                  <p id=""wtp"" style=""text-align:center; margin-top: 0px; margin-bottom: 0px; font-size: 40px"";>&ensp;</p>","-","viewing","0","18","11B,19B,24A,26A","","","","","","","","","","","","","","","","","","",""
"","","","","","html-slider-response","70","262965","0.0-17.0-1.17","8076971d-2494-452c-8104-9b6adec121a1","2584","
                  <p style=""text-align: center;"">₪43
                                                <br>75%</p>
                  <p id=""wtp"" style=""text-align:center; margin-top: 0px; margin-bottom: 0px; font-size: 40px"";>מוכנים לשלם: <span id=""c_p_y""></span></p>","40","evaluation","0","18","11B,19B,24A,26A","75","43","40","","","","","","","","","","","","","","","",""
"","","","","","html-keyboard-response","71","264258","0.0-17.0-2.17","8076971d-2494-452c-8104-9b6adec121a1","null","<p style=""text-align: center;"">+</p>","null","fixation","","","","","","","","","","","","","","","","","","","","","",""
"","","","","","html-slider-response","72","265260","0.0-17.0-0.18","8076971d-2494-452c-8104-9b6adec121a1","1000","
                  <p style=""text-align: center;"">₪36
                                                <br>60%</p>
                  <p id=""wtp"" style=""text-align:center; margin-top: 0px; margin-bottom: 0px; font-size: 40px"";>&ensp;</p>","-","viewing","0","12","1C,7C,15C","","","","","","","","","","","","","","","","","","",""
"","","","","","html-slider-response","73","267325","0.0-17.0-1.18","8076971d-2494-452c-8104-9b6adec121a1","2063","
                  <p style=""text-align: center;"">₪36
                                                <br>60%</p>
                  <p id=""wtp"" style=""text-align:center; margin-top: 0px; margin-bottom: 0px; font-size: 40px"";>מוכנים לשלם: <span id=""c_p_y""></span></p>","33","evaluation","68","12","1C,7C,15C","60","36","33","","","","","","","","","","","","","","","",""
"","","","","","html-keyboard-response","74","267905","0.0-17.0-2.18","8076971d-2494-452c-8104-9b6adec121a1","null","<p style=""text-align: center;"">+</p>","null","fixation","","","","","","","","","","","","","","","","","","","","","",""
"","","","","","html-slider-response","75","268914","0.0-17.0-0.19","8076971d-2494-452c-8104-9b6adec121a1","1000","
                  <p style=""text-align: center;"">₪58
                                                <br>30%</p>
                  <p id=""wtp"" style=""text-align:center; margin-top: 0px; margin-bottom: 0px; font-size: 40px"";>&ensp;</p>","-","viewing","0","19","13C,30A","","","","","","","","","","","","","","","","","","",""
"","","","","","html-slider-response","76","271278","0.0-17.0-1.19","8076971d-2494-452c-8104-9b6adec121a1","2363","
                  <p style=""text-align: center;"">₪58
                                                <br>30%</p>
                  <p id=""wtp"" style=""text-align:center; margin-top: 0px; margin-bottom: 0px; font-size: 40px"";>מוכנים לשלם: <span id=""c_p_y""></span></p>","8","evaluation","66","19","13C,30A","30","58","8","","","","","","","","","","","","","","","",""
"","","","","","html-keyboard-response","77","272556","0.0-17.0-2.19","8076971d-2494-452c-8104-9b6adec121a1","null","<p style=""text-align: center;"">+</p>","null","fixation","","","","","","","","","","","","","","","","","","","","","",""
"","","","","","html-slider-response","78","273558","0.0-17.0-0.20","8076971d-2494-452c-8104-9b6adec121a1","1000","
                  <p style=""text-align: center;"">₪16
                                                <br>20%</p>
                  <p id=""wtp"" style=""text-align:center; margin-top: 0px; margin-bottom: 0px; font-size: 40px"";>&ensp;</p>","-","viewing","0","8","14C,17A,20C,27A","","","","","","","","","","","","","","","","","","",""
"","","","","","html-slider-response","79","276205","0.0-17.0-1.20","8076971d-2494-452c-8104-9b6adec121a1","2645","
                  <p style=""text-align: center;"">₪16
                                                <br>20%</p>
                  <p id=""wtp"" style=""text-align:center; margin-top: 0px; margin-bottom: 0px; font-size: 40px"";>מוכנים לשלם: <span id=""c_p_y""></span></p>","1","evaluation","32","8","14C,17A,20C,27A","20","16","1","","","","","","","","","","","","","","","",""
"","","","","","html-keyboard-response","80","277380","0.0-17.0-2.20","8076971d-2494-452c-8104-9b6adec121a1","null","<p style=""text-align: center;"">+</p>","null","fixation","","","","","","","","","","","","","","","","","","","","","",""
"","","","","","html-slider-response","81","278397","0.0-17.0-0.21","8076971d-2494-452c-8104-9b6adec121a1","1000","
                  <p style=""text-align: center;"">₪4
                                                <br>50%</p>
                  <p id=""wtp"" style=""text-align:center; margin-top: 0px; margin-bottom: 0px; font-size: 40px"";>&ensp;</p>","-","viewing","0","2","4C,17B","","","","","","","","","","","","","","","","","","",""
"","","","","","html-slider-response","82","279444","0.0-17.0-1.21","8076971d-2494-452c-8104-9b6adec121a1","1047","
                  <p style=""text-align: center;"">₪4
                                                <br>50%</p>
                  <p id=""wtp"" style=""text-align:center; margin-top: 0px; margin-bottom: 0px; font-size: 40px"";>מוכנים לשלם: <span id=""c_p_y""></span></p>","0","evaluation","65","2","4C,17B","50","4","0","","","","","","","","","","","","","","","",""
"","","","","","html-keyboard-response","83","280650","0.0-17.0-2.21","8076971d-2494-452c-8104-9b6adec121a1","null","<p style=""text-align: center;"">+</p>","null","fixation","","","","","","","","","","","","","","","","","","","","","",""
"","","","","","html-slider-response","84","281659","0.0-17.0-0.22","8076971d-2494-452c-8104-9b6adec121a1","1000","
                  <p style=""text-align: center;"">₪11
                                                <br>25%</p>
                  <p id=""wtp"" style=""text-align:center; margin-top: 0px; margin-bottom: 0px; font-size: 40px"";>&ensp;</p>","-","viewing","0","5","12A,27B,28B,30B","","","","","","","","","","","","","","","","","","",""
"","","","","","html-slider-response","85","284380","0.0-17.0-1.22","8076971d-2494-452c-8104-9b6adec121a1","2720","
                  <p style=""text-align: center;"">₪11
                                                <br>25%</p>
                  <p id=""wtp"" style=""text-align:center; margin-top: 0px; margin-bottom: 0px; font-size: 40px"";>מוכנים לשלם: <span id=""c_p_y""></span></p>","0","evaluation","20","5","12A,27B,28B,30B","25","11","0","","","","","","","","","","","","","","","",""
"","","","","","html-keyboard-response","86","285477","0.0-17.0-2.22","8076971d-2494-452c-8104-9b6adec121a1","null","<p style=""text-align: center;"">+</p>","null","fixation","","","","","","","","","","","","","","","","","","","","","",""
"","","","","","html-slider-response","87","286480","0.0-17.0-0.23","8076971d-2494-452c-8104-9b6adec121a1","1000","
                  <p style=""text-align: center;"">₪71
                                                <br>45%</p>
                  <p id=""wtp"" style=""text-align:center; margin-top: 0px; margin-bottom: 0px; font-size: 40px"";>&ensp;</p>","-","viewing","0","26","2B,16A","","","","","","","","","","","","","","","","","","",""
"","","","","","html-slider-response","88","289997","0.0-17.0-1.23","8076971d-2494-452c-8104-9b6adec121a1","3515","
                  <p style=""text-align: center;"">₪71
                                                <br>45%</p>
                  <p id=""wtp"" style=""text-align:center; margin-top: 0px; margin-bottom: 0px; font-size: 40px"";>מוכנים לשלם: <span id=""c_p_y""></span></p>","17","evaluation","29","26","2B,16A","45","71","17","","","","","","","","","","","","","","","",""
"","","","","","html-keyboard-response","89","291361","0.0-17.0-2.23","8076971d-2494-452c-8104-9b6adec121a1","null","<p style=""text-align: center;"">+</p>","null","fixation","","","","","","","","","","","","","","","","","","","","","",""
"","","","","","html-slider-response","90","292372","0.0-17.0-0.24","8076971d-2494-452c-8104-9b6adec121a1","1000","
                  <p style=""text-align: center;"">₪61
                                                <br>45%</p>
                  <p id=""wtp"" style=""text-align:center; margin-top: 0px; margin-bottom: 0px; font-size: 40px"";>&ensp;</p>","-","viewing","0","22","10A,11A","","","","","","","","","","","","","","","","","","",""
"","","","","","html-slider-response","91","294717","0.0-17.0-1.24","8076971d-2494-452c-8104-9b6adec121a1","2344","
                  <p style=""text-align: center;"">₪61
                                                <br>45%</p>
                  <p id=""wtp"" style=""text-align:center; margin-top: 0px; margin-bottom: 0px; font-size: 40px"";>מוכנים לשלם: <span id=""c_p_y""></span></p>","30","evaluation","59","22","10A,11A","45","61","30","","","","","","","","","","","","","","","",""
"","","","","","html-keyboard-response","92","295230","0.0-17.0-2.24","8076971d-2494-452c-8104-9b6adec121a1","null","<p style=""text-align: center;"">+</p>","null","fixation","","","","","","","","","","","","","","","","","","","","","",""
"","","","","","html-slider-response","93","296245","0.0-17.0-0.25","8076971d-2494-452c-8104-9b6adec121a1","1000","
                  <p style=""text-align: center;"">₪79
                                                <br>40%</p>
                  <p id=""wtp"" style=""text-align:center; margin-top: 0px; margin-bottom: 0px; font-size: 40px"";>&ensp;</p>","-","viewing","0","30","9B","","","","","","","","","","","","","","","","","","",""
"","","","","","html-slider-response","94","300100","0.0-17.0-1.25","8076971d-2494-452c-8104-9b6adec121a1","3855","
                  <p style=""text-align: center;"">₪79
                                                <br>40%</p>
                  <p id=""wtp"" style=""text-align:center; margin-top: 0px; margin-bottom: 0px; font-size: 40px"";>מוכנים לשלם: <span id=""c_p_y""></span></p>","31","evaluation","1","30","9B","40","79","31","","","","","","","","","","","","","","","",""
"","","","","","html-keyboard-response","95","301459","0.0-17.0-2.25","8076971d-2494-452c-8104-9b6adec121a1","null","<p style=""text-align: center;"">+</p>","null","fixation","","","","","","","","","","","","","","","","","","","","","",""
"","","","","","html-slider-response","96","302469","0.0-17.0-0.26","8076971d-2494-452c-8104-9b6adec121a1","1000","
                  <p style=""text-align: center;"">₪58
                                                <br>45%</p>
                  <p id=""wtp"" style=""text-align:center; margin-top: 0px; margin-bottom: 0px; font-size: 40px"";>&ensp;</p>","-","viewing","0","21","11C,18C,25A","","","","","","","","","","","","","","","","","","",""
"","","","","","html-slider-response","97","305724","0.0-17.0-1.26","8076971d-2494-452c-8104-9b6adec121a1","3254","
                  <p style=""text-align: center;"">₪58
                                                <br>45%</p>
                  <p id=""wtp"" style=""text-align:center; margin-top: 0px; margin-bottom: 0px; font-size: 40px"";>מוכנים לשלם: <span id=""c_p_y""></span></p>","23","evaluation","50","21","11C,18C,25A","45","58","23","","","","","","","","","","","","","","","",""
"","","","","","html-keyboard-response","98","306600","0.0-17.0-2.26","8076971d-2494-452c-8104-9b6adec121a1","null","<p style=""text-align: center;"">+</p>","null","fixation","","","","","","","","","","","","","","","","","","","","","",""
"","","","","","html-slider-response","99","307611","0.0-17.0-0.27","8076971d-2494-452c-8104-9b6adec121a1","1000","
                  <p style=""text-align: center;"">₪11
                                                <br>45%</p>
                  <p id=""wtp"" style=""text-align:center; margin-top: 0px; margin-bottom: 0px; font-size: 40px"";>&ensp;</p>","-","viewing","0","6","14B,21C,25C","","","","","","","","","","","","","","","","","","",""
"","","","","","html-slider-response","100","310180","0.0-17.0-1.27","8076971d-2494-452c-8104-9b6adec121a1","2569","
                  <p style=""text-align: center;"">₪11
                                                <br>45%</p>
                  <p id=""wtp"" style=""text-align:center; margin-top: 0px; margin-bottom: 0px; font-size: 40px"";>מוכנים לשלם: <span id=""c_p_y""></span></p>","5","evaluation","37","6","14B,21C,25C","45","11","5","","","","","","","","","","","","","","","",""
"","","","","","html-keyboard-response","101","311603","0.0-17.0-2.27","8076971d-2494-452c-8104-9b6adec121a1","null","<p style=""text-align: center;"">+</p>","null","fixation","","","","","","","","","","","","","","","","","","","","","",""
"","","","","","html-slider-response","102","312616","0.0-17.0-0.28","8076971d-2494-452c-8104-9b6adec121a1","1000","
                  <p style=""text-align: center;"">₪36
                                                <br>75%</p>
                  <p id=""wtp"" style=""text-align:center; margin-top: 0px; margin-bottom: 0px; font-size: 40px"";>&ensp;</p>","-","viewing","0","14","4B,5A,13B,16B","","","","","","","","","","","","","","","","","","",""
"","","","","","html-slider-response","103","315829","0.0-17.0-1.28","8076971d-2494-452c-8104-9b6adec121a1","3211","
                  <p style=""text-align: center;"">₪36
                                                <br>75%</p>
                  <p id=""wtp"" style=""text-align:center; margin-top: 0px; margin-bottom: 0px; font-size: 40px"";>מוכנים לשלם: <span id=""c_p_y""></span></p>","46","evaluation","59","14","4B,5A,13B,16B","75","36","46","","","","","","","","","","","","","","","",""
"","","","","","html-keyboard-response","104","317308","0.0-17.0-2.28","8076971d-2494-452c-8104-9b6adec121a1","null","<p style=""text-align: center;"">+</p>","null","fixation","","","","","","","","","","","","","","","","","","","","","",""
"","","","","","html-slider-response","105","318319","0.0-17.0-0.29","8076971d-2494-452c-8104-9b6adec121a1","1000","
                  <p style=""text-align: center;"">₪4
                                                <br>25%</p>
                  <p id=""wtp"" style=""text-align:center; margin-top: 0px; margin-bottom: 0px; font-size: 40px"";>&ensp;</p>","-","viewing","0","1","6C,29B,30C","","","","","","","","","","","","","","","","","","",""
"","","","","","html-slider-response","106","321060","0.0-17.0-1.29","8076971d-2494-452c-8104-9b6adec121a1","2740","
                  <p style=""text-align: center;"">₪4
                                                <br>25%</p>
                  <p id=""wtp"" style=""text-align:center; margin-top: 0px; margin-bottom: 0px; font-size: 40px"";>מוכנים לשלם: <span id=""c_p_y""></span></p>","0","evaluation","36","1","6C,29B,30C","25","4","0","","","","","","","","","","","","","","","",""
"","","","","","html-keyboard-response","107","321873","0.0-17.0-2.29","8076971d-2494-452c-8104-9b6adec121a1","null","<p style=""text-align: center;"">+</p>","null","fixation","","","","","","","","","","","","","","","","","","","","","",""
"","","","","","html-slider-response","108","322875","0.0-17.0-0.30","8076971d-2494-452c-8104-9b6adec121a1","1000","
                  <p style=""text-align: center;"">₪58
                                                <br>40%</p>
                  <p id=""wtp"" style=""text-align:center; margin-top: 0px; margin-bottom: 0px; font-size: 40px"";>&ensp;</p>","-","viewing","0","20","10C,13A,19C,21B","","","","","","","","","","","","","","","","","","",""
"","","","","","html-slider-response","109","325228","0.0-17.0-1.30","8076971d-2494-452c-8104-9b6adec121a1","2353","
                  <p style=""text-align: center;"">₪58
                                                <br>40%</p>
                  <p id=""wtp"" style=""text-align:center; margin-top: 0px; margin-bottom: 0px; font-size: 40px"";>מוכנים לשלם: <span id=""c_p_y""></span></p>","9","evaluation","74","20","10C,13A,19C,21B","40","58","10","","","","","","","","","","","","","","","",""
"","","","","","html-keyboard-response","110","326566","0.0-17.0-2.30","8076971d-2494-452c-8104-9b6adec121a1","null","<p style=""text-align: center;"">+</p>","null","fixation","","","","","","","","","","","","","","","","","","","","","",""
"","","","","","html-keyboard-response","111","327574","0.0-18.0","8076971d-2494-452c-8104-9b6adec121a1","null","<p style=""text-align: center;"">+</p>","null","fixation","","","","","","","","","","","","","","","","","","","","","",""
"","","","","","html-keyboard-response","112","330124","0.0-19.0","8076971d-2494-452c-8104-9b6adec121a1","null","<p>הפסקה.
          <br>לחצו כדי להמשיך.</p>","1","scan_wait","","","","","","","","","","","","","","","","","","","","","",""
"","","","","","html-keyboard-response","113","331128","0.0-20.0","8076971d-2494-452c-8104-9b6adec121a1","null","<p style=""text-align: center;"">+</p>","null","fixation","","","","","","","","","","","","","","","","","","","","","",""
"","","","","","html-slider-response","114","332142","0.0-21.0-0.0","8076971d-2494-452c-8104-9b6adec121a1","1000","
                  <p style=""text-align: center;"">₪39
                                                <br>65%</p>
                  <p id=""wtp"" style=""text-align:center; margin-top: 0px; margin-bottom: 0px; font-size: 40px"";>&ensp;</p>","-","viewing","0","16","1A,15A,26C","","","","","","","","","","","","","","","","","","",""
"","","","","","html-slider-response","115","333756","0.0-21.0-1.0","8076971d-2494-452c-8104-9b6adec121a1","1613","
                  <p style=""text-align: center;"">₪39
                                                <br>65%</p>
                  <p id=""wtp"" style=""text-align:center; margin-top: 0px; margin-bottom: 0px; font-size: 40px"";>מוכנים לשלם: <span id=""c_p_y""></span></p>","40","evaluation","17","16","1A,15A,26C","65","39","40","","","","","","","","","","","","","","","",""
"","","","","","html-keyboard-response","116","335262","0.0-21.0-2.0","8076971d-2494-452c-8104-9b6adec121a1","null","<p style=""text-align: center;"">+</p>","null","fixation","","","","","","","","","","","","","","","","","","","","","",""
"","","","","","html-slider-response","117","336277","0.0-21.0-0.1","8076971d-2494-452c-8104-9b6adec121a1","1000","
                  <p style=""text-align: center;"">₪61
                                                <br>45%</p>
                  <p id=""wtp"" style=""text-align:center; margin-top: 0px; margin-bottom: 0px; font-size: 40px"";>&ensp;</p>","-","viewing","0","22","10A,11A","","","","","","","","","","","","","","","","","","",""
"","","","","","html-slider-response","118","338940","0.0-21.0-1.1","8076971d-2494-452c-8104-9b6adec121a1","2662","
                  <p style=""text-align: center;"">₪61
                                                <br>45%</p>
                  <p id=""wtp"" style=""text-align:center; margin-top: 0px; margin-bottom: 0px; font-size: 40px"";>מוכנים לשלם: <span id=""c_p_y""></span></p>","22","evaluation","48","22","10A,11A","45","61","22","","","","","","","","","","","","","","","",""
"","","","","","html-keyboard-response","119","339707","0.0-21.0-2.1","8076971d-2494-452c-8104-9b6adec121a1","null","<p style=""text-align: center;"">+</p>","null","fixation","","","","","","","","","","","","","","","","","","","","","",""
"","","","","","html-slider-response","120","340708","0.0-21.0-0.2","8076971d-2494-452c-8104-9b6adec121a1","1000","
                  <p style=""text-align: center;"">₪16
                                                <br>20%</p>
                  <p id=""wtp"" style=""text-align:center; margin-top: 0px; margin-bottom: 0px; font-size: 40px"";>&ensp;</p>","-","viewing","0","8","14C,17A,20C,27A","","","","","","","","","","","","","","","","","","",""
"","","","","","html-slider-response","121","344708","0.0-21.0-1.2","8076971d-2494-452c-8104-9b6adec121a1","3999","
                  <p style=""text-align: center;"">₪16
                                                <br>20%</p>
                  <p id=""wtp"" style=""text-align:center; margin-top: 0px; margin-bottom: 0px; font-size: 40px"";>מוכנים לשלם: <span id=""c_p_y""></span></p>","0","evaluation","70","8","14C,17A,20C,27A","20","16","1","","","","","","","","","","","","","","","",""
"","","","","","html-keyboard-response","122","346057","0.0-21.0-2.2","8076971d-2494-452c-8104-9b6adec121a1","null","<p style=""text-align: center;"">+</p>","null","fixation","","","","","","","","","","","","","","","","","","","","","",""
"","","","","","html-slider-response","123","347060","0.0-21.0-0.3","8076971d-2494-452c-8104-9b6adec121a1","1000","
                  <p style=""text-align: center;"">₪43
                                                <br>60%</p>
                  <p id=""wtp"" style=""text-align:center; margin-top: 0px; margin-bottom: 0px; font-size: 40px"";>&ensp;</p>","-","viewing","0","17","2A,7A,9A,15B","","","","","","","","","","","","","","","","","","",""
"","","","","","html-slider-response","124","350340","0.0-21.0-1.3","8076971d-2494-452c-8104-9b6adec121a1","3279","
                  <p style=""text-align: center;"">₪43
                                                <br>60%</p>
                  <p id=""wtp"" style=""text-align:center; margin-top: 0px; margin-bottom: 0px; font-size: 40px"";>מוכנים לשלם: <span id=""c_p_y""></span></p>","33","evaluation","18","17","2A,7A,9A,15B","60","43","33","","","","","","","","","","","","","","","",""
"","","","","","html-keyboard-response","125","351491","0.0-21.0-2.3","8076971d-2494-452c-8104-9b6adec121a1","null","<p style=""text-align: center;"">+</p>","null","fixation","","","","","","","","","","","","","","","","","","","","","",""
"","","","","","html-slider-response","126","352500","0.0-21.0-0.4","8076971d-2494-452c-8104-9b6adec121a1","1000","
                  <p style=""text-align: center;"">₪58
                                                <br>30%</p>
                  <p id=""wtp"" style=""text-align:center; margin-top: 0px; margin-bottom: 0px; font-size: 40px"";>&ensp;</p>","-","viewing","0","19","13C,30A","","","","","","","","","","","","","","","","","","",""
"","","","","","html-slider-response","127","355716","0.0-21.0-1.4","8076971d-2494-452c-8104-9b6adec121a1","3216","
                  <p style=""text-align: center;"">₪58
                                                <br>30%</p>
                  <p id=""wtp"" style=""text-align:center; margin-top: 0px; margin-bottom: 0px; font-size: 40px"";>מוכנים לשלם: <span id=""c_p_y""></span></p>","4","evaluation","27","19","13C,30A","30","58","5","","","","","","","","","","","","","","","",""
"","","","","","html-keyboard-response","128","356327","0.0-21.0-2.4","8076971d-2494-452c-8104-9b6adec121a1","null","<p style=""text-align: center;"">+</p>","null","fixation","","","","","","","","","","","","","","","","","","","","","",""
"","","","","","html-slider-response","129","357342","0.0-21.0-0.5","8076971d-2494-452c-8104-9b6adec121a1","1000","
                  <p style=""text-align: center;"">₪36
                                                <br>30%</p>
                  <p id=""wtp"" style=""text-align:center; margin-top: 0px; margin-bottom: 0px; font-size: 40px"";>&ensp;</p>","-","viewing","0","11","3C,20A,22A","","","","","","","","","","","","","","","","","","",""
"","","","","","html-slider-response","130","360949","0.0-21.0-1.5","8076971d-2494-452c-8104-9b6adec121a1","3605","
                  <p style=""text-align: center;"">₪36
                                                <br>30%</p>
                  <p id=""wtp"" style=""text-align:center; margin-top: 0px; margin-bottom: 0px; font-size: 40px"";>מוכנים לשלם: <span id=""c_p_y""></span></p>","0","evaluation","26","11","3C,20A,22A","30","36","0","","","","","","","","","","","","","","","",""
"","","","","","html-keyboard-response","131","362152","0.0-21.0-2.5","8076971d-2494-452c-8104-9b6adec121a1","null","<p style=""text-align: center;"">+</p>","null","fixation","","","","","","","","","","","","","","","","","","","","","",""
"","","","","","html-slider-response","132","363154","0.0-21.0-0.6","8076971d-2494-452c-8104-9b6adec121a1","1000","
                  <p style=""text-align: center;"">₪11
                                                <br>75%</p>
                  <p id=""wtp"" style=""text-align:center; margin-top: 0px; margin-bottom: 0px; font-size: 40px"";>&ensp;</p>","-","viewing","0","7","6B,18B,22C,24C,29A","","","","","","","","","","","","","","","","","","",""
"","","","","","html-slider-response","133","366573","0.0-21.0-1.6","8076971d-2494-452c-8104-9b6adec121a1","3418","
                  <p style=""text-align: center;"">₪11
                                                <br>75%</p>
                  <p id=""wtp"" style=""text-align:center; margin-top: 0px; margin-bottom: 0px; font-size: 40px"";>מוכנים לשלם: <span id=""c_p_y""></span></p>","23","evaluation","41","7","6B,18B,22C,24C,29A","75","11","23","","","","","","","","","","","","","","","",""
"","","","","","html-keyboard-response","134","367899","0.0-21.0-2.6","8076971d-2494-452c-8104-9b6adec121a1","null","<p style=""text-align: center;"">+</p>","null","fixation","","","","","","","","","","","","","","","","","","","","","",""
"","","","","","html-slider-response","135","368909","0.0-21.0-0.7","8076971d-2494-452c-8104-9b6adec121a1","1000","
                  <p style=""text-align: center;"">₪39
                                                <br>60%</p>
                  <p id=""wtp"" style=""text-align:center; margin-top: 0px; margin-bottom: 0px; font-size: 40px"";>&ensp;</p>","-","viewing","0","15","9C,25B","","","","","","","","","","","","","","","","","","",""
"","","","","","html-slider-response","136","372911","0.0-21.0-1.7","8076971d-2494-452c-8104-9b6adec121a1","null","
                  <p style=""text-align: center;"">₪39
                                                <br>60%</p>
                  <p id=""wtp"" style=""text-align:center; margin-top: 0px; margin-bottom: 0px; font-size: 40px"";>מוכנים לשלם: <span id=""c_p_y""></span></p>","null","evaluation","62","15","9C,25B","60","39","40","","","","","","","","","","","","","","","",""
"","","","","","html-keyboard-response","137","374092","0.0-21.0-2.7","8076971d-2494-452c-8104-9b6adec121a1","null","<p style=""text-align: center;"">+</p>","null","fixation","","","","","","","","","","","","","","","","","","","","","",""
"","","","","","html-slider-response","138","375102","0.0-21.0-0.8","8076971d-2494-452c-8104-9b6adec121a1","1000","
                  <p style=""text-align: center;"">₪79
                                                <br>65%</p>
                  <p id=""wtp"" style=""text-align:center; margin-top: 0px; margin-bottom: 0px; font-size: 40px"";>&ensp;</p>","-","viewing","0","31","8A","","","","","","","","","","","","","","","","","","",""
"","","","","","html-slider-response","139","377205","0.0-21.0-1.8","8076971d-2494-452c-8104-9b6adec121a1","2102","
                  <p style=""text-align: center;"">₪79
                                                <br>65%</p>
                  <p id=""wtp"" style=""text-align:center; margin-top: 0px; margin-bottom: 0px; font-size: 40px"";>מוכנים לשלם: <span id=""c_p_y""></span></p>","61","evaluation","46","31","8A","65","79","61","","","","","","","","","","","","","","","",""
"","","","","","html-keyboard-response","140","378252","0.0-21.0-2.8","8076971d-2494-452c-8104-9b6adec121a1","null","<p style=""text-align: center;"">+</p>","null","fixation","","","","","","","","","","","","","","","","","","","","","",""
"","","","","","html-slider-response","141","379259","0.0-21.0-0.9","8076971d-2494-452c-8104-9b6adec121a1","1000","
                  <p style=""text-align: center;"">₪4
                                                <br>25%</p>
                  <p id=""wtp"" style=""text-align:center; margin-top: 0px; margin-bottom: 0px; font-size: 40px"";>&ensp;</p>","-","viewing","0","1","6C,29B,30C","","","","","","","","","","","","","","","","","","",""
"","","","","","html-slider-response","142","381357","0.0-21.0-1.9","8076971d-2494-452c-8104-9b6adec121a1","2096","
                  <p style=""text-align: center;"">₪4
                                                <br>25%</p>
                  <p id=""wtp"" style=""text-align:center; margin-top: 0px; margin-bottom: 0px; font-size: 40px"";>מוכנים לשלם: <span id=""c_p_y""></span></p>","0","evaluation","10","1","6C,29B,30C","25","4","0","","","","","","","","","","","","","","","",""
"","","","","","html-keyboard-response","143","382778","0.0-21.0-2.9","8076971d-2494-452c-8104-9b6adec121a1","null","<p style=""text-align: center;"">+</p>","null","fixation","","","","","","","","","","","","","","","","","","","","","",""
"","","","","","html-slider-response","144","383793","0.0-21.0-0.10","8076971d-2494-452c-8104-9b6adec121a1","1000","
                  <p style=""text-align: center;"">₪18
                                                <br>50%</p>
                  <p id=""wtp"" style=""text-align:center; margin-top: 0px; margin-bottom: 0px; font-size: 40px"";>&ensp;</p>","-","viewing","0","10","2C,16C,22B,28A","","","","","","","","","","","","","","","","","","",""
"","","","","","html-slider-response","145","385789","0.0-21.0-1.10","8076971d-2494-452c-8104-9b6adec121a1","1994","
                  <p style=""text-align: center;"">₪18
                                                <br>50%</p>
                  <p id=""wtp"" style=""text-align:center; margin-top: 0px; margin-bottom: 0px; font-size: 40px"";>מוכנים לשלם: <span id=""c_p_y""></span></p>","5","evaluation","64","10","2C,16C,22B,28A","50","18","5","","","","","","","","","","","","","","","",""
"","","","","","html-keyboard-response","146","386673","0.0-21.0-2.10","8076971d-2494-452c-8104-9b6adec121a1","null","<p style=""text-align: center;"">+</p>","null","fixation","","","","","","","","","","","","","","","","","","","","","",""
"","","","","","html-slider-response","147","387684","0.0-21.0-0.11","8076971d-2494-452c-8104-9b6adec121a1","1000","
                  <p style=""text-align: center;"">₪71
                                                <br>45%</p>
                  <p id=""wtp"" style=""text-align:center; margin-top: 0px; margin-bottom: 0px; font-size: 40px"";>&ensp;</p>","-","viewing","0","26","2B,16A","","","","","","","","","","","","","","","","","","",""
"","","","","","html-slider-response","148","390669","0.0-21.0-1.11","8076971d-2494-452c-8104-9b6adec121a1","2983","
                  <p style=""text-align: center;"">₪71
                                                <br>45%</p>
                  <p id=""wtp"" style=""text-align:center; margin-top: 0px; margin-bottom: 0px; font-size: 40px"";>מוכנים לשלם: <span id=""c_p_y""></span></p>","16","evaluation","61","26","2B,16A","45","71","16","","","","","","","","","","","","","","","",""
"","","","","","html-keyboard-response","149","391573","0.0-21.0-2.11","8076971d-2494-452c-8104-9b6adec121a1","null","<p style=""text-align: center;"">+</p>","null","fixation","","","","","","","","","","","","","","","","","","","","","",""
"","","","","","html-slider-response","150","392582","0.0-21.0-0.12","8076971d-2494-452c-8104-9b6adec121a1","1000","
                  <p style=""text-align: center;"">₪71
                                                <br>55%</p>
                  <p id=""wtp"" style=""text-align:center; margin-top: 0px; margin-bottom: 0px; font-size: 40px"";>&ensp;</p>","-","viewing","0","27","5B,18A","","","","","","","","","","","","","","","","","","",""
"","","","","","html-slider-response","151","395429","0.0-21.0-1.12","8076971d-2494-452c-8104-9b6adec121a1","2846","
                  <p style=""text-align: center;"">₪71
                                                <br>55%</p>
                  <p id=""wtp"" style=""text-align:center; margin-top: 0px; margin-bottom: 0px; font-size: 40px"";>מוכנים לשלם: <span id=""c_p_y""></span></p>","30","evaluation","32","27","5B,18A","55","71","30","","","","","","","","","","","","","","","",""
"","","","","","html-keyboard-response","152","396761","0.0-21.0-2.12","8076971d-2494-452c-8104-9b6adec121a1","null","<p style=""text-align: center;"">+</p>","null","fixation","","","","","","","","","","","","","","","","","","","","","",""
"","","","","","html-slider-response","153","397773","0.0-21.0-0.13","8076971d-2494-452c-8104-9b6adec121a1","1000","
                  <p style=""text-align: center;"">₪36
                                                <br>70%</p>
                  <p id=""wtp"" style=""text-align:center; margin-top: 0px; margin-bottom: 0px; font-size: 40px"";>&ensp;</p>","-","viewing","0","13","3A,5C,10B","","","","","","","","","","","","","","","","","","",""
"","","","","","html-slider-response","154","400685","0.0-21.0-1.13","8076971d-2494-452c-8104-9b6adec121a1","2911","
                  <p style=""text-align: center;"">₪36
                                                <br>70%</p>
                  <p id=""wtp"" style=""text-align:center; margin-top: 0px; margin-bottom: 0px; font-size: 40px"";>מוכנים לשלם: <span id=""c_p_y""></span></p>","30","evaluation","42","13","3A,5C,10B","70","36","30","","","","","","","","","","","","","","","",""
"","","","","","html-keyboard-response","155","401986","0.0-21.0-2.13","8076971d-2494-452c-8104-9b6adec121a1","null","<p style=""text-align: center;"">+</p>","null","fixation","","","","","","","","","","","","","","","","","","","","","",""
"","","","","","html-slider-response","156","402993","0.0-21.0-0.14","8076971d-2494-452c-8104-9b6adec121a1","1000","
                  <p style=""text-align: center;"">₪11
                                                <br>45%</p>
                  <p id=""wtp"" style=""text-align:center; margin-top: 0px; margin-bottom: 0px; font-size: 40px"";>&ensp;</p>","-","viewing","0","6","14B,21C,25C","","","","","","","","","","","","","","","","","","",""
"","","","","","html-slider-response","157","405389","0.0-21.0-1.14","8076971d-2494-452c-8104-9b6adec121a1","2394","
                  <p style=""text-align: center;"">₪11
                                                <br>45%</p>
                  <p id=""wtp"" style=""text-align:center; margin-top: 0px; margin-bottom: 0px; font-size: 40px"";>מוכנים לשלם: <span id=""c_p_y""></span></p>","0","evaluation","37","6","14B,21C,25C","45","11","0","","","","","","","","","","","","","","","",""
"","","","","","html-keyboard-response","158","406697","0.0-21.0-2.14","8076971d-2494-452c-8104-9b6adec121a1","null","<p style=""text-align: center;"">+</p>","null","fixation","","","","","","","","","","","","","","","","","","","","","",""
"","","","","","html-slider-response","159","407704","0.0-21.0-0.15","8076971d-2494-452c-8104-9b6adec121a1","1000","
                  <p style=""text-align: center;"">₪64
                                                <br>25%</p>
                  <p id=""wtp"" style=""text-align:center; margin-top: 0px; margin-bottom: 0px; font-size: 40px"";>&ensp;</p>","-","viewing","0","24","6A,21A","","","","","","","","","","","","","","","","","","",""
"","","","","","html-slider-response","160","411708","0.0-21.0-1.15","8076971d-2494-452c-8104-9b6adec121a1","null","
                  <p style=""text-align: center;"">₪64
                                                <br>25%</p>
                  <p id=""wtp"" style=""text-align:center; margin-top: 0px; margin-bottom: 0px; font-size: 40px"";>מוכנים לשלם: <span id=""c_p_y""></span></p>","null","evaluation","5","24","6A,21A","25","64","2","","","","","","","","","","","","","","","",""
"","","","","","html-keyboard-response","161","412994","0.0-21.0-2.15","8076971d-2494-452c-8104-9b6adec121a1","null","<p style=""text-align: center;"">+</p>","null","fixation","","","","","","","","","","","","","","","","","","","","","",""
"","","","","","html-slider-response","162","414002","0.0-21.0-0.16","8076971d-2494-452c-8104-9b6adec121a1","1000","
                  <p style=""text-align: center;"">₪71
                                                <br>75%</p>
                  <p id=""wtp"" style=""text-align:center; margin-top: 0px; margin-bottom: 0px; font-size: 40px"";>&ensp;</p>","-","viewing","0","28","8B","","","","","","","","","","","","","","","","","","",""
"","","","","","html-slider-response","163","418005","0.0-21.0-1.16","8076971d-2494-452c-8104-9b6adec121a1","4001","
                  <p style=""text-align: center;"">₪71
                                                <br>75%</p>
                  <p id=""wtp"" style=""text-align:center; margin-top: 0px; margin-bottom: 0px; font-size: 40px"";>מוכנים לשלם: <span id=""c_p_y""></span></p>","52","evaluation","69","28","8B","75","71","52","","","","","","","","","","","","","","","",""
"","","","","","html-keyboard-response","164","418989","0.0-21.0-2.16","8076971d-2494-452c-8104-9b6adec121a1","null","<p style=""text-align: center;"">+</p>","null","fixation","","","","","","","","","","","","","","","","","","","","","",""
"","","","","","html-slider-response","165","419993","0.0-21.0-0.17","8076971d-2494-452c-8104-9b6adec121a1","1000","
                  <p style=""text-align: center;"">₪18
                                                <br>25%</p>
                  <p id=""wtp"" style=""text-align:center; margin-top: 0px; margin-bottom: 0px; font-size: 40px"";>&ensp;</p>","-","viewing","0","9","14A,23A","","","","","","","","","","","","","","","","","","",""
"","","","","","html-slider-response","166","421141","0.0-21.0-1.17","8076971d-2494-452c-8104-9b6adec121a1","1146","
                  <p style=""text-align: center;"">₪18
                                                <br>25%</p>
                  <p id=""wtp"" style=""text-align:center; margin-top: 0px; margin-bottom: 0px; font-size: 40px"";>מוכנים לשלם: <span id=""c_p_y""></span></p>","0","evaluation","57","9","14A,23A","25","18","0","","","","","","","","","","","","","","","",""
"","","","","","html-keyboard-response","167","422239","0.0-21.0-2.17","8076971d-2494-452c-8104-9b6adec121a1","null","<p style=""text-align: center;"">+</p>","null","fixation","","","","","","","","","","","","","","","","","","","","","",""
"","","","","","html-slider-response","168","423253","0.0-21.0-0.18","8076971d-2494-452c-8104-9b6adec121a1","1000","
                  <p style=""text-align: center;"">₪36
                                                <br>60%</p>
                  <p id=""wtp"" style=""text-align:center; margin-top: 0px; margin-bottom: 0px; font-size: 40px"";>&ensp;</p>","-","viewing","0","12","1C,7C,15C","","","","","","","","","","","","","","","","","","",""
"","","","","","html-slider-response","169","426813","0.0-21.0-1.18","8076971d-2494-452c-8104-9b6adec121a1","3559","
                  <p style=""text-align: center;"">₪36
                                                <br>60%</p>
                  <p id=""wtp"" style=""text-align:center; margin-top: 0px; margin-bottom: 0px; font-size: 40px"";>מוכנים לשלם: <span id=""c_p_y""></span></p>","34","evaluation","12","12","1C,7C,15C","60","36","34","","","","","","","","","","","","","","","",""
"","","","","","html-keyboard-response","170","427328","0.0-21.0-2.18","8076971d-2494-452c-8104-9b6adec121a1","null","<p style=""text-align: center;"">+</p>","null","fixation","","","","","","","","","","","","","","","","","","","","","",""
"","","","","","html-slider-response","171","428343","0.0-21.0-0.19","8076971d-2494-452c-8104-9b6adec121a1","1000","
                  <p style=""text-align: center;"">₪58
                                                <br>45%</p>
                  <p id=""wtp"" style=""text-align:center; margin-top: 0px; margin-bottom: 0px; font-size: 40px"";>&ensp;</p>","-","viewing","0","21","11C,18C,25A","","","","","","","","","","","","","","","","","","",""
"","","","","","html-slider-response","172","431725","0.0-21.0-1.19","8076971d-2494-452c-8104-9b6adec121a1","3382","
                  <p style=""text-align: center;"">₪58
                                                <br>45%</p>
                  <p id=""wtp"" style=""text-align:center; margin-top: 0px; margin-bottom: 0px; font-size: 40px"";>מוכנים לשלם: <span id=""c_p_y""></span></p>","11","evaluation","40","21","11C,18C,25A","45","58","12","","","","","","","","","","","","","","","",""
"","","","","","html-keyboard-response","173","432547","0.0-21.0-2.19","8076971d-2494-452c-8104-9b6adec121a1","null","<p style=""text-align: center;"">+</p>","null","fixation","","","","","","","","","","","","","","","","","","","","","",""
"","","","","","html-slider-response","174","433562","0.0-21.0-0.20","8076971d-2494-452c-8104-9b6adec121a1","1000","
                  <p style=""text-align: center;"">₪43
                                                <br>75%</p>
                  <p id=""wtp"" style=""text-align:center; margin-top: 0px; margin-bottom: 0px; font-size: 40px"";>&ensp;</p>","-","viewing","0","18","11B,19B,24A,26A","","","","","","","","","","","","","","","","","","",""
"","","","","","html-slider-response","175","436150","0.0-21.0-1.20","8076971d-2494-452c-8104-9b6adec121a1","2586","
                  <p style=""text-align: center;"">₪43
                                                <br>75%</p>
                  <p id=""wtp"" style=""text-align:center; margin-top: 0px; margin-bottom: 0px; font-size: 40px"";>מוכנים לשלם: <span id=""c_p_y""></span></p>","35","evaluation","29","18","11B,19B,24A,26A","75","43","35","","","","","","","","","","","","","","","",""
"","","","","","html-keyboard-response","176","437563","0.0-21.0-2.20","8076971d-2494-452c-8104-9b6adec121a1","null","<p style=""text-align: center;"">+</p>","null","fixation","","","","","","","","","","","","","","","","","","","","","",""
"","","","","","html-slider-response","177","438572","0.0-21.0-0.21","8076971d-2494-452c-8104-9b6adec121a1","1000","
                  <p style=""text-align: center;"">₪76
                                                <br>65%</p>
                  <p id=""wtp"" style=""text-align:center; margin-top: 0px; margin-bottom: 0px; font-size: 40px"";>&ensp;</p>","-","viewing","0","29","8C,19A,24B","","","","","","","","","","","","","","","","","","",""
"","","","","","html-slider-response","178","441893","0.0-21.0-1.21","8076971d-2494-452c-8104-9b6adec121a1","3320","
                  <p style=""text-align: center;"">₪76
                                                <br>65%</p>
                  <p id=""wtp"" style=""text-align:center; margin-top: 0px; margin-bottom: 0px; font-size: 40px"";>מוכנים לשלם: <span id=""c_p_y""></span></p>","52","evaluation","15","29","8C,19A,24B","65","76","52","","","","","","","","","","","","","","","",""
"","","","","","html-keyboard-response","179","442968","0.0-21.0-2.21","8076971d-2494-452c-8104-9b6adec121a1","null","<p style=""text-align: center;"">+</p>","null","fixation","","","","","","","","","","","","","","","","","","","","","",""
"","","","","","html-slider-response","180","443982","0.0-21.0-0.22","8076971d-2494-452c-8104-9b6adec121a1","1000","
                  <p style=""text-align: center;"">₪11
                                                <br>25%</p>
                  <p id=""wtp"" style=""text-align:center; margin-top: 0px; margin-bottom: 0px; font-size: 40px"";>&ensp;</p>","-","viewing","0","5","12A,27B,28B,30B","","","","","","","","","","","","","","","","","","",""
"","","","","","html-slider-response","181","446045","0.0-21.0-1.22","8076971d-2494-452c-8104-9b6adec121a1","2062","
                  <p style=""text-align: center;"">₪11
                                                <br>25%</p>
                  <p id=""wtp"" style=""text-align:center; margin-top: 0px; margin-bottom: 0px; font-size: 40px"";>מוכנים לשלם: <span id=""c_p_y""></span></p>","0","evaluation","58","5","12A,27B,28B,30B","25","11","0","","","","","","","","","","","","","","","",""
"","","","","","html-keyboard-response","182","447335","0.0-21.0-2.22","8076971d-2494-452c-8104-9b6adec121a1","null","<p style=""text-align: center;"">+</p>","null","fixation","","","","","","","","","","","","","","","","","","","","","",""
"","","","","","html-slider-response","183","448344","0.0-21.0-0.23","8076971d-2494-452c-8104-9b6adec121a1","1000","
                  <p style=""text-align: center;"">₪64
                                                <br>50%</p>
                  <p id=""wtp"" style=""text-align:center; margin-top: 0px; margin-bottom: 0px; font-size: 40px"";>&ensp;</p>","-","viewing","0","25","1B,3B,4A","","","","","","","","","","","","","","","","","","",""
"","","","","","html-slider-response","184","450965","0.0-21.0-1.23","8076971d-2494-452c-8104-9b6adec121a1","2621","
                  <p style=""text-align: center;"">₪64
                                                <br>50%</p>
                  <p id=""wtp"" style=""text-align:center; margin-top: 0px; margin-bottom: 0px; font-size: 40px"";>מוכנים לשלם: <span id=""c_p_y""></span></p>","25","evaluation","48","25","1B,3B,4A","50","64","25","","","","","","","","","","","","","","","",""
"","","","","","html-keyboard-response","185","451866","0.0-21.0-2.23","8076971d-2494-452c-8104-9b6adec121a1","null","<p style=""text-align: center;"">+</p>","null","fixation","","","","","","","","","","","","","","","","","","","","","",""
"","","","","","html-slider-response","186","452875","0.0-21.0-0.24","8076971d-2494-452c-8104-9b6adec121a1","1000","
                  <p style=""text-align: center;"">₪61
                                                <br>55%</p>
                  <p id=""wtp"" style=""text-align:center; margin-top: 0px; margin-bottom: 0px; font-size: 40px"";>&ensp;</p>","-","viewing","0","23","7B,26B","","","","","","","","","","","","","","","","","","",""
"","","","","","html-slider-response","187","456878","0.0-21.0-1.24","8076971d-2494-452c-8104-9b6adec121a1","null","
                  <p style=""text-align: center;"">₪61
                                                <br>55%</p>
                  <p id=""wtp"" style=""text-align:center; margin-top: 0px; margin-bottom: 0px; font-size: 40px"";>מוכנים לשלם: <span id=""c_p_y""></span></p>","null","evaluation","38","23","7B,26B","55","61","28","","","","","","","","","","","","","","","",""
"","","","","","html-keyboard-response","188","458335","0.0-21.0-2.24","8076971d-2494-452c-8104-9b6adec121a1","null","<p style=""text-align: center;"">+</p>","null","fixation","","","","","","","","","","","","","","","","","","","","","",""
"","","","","","html-slider-response","189","459349","0.0-21.0-0.25","8076971d-2494-452c-8104-9b6adec121a1","1000","
                  <p style=""text-align: center;"">₪11
                                                <br>20%</p>
                  <p id=""wtp"" style=""text-align:center; margin-top: 0px; margin-bottom: 0px; font-size: 40px"";>&ensp;</p>","-","viewing","0","4","12C,17C,23C,28C","","","","","","","","","","","","","","","","","","",""
"","","","","","html-slider-response","190","460261","0.0-21.0-1.25","8076971d-2494-452c-8104-9b6adec121a1","912","
                  <p style=""text-align: center;"">₪11
                                                <br>20%</p>
                  <p id=""wtp"" style=""text-align:center; margin-top: 0px; margin-bottom: 0px; font-size: 40px"";>מוכנים לשלם: <span id=""c_p_y""></span></p>","0","evaluation","28","4","12C,17C,23C,28C","20","11","0","","","","","","","","","","","","","","","",""
"","","","","","html-keyboard-response","191","461597","0.0-21.0-2.25","8076971d-2494-452c-8104-9b6adec121a1","null","<p style=""text-align: center;"">+</p>","null","fixation","","","","","","","","","","","","","","","","","","","","","",""
"","","","","","html-slider-response","192","462599","0.0-21.0-0.26","8076971d-2494-452c-8104-9b6adec121a1","1000","
                  <p style=""text-align: center;"">₪79
                                                <br>40%</p>
                  <p id=""wtp"" style=""text-align:center; margin-top: 0px; margin-bottom: 0px; font-size: 40px"";>&ensp;</p>","-","viewing","0","30","9B","","","","","","","","","","","","","","","","","","",""
"","","","","","html-slider-response","193","464566","0.0-21.0-1.26","8076971d-2494-452c-8104-9b6adec121a1","1965","
                  <p style=""text-align: center;"">₪79
                                                <br>40%</p>
                  <p id=""wtp"" style=""text-align:center; margin-top: 0px; margin-bottom: 0px; font-size: 40px"";>מוכנים לשלם: <span id=""c_p_y""></span></p>","30","evaluation","3","30","9B","40","79","30","","","","","","","","","","","","","","","",""
"","","","","","html-keyboard-response","194","466044","0.0-21.0-2.26","8076971d-2494-452c-8104-9b6adec121a1","null","<p style=""text-align: center;"">+</p>","null","fixation","","","","","","","","","","","","","","","","","","","","","",""
"","","","","","html-slider-response","195","467052","0.0-21.0-0.27","8076971d-2494-452c-8104-9b6adec121a1","1000","
                  <p style=""text-align: center;"">₪4
                                                <br>75%</p>
                  <p id=""wtp"" style=""text-align:center; margin-top: 0px; margin-bottom: 0px; font-size: 40px"";>&ensp;</p>","-","viewing","0","3","12B,20B,23B,27C,29C","","","","","","","","","","","","","","","","","","",""
"","","","","","html-slider-response","196","469878","0.0-21.0-1.27","8076971d-2494-452c-8104-9b6adec121a1","2824","
                  <p style=""text-align: center;"">₪4
                                                <br>75%</p>
                  <p id=""wtp"" style=""text-align:center; margin-top: 0px; margin-bottom: 0px; font-size: 40px"";>מוכנים לשלם: <span id=""c_p_y""></span></p>","7","evaluation","51","3","12B,20B,23B,27C,29C","75","4","7","","","","","","","","","","","","","","","",""
"","","","","","html-keyboard-response","197","470433","0.0-21.0-2.27","8076971d-2494-452c-8104-9b6adec121a1","null","<p style=""text-align: center;"">+</p>","null","fixation","","","","","","","","","","","","","","","","","","","","","",""
"","","","","","html-slider-response","198","471446","0.0-21.0-0.28","8076971d-2494-452c-8104-9b6adec121a1","1000","
                  <p style=""text-align: center;"">₪36
                                                <br>75%</p>
                  <p id=""wtp"" style=""text-align:center; margin-top: 0px; margin-bottom: 0px; font-size: 40px"";>&ensp;</p>","-","viewing","0","14","4B,5A,13B,16B","","","","","","","","","","","","","","","","","","",""
"","","","","","html-slider-response","199","475045","0.0-21.0-1.28","8076971d-2494-452c-8104-9b6adec121a1","3599","
                  <p style=""text-align: center;"">₪36
                                                <br>75%</p>
                  <p id=""wtp"" style=""text-align:center; margin-top: 0px; margin-bottom: 0px; font-size: 40px"";>מוכנים לשלם: <span id=""c_p_y""></span></p>","29","evaluation","69","14","4B,5A,13B,16B","75","36","29","","","","","","","","","","","","","","","",""
"","","","","","html-keyboard-response","200","475593","0.0-21.0-2.28","8076971d-2494-452c-8104-9b6adec121a1","null","<p style=""text-align: center;"">+</p>","null","fixation","","","","","","","","","","","","","","","","","","","","","",""
"","","","","","html-slider-response","201","476603","0.0-21.0-0.29","8076971d-2494-452c-8104-9b6adec121a1","1000","
                  <p style=""text-align: center;"">₪4
                                                <br>50%</p>
                  <p id=""wtp"" style=""text-align:center; margin-top: 0px; margin-bottom: 0px; font-size: 40px"";>&ensp;</p>","-","viewing","0","2","4C,17B","","","","","","","","","","","","","","","","","","",""
"","","","","","html-slider-response","202","479357","0.0-21.0-1.29","8076971d-2494-452c-8104-9b6adec121a1","2753","
                  <p style=""text-align: center;"">₪4
                                                <br>50%</p>
                  <p id=""wtp"" style=""text-align:center; margin-top: 0px; margin-bottom: 0px; font-size: 40px"";>מוכנים לשלם: <span id=""c_p_y""></span></p>","4","evaluation","29","2","4C,17B","50","4","4","","","","","","","","","","","","","","","",""
"","","","","","html-keyboard-response","203","480222","0.0-21.0-2.29","8076971d-2494-452c-8104-9b6adec121a1","null","<p style=""text-align: center;"">+</p>","null","fixation","","","","","","","","","","","","","","","","","","","","","",""
"","","","","","html-slider-response","204","481224","0.0-21.0-0.30","8076971d-2494-452c-8104-9b6adec121a1","1000","
                  <p style=""text-align: center;"">₪58
                                                <br>40%</p>
                  <p id=""wtp"" style=""text-align:center; margin-top: 0px; margin-bottom: 0px; font-size: 40px"";>&ensp;</p>","-","viewing","0","20","10C,13A,19C,21B","","","","","","","","","","","","","","","","","","",""
"","","","","","html-slider-response","205","484805","0.0-21.0-1.30","8076971d-2494-452c-8104-9b6adec121a1","3579","
                  <p style=""text-align: center;"">₪58
                                                <br>40%</p>
                  <p id=""wtp"" style=""text-align:center; margin-top: 0px; margin-bottom: 0px; font-size: 40px"";>מוכנים לשלם: <span id=""c_p_y""></span></p>","19","evaluation","58","20","10C,13A,19C,21B","40","58","19","","","","","","","","","","","","","","","",""
"","","","","","html-keyboard-response","206","485675","0.0-21.0-2.30","8076971d-2494-452c-8104-9b6adec121a1","null","<p style=""text-align: center;"">+</p>","null","fixation","","","","","","","","","","","","","","","","","","","","","",""
"","","","","","html-keyboard-response","207","486680","0.0-22.0","8076971d-2494-452c-8104-9b6adec121a1","null","<p style=""text-align: center;"">+</p>","null","fixation","","","","","","","","","","","","","","","","","","","","","",""
"","","","","","html-keyboard-response","208","491549","0.0-23.0","8076971d-2494-452c-8104-9b6adec121a1","null","<p>הפסקה.
          <br>לחצו כדי להמשיך.</p>","1","scan_wait","","","","","","","","","","","","","","","","","","","","","",""
"","","","","","html-keyboard-response","209","492552","0.0-24.0","8076971d-2494-452c-8104-9b6adec121a1","null","<p style=""text-align: center;"">+</p>","null","fixation","","","","","","","","","","","","","","","","","","","","","",""
"","","","","","html-slider-response","210","493554","0.0-25.0-0.0","8076971d-2494-452c-8104-9b6adec121a1","1000","
                  <p style=""text-align: center;"">₪4
                                                <br>75%</p>
                  <p id=""wtp"" style=""text-align:center; margin-top: 0px; margin-bottom: 0px; font-size: 40px"";>&ensp;</p>","-","viewing","0","3","12B,20B,23B,27C,29C","","","","","","","","","","","","","","","","","","",""
"","","","","","html-slider-response","211","495469","0.0-25.0-1.0","8076971d-2494-452c-8104-9b6adec121a1","1914","
                  <p style=""text-align: center;"">₪4
                                                <br>75%</p>
                  <p id=""wtp"" style=""text-align:center; margin-top: 0px; margin-bottom: 0px; font-size: 40px"";>מוכנים לשלם: <span id=""c_p_y""></span></p>","3","evaluation","5","3","12B,20B,23B,27C,29C","75","4","4","","","","","","","","","","","","","","","",""
"","","","","","html-keyboard-response","212","496414","0.0-25.0-2.0","8076971d-2494-452c-8104-9b6adec121a1","null","<p style=""text-align: center;"">+</p>","null","fixation","","","","","","","","","","","","","","","","","","","","","",""
"","","","","","html-slider-response","213","497425","0.0-25.0-0.1","8076971d-2494-452c-8104-9b6adec121a1","1000","
                  <p style=""text-align: center;"">₪11
                                                <br>20%</p>
                  <p id=""wtp"" style=""text-align:center; margin-top: 0px; margin-bottom: 0px; font-size: 40px"";>&ensp;</p>","-","viewing","0","4","12C,17C,23C,28C","","","","","","","","","","","","","","","","","","",""
"","","","","","html-slider-response","214","500068","0.0-25.0-1.1","8076971d-2494-452c-8104-9b6adec121a1","2642","
                  <p style=""text-align: center;"">₪11
                                                <br>20%</p>
                  <p id=""wtp"" style=""text-align:center; margin-top: 0px; margin-bottom: 0px; font-size: 40px"";>מוכנים לשלם: <span id=""c_p_y""></span></p>","1","evaluation","14","4","12C,17C,23C,28C","20","11","1","","","","","","","","","","","","","","","",""
"","","","","","html-keyboard-response","215","500846","0.0-25.0-2.1","8076971d-2494-452c-8104-9b6adec121a1","null","<p style=""text-align: center;"">+</p>","null","fixation","","","","","","","","","","","","","","","","","","","","","",""
"","","","","","html-slider-response","216","501851","0.0-25.0-0.2","8076971d-2494-452c-8104-9b6adec121a1","1000","
                  <p style=""text-align: center;"">₪11
                                                <br>45%</p>
                  <p id=""wtp"" style=""text-align:center; margin-top: 0px; margin-bottom: 0px; font-size: 40px"";>&ensp;</p>","-","viewing","0","6","14B,21C,25C","","","","","","","","","","","","","","","","","","",""
"","","","","","html-slider-response","217","505333","0.0-25.0-1.2","8076971d-2494-452c-8104-9b6adec121a1","3481","
                  <p style=""text-align: center;"">₪11
                                                <br>45%</p>
                  <p id=""wtp"" style=""text-align:center; margin-top: 0px; margin-bottom: 0px; font-size: 40px"";>מוכנים לשלם: <span id=""c_p_y""></span></p>","2","evaluation","13","6","14B,21C,25C","45","11","3","","","","","","","","","","","","","","","",""
"","","","","","html-keyboard-response","218","506315","0.0-25.0-2.2","8076971d-2494-452c-8104-9b6adec121a1","null","<p style=""text-align: center;"">+</p>","null","fixation","","","","","","","","","","","","","","","","","","","","","",""
"","","","","","html-slider-response","219","507320","0.0-25.0-0.3","8076971d-2494-452c-8104-9b6adec121a1","1000","
                  <p style=""text-align: center;"">₪36
                                                <br>60%</p>
                  <p id=""wtp"" style=""text-align:center; margin-top: 0px; margin-bottom: 0px; font-size: 40px"";>&ensp;</p>","-","viewing","0","12","1C,7C,15C","","","","","","","","","","","","","","","","","","",""
"","","","","","html-slider-response","220","511322","0.0-25.0-1.3","8076971d-2494-452c-8104-9b6adec121a1","null","
                  <p style=""text-align: center;"">₪36
                                                <br>60%</p>
                  <p id=""wtp"" style=""text-align:center; margin-top: 0px; margin-bottom: 0px; font-size: 40px"";>מוכנים לשלם: <span id=""c_p_y""></span></p>","null","evaluation","50","12","1C,7C,15C","60","36","46","","","","","","","","","","","","","","","",""
"","","","","","html-keyboard-response","221","512111","0.0-25.0-2.3","8076971d-2494-452c-8104-9b6adec121a1","null","<p style=""text-align: center;"">+</p>","null","fixation","","","","","","","","","","","","","","","","","","","","","",""
"","","","","","html-slider-response","222","513113","0.0-25.0-0.4","8076971d-2494-452c-8104-9b6adec121a1","1000","
                  <p style=""text-align: center;"">₪79
                                                <br>40%</p>
                  <p id=""wtp"" style=""text-align:center; margin-top: 0px; margin-bottom: 0px; font-size: 40px"";>&ensp;</p>","-","viewing","0","30","9B","","","","","","","","","","","","","","","","","","",""
"","","","","","html-slider-response","223","515389","0.0-25.0-1.4","8076971d-2494-452c-8104-9b6adec121a1","2274","
                  <p style=""text-align: center;"">₪79
                                                <br>40%</p>
                  <p id=""wtp"" style=""text-align:center; margin-top: 0px; margin-bottom: 0px; font-size: 40px"";>מוכנים לשלם: <span id=""c_p_y""></span></p>","23","evaluation","69","30","9B","40","79","23","","","","","","","","","","","","","","","",""
"","","","","","html-keyboard-response","224","516524","0.0-25.0-2.4","8076971d-2494-452c-8104-9b6adec121a1","null","<p style=""text-align: center;"">+</p>","null","fixation","","","","","","","","","","","","","","","","","","","","","",""
"","","","","","html-slider-response","225","517530","0.0-25.0-0.5","8076971d-2494-452c-8104-9b6adec121a1","1000","
                  <p style=""text-align: center;"">₪79
                                                <br>65%</p>
                  <p id=""wtp"" style=""text-align:center; margin-top: 0px; margin-bottom: 0px; font-size: 40px"";>&ensp;</p>","-","viewing","0","31","8A","","","","","","","","","","","","","","","","","","",""
"","","","","","html-slider-response","226","520701","0.0-25.0-1.5","8076971d-2494-452c-8104-9b6adec121a1","3169","
                  <p style=""text-align: center;"">₪79
                                                <br>65%</p>
                  <p id=""wtp"" style=""text-align:center; margin-top: 0px; margin-bottom: 0px; font-size: 40px"";>מוכנים לשלם: <span id=""c_p_y""></span></p>","49","evaluation","69","31","8A","65","79","49","","","","","","","","","","","","","","","",""
"","","","","","html-keyboard-response","227","521536","0.0-25.0-2.5","8076971d-2494-452c-8104-9b6adec121a1","null","<p style=""text-align: center;"">+</p>","null","fixation","","","","","","","","","","","","","","","","","","","","","",""
"","","","","","html-slider-response","228","522542","0.0-25.0-0.6","8076971d-2494-452c-8104-9b6adec121a1","1000","
                  <p style=""text-align: center;"">₪71
                                                <br>55%</p>
                  <p id=""wtp"" style=""text-align:center; margin-top: 0px; margin-bottom: 0px; font-size: 40px"";>&ensp;</p>","-","viewing","0","27","5B,18A","","","","","","","","","","","","","","","","","","",""
"","","","","","html-slider-response","229","526181","0.0-25.0-1.6","8076971d-2494-452c-8104-9b6adec121a1","3638","
                  <p style=""text-align: center;"">₪71
                                                <br>55%</p>
                  <p id=""wtp"" style=""text-align:center; margin-top: 0px; margin-bottom: 0px; font-size: 40px"";>מוכנים לשלם: <span id=""c_p_y""></span></p>","27","evaluation","57","27","5B,18A","55","71","27","","","","","","","","","","","","","","","",""
"","","","","","html-keyboard-response","230","526911","0.0-25.0-2.6","8076971d-2494-452c-8104-9b6adec121a1","null","<p style=""text-align: center;"">+</p>","null","fixation","","","","","","","","","","","","","","","","","","","","","",""
"","","","","","html-slider-response","231","527914","0.0-25.0-0.7","8076971d-2494-452c-8104-9b6adec121a1","1000","
                  <p style=""text-align: center;"">₪39
                                                <br>65%</p>
                  <p id=""wtp"" style=""text-align:center; margin-top: 0px; margin-bottom: 0px; font-size: 40px"";>&ensp;</p>","-","viewing","0","16","1A,15A,26C","","","","","","","","","","","","","","","","","","",""
"","","","","","html-slider-response","232","531788","0.0-25.0-1.7","8076971d-2494-452c-8104-9b6adec121a1","3873","
                  <p style=""text-align: center;"">₪39
                                                <br>65%</p>
                  <p id=""wtp"" style=""text-align:center; margin-top: 0px; margin-bottom: 0px; font-size: 40px"";>מוכנים לשלם: <span id=""c_p_y""></span></p>","30","evaluation","46","16","1A,15A,26C","65","39","30","","","","","","","","","","","","","","","",""
"","","","","","html-keyboard-response","233","533194","0.0-25.0-2.7","8076971d-2494-452c-8104-9b6adec121a1","null","<p style=""text-align: center;"">+</p>","null","fixation","","","","","","","","","","","","","","","","","","","","","",""
"","","","","","html-slider-response","234","534207","0.0-25.0-0.8","8076971d-2494-452c-8104-9b6adec121a1","1000","
                  <p style=""text-align: center;"">₪61
                                                <br>45%</p>
                  <p id=""wtp"" style=""text-align:center; margin-top: 0px; margin-bottom: 0px; font-size: 40px"";>&ensp;</p>","-","viewing","0","22","10A,11A","","","","","","","","","","","","","","","","","","",""
"","","","","","html-slider-response","235","538209","0.0-25.0-1.8","8076971d-2494-452c-8104-9b6adec121a1","null","
                  <p style=""text-align: center;"">₪61
                                                <br>45%</p>
                  <p id=""wtp"" style=""text-align:center; margin-top: 0px; margin-bottom: 0px; font-size: 40px"";>מוכנים לשלם: <span id=""c_p_y""></span></p>","null","evaluation","74","22","10A,11A","45","61","16","","","","","","","","","","","","","","","",""
"","","","","","html-keyboard-response","236","539693","0.0-25.0-2.8","8076971d-2494-452c-8104-9b6adec121a1","null","<p style=""text-align: center;"">+</p>","null","fixation","","","","","","","","","","","","","","","","","","","","","",""
"","","","","","html-slider-response","237","540703","0.0-25.0-0.9","8076971d-2494-452c-8104-9b6adec121a1","1000","
                  <p style=""text-align: center;"">₪64
                                                <br>25%</p>
                  <p id=""wtp"" style=""text-align:center; margin-top: 0px; margin-bottom: 0px; font-size: 40px"";>&ensp;</p>","-","viewing","0","24","6A,21A","","","","","","","","","","","","","","","","","","",""
"","","","","","html-slider-response","238","543053","0.0-25.0-1.9","8076971d-2494-452c-8104-9b6adec121a1","2350","
                  <p style=""text-align: center;"">₪64
                                                <br>25%</p>
                  <p id=""wtp"" style=""text-align:center; margin-top: 0px; margin-bottom: 0px; font-size: 40px"";>מוכנים לשלם: <span id=""c_p_y""></span></p>","0","evaluation","71","24","6A,21A","25","64","0","","","","","","","","","","","","","","","",""
"","","","","","html-keyboard-response","239","544231","0.0-25.0-2.9","8076971d-2494-452c-8104-9b6adec121a1","null","<p style=""text-align: center;"">+</p>","null","fixation","","","","","","","","","","","","","","","","","","","","","",""
"","","","","","html-slider-response","240","545238","0.0-25.0-0.10","8076971d-2494-452c-8104-9b6adec121a1","1000","
                  <p style=""text-align: center;"">₪71
                                                <br>75%</p>
                  <p id=""wtp"" style=""text-align:center; margin-top: 0px; margin-bottom: 0px; font-size: 40px"";>&ensp;</p>","-","viewing","0","28","8B","","","","","","","","","","","","","","","","","","",""
"","","","","","html-slider-response","241","548685","0.0-25.0-1.10","8076971d-2494-452c-8104-9b6adec121a1","3446","
                  <p style=""text-align: center;"">₪71
                                                <br>75%</p>
                  <p id=""wtp"" style=""text-align:center; margin-top: 0px; margin-bottom: 0px; font-size: 40px"";>מוכנים לשלם: <span id=""c_p_y""></span></p>","60","evaluation","30","28","8B","75","71","60","","","","","","","","","","","","","","","",""
"","","","","","html-keyboard-response","242","549239","0.0-25.0-2.10","8076971d-2494-452c-8104-9b6adec121a1","null","<p style=""text-align: center;"">+</p>","null","fixation","","","","","","","","","","","","","","","","","","","","","",""
"","","","","","html-slider-response","243","550241","0.0-25.0-0.11","8076971d-2494-452c-8104-9b6adec121a1","1000","
                  <p style=""text-align: center;"">₪76
                                                <br>65%</p>
                  <p id=""wtp"" style=""text-align:center; margin-top: 0px; margin-bottom: 0px; font-size: 40px"";>&ensp;</p>","-","viewing","0","29","8C,19A,24B","","","","","","","","","","","","","","","","","","",""
"","","","","","html-slider-response","244","553029","0.0-25.0-1.11","8076971d-2494-452c-8104-9b6adec121a1","2787","
                  <p style=""text-align: center;"">₪76
                                                <br>65%</p>
                  <p id=""wtp"" style=""text-align:center; margin-top: 0px; margin-bottom: 0px; font-size: 40px"";>מוכנים לשלם: <span id=""c_p_y""></span></p>","50","evaluation","25","29","8C,19A,24B","65","76","50","","","","","","","","","","","","","","","",""
"","","","","","html-keyboard-response","245","554518","0.0-25.0-2.11","8076971d-2494-452c-8104-9b6adec121a1","null","<p style=""text-align: center;"">+</p>","null","fixation","","","","","","","","","","","","","","","","","","","","","",""
"","","","","","html-slider-response","246","555526","0.0-25.0-0.12","8076971d-2494-452c-8104-9b6adec121a1","1000","
                  <p style=""text-align: center;"">₪36
                                                <br>75%</p>
                  <p id=""wtp"" style=""text-align:center; margin-top: 0px; margin-bottom: 0px; font-size: 40px"";>&ensp;</p>","-","viewing","0","14","4B,5A,13B,16B","","","","","","","","","","","","","","","","","","",""
"","","","","","html-slider-response","247","558525","0.0-25.0-1.12","8076971d-2494-452c-8104-9b6adec121a1","2999","
                  <p style=""text-align: center;"">₪36
                                                <br>75%</p>
                  <p id=""wtp"" style=""text-align:center; margin-top: 0px; margin-bottom: 0px; font-size: 40px"";>מוכנים לשלם: <span id=""c_p_y""></span></p>","20","evaluation","69","14","4B,5A,13B,16B","75","36","20","","","","","","","","","","","","","","","",""
"","","","","","html-keyboard-response","248","559723","0.0-25.0-2.12","8076971d-2494-452c-8104-9b6adec121a1","null","<p style=""text-align: center;"">+</p>","null","fixation","","","","","","","","","","","","","","","","","","","","","",""
"","","","","","html-slider-response","249","560739","0.0-25.0-0.13","8076971d-2494-452c-8104-9b6adec121a1","1000","
                  <p style=""text-align: center;"">₪39
                                                <br>60%</p>
                  <p id=""wtp"" style=""text-align:center; margin-top: 0px; margin-bottom: 0px; font-size: 40px"";>&ensp;</p>","-","viewing","0","15","9C,25B","","","","","","","","","","","","","","","","","","",""
"","","","","","html-slider-response","250","564638","0.0-25.0-1.13","8076971d-2494-452c-8104-9b6adec121a1","3897","
                  <p style=""text-align: center;"">₪39
                                                <br>60%</p>
                  <p id=""wtp"" style=""text-align:center; margin-top: 0px; margin-bottom: 0px; font-size: 40px"";>מוכנים לשלם: <span id=""c_p_y""></span></p>","22","evaluation","6","15","9C,25B","60","39","22","","","","","","","","","","","","","","","",""
