"success","timeout","failed_images","failed_audio","failed_video","trial_type","trial_index","time_elapsed","internal_node_id","subject_id","rt","stimulus","response","part","slider_start","ID","set_ID","prob","amount","last_location","actual_choice","actual_EV","binary_id","trinary_id","catch","A_key","D_key","choice_prob","choice_amount","potential_prize_prob","potential_prize_amount","won_prize","total_prize","accuracy"
"true","false","[]","[]","[]","preload","0","10","0.0-0.0","0e23e416-a1ce-4372-aa1d-a68695ae5df5","","","","","","","","","","","","","","","","","","","","","","","",""
"","","","","","html-keyboard-response","1","10901","0.0-1.0","0e23e416-a1ce-4372-aa1d-a68695ae5df5","null","
          <h1>שלום וברוכים הבאים!</h1>
          <p>לפניכם ניסוי בקבלת החלטות עם שני חלקים.
          <br><br>לחצו על העכבר כדי להמשיך.</p>","0","example","","","","","","","","","","","","","","","","","","","",""
"","","","","","html-keyboard-response","2","18005","0.0-2.0","0e23e416-a1ce-4372-aa1d-a68695ae5df5","null","
        <h1>חלק 1</h1>
        <p>בקרוב יוצגו בפניכם הגרלות.
        <br>עליכם לבחור את המחיר המירבי שתהיו מוכנים לשלם כדי להשתתף בהגרלה שתוצג.
        <br>יש לכם תקציב של ₪80 לכל הגרלה. 
        <br>נסו להעריך כל הגרלה בנפרד ולחשוב כמה היא שווה עבורכם, ₪80 זמינים לכל הגרלה בנפרד.
        <br><br>לחצו על העכבר כדי להמשיך.</p>","1","instructions","","","","","","","","","","","","","","","","","","","",""
"","","","","","html-keyboard-response","3","21028","0.0-3.0","0e23e416-a1ce-4372-aa1d-a68695ae5df5","null","
        <p>בסוף הניסוי, המחשב יבחר את אחת ההגרלות ויקבע מחיר לכרטיס עבורה. 
        <br>במידה והמחיר שבחרתם נמוך מהמחיר שנבחר על ידי המחשב, לא תשתתפו בהגרלה ותשארו עם מלוא התקציב.
        <br>במידה והמחיר שבחרתם גבוה מהמחיר שנבחר על ידי המחשב, תשלמו את המחיר שנקבע ותשתתפו בהגרלה.
        <br><br>לחצו על העכבר כדי להמשיך.</p>","1","instructions","","","","","","","","","","","","","","","","","","","",""
"","","","","","html-slider-response","4","27997","0.0-4.0","0e23e416-a1ce-4372-aa1d-a68695ae5df5","6864","
        <p style=""font-size: 42px;"">נתחיל עם דוגמא: 
        <br>ההגרלה מטה מציעה 65% סיכוי לזכות ב-₪40 
        <br>&emsp;&emsp;&emsp;&emsp;&emsp;&emsp;&emsp;&emsp;&ensp;35% סיכוי לזכות ב-₪0.
        <br><br>מה המחיר המירבי שתהיו מוכנים לשלם על כרטיס להגרלה זו בין 0 ל-₪80?
        <br>הזיזו את העכבר על פני המלבן ולחצו כדי לבצע בחירה.</p>
        
        <p style=""text-align: center;"">₪40<br>65%</p>

        <p id=""wtp"" style=""text-align:center; margin-top: 0px; margin-bottom: 0px; font-size: 40px"";>מוכנים לשלם: <span id=""c_p_y""></span></p>","22","example","13","","","","","","","","","","","","","","","","","","",""
"","","","","","html-keyboard-response","5","39821","0.0-5.0","0e23e416-a1ce-4372-aa1d-a68695ae5df5","null","<p>יפה מאוד!
                <br> בחרתם שתהיו מוכנים לשלם ₪22 כדי להשתתף בהגרלה:
                <br><p style=""text-align: center;"">₪40<br>65%</p>
                <p>נשמע נכון?
                <br>נניח שהגרלה זו נבחרה בסוף הניסוי.
                <br>כעת המחשב יקבע מחיר עבורה באקראי.
                <br>לחצו על העכבר להמשך.</p>","1","example","","","","","","","","","","","","","","","","","","","",""
"","","","","","html-keyboard-response","6","50389","0.0-6.0","0e23e416-a1ce-4372-aa1d-a68695ae5df5","null","<p>המחשב קבע מחיר: ₪66
                <br>ואתם בחרתם לשלם לכל היותר: ₪22
                <br><br>מכיוון שהמחיר שבחרתם נמוך מהמחיר שנקבע, לא תתשתתפו בהגרלה.
                <br>במקרה כזה, בסוף הניסוי תקבלו את כל התקציב ההתחלתי של ₪80.
                <br><br>לחצו על העכבר להמשך.</p>","1","example","","","","","","","","","","","","","","","","","","","",""
"","","","","","html-slider-response","7","69789","0.0-7.0","0e23e416-a1ce-4372-aa1d-a68695ae5df5","19134","<p style=""font-size: 42px;"">הנה עוד דוגמא:
                <br>ההגרלה מטה מציעה 35% סיכוי לזכות ב-₪18 
                <br>&emsp;&emsp;&emsp;&emsp;&emsp;&emsp;&emsp;&emsp;&ensp;65% סיכוי לזכות ב-₪0.</p>
        
                <p style=""text-align: center;"">₪18<br>35%</p>
                <p id=""wtp"" style=""text-align:center; margin-top: 0px; margin-bottom: 0px; font-size: 40px"";>מוכנים לשלם: <span id=""c_p_y""></span></p>","8","example","19","","","","","","","","","","","","","","","","","","",""
"","","","","","html-keyboard-response","8","72109","0.0-8.0","0e23e416-a1ce-4372-aa1d-a68695ae5df5","null","<p>הייתם מוכנים לשלם  ₪8 כדי להשתתף בהגרלה:
                <p style=""text-align: center;"">₪18<br>35%</p>
                <p>כעת נניח שהמחשב בחר את ההגרלה הזו בסוף הניסוי, וקבע עבורה מחיר.
                <br><br>לחצו על העכבר כדי להמשיך.</p>","1","instructions","","","","","","","","","","","","","","","","","","","",""
"","","","","","html-keyboard-response","9","75804","0.0-9.0","0e23e416-a1ce-4372-aa1d-a68695ae5df5","null","<p>המחשב קבע מחיר להגרלה: ₪3<br>ואתם בחרתם לשלם לכל היותר: ₪8
                <br><br>כעת המחיר שנקבע נמוך מזה שבחרתם, אז תשלמו את המחיר שקבע המחשב (₪3) ותשתתפו בהגרלה.
                <br>במקרה כזה, תסיימו את הניסוי עם תקציב של ₪77 ועם סיכוי לזכות ב-₪18 נוספים מההגרלה.
                <br>כלומר, תוכלו לקבל ₪77 אם לא תזכו בהגרלה, או ₪95 אם תזכו בהגרלה.
                <br><br>לחצו על העכבר להמשך.</p>","1","example","","","","","","","","","","","","","","","","","","","",""
"","","","","","html-keyboard-response","10","88036","0.0-10.0","0e23e416-a1ce-4372-aa1d-a68695ae5df5","null","<p>במהלך הניסוי, קודם תראו את ההגרלה ורק לאחר מכן תוכלו לבחור.
                <p>כמו כן, יהיו לכם מספר שניות מוגבל להגיב.
                <p>בואו ננסה זאת עם ההגרלה הקודמת.
                <br>לחצו על העכבר כדי להמשיך.</p>","1","instructions","","","","","","","","","","","","","","","","","","","",""
"","","","","","html-slider-response","11","89293","0.0-11.0","0e23e416-a1ce-4372-aa1d-a68695ae5df5","1000","
                    <p style=""text-align: center;"">₪18<br>35%</p>
                    <p id=""wtp"" style=""text-align:center; margin-top: 0px; margin-bottom: 0px; font-size: 40px"";>&ensp;</p>","13","instructions","0","","","","","","","","","","","","","","","","","","",""
"","","","","","html-slider-response","12","92861","0.0-12.0","0e23e416-a1ce-4372-aa1d-a68695ae5df5","3315","
                    <p style=""text-align: center;"">₪18<br>35%</p>
                    <p id=""wtp"" style=""text-align:center; margin-top: 0px; margin-bottom: 0px; font-size: 40px"";>מוכנים לשלם: <span id=""c_p_y""></span></p>","8","instructions","68","","","","","","","","","","","","","","","","","","",""
"","","","","","html-keyboard-response","13","96012","0.0-13.0","0e23e416-a1ce-4372-aa1d-a68695ae5df5","null","<p>יפה. הפעם בחרתם לשלם לכל היותר ₪8.
                <br><br>לחצו על העכבר כדי להמשיך.</p>","1","instructions","","","","","","","","","","","","","","","","","","","",""
"","","","","","html-keyboard-response","14","100901","0.0-15.0","0e23e416-a1ce-4372-aa1d-a68695ae5df5","null","<p>כעת נתחיל את הניסוי.
                <br><br>אתם תראו הגרלות ותתבקשו לבחור כמה תהיו מוכנים לשלם כדי להשתתף בהן.
                <br>יש לכם תקציב של ₪80 עבור כל הגרלה.
                <br>בסוף הניסוי הגרלה אחת תבחר באקראי ותשוחק.
                <br><br>לחצו על העכבר כדי להתחיל את הניסוי.</p>","1","instructions","","","","","","","","","","","","","","","","","","","",""
"","","","","","html-keyboard-response","15","102154","0.0-16.0","0e23e416-a1ce-4372-aa1d-a68695ae5df5","null","<p style=""text-align: center;"">+</p>","null","fixation","","","","","","","","","","","","","","","","","","","",""
"","","","","","html-slider-response","16","103174","0.0-17.0-0.0","0e23e416-a1ce-4372-aa1d-a68695ae5df5","1000","
                  <p style=""text-align: center;"">₪36
                                                <br>30%</p>
                  <p id=""wtp"" style=""text-align:center; margin-top: 0px; margin-bottom: 0px; font-size: 40px"";>&ensp;</p>","-","viewing","0","11","3C,20A,22A","","","","","","","","","","","","","","","","",""
"","","","","","html-slider-response","17","106821","0.0-17.0-1.0","0e23e416-a1ce-4372-aa1d-a68695ae5df5","3645","
                  <p style=""text-align: center;"">₪36
                                                <br>30%</p>
                  <p id=""wtp"" style=""text-align:center; margin-top: 0px; margin-bottom: 0px; font-size: 40px"";>מוכנים לשלם: <span id=""c_p_y""></span></p>","13","evaluation","74","11","3C,20A,22A","30","36","13","","","","","","","","","","","","","",""
"","","","","","html-keyboard-response","18","108266","0.0-17.0-2.0","0e23e416-a1ce-4372-aa1d-a68695ae5df5","null","<p style=""text-align: center;"">+</p>","null","fixation","","","","","","","","","","","","","","","","","","","",""
"","","","","","html-slider-response","19","109273","0.0-17.0-0.1","0e23e416-a1ce-4372-aa1d-a68695ae5df5","1000","
                  <p style=""text-align: center;"">₪71
                                                <br>55%</p>
                  <p id=""wtp"" style=""text-align:center; margin-top: 0px; margin-bottom: 0px; font-size: 40px"";>&ensp;</p>","-","viewing","0","27","5B,18A","","","","","","","","","","","","","","","","",""
"","","","","","html-slider-response","20","113276","0.0-17.0-1.1","0e23e416-a1ce-4372-aa1d-a68695ae5df5","null","
                  <p style=""text-align: center;"">₪71
                                                <br>55%</p>
                  <p id=""wtp"" style=""text-align:center; margin-top: 0px; margin-bottom: 0px; font-size: 40px"";>מוכנים לשלם: <span id=""c_p_y""></span></p>","null","evaluation","30","27","5B,18A","55","71","32","","","","","","","","","","","","","",""
"","","","","","html-keyboard-response","21","114299","0.0-17.0-2.1","0e23e416-a1ce-4372-aa1d-a68695ae5df5","null","<p style=""text-align: center;"">+</p>","null","fixation","","","","","","","","","","","","","","","","","","","",""
"","","","","","html-slider-response","22","115312","0.0-17.0-0.2","0e23e416-a1ce-4372-aa1d-a68695ae5df5","1000","
                  <p style=""text-align: center;"">₪36
                                                <br>60%</p>
                  <p id=""wtp"" style=""text-align:center; margin-top: 0px; margin-bottom: 0px; font-size: 40px"";>&ensp;</p>","-","viewing","0","12","1C,7C,15C","","","","","","","","","","","","","","","","",""
"","","","","","html-slider-response","23","117805","0.0-17.0-1.2","0e23e416-a1ce-4372-aa1d-a68695ae5df5","2492","
                  <p style=""text-align: center;"">₪36
                                                <br>60%</p>
                  <p id=""wtp"" style=""text-align:center; margin-top: 0px; margin-bottom: 0px; font-size: 40px"";>מוכנים לשלם: <span id=""c_p_y""></span></p>","18","evaluation","78","12","1C,7C,15C","60","36","18","","","","","","","","","","","","","",""
"","","","","","html-keyboard-response","24","118916","0.0-17.0-2.2","0e23e416-a1ce-4372-aa1d-a68695ae5df5","null","<p style=""text-align: center;"">+</p>","null","fixation","","","","","","","","","","","","","","","","","","","",""
"","","","","","html-slider-response","25","119923","0.0-17.0-0.3","0e23e416-a1ce-4372-aa1d-a68695ae5df5","1000","
                  <p style=""text-align: center;"">₪79
                                                <br>65%</p>
                  <p id=""wtp"" style=""text-align:center; margin-top: 0px; margin-bottom: 0px; font-size: 40px"";>&ensp;</p>","-","viewing","0","31","8A","","","","","","","","","","","","","","","","",""
"","","","","","html-slider-response","26","123925","0.0-17.0-1.3","0e23e416-a1ce-4372-aa1d-a68695ae5df5","null","
                  <p style=""text-align: center;"">₪79
                                                <br>65%</p>
                  <p id=""wtp"" style=""text-align:center; margin-top: 0px; margin-bottom: 0px; font-size: 40px"";>מוכנים לשלם: <span id=""c_p_y""></span></p>","null","evaluation","17","31","8A","65","79","44","","","","","","","","","","","","","",""
"","","","","","html-keyboard-response","27","125178","0.0-17.0-2.3","0e23e416-a1ce-4372-aa1d-a68695ae5df5","null","<p style=""text-align: center;"">+</p>","null","fixation","","","","","","","","","","","","","","","","","","","",""
"","","","","","html-slider-response","28","126191","0.0-17.0-0.4","0e23e416-a1ce-4372-aa1d-a68695ae5df5","1000","
                  <p style=""text-align: center;"">₪79
                                                <br>40%</p>
                  <p id=""wtp"" style=""text-align:center; margin-top: 0px; margin-bottom: 0px; font-size: 40px"";>&ensp;</p>","-","viewing","0","30","9B","","","","","","","","","","","","","","","","",""
"","","","","","html-slider-response","29","128421","0.0-17.0-1.4","0e23e416-a1ce-4372-aa1d-a68695ae5df5","2229","
                  <p style=""text-align: center;"">₪79
                                                <br>40%</p>
                  <p id=""wtp"" style=""text-align:center; margin-top: 0px; margin-bottom: 0px; font-size: 40px"";>מוכנים לשלם: <span id=""c_p_y""></span></p>","37","evaluation","14","30","9B","40","79","37","","","","","","","","","","","","","",""
"","","","","","html-keyboard-response","30","129130","0.0-17.0-2.4","0e23e416-a1ce-4372-aa1d-a68695ae5df5","null","<p style=""text-align: center;"">+</p>","null","fixation","","","","","","","","","","","","","","","","","","","",""
"","","","","","html-slider-response","31","130133","0.0-17.0-0.5","0e23e416-a1ce-4372-aa1d-a68695ae5df5","1000","
                  <p style=""text-align: center;"">₪39
                                                <br>65%</p>
                  <p id=""wtp"" style=""text-align:center; margin-top: 0px; margin-bottom: 0px; font-size: 40px"";>&ensp;</p>","-","viewing","0","16","1A,15A,26C","","","","","","","","","","","","","","","","",""
"","","","","","html-slider-response","32","133709","0.0-17.0-1.5","0e23e416-a1ce-4372-aa1d-a68695ae5df5","3573","
                  <p style=""text-align: center;"">₪39
                                                <br>65%</p>
                  <p id=""wtp"" style=""text-align:center; margin-top: 0px; margin-bottom: 0px; font-size: 40px"";>מוכנים לשלם: <span id=""c_p_y""></span></p>","16","evaluation","1","16","1A,15A,26C","65","39","16","","","","","","","","","","","","","",""
"","","","","","html-keyboard-response","33","134460","0.0-17.0-2.5","0e23e416-a1ce-4372-aa1d-a68695ae5df5","null","<p style=""text-align: center;"">+</p>","null","fixation","","","","","","","","","","","","","","","","","","","",""
"","","","","","html-slider-response","34","135477","0.0-17.0-0.6","0e23e416-a1ce-4372-aa1d-a68695ae5df5","1000","
                  <p style=""text-align: center;"">₪61
                                                <br>55%</p>
                  <p id=""wtp"" style=""text-align:center; margin-top: 0px; margin-bottom: 0px; font-size: 40px"";>&ensp;</p>","-","viewing","0","23","7B,26B","","","","","","","","","","","","","","","","",""
"","","","","","html-slider-response","35","138741","0.0-17.0-1.6","0e23e416-a1ce-4372-aa1d-a68695ae5df5","3263","
                  <p style=""text-align: center;"">₪61
                                                <br>55%</p>
                  <p id=""wtp"" style=""text-align:center; margin-top: 0px; margin-bottom: 0px; font-size: 40px"";>מוכנים לשלם: <span id=""c_p_y""></span></p>","30","evaluation","2","23","7B,26B","55","61","30","","","","","","","","","","","","","",""
"","","","","","html-keyboard-response","36","140111","0.0-17.0-2.6","0e23e416-a1ce-4372-aa1d-a68695ae5df5","null","<p style=""text-align: center;"">+</p>","null","fixation","","","","","","","","","","","","","","","","","","","",""
"","","","","","html-slider-response","37","141117","0.0-17.0-0.7","0e23e416-a1ce-4372-aa1d-a68695ae5df5","1000","
                  <p style=""text-align: center;"">₪58
                                                <br>45%</p>
                  <p id=""wtp"" style=""text-align:center; margin-top: 0px; margin-bottom: 0px; font-size: 40px"";>&ensp;</p>","-","viewing","0","21","11C,18C,25A","","","","","","","","","","","","","","","","",""
"","","","","","html-slider-response","38","144845","0.0-17.0-1.7","0e23e416-a1ce-4372-aa1d-a68695ae5df5","3727","
                  <p style=""text-align: center;"">₪58
                                                <br>45%</p>
                  <p id=""wtp"" style=""text-align:center; margin-top: 0px; margin-bottom: 0px; font-size: 40px"";>מוכנים לשלם: <span id=""c_p_y""></span></p>","28","evaluation","61","21","11C,18C,25A","45","58","28","","","","","","","","","","","","","",""
"","","","","","html-keyboard-response","39","146239","0.0-17.0-2.7","0e23e416-a1ce-4372-aa1d-a68695ae5df5","null","<p style=""text-align: center;"">+</p>","null","fixation","","","","","","","","","","","","","","","","","","","",""
"","","","","","html-slider-response","40","147257","0.0-17.0-0.8","0e23e416-a1ce-4372-aa1d-a68695ae5df5","1000","
                  <p style=""text-align: center;"">₪58
                                                <br>40%</p>
                  <p id=""wtp"" style=""text-align:center; margin-top: 0px; margin-bottom: 0px; font-size: 40px"";>&ensp;</p>","-","viewing","0","20","10C,13A,19C,21B","","","","","","","","","","","","","","","","",""
"","","","","","html-slider-response","41","149965","0.0-17.0-1.8","0e23e416-a1ce-4372-aa1d-a68695ae5df5","2707","
                  <p style=""text-align: center;"">₪58
                                                <br>40%</p>
                  <p id=""wtp"" style=""text-align:center; margin-top: 0px; margin-bottom: 0px; font-size: 40px"";>מוכנים לשלם: <span id=""c_p_y""></span></p>","24","evaluation","14","20","10C,13A,19C,21B","40","58","24","","","","","","","","","","","","","",""
"","","","","","html-keyboard-response","42","151261","0.0-17.0-2.8","0e23e416-a1ce-4372-aa1d-a68695ae5df5","null","<p style=""text-align: center;"">+</p>","null","fixation","","","","","","","","","","","","","","","","","","","",""
"","","","","","html-slider-response","43","152277","0.0-17.0-0.9","0e23e416-a1ce-4372-aa1d-a68695ae5df5","1000","
                  <p style=""text-align: center;"">₪58
                                                <br>30%</p>
                  <p id=""wtp"" style=""text-align:center; margin-top: 0px; margin-bottom: 0px; font-size: 40px"";>&ensp;</p>","-","viewing","0","19","13C,30A","","","","","","","","","","","","","","","","",""
"","","","","","html-slider-response","44","155797","0.0-17.0-1.9","0e23e416-a1ce-4372-aa1d-a68695ae5df5","3518","
                  <p style=""text-align: center;"">₪58
                                                <br>30%</p>
                  <p id=""wtp"" style=""text-align:center; margin-top: 0px; margin-bottom: 0px; font-size: 40px"";>מוכנים לשלם: <span id=""c_p_y""></span></p>","18","evaluation","36","19","13C,30A","30","58","18","","","","","","","","","","","","","",""
"","","","","","html-keyboard-response","45","157039","0.0-17.0-2.9","0e23e416-a1ce-4372-aa1d-a68695ae5df5","null","<p style=""text-align: center;"">+</p>","null","fixation","","","","","","","","","","","","","","","","","","","",""
"","","","","","html-slider-response","46","158049","0.0-17.0-0.10","0e23e416-a1ce-4372-aa1d-a68695ae5df5","1000","
                  <p style=""text-align: center;"">₪43
                                                <br>75%</p>
                  <p id=""wtp"" style=""text-align:center; margin-top: 0px; margin-bottom: 0px; font-size: 40px"";>&ensp;</p>","-","viewing","0","18","11B,19B,24A,26A","","","","","","","","","","","","","","","","",""
"","","","","","html-slider-response","47","161941","0.0-17.0-1.10","0e23e416-a1ce-4372-aa1d-a68695ae5df5","3891","
                  <p style=""text-align: center;"">₪43
                                                <br>75%</p>
                  <p id=""wtp"" style=""text-align:center; margin-top: 0px; margin-bottom: 0px; font-size: 40px"";>מוכנים לשלם: <span id=""c_p_y""></span></p>","24","evaluation","23","18","11B,19B,24A,26A","75","43","24","","","","","","","","","","","","","",""
"","","","","","html-keyboard-response","48","162990","0.0-17.0-2.10","0e23e416-a1ce-4372-aa1d-a68695ae5df5","null","<p style=""text-align: center;"">+</p>","null","fixation","","","","","","","","","","","","","","","","","","","",""
"","","","","","html-slider-response","49","163998","0.0-17.0-0.11","0e23e416-a1ce-4372-aa1d-a68695ae5df5","1000","
                  <p style=""text-align: center;"">₪4
                                                <br>50%</p>
                  <p id=""wtp"" style=""text-align:center; margin-top: 0px; margin-bottom: 0px; font-size: 40px"";>&ensp;</p>","-","viewing","0","2","4C,17B","","","","","","","","","","","","","","","","",""
"","","","","","html-slider-response","50","166421","0.0-17.0-1.11","0e23e416-a1ce-4372-aa1d-a68695ae5df5","2422","
                  <p style=""text-align: center;"">₪4
                                                <br>50%</p>
                  <p id=""wtp"" style=""text-align:center; margin-top: 0px; margin-bottom: 0px; font-size: 40px"";>מוכנים לשלם: <span id=""c_p_y""></span></p>","2","evaluation","53","2","4C,17B","50","4","2","","","","","","","","","","","","","",""
"","","","","","html-keyboard-response","51","167313","0.0-17.0-2.11","0e23e416-a1ce-4372-aa1d-a68695ae5df5","null","<p style=""text-align: center;"">+</p>","null","fixation","","","","","","","","","","","","","","","","","","","",""
"","","","","","html-slider-response","52","168330","0.0-17.0-0.12","0e23e416-a1ce-4372-aa1d-a68695ae5df5","1000","
                  <p style=""text-align: center;"">₪43
                                                <br>60%</p>
                  <p id=""wtp"" style=""text-align:center; margin-top: 0px; margin-bottom: 0px; font-size: 40px"";>&ensp;</p>","-","viewing","0","17","2A,7A,9A,15B","","","","","","","","","","","","","","","","",""
"","","","","","html-slider-response","53","170901","0.0-17.0-1.12","0e23e416-a1ce-4372-aa1d-a68695ae5df5","2570","
                  <p style=""text-align: center;"">₪43
                                                <br>60%</p>
                  <p id=""wtp"" style=""text-align:center; margin-top: 0px; margin-bottom: 0px; font-size: 40px"";>מוכנים לשלם: <span id=""c_p_y""></span></p>","22","evaluation","66","17","2A,7A,9A,15B","60","43","22","","","","","","","","","","","","","",""
"","","","","","html-keyboard-response","54","171704","0.0-17.0-2.12","0e23e416-a1ce-4372-aa1d-a68695ae5df5","null","<p style=""text-align: center;"">+</p>","null","fixation","","","","","","","","","","","","","","","","","","","",""
"","","","","","html-slider-response","55","172718","0.0-17.0-0.13","0e23e416-a1ce-4372-aa1d-a68695ae5df5","1000","
                  <p style=""text-align: center;"">₪16
                                                <br>20%</p>
                  <p id=""wtp"" style=""text-align:center; margin-top: 0px; margin-bottom: 0px; font-size: 40px"";>&ensp;</p>","-","viewing","0","8","14C,17A,20C,27A","","","","","","","","","","","","","","","","",""
"","","","","","html-slider-response","56","175134","0.0-17.0-1.13","0e23e416-a1ce-4372-aa1d-a68695ae5df5","2415","
                  <p style=""text-align: center;"">₪16
                                                <br>20%</p>
                  <p id=""wtp"" style=""text-align:center; margin-top: 0px; margin-bottom: 0px; font-size: 40px"";>מוכנים לשלם: <span id=""c_p_y""></span></p>","3","evaluation","69","8","14C,17A,20C,27A","20","16","4","","","","","","","","","","","","","",""
"","","","","","html-keyboard-response","57","175823","0.0-17.0-2.13","0e23e416-a1ce-4372-aa1d-a68695ae5df5","null","<p style=""text-align: center;"">+</p>","null","fixation","","","","","","","","","","","","","","","","","","","",""
"","","","","","html-slider-response","58","176838","0.0-17.0-0.14","0e23e416-a1ce-4372-aa1d-a68695ae5df5","1000","
                  <p style=""text-align: center;"">₪11
                                                <br>20%</p>
                  <p id=""wtp"" style=""text-align:center; margin-top: 0px; margin-bottom: 0px; font-size: 40px"";>&ensp;</p>","-","viewing","0","4","12C,17C,23C,28C","","","","","","","","","","","","","","","","",""
"","","","","","html-slider-response","59","180101","0.0-17.0-1.14","0e23e416-a1ce-4372-aa1d-a68695ae5df5","3263","
                  <p style=""text-align: center;"">₪11
                                                <br>20%</p>
                  <p id=""wtp"" style=""text-align:center; margin-top: 0px; margin-bottom: 0px; font-size: 40px"";>מוכנים לשלם: <span id=""c_p_y""></span></p>","3","evaluation","65","4","12C,17C,23C,28C","20","11","3","","","","","","","","","","","","","",""
"","","","","","html-keyboard-response","60","181595","0.0-17.0-2.14","0e23e416-a1ce-4372-aa1d-a68695ae5df5","null","<p style=""text-align: center;"">+</p>","null","fixation","","","","","","","","","","","","","","","","","","","",""
"","","","","","html-slider-response","61","182601","0.0-17.0-0.15","0e23e416-a1ce-4372-aa1d-a68695ae5df5","1000","
                  <p style=""text-align: center;"">₪71
                                                <br>45%</p>
                  <p id=""wtp"" style=""text-align:center; margin-top: 0px; margin-bottom: 0px; font-size: 40px"";>&ensp;</p>","-","viewing","0","26","2B,16A","","","","","","","","","","","","","","","","",""
"","","","","","html-slider-response","62","185877","0.0-17.0-1.15","0e23e416-a1ce-4372-aa1d-a68695ae5df5","3275","
                  <p style=""text-align: center;"">₪71
                                                <br>45%</p>
                  <p id=""wtp"" style=""text-align:center; margin-top: 0px; margin-bottom: 0px; font-size: 40px"";>מוכנים לשלם: <span id=""c_p_y""></span></p>","30","evaluation","11","26","2B,16A","45","71","30","","","","","","","","","","","","","",""
"","","","","","html-keyboard-response","63","186447","0.0-17.0-2.15","0e23e416-a1ce-4372-aa1d-a68695ae5df5","null","<p style=""text-align: center;"">+</p>","null","fixation","","","","","","","","","","","","","","","","","","","",""
"","","","","","html-slider-response","64","187456","0.0-17.0-0.16","0e23e416-a1ce-4372-aa1d-a68695ae5df5","1000","
                  <p style=""text-align: center;"">₪11
                                                <br>45%</p>
                  <p id=""wtp"" style=""text-align:center; margin-top: 0px; margin-bottom: 0px; font-size: 40px"";>&ensp;</p>","-","viewing","0","6","14B,21C,25C","","","","","","","","","","","","","","","","",""
"","","","","","html-slider-response","65","191277","0.0-17.0-1.16","0e23e416-a1ce-4372-aa1d-a68695ae5df5","3820","
                  <p style=""text-align: center;"">₪11
                                                <br>45%</p>
                  <p id=""wtp"" style=""text-align:center; margin-top: 0px; margin-bottom: 0px; font-size: 40px"";>מוכנים לשלם: <span id=""c_p_y""></span></p>","3","evaluation","13","6","14B,21C,25C","45","11","4","","","","","","","","","","","","","",""
"","","","","","html-keyboard-response","66","192510","0.0-17.0-2.16","0e23e416-a1ce-4372-aa1d-a68695ae5df5","null","<p style=""text-align: center;"">+</p>","null","fixation","","","","","","","","","","","","","","","","","","","",""
"","","","","","html-slider-response","67","193513","0.0-17.0-0.17","0e23e416-a1ce-4372-aa1d-a68695ae5df5","1000","
                  <p style=""text-align: center;"">₪11
                                                <br>75%</p>
                  <p id=""wtp"" style=""text-align:center; margin-top: 0px; margin-bottom: 0px; font-size: 40px"";>&ensp;</p>","-","viewing","0","7","6B,18B,22C,24C,29A","","","","","","","","","","","","","","","","",""
"","","","","","html-slider-response","68","196949","0.0-17.0-1.17","0e23e416-a1ce-4372-aa1d-a68695ae5df5","3434","
                  <p style=""text-align: center;"">₪11
                                                <br>75%</p>
                  <p id=""wtp"" style=""text-align:center; margin-top: 0px; margin-bottom: 0px; font-size: 40px"";>מוכנים לשלם: <span id=""c_p_y""></span></p>","7","evaluation","5","7","6B,18B,22C,24C,29A","75","11","7","","","","","","","","","","","","","",""
"","","","","","html-keyboard-response","69","198345","0.0-17.0-2.17","0e23e416-a1ce-4372-aa1d-a68695ae5df5","null","<p style=""text-align: center;"">+</p>","null","fixation","","","","","","","","","","","","","","","","","","","",""
"","","","","","html-slider-response","70","199347","0.0-17.0-0.18","0e23e416-a1ce-4372-aa1d-a68695ae5df5","1000","
                  <p style=""text-align: center;"">₪61
                                                <br>45%</p>
                  <p id=""wtp"" style=""text-align:center; margin-top: 0px; margin-bottom: 0px; font-size: 40px"";>&ensp;</p>","-","viewing","0","22","10A,11A","","","","","","","","","","","","","","","","",""
"","","","","","html-slider-response","71","203069","0.0-17.0-1.18","0e23e416-a1ce-4372-aa1d-a68695ae5df5","3721","
                  <p style=""text-align: center;"">₪61
                                                <br>45%</p>
                  <p id=""wtp"" style=""text-align:center; margin-top: 0px; margin-bottom: 0px; font-size: 40px"";>מוכנים לשלם: <span id=""c_p_y""></span></p>","26","evaluation","45","22","10A,11A","45","61","26","","","","","","","","","","","","","",""
"","","","","","html-keyboard-response","72","204455","0.0-17.0-2.18","0e23e416-a1ce-4372-aa1d-a68695ae5df5","null","<p style=""text-align: center;"">+</p>","null","fixation","","","","","","","","","","","","","","","","","","","",""
"","","","","","html-slider-response","73","205463","0.0-17.0-0.19","0e23e416-a1ce-4372-aa1d-a68695ae5df5","1000","
                  <p style=""text-align: center;"">₪18
                                                <br>25%</p>
                  <p id=""wtp"" style=""text-align:center; margin-top: 0px; margin-bottom: 0px; font-size: 40px"";>&ensp;</p>","-","viewing","0","9","14A,23A","","","","","","","","","","","","","","","","",""
"","","","","","html-slider-response","74","209237","0.0-17.0-1.19","0e23e416-a1ce-4372-aa1d-a68695ae5df5","3774","
                  <p style=""text-align: center;"">₪18
                                                <br>25%</p>
                  <p id=""wtp"" style=""text-align:center; margin-top: 0px; margin-bottom: 0px; font-size: 40px"";>מוכנים לשלם: <span id=""c_p_y""></span></p>","4","evaluation","48","9","14A,23A","25","18","4","","","","","","","","","","","","","",""
"","","","","","html-keyboard-response","75","210499","0.0-17.0-2.19","0e23e416-a1ce-4372-aa1d-a68695ae5df5","null","<p style=""text-align: center;"">+</p>","null","fixation","","","","","","","","","","","","","","","","","","","",""
"","","","","","html-slider-response","76","211502","0.0-17.0-0.20","0e23e416-a1ce-4372-aa1d-a68695ae5df5","1000","
                  <p style=""text-align: center;"">₪71
                                                <br>75%</p>
                  <p id=""wtp"" style=""text-align:center; margin-top: 0px; margin-bottom: 0px; font-size: 40px"";>&ensp;</p>","-","viewing","0","28","8B","","","","","","","","","","","","","","","","",""
"","","","","","html-slider-response","77","214893","0.0-17.0-1.20","0e23e416-a1ce-4372-aa1d-a68695ae5df5","3390","
                  <p style=""text-align: center;"">₪71
                                                <br>75%</p>
                  <p id=""wtp"" style=""text-align:center; margin-top: 0px; margin-bottom: 0px; font-size: 40px"";>מוכנים לשלם: <span id=""c_p_y""></span></p>","50","evaluation","51","28","8B","75","71","50","","","","","","","","","","","","","",""
"","","","","","html-keyboard-response","78","215948","0.0-17.0-2.20","0e23e416-a1ce-4372-aa1d-a68695ae5df5","null","<p style=""text-align: center;"">+</p>","null","fixation","","","","","","","","","","","","","","","","","","","",""
"","","","","","html-slider-response","79","216964","0.0-17.0-0.21","0e23e416-a1ce-4372-aa1d-a68695ae5df5","1000","
                  <p style=""text-align: center;"">₪64
                                                <br>50%</p>
                  <p id=""wtp"" style=""text-align:center; margin-top: 0px; margin-bottom: 0px; font-size: 40px"";>&ensp;</p>","-","viewing","0","25","1B,3B,4A","","","","","","","","","","","","","","","","",""
"","","","","","html-slider-response","80","219229","0.0-17.0-1.21","0e23e416-a1ce-4372-aa1d-a68695ae5df5","2264","
                  <p style=""text-align: center;"">₪64
                                                <br>50%</p>
                  <p id=""wtp"" style=""text-align:center; margin-top: 0px; margin-bottom: 0px; font-size: 40px"";>מוכנים לשלם: <span id=""c_p_y""></span></p>","32","evaluation","56","25","1B,3B,4A","50","64","32","","","","","","","","","","","","","",""
"","","","","","html-keyboard-response","81","220076","0.0-17.0-2.21","0e23e416-a1ce-4372-aa1d-a68695ae5df5","null","<p style=""text-align: center;"">+</p>","null","fixation","","","","","","","","","","","","","","","","","","","",""
"","","","","","html-slider-response","82","221078","0.0-17.0-0.22","0e23e416-a1ce-4372-aa1d-a68695ae5df5","1000","
                  <p style=""text-align: center;"">₪36
                                                <br>75%</p>
                  <p id=""wtp"" style=""text-align:center; margin-top: 0px; margin-bottom: 0px; font-size: 40px"";>&ensp;</p>","-","viewing","0","14","4B,5A,13B,16B","","","","","","","","","","","","","","","","",""
"","","","","","html-slider-response","83","225081","0.0-17.0-1.22","0e23e416-a1ce-4372-aa1d-a68695ae5df5","null","
                  <p style=""text-align: center;"">₪36
                                                <br>75%</p>
                  <p id=""wtp"" style=""text-align:center; margin-top: 0px; margin-bottom: 0px; font-size: 40px"";>מוכנים לשלם: <span id=""c_p_y""></span></p>","null","evaluation","26","14","4B,5A,13B,16B","75","36","26","","","","","","","","","","","","","",""
"","","","","","html-keyboard-response","84","226113","0.0-17.0-2.22","0e23e416-a1ce-4372-aa1d-a68695ae5df5","null","<p style=""text-align: center;"">+</p>","null","fixation","","","","","","","","","","","","","","","","","","","",""
"","","","","","html-slider-response","85","227126","0.0-17.0-0.23","0e23e416-a1ce-4372-aa1d-a68695ae5df5","1000","
                  <p style=""text-align: center;"">₪64
                                                <br>25%</p>
                  <p id=""wtp"" style=""text-align:center; margin-top: 0px; margin-bottom: 0px; font-size: 40px"";>&ensp;</p>","-","viewing","0","24","6A,21A","","","","","","","","","","","","","","","","",""
"","","","","","html-slider-response","86","230421","0.0-17.0-1.23","0e23e416-a1ce-4372-aa1d-a68695ae5df5","3294","
                  <p style=""text-align: center;"">₪64
                                                <br>25%</p>
                  <p id=""wtp"" style=""text-align:center; margin-top: 0px; margin-bottom: 0px; font-size: 40px"";>מוכנים לשלם: <span id=""c_p_y""></span></p>","12","evaluation","3","24","6A,21A","25","64","12","","","","","","","","","","","","","",""
"","","","","","html-keyboard-response","87","231470","0.0-17.0-2.23","0e23e416-a1ce-4372-aa1d-a68695ae5df5","null","<p style=""text-align: center;"">+</p>","null","fixation","","","","","","","","","","","","","","","","","","","",""
"","","","","","html-slider-response","88","232477","0.0-17.0-0.24","0e23e416-a1ce-4372-aa1d-a68695ae5df5","1000","
                  <p style=""text-align: center;"">₪4
                                                <br>25%</p>
                  <p id=""wtp"" style=""text-align:center; margin-top: 0px; margin-bottom: 0px; font-size: 40px"";>&ensp;</p>","-","viewing","0","1","6C,29B,30C","","","","","","","","","","","","","","","","",""
"","","","","","html-slider-response","89","235685","0.0-17.0-1.24","0e23e416-a1ce-4372-aa1d-a68695ae5df5","3207","
                  <p style=""text-align: center;"">₪4
                                                <br>25%</p>
                  <p id=""wtp"" style=""text-align:center; margin-top: 0px; margin-bottom: 0px; font-size: 40px"";>מוכנים לשלם: <span id=""c_p_y""></span></p>","2","evaluation","11","1","6C,29B,30C","25","4","2","","","","","","","","","","","","","",""
"","","","","","html-keyboard-response","90","236681","0.0-17.0-2.24","0e23e416-a1ce-4372-aa1d-a68695ae5df5","null","<p style=""text-align: center;"">+</p>","null","fixation","","","","","","","","","","","","","","","","","","","",""
"","","","","","html-slider-response","91","237684","0.0-17.0-0.25","0e23e416-a1ce-4372-aa1d-a68695ae5df5","1000","
                  <p style=""text-align: center;"">₪11
                                                <br>25%</p>
                  <p id=""wtp"" style=""text-align:center; margin-top: 0px; margin-bottom: 0px; font-size: 40px"";>&ensp;</p>","-","viewing","0","5","12A,27B,28B,30B","","","","","","","","","","","","","","","","",""
"","","","","","html-slider-response","92","241697","0.0-17.0-1.25","0e23e416-a1ce-4372-aa1d-a68695ae5df5","null","
                  <p style=""text-align: center;"">₪11
                                                <br>25%</p>
                  <p id=""wtp"" style=""text-align:center; margin-top: 0px; margin-bottom: 0px; font-size: 40px"";>מוכנים לשלם: <span id=""c_p_y""></span></p>","null","evaluation","44","5","12A,27B,28B,30B","25","11","4","","","","","","","","","","","","","",""
"","","","","","html-keyboard-response","93","242664","0.0-17.0-2.25","0e23e416-a1ce-4372-aa1d-a68695ae5df5","null","<p style=""text-align: center;"">+</p>","null","fixation","","","","","","","","","","","","","","","","","","","",""
"","","","","","html-slider-response","94","243678","0.0-17.0-0.26","0e23e416-a1ce-4372-aa1d-a68695ae5df5","1000","
                  <p style=""text-align: center;"">₪4
                                                <br>75%</p>
                  <p id=""wtp"" style=""text-align:center; margin-top: 0px; margin-bottom: 0px; font-size: 40px"";>&ensp;</p>","-","viewing","0","3","12B,20B,23B,27C,29C","","","","","","","","","","","","","","","","",""
"","","","","","html-slider-response","95","245661","0.0-17.0-1.26","0e23e416-a1ce-4372-aa1d-a68695ae5df5","1983","
                  <p style=""text-align: center;"">₪4
                                                <br>75%</p>
                  <p id=""wtp"" style=""text-align:center; margin-top: 0px; margin-bottom: 0px; font-size: 40px"";>מוכנים לשלם: <span id=""c_p_y""></span></p>","2","evaluation","16","3","12B,20B,23B,27C,29C","75","4","3","","","","","","","","","","","","","",""
"","","","","","html-keyboard-response","96","246706","0.0-17.0-2.26","0e23e416-a1ce-4372-aa1d-a68695ae5df5","null","<p style=""text-align: center;"">+</p>","null","fixation","","","","","","","","","","","","","","","","","","","",""
"","","","","","html-slider-response","97","247712","0.0-17.0-0.27","0e23e416-a1ce-4372-aa1d-a68695ae5df5","1000","
                  <p style=""text-align: center;"">₪36
                                                <br>70%</p>
                  <p id=""wtp"" style=""text-align:center; margin-top: 0px; margin-bottom: 0px; font-size: 40px"";>&ensp;</p>","-","viewing","0","13","3A,5C,10B","","","","","","","","","","","","","","","","",""
"","","","","","html-slider-response","98","250837","0.0-17.0-1.27","0e23e416-a1ce-4372-aa1d-a68695ae5df5","3123","
                  <p style=""text-align: center;"">₪36
                                                <br>70%</p>
                  <p id=""wtp"" style=""text-align:center; margin-top: 0px; margin-bottom: 0px; font-size: 40px"";>מוכנים לשלם: <span id=""c_p_y""></span></p>","23","evaluation","55","13","3A,5C,10B","70","36","23","","","","","","","","","","","","","",""
"","","","","","html-keyboard-response","99","251729","0.0-17.0-2.27","0e23e416-a1ce-4372-aa1d-a68695ae5df5","null","<p style=""text-align: center;"">+</p>","null","fixation","","","","","","","","","","","","","","","","","","","",""
"","","","","","html-slider-response","100","252742","0.0-17.0-0.28","0e23e416-a1ce-4372-aa1d-a68695ae5df5","1000","
                  <p style=""text-align: center;"">₪18
                                                <br>50%</p>
                  <p id=""wtp"" style=""text-align:center; margin-top: 0px; margin-bottom: 0px; font-size: 40px"";>&ensp;</p>","-","viewing","0","10","2C,16C,22B,28A","","","","","","","","","","","","","","","","",""
"","","","","","html-slider-response","101","256741","0.0-17.0-1.28","0e23e416-a1ce-4372-aa1d-a68695ae5df5","3998","
                  <p style=""text-align: center;"">₪18
                                                <br>50%</p>
                  <p id=""wtp"" style=""text-align:center; margin-top: 0px; margin-bottom: 0px; font-size: 40px"";>מוכנים לשלם: <span id=""c_p_y""></span></p>","8","evaluation","45","10","2C,16C,22B,28A","50","18","8","","","","","","","","","","","","","",""
"","","","","","html-keyboard-response","102","258032","0.0-17.0-2.28","0e23e416-a1ce-4372-aa1d-a68695ae5df5","null","<p style=""text-align: center;"">+</p>","null","fixation","","","","","","","","","","","","","","","","","","","",""
"","","","","","html-slider-response","103","259034","0.0-17.0-0.29","0e23e416-a1ce-4372-aa1d-a68695ae5df5","1000","
                  <p style=""text-align: center;"">₪76
                                                <br>65%</p>
                  <p id=""wtp"" style=""text-align:center; margin-top: 0px; margin-bottom: 0px; font-size: 40px"";>&ensp;</p>","-","viewing","0","29","8C,19A,24B","","","","","","","","","","","","","","","","",""
"","","","","","html-slider-response","104","263046","0.0-17.0-1.29","0e23e416-a1ce-4372-aa1d-a68695ae5df5","null","
                  <p style=""text-align: center;"">₪76
                                                <br>65%</p>
                  <p id=""wtp"" style=""text-align:center; margin-top: 0px; margin-bottom: 0px; font-size: 40px"";>מוכנים לשלם: <span id=""c_p_y""></span></p>","null","evaluation","16","29","8C,19A,24B","65","76","34","","","","","","","","","","","","","",""
"","","","","","html-keyboard-response","105","263874","0.0-17.0-2.29","0e23e416-a1ce-4372-aa1d-a68695ae5df5","null","<p style=""text-align: center;"">+</p>","null","fixation","","","","","","","","","","","","","","","","","","","",""
"","","","","","html-slider-response","106","264877","0.0-17.0-0.30","0e23e416-a1ce-4372-aa1d-a68695ae5df5","1000","
                  <p style=""text-align: center;"">₪39
                                                <br>60%</p>
                  <p id=""wtp"" style=""text-align:center; margin-top: 0px; margin-bottom: 0px; font-size: 40px"";>&ensp;</p>","-","viewing","0","15","9C,25B","","","","","","","","","","","","","","","","",""
"","","","","","html-slider-response","107","267549","0.0-17.0-1.30","0e23e416-a1ce-4372-aa1d-a68695ae5df5","2671","
                  <p style=""text-align: center;"">₪39
                                                <br>60%</p>
                  <p id=""wtp"" style=""text-align:center; margin-top: 0px; margin-bottom: 0px; font-size: 40px"";>מוכנים לשלם: <span id=""c_p_y""></span></p>","23","evaluation","46","15","9C,25B","60","39","23","","","","","","","","","","","","","",""
"","","","","","html-keyboard-response","108","268160","0.0-17.0-2.30","0e23e416-a1ce-4372-aa1d-a68695ae5df5","null","<p style=""text-align: center;"">+</p>","null","fixation","","","","","","","","","","","","","","","","","","","",""
"","","","","","html-keyboard-response","109","269177","0.0-18.0","0e23e416-a1ce-4372-aa1d-a68695ae5df5","null","<p style=""text-align: center;"">+</p>","null","fixation","","","","","","","","","","","","","","","","","","","",""
"","","","","","html-keyboard-response","110","272453","0.0-19.0","0e23e416-a1ce-4372-aa1d-a68695ae5df5","null","<p>הפסקה.
          <br>לחצו כדי להמשיך.</p>","1","scan_wait","","","","","","","","","","","","","","","","","","","",""
"","","","","","html-keyboard-response","111","273461","0.0-20.0","0e23e416-a1ce-4372-aa1d-a68695ae5df5","null","<p style=""text-align: center;"">+</p>","null","fixation","","","","","","","","","","","","","","","","","","","",""
"","","","","","html-slider-response","112","274463","0.0-21.0-0.0","0e23e416-a1ce-4372-aa1d-a68695ae5df5","1000","
                  <p style=""text-align: center;"">₪36
                                                <br>70%</p>
                  <p id=""wtp"" style=""text-align:center; margin-top: 0px; margin-bottom: 0px; font-size: 40px"";>&ensp;</p>","-","viewing","0","13","3A,5C,10B","","","","","","","","","","","","","","","","",""
"","","","","","html-slider-response","113","276445","0.0-21.0-1.0","0e23e416-a1ce-4372-aa1d-a68695ae5df5","1980","
                  <p style=""text-align: center;"">₪36
                                                <br>70%</p>
                  <p id=""wtp"" style=""text-align:center; margin-top: 0px; margin-bottom: 0px; font-size: 40px"";>מוכנים לשלם: <span id=""c_p_y""></span></p>","13","evaluation","52","13","3A,5C,10B","70","36","13","","","","","","","","","","","","","",""
"","","","","","html-keyboard-response","114","277339","0.0-21.0-2.0","0e23e416-a1ce-4372-aa1d-a68695ae5df5","null","<p style=""text-align: center;"">+</p>","null","fixation","","","","","","","","","","","","","","","","","","","",""
"","","","","","html-slider-response","115","278348","0.0-21.0-0.1","0e23e416-a1ce-4372-aa1d-a68695ae5df5","1000","
                  <p style=""text-align: center;"">₪71
                                                <br>75%</p>
                  <p id=""wtp"" style=""text-align:center; margin-top: 0px; margin-bottom: 0px; font-size: 40px"";>&ensp;</p>","-","viewing","0","28","8B","","","","","","","","","","","","","","","","",""
"","","","","","html-slider-response","116","280925","0.0-21.0-1.1","0e23e416-a1ce-4372-aa1d-a68695ae5df5","2576","
                  <p style=""text-align: center;"">₪71
                                                <br>75%</p>
                  <p id=""wtp"" style=""text-align:center; margin-top: 0px; margin-bottom: 0px; font-size: 40px"";>מוכנים לשלם: <span id=""c_p_y""></span></p>","49","evaluation","75","28","8B","75","71","49","","","","","","","","","","","","","",""
"","","","","","html-keyboard-response","117","282402","0.0-21.0-2.1","0e23e416-a1ce-4372-aa1d-a68695ae5df5","null","<p style=""text-align: center;"">+</p>","null","fixation","","","","","","","","","","","","","","","","","","","",""
"","","","","","html-slider-response","118","283415","0.0-21.0-0.2","0e23e416-a1ce-4372-aa1d-a68695ae5df5","1000","
                  <p style=""text-align: center;"">₪76
                                                <br>65%</p>
                  <p id=""wtp"" style=""text-align:center; margin-top: 0px; margin-bottom: 0px; font-size: 40px"";>&ensp;</p>","-","viewing","0","29","8C,19A,24B","","","","","","","","","","","","","","","","",""
"","","","","","html-slider-response","119","287425","0.0-21.0-1.2","0e23e416-a1ce-4372-aa1d-a68695ae5df5","null","
                  <p style=""text-align: center;"">₪76
                                                <br>65%</p>
                  <p id=""wtp"" style=""text-align:center; margin-top: 0px; margin-bottom: 0px; font-size: 40px"";>מוכנים לשלם: <span id=""c_p_y""></span></p>","null","evaluation","44","29","8C,19A,24B","65","76","46","","","","","","","","","","","","","",""
"","","","","","html-keyboard-response","120","288007","0.0-21.0-2.2","0e23e416-a1ce-4372-aa1d-a68695ae5df5","null","<p style=""text-align: center;"">+</p>","null","fixation","","","","","","","","","","","","","","","","","","","",""
"","","","","","html-slider-response","121","289023","0.0-21.0-0.3","0e23e416-a1ce-4372-aa1d-a68695ae5df5","1000","
                  <p style=""text-align: center;"">₪11
                                                <br>20%</p>
                  <p id=""wtp"" style=""text-align:center; margin-top: 0px; margin-bottom: 0px; font-size: 40px"";>&ensp;</p>","-","viewing","0","4","12C,17C,23C,28C","","","","","","","","","","","","","","","","",""
"","","","","","html-slider-response","122","292685","0.0-21.0-1.3","0e23e416-a1ce-4372-aa1d-a68695ae5df5","3661","
                  <p style=""text-align: center;"">₪11
                                                <br>20%</p>
                  <p id=""wtp"" style=""text-align:center; margin-top: 0px; margin-bottom: 0px; font-size: 40px"";>מוכנים לשלם: <span id=""c_p_y""></span></p>","3","evaluation","15","4","12C,17C,23C,28C","20","11","4","","","","","","","","","","","","","",""
"","","","","","html-keyboard-response","123","293439","0.0-21.0-2.3","0e23e416-a1ce-4372-aa1d-a68695ae5df5","null","<p style=""text-align: center;"">+</p>","null","fixation","","","","","","","","","","","","","","","","","","","",""
"","","","","","html-slider-response","124","294454","0.0-21.0-0.4","0e23e416-a1ce-4372-aa1d-a68695ae5df5","1000","
                  <p style=""text-align: center;"">₪11
                                                <br>45%</p>
                  <p id=""wtp"" style=""text-align:center; margin-top: 0px; margin-bottom: 0px; font-size: 40px"";>&ensp;</p>","-","viewing","0","6","14B,21C,25C","","","","","","","","","","","","","","","","",""
"","","","","","html-slider-response","125","296133","0.0-21.0-1.4","0e23e416-a1ce-4372-aa1d-a68695ae5df5","1678","
                  <p style=""text-align: center;"">₪11
                                                <br>45%</p>
                  <p id=""wtp"" style=""text-align:center; margin-top: 0px; margin-bottom: 0px; font-size: 40px"";>מוכנים לשלם: <span id=""c_p_y""></span></p>","3","evaluation","6","6","14B,21C,25C","45","11","4","","","","","","","","","","","","","",""
"","","","","","html-keyboard-response","126","297316","0.0-21.0-2.4","0e23e416-a1ce-4372-aa1d-a68695ae5df5","null","<p style=""text-align: center;"">+</p>","null","fixation","","","","","","","","","","","","","","","","","","","",""
"","","","","","html-slider-response","127","298327","0.0-21.0-0.5","0e23e416-a1ce-4372-aa1d-a68695ae5df5","1000","
                  <p style=""text-align: center;"">₪39
                                                <br>60%</p>
                  <p id=""wtp"" style=""text-align:center; margin-top: 0px; margin-bottom: 0px; font-size: 40px"";>&ensp;</p>","-","viewing","0","15","9C,25B","","","","","","","","","","","","","","","","",""
"","","","","","html-slider-response","128","301525","0.0-21.0-1.5","0e23e416-a1ce-4372-aa1d-a68695ae5df5","3197","
                  <p style=""text-align: center;"">₪39
                                                <br>60%</p>
                  <p id=""wtp"" style=""text-align:center; margin-top: 0px; margin-bottom: 0px; font-size: 40px"";>מוכנים לשלם: <span id=""c_p_y""></span></p>","24","evaluation","63","15","9C,25B","60","39","24","","","","","","","","","","","","","",""
"","","","","","html-keyboard-response","129","302175","0.0-21.0-2.5","0e23e416-a1ce-4372-aa1d-a68695ae5df5","null","<p style=""text-align: center;"">+</p>","null","fixation","","","","","","","","","","","","","","","","","","","",""
"","","","","","html-slider-response","130","303179","0.0-21.0-0.6","0e23e416-a1ce-4372-aa1d-a68695ae5df5","1000","
                  <p style=""text-align: center;"">₪71
                                                <br>55%</p>
                  <p id=""wtp"" style=""text-align:center; margin-top: 0px; margin-bottom: 0px; font-size: 40px"";>&ensp;</p>","-","viewing","0","27","5B,18A","","","","","","","","","","","","","","","","",""
"","","","","","html-slider-response","131","307196","0.0-21.0-1.6","0e23e416-a1ce-4372-aa1d-a68695ae5df5","null","
                  <p style=""text-align: center;"">₪71
                                                <br>55%</p>
                  <p id=""wtp"" style=""text-align:center; margin-top: 0px; margin-bottom: 0px; font-size: 40px"";>מוכנים לשלם: <span id=""c_p_y""></span></p>","null","evaluation","41","27","5B,18A","55","71","15","","","","","","","","","","","","","",""
"","","","","","html-keyboard-response","132","308623","0.0-21.0-2.6","0e23e416-a1ce-4372-aa1d-a68695ae5df5","null","<p style=""text-align: center;"">+</p>","null","fixation","","","","","","","","","","","","","","","","","","","",""
"","","","","","html-slider-response","133","309639","0.0-21.0-0.7","0e23e416-a1ce-4372-aa1d-a68695ae5df5","1000","
                  <p style=""text-align: center;"">₪64
                                                <br>50%</p>
                  <p id=""wtp"" style=""text-align:center; margin-top: 0px; margin-bottom: 0px; font-size: 40px"";>&ensp;</p>","-","viewing","0","25","1B,3B,4A","","","","","","","","","","","","","","","","",""
"","","","","","html-slider-response","134","311621","0.0-21.0-1.7","0e23e416-a1ce-4372-aa1d-a68695ae5df5","1980","
                  <p style=""text-align: center;"">₪64
                                                <br>50%</p>
                  <p id=""wtp"" style=""text-align:center; margin-top: 0px; margin-bottom: 0px; font-size: 40px"";>מוכנים לשלם: <span id=""c_p_y""></span></p>","27","evaluation","15","25","1B,3B,4A","50","64","27","","","","","","","","","","","","","",""
"","","","","","html-keyboard-response","135","313047","0.0-21.0-2.7","0e23e416-a1ce-4372-aa1d-a68695ae5df5","null","<p style=""text-align: center;"">+</p>","null","fixation","","","","","","","","","","","","","","","","","","","",""
"","","","","","html-slider-response","136","314061","0.0-21.0-0.8","0e23e416-a1ce-4372-aa1d-a68695ae5df5","1000","
                  <p style=""text-align: center;"">₪58
                                                <br>40%</p>
                  <p id=""wtp"" style=""text-align:center; margin-top: 0px; margin-bottom: 0px; font-size: 40px"";>&ensp;</p>","-","viewing","0","20","10C,13A,19C,21B","","","","","","","","","","","","","","","","",""
"","","","","","html-slider-response","137","316733","0.0-21.0-1.8","0e23e416-a1ce-4372-aa1d-a68695ae5df5","2671","
                  <p style=""text-align: center;"">₪58
                                                <br>40%</p>
                  <p id=""wtp"" style=""text-align:center; margin-top: 0px; margin-bottom: 0px; font-size: 40px"";>מוכנים לשלם: <span id=""c_p_y""></span></p>","22","evaluation","53","20","10C,13A,19C,21B","40","58","22","","","","","","","","","","","","","",""
"","","","","","html-keyboard-response","138","317777","0.0-21.0-2.8","0e23e416-a1ce-4372-aa1d-a68695ae5df5","null","<p style=""text-align: center;"">+</p>","null","fixation","","","","","","","","","","","","","","","","","","","",""
"","","","","","html-slider-response","139","318790","0.0-21.0-0.9","0e23e416-a1ce-4372-aa1d-a68695ae5df5","1000","
                  <p style=""text-align: center;"">₪71
                                                <br>45%</p>
                  <p id=""wtp"" style=""text-align:center; margin-top: 0px; margin-bottom: 0px; font-size: 40px"";>&ensp;</p>","-","viewing","0","26","2B,16A","","","","","","","","","","","","","","","","",""
"","","","","","html-slider-response","140","320965","0.0-21.0-1.9","0e23e416-a1ce-4372-aa1d-a68695ae5df5","2173","
                  <p style=""text-align: center;"">₪71
                                                <br>45%</p>
                  <p id=""wtp"" style=""text-align:center; margin-top: 0px; margin-bottom: 0px; font-size: 40px"";>מוכנים לשלם: <span id=""c_p_y""></span></p>","33","evaluation","29","26","2B,16A","45","71","33","","","","","","","","","","","","","",""
"","","","","","html-keyboard-response","141","322022","0.0-21.0-2.9","0e23e416-a1ce-4372-aa1d-a68695ae5df5","null","<p style=""text-align: center;"">+</p>","null","fixation","","","","","","","","","","","","","","","","","","","",""
"","","","","","html-slider-response","142","323031","0.0-21.0-0.10","0e23e416-a1ce-4372-aa1d-a68695ae5df5","1000","
                  <p style=""text-align: center;"">₪79
                                                <br>40%</p>
                  <p id=""wtp"" style=""text-align:center; margin-top: 0px; margin-bottom: 0px; font-size: 40px"";>&ensp;</p>","-","viewing","0","30","9B","","","","","","","","","","","","","","","","",""
"","","","","","html-slider-response","143","326277","0.0-21.0-1.10","0e23e416-a1ce-4372-aa1d-a68695ae5df5","3244","
                  <p style=""text-align: center;"">₪79
                                                <br>40%</p>
                  <p id=""wtp"" style=""text-align:center; margin-top: 0px; margin-bottom: 0px; font-size: 40px"";>מוכנים לשלם: <span id=""c_p_y""></span></p>","35","evaluation","16","30","9B","40","79","35","","","","","","","","","","","","","",""
"","","","","","html-keyboard-response","144","326947","0.0-21.0-2.10","0e23e416-a1ce-4372-aa1d-a68695ae5df5","null","<p style=""text-align: center;"">+</p>","null","fixation","","","","","","","","","","","","","","","","","","","",""
"","","","","","html-slider-response","145","327953","0.0-21.0-0.11","0e23e416-a1ce-4372-aa1d-a68695ae5df5","1000","
                  <p style=""text-align: center;"">₪64
                                                <br>25%</p>
                  <p id=""wtp"" style=""text-align:center; margin-top: 0px; margin-bottom: 0px; font-size: 40px"";>&ensp;</p>","-","viewing","0","24","6A,21A","","","","","","","","","","","","","","","","",""
"","","","","","html-slider-response","146","331960","0.0-21.0-1.11","0e23e416-a1ce-4372-aa1d-a68695ae5df5","null","
                  <p style=""text-align: center;"">₪64
                                                <br>25%</p>
                  <p id=""wtp"" style=""text-align:center; margin-top: 0px; margin-bottom: 0px; font-size: 40px"";>מוכנים לשלם: <span id=""c_p_y""></span></p>","null","evaluation","29","24","6A,21A","25","64","19","","","","","","","","","","","","","",""
"","","","","","html-keyboard-response","147","333032","0.0-21.0-2.11","0e23e416-a1ce-4372-aa1d-a68695ae5df5","null","<p style=""text-align: center;"">+</p>","null","fixation","","","","","","","","","","","","","","","","","","","",""
"","","","","","html-slider-response","148","334048","0.0-21.0-0.12","0e23e416-a1ce-4372-aa1d-a68695ae5df5","1000","
                  <p style=""text-align: center;"">₪36
                                                <br>75%</p>
                  <p id=""wtp"" style=""text-align:center; margin-top: 0px; margin-bottom: 0px; font-size: 40px"";>&ensp;</p>","-","viewing","0","14","4B,5A,13B,16B","","","","","","","","","","","","","","","","",""
"","","","","","html-slider-response","149","337349","0.0-21.0-1.12","0e23e416-a1ce-4372-aa1d-a68695ae5df5","3300","
                  <p style=""text-align: center;"">₪36
                                                <br>75%</p>
                  <p id=""wtp"" style=""text-align:center; margin-top: 0px; margin-bottom: 0px; font-size: 40px"";>מוכנים לשלם: <span id=""c_p_y""></span></p>","14","evaluation","79","14","4B,5A,13B,16B","75","36","14","","","","","","","","","","","","","",""
"","","","","","html-keyboard-response","150","338326","0.0-21.0-2.12","0e23e416-a1ce-4372-aa1d-a68695ae5df5","null","<p style=""text-align: center;"">+</p>","null","fixation","","","","","","","","","","","","","","","","","","","",""
"","","","","","html-slider-response","151","339338","0.0-21.0-0.13","0e23e416-a1ce-4372-aa1d-a68695ae5df5","1000","
                  <p style=""text-align: center;"">₪43
                                                <br>75%</p>
                  <p id=""wtp"" style=""text-align:center; margin-top: 0px; margin-bottom: 0px; font-size: 40px"";>&ensp;</p>","-","viewing","0","18","11B,19B,24A,26A","","","","","","","","","","","","","","","","",""
"","","","","","html-slider-response","152","341501","0.0-21.0-1.13","0e23e416-a1ce-4372-aa1d-a68695ae5df5","2162","
                  <p style=""text-align: center;"">₪43
                                                <br>75%</p>
                  <p id=""wtp"" style=""text-align:center; margin-top: 0px; margin-bottom: 0px; font-size: 40px"";>מוכנים לשלם: <span id=""c_p_y""></span></p>","23","evaluation","22","18","11B,19B,24A,26A","75","43","23","","","","","","","","","","","","","",""
"","","","","","html-keyboard-response","153","342457","0.0-21.0-2.13","0e23e416-a1ce-4372-aa1d-a68695ae5df5","null","<p style=""text-align: center;"">+</p>","null","fixation","","","","","","","","","","","","","","","","","","","",""
"","","","","","html-slider-response","154","343465","0.0-21.0-0.14","0e23e416-a1ce-4372-aa1d-a68695ae5df5","1000","
                  <p style=""text-align: center;"">₪18
                                                <br>50%</p>
                  <p id=""wtp"" style=""text-align:center; margin-top: 0px; margin-bottom: 0px; font-size: 40px"";>&ensp;</p>","-","viewing","0","10","2C,16C,22B,28A","","","","","","","","","","","","","","","","",""
"","","","","","html-slider-response","155","346284","0.0-21.0-1.14","0e23e416-a1ce-4372-aa1d-a68695ae5df5","2818","
                  <p style=""text-align: center;"">₪18
                                                <br>50%</p>
                  <p id=""wtp"" style=""text-align:center; margin-top: 0px; margin-bottom: 0px; font-size: 40px"";>מוכנים לשלם: <span id=""c_p_y""></span></p>","10","evaluation","4","10","2C,16C,22B,28A","50","18","10","","","","","","","","","","","","","",""
"","","","","","html-keyboard-response","156","346894","0.0-21.0-2.14","0e23e416-a1ce-4372-aa1d-a68695ae5df5","null","<p style=""text-align: center;"">+</p>","null","fixation","","","","","","","","","","","","","","","","","","","",""
"","","","","","html-slider-response","157","347897","0.0-21.0-0.15","0e23e416-a1ce-4372-aa1d-a68695ae5df5","1000","
                  <p style=""text-align: center;"">₪11
                                                <br>25%</p>
                  <p id=""wtp"" style=""text-align:center; margin-top: 0px; margin-bottom: 0px; font-size: 40px"";>&ensp;</p>","-","viewing","0","5","12A,27B,28B,30B","","","","","","","","","","","","","","","","",""
"","","","","","html-slider-response","158","350269","0.0-21.0-1.15","0e23e416-a1ce-4372-aa1d-a68695ae5df5","2371","
                  <p style=""text-align: center;"">₪11
                                                <br>25%</p>
                  <p id=""wtp"" style=""text-align:center; margin-top: 0px; margin-bottom: 0px; font-size: 40px"";>מוכנים לשלם: <span id=""c_p_y""></span></p>","5","evaluation","19","5","12A,27B,28B,30B","25","11","5","","","","","","","","","","","","","",""
"","","","","","html-keyboard-response","159","350984","0.0-21.0-2.15","0e23e416-a1ce-4372-aa1d-a68695ae5df5","null","<p style=""text-align: center;"">+</p>","null","fixation","","","","","","","","","","","","","","","","","","","",""
"","","","","","html-slider-response","160","352000","0.0-21.0-0.16","0e23e416-a1ce-4372-aa1d-a68695ae5df5","1000","
                  <p style=""text-align: center;"">₪58
                                                <br>45%</p>
                  <p id=""wtp"" style=""text-align:center; margin-top: 0px; margin-bottom: 0px; font-size: 40px"";>&ensp;</p>","-","viewing","0","21","11C,18C,25A","","","","","","","","","","","","","","","","",""
"","","","","","html-slider-response","161","354101","0.0-21.0-1.16","0e23e416-a1ce-4372-aa1d-a68695ae5df5","2100","
                  <p style=""text-align: center;"">₪58
                                                <br>45%</p>
                  <p id=""wtp"" style=""text-align:center; margin-top: 0px; margin-bottom: 0px; font-size: 40px"";>מוכנים לשלם: <span id=""c_p_y""></span></p>","27","evaluation","72","21","11C,18C,25A","45","58","27","","","","","","","","","","","","","",""
"","","","","","html-keyboard-response","162","354830","0.0-21.0-2.16","0e23e416-a1ce-4372-aa1d-a68695ae5df5","null","<p style=""text-align: center;"">+</p>","null","fixation","","","","","","","","","","","","","","","","","","","",""
"","","","","","html-slider-response","163","355841","0.0-21.0-0.17","0e23e416-a1ce-4372-aa1d-a68695ae5df5","1000","
                  <p style=""text-align: center;"">₪4
                                                <br>50%</p>
                  <p id=""wtp"" style=""text-align:center; margin-top: 0px; margin-bottom: 0px; font-size: 40px"";>&ensp;</p>","-","viewing","0","2","4C,17B","","","","","","","","","","","","","","","","",""
"","","","","","html-slider-response","164","357277","0.0-21.0-1.17","0e23e416-a1ce-4372-aa1d-a68695ae5df5","1434","
                  <p style=""text-align: center;"">₪4
                                                <br>50%</p>
                  <p id=""wtp"" style=""text-align:center; margin-top: 0px; margin-bottom: 0px; font-size: 40px"";>מוכנים לשלם: <span id=""c_p_y""></span></p>","1","evaluation","79","2","4C,17B","50","4","2","","","","","","","","","","","","","",""
"","","","","","html-keyboard-response","165","357824","0.0-21.0-2.17","0e23e416-a1ce-4372-aa1d-a68695ae5df5","null","<p style=""text-align: center;"">+</p>","null","fixation","","","","","","","","","","","","","","","","","","","",""
"","","","","","html-slider-response","166","358827","0.0-21.0-0.18","0e23e416-a1ce-4372-aa1d-a68695ae5df5","1000","
                  <p style=""text-align: center;"">₪4
                                                <br>25%</p>
                  <p id=""wtp"" style=""text-align:center; margin-top: 0px; margin-bottom: 0px; font-size: 40px"";>&ensp;</p>","-","viewing","0","1","6C,29B,30C","","","","","","","","","","","","","","","","",""
"","","","","","html-slider-response","167","361157","0.0-21.0-1.18","0e23e416-a1ce-4372-aa1d-a68695ae5df5","2328","
                  <p style=""text-align: center;"">₪4
                                                <br>25%</p>
                  <p id=""wtp"" style=""text-align:center; margin-top: 0px; margin-bottom: 0px; font-size: 40px"";>מוכנים לשלם: <span id=""c_p_y""></span></p>","1","evaluation","37","1","6C,29B,30C","25","4","2","","","","","","","","","","","","","",""
"","","","","","html-keyboard-response","168","362074","0.0-21.0-2.18","0e23e416-a1ce-4372-aa1d-a68695ae5df5","null","<p style=""text-align: center;"">+</p>","null","fixation","","","","","","","","","","","","","","","","","","","",""
"","","","","","html-slider-response","169","363078","0.0-21.0-0.19","0e23e416-a1ce-4372-aa1d-a68695ae5df5","1000","
                  <p style=""text-align: center;"">₪79
                                                <br>65%</p>
                  <p id=""wtp"" style=""text-align:center; margin-top: 0px; margin-bottom: 0px; font-size: 40px"";>&ensp;</p>","-","viewing","0","31","8A","","","","","","","","","","","","","","","","",""
"","","","","","html-slider-response","170","365669","0.0-21.0-1.19","0e23e416-a1ce-4372-aa1d-a68695ae5df5","2589","
                  <p style=""text-align: center;"">₪79
                                                <br>65%</p>
                  <p id=""wtp"" style=""text-align:center; margin-top: 0px; margin-bottom: 0px; font-size: 40px"";>מוכנים לשלם: <span id=""c_p_y""></span></p>","39","evaluation","18","31","8A","65","79","39","","","","","","","","","","","","","",""
"","","","","","html-keyboard-response","171","366564","0.0-21.0-2.19","0e23e416-a1ce-4372-aa1d-a68695ae5df5","null","<p style=""text-align: center;"">+</p>","null","fixation","","","","","","","","","","","","","","","","","","","",""
"","","","","","html-slider-response","172","367566","0.0-21.0-0.20","0e23e416-a1ce-4372-aa1d-a68695ae5df5","1000","
                  <p style=""text-align: center;"">₪4
                                                <br>75%</p>
                  <p id=""wtp"" style=""text-align:center; margin-top: 0px; margin-bottom: 0px; font-size: 40px"";>&ensp;</p>","-","viewing","0","3","12B,20B,23B,27C,29C","","","","","","","","","","","","","","","","",""
"","","","","","html-slider-response","173","369509","0.0-21.0-1.20","0e23e416-a1ce-4372-aa1d-a68695ae5df5","1942","
                  <p style=""text-align: center;"">₪4
                                                <br>75%</p>
                  <p id=""wtp"" style=""text-align:center; margin-top: 0px; margin-bottom: 0px; font-size: 40px"";>מוכנים לשלם: <span id=""c_p_y""></span></p>","2","evaluation","6","3","12B,20B,23B,27C,29C","75","4","2","","","","","","","","","","","","","",""
"","","","","","html-keyboard-response","174","370405","0.0-21.0-2.20","0e23e416-a1ce-4372-aa1d-a68695ae5df5","null","<p style=""text-align: center;"">+</p>","null","fixation","","","","","","","","","","","","","","","","","","","",""
"","","","","","html-slider-response","175","371418","0.0-21.0-0.21","0e23e416-a1ce-4372-aa1d-a68695ae5df5","1000","
                  <p style=""text-align: center;"">₪39
                                                <br>65%</p>
                  <p id=""wtp"" style=""text-align:center; margin-top: 0px; margin-bottom: 0px; font-size: 40px"";>&ensp;</p>","-","viewing","0","16","1A,15A,26C","","","","","","","","","","","","","","","","",""
"","","","","","html-slider-response","176","374461","0.0-21.0-1.21","0e23e416-a1ce-4372-aa1d-a68695ae5df5","3041","
                  <p style=""text-align: center;"">₪39
                                                <br>65%</p>
                  <p id=""wtp"" style=""text-align:center; margin-top: 0px; margin-bottom: 0px; font-size: 40px"";>מוכנים לשלם: <span id=""c_p_y""></span></p>","18","evaluation","65","16","1A,15A,26C","65","39","18","","","","","","","","","","","","","",""
"","","","","","html-keyboard-response","177","375172","0.0-21.0-2.21","0e23e416-a1ce-4372-aa1d-a68695ae5df5","null","<p style=""text-align: center;"">+</p>","null","fixation","","","","","","","","","","","","","","","","","","","",""
"","","","","","html-slider-response","178","376188","0.0-21.0-0.22","0e23e416-a1ce-4372-aa1d-a68695ae5df5","1000","
                  <p style=""text-align: center;"">₪18
                                                <br>25%</p>
                  <p id=""wtp"" style=""text-align:center; margin-top: 0px; margin-bottom: 0px; font-size: 40px"";>&ensp;</p>","-","viewing","0","9","14A,23A","","","","","","","","","","","","","","","","",""
"","","","","","html-slider-response","179","378213","0.0-21.0-1.22","0e23e416-a1ce-4372-aa1d-a68695ae5df5","2024","
                  <p style=""text-align: center;"">₪18
                                                <br>25%</p>
                  <p id=""wtp"" style=""text-align:center; margin-top: 0px; margin-bottom: 0px; font-size: 40px"";>מוכנים לשלם: <span id=""c_p_y""></span></p>","3","evaluation","37","9","14A,23A","25","18","3","","","","","","","","","","","","","",""
"","","","","","html-keyboard-response","180","379434","0.0-21.0-2.22","0e23e416-a1ce-4372-aa1d-a68695ae5df5","null","<p style=""text-align: center;"">+</p>","null","fixation","","","","","","","","","","","","","","","","","","","",""
"","","","","","html-slider-response","181","380443","0.0-21.0-0.23","0e23e416-a1ce-4372-aa1d-a68695ae5df5","1000","
                  <p style=""text-align: center;"">₪11
                                                <br>75%</p>
                  <p id=""wtp"" style=""text-align:center; margin-top: 0px; margin-bottom: 0px; font-size: 40px"";>&ensp;</p>","-","viewing","0","7","6B,18B,22C,24C,29A","","","","","","","","","","","","","","","","",""
"","","","","","html-slider-response","182","383621","0.0-21.0-1.23","0e23e416-a1ce-4372-aa1d-a68695ae5df5","3178","
                  <p style=""text-align: center;"">₪11
                                                <br>75%</p>
                  <p id=""wtp"" style=""text-align:center; margin-top: 0px; margin-bottom: 0px; font-size: 40px"";>מוכנים לשלם: <span id=""c_p_y""></span></p>","7","evaluation","20","7","6B,18B,22C,24C,29A","75","11","8","","","","","","","","","","","","","",""
"","","","","","html-keyboard-response","183","384346","0.0-21.0-2.23","0e23e416-a1ce-4372-aa1d-a68695ae5df5","null","<p style=""text-align: center;"">+</p>","null","fixation","","","","","","","","","","","","","","","","","","","",""
"","","","","","html-slider-response","184","385363","0.0-21.0-0.24","0e23e416-a1ce-4372-aa1d-a68695ae5df5","1000","
                  <p style=""text-align: center;"">₪36
                                                <br>30%</p>
                  <p id=""wtp"" style=""text-align:center; margin-top: 0px; margin-bottom: 0px; font-size: 40px"";>&ensp;</p>","-","viewing","0","11","3C,20A,22A","","","","","","","","","","","","","","","","",""
"","","","","","html-slider-response","185","388005","0.0-21.0-1.24","0e23e416-a1ce-4372-aa1d-a68695ae5df5","2641","
                  <p style=""text-align: center;"">₪36
                                                <br>30%</p>
                  <p id=""wtp"" style=""text-align:center; margin-top: 0px; margin-bottom: 0px; font-size: 40px"";>מוכנים לשלם: <span id=""c_p_y""></span></p>","13","evaluation","39","11","3C,20A,22A","30","36","13","","","","","","","","","","","","","",""
"","","","","","html-keyboard-response","186","389361","0.0-21.0-2.24","0e23e416-a1ce-4372-aa1d-a68695ae5df5","null","<p style=""text-align: center;"">+</p>","null","fixation","","","","","","","","","","","","","","","","","","","",""
"","","","","","html-slider-response","187","390364","0.0-21.0-0.25","0e23e416-a1ce-4372-aa1d-a68695ae5df5","1000","
                  <p style=""text-align: center;"">₪58
                                                <br>30%</p>
                  <p id=""wtp"" style=""text-align:center; margin-top: 0px; margin-bottom: 0px; font-size: 40px"";>&ensp;</p>","-","viewing","0","19","13C,30A","","","","","","","","","","","","","","","","",""
"","","","","","html-slider-response","188","393245","0.0-21.0-1.25","0e23e416-a1ce-4372-aa1d-a68695ae5df5","2880","
                  <p style=""text-align: center;"">₪58
                                                <br>30%</p>
                  <p id=""wtp"" style=""text-align:center; margin-top: 0px; margin-bottom: 0px; font-size: 40px"";>מוכנים לשלם: <span id=""c_p_y""></span></p>","17","evaluation","17","19","13C,30A","30","58","17","","","","","","","","","","","","","",""
"","","","","","html-keyboard-response","189","394241","0.0-21.0-2.25","0e23e416-a1ce-4372-aa1d-a68695ae5df5","null","<p style=""text-align: center;"">+</p>","null","fixation","","","","","","","","","","","","","","","","","","","",""
"","","","","","html-slider-response","190","395253","0.0-21.0-0.26","0e23e416-a1ce-4372-aa1d-a68695ae5df5","1000","
                  <p style=""text-align: center;"">₪61
                                                <br>55%</p>
                  <p id=""wtp"" style=""text-align:center; margin-top: 0px; margin-bottom: 0px; font-size: 40px"";>&ensp;</p>","-","viewing","0","23","7B,26B","","","","","","","","","","","","","","","","",""
"","","","","","html-slider-response","191","397629","0.0-21.0-1.26","0e23e416-a1ce-4372-aa1d-a68695ae5df5","2375","
                  <p style=""text-align: center;"">₪61
                                                <br>55%</p>
                  <p id=""wtp"" style=""text-align:center; margin-top: 0px; margin-bottom: 0px; font-size: 40px"";>מוכנים לשלם: <span id=""c_p_y""></span></p>","30","evaluation","57","23","7B,26B","55","61","30","","","","","","","","","","","","","",""
"","","","","","html-keyboard-response","192","398499","0.0-21.0-2.26","0e23e416-a1ce-4372-aa1d-a68695ae5df5","null","<p style=""text-align: center;"">+</p>","null","fixation","","","","","","","","","","","","","","","","","","","",""
"","","","","","html-slider-response","193","399503","0.0-21.0-0.27","0e23e416-a1ce-4372-aa1d-a68695ae5df5","1000","
                  <p style=""text-align: center;"">₪16
                                                <br>20%</p>
                  <p id=""wtp"" style=""text-align:center; margin-top: 0px; margin-bottom: 0px; font-size: 40px"";>&ensp;</p>","-","viewing","0","8","14C,17A,20C,27A","","","","","","","","","","","","","","","","",""
"","","","","","html-slider-response","194","402253","0.0-21.0-1.27","0e23e416-a1ce-4372-aa1d-a68695ae5df5","2749","
                  <p style=""text-align: center;"">₪16
                                                <br>20%</p>
                  <p id=""wtp"" style=""text-align:center; margin-top: 0px; margin-bottom: 0px; font-size: 40px"";>מוכנים לשלם: <span id=""c_p_y""></span></p>","2","evaluation","15","8","14C,17A,20C,27A","20","16","3","","","","","","","","","","","","","",""
"","","","","","html-keyboard-response","195","403102","0.0-21.0-2.27","0e23e416-a1ce-4372-aa1d-a68695ae5df5","null","<p style=""text-align: center;"">+</p>","null","fixation","","","","","","","","","","","","","","","","","","","",""
"","","","","","html-slider-response","196","404111","0.0-21.0-0.28","0e23e416-a1ce-4372-aa1d-a68695ae5df5","1000","
                  <p style=""text-align: center;"">₪36
                                                <br>60%</p>
                  <p id=""wtp"" style=""text-align:center; margin-top: 0px; margin-bottom: 0px; font-size: 40px"";>&ensp;</p>","-","viewing","0","12","1C,7C,15C","","","","","","","","","","","","","","","","",""
"","","","","","html-slider-response","197","407445","0.0-21.0-1.28","0e23e416-a1ce-4372-aa1d-a68695ae5df5","3333","
                  <p style=""text-align: center;"">₪36
                                                <br>60%</p>
                  <p id=""wtp"" style=""text-align:center; margin-top: 0px; margin-bottom: 0px; font-size: 40px"";>מוכנים לשלם: <span id=""c_p_y""></span></p>","14","evaluation","60","12","1C,7C,15C","60","36","14","","","","","","","","","","","","","",""
"","","","","","html-keyboard-response","198","408712","0.0-21.0-2.28","0e23e416-a1ce-4372-aa1d-a68695ae5df5","null","<p style=""text-align: center;"">+</p>","null","fixation","","","","","","","","","","","","","","","","","","","",""
"","","","","","html-slider-response","199","409713","0.0-21.0-0.29","0e23e416-a1ce-4372-aa1d-a68695ae5df5","1000","
                  <p style=""text-align: center;"">₪61
                                                <br>45%</p>
                  <p id=""wtp"" style=""text-align:center; margin-top: 0px; margin-bottom: 0px; font-size: 40px"";>&ensp;</p>","-","viewing","0","22","10A,11A","","","","","","","","","","","","","","","","",""
"","","","","","html-slider-response","200","412837","0.0-21.0-1.29","0e23e416-a1ce-4372-aa1d-a68695ae5df5","3123","
                  <p style=""text-align: center;"">₪61
                                                <br>45%</p>
                  <p id=""wtp"" style=""text-align:center; margin-top: 0px; margin-bottom: 0px; font-size: 40px"";>מוכנים לשלם: <span id=""c_p_y""></span></p>","31","evaluation","2","22","10A,11A","45","61","31","","","","","","","","","","","","","",""
"","","","","","html-keyboard-response","201","414188","0.0-21.0-2.29","0e23e416-a1ce-4372-aa1d-a68695ae5df5","null","<p style=""text-align: center;"">+</p>","null","fixation","","","","","","","","","","","","","","","","","","","",""
"","","","","","html-slider-response","202","415194","0.0-21.0-0.30","0e23e416-a1ce-4372-aa1d-a68695ae5df5","1000","
                  <p style=""text-align: center;"">₪43
                                                <br>60%</p>
                  <p id=""wtp"" style=""text-align:center; margin-top: 0px; margin-bottom: 0px; font-size: 40px"";>&ensp;</p>","-","viewing","0","17","2A,7A,9A,15B","","","","","","","","","","","","","","","","",""
"","","","","","html-slider-response","203","418957","0.0-21.0-1.30","0e23e416-a1ce-4372-aa1d-a68695ae5df5","3762","
                  <p style=""text-align: center;"">₪43
                                                <br>60%</p>
                  <p id=""wtp"" style=""text-align:center; margin-top: 0px; margin-bottom: 0px; font-size: 40px"";>מוכנים לשלם: <span id=""c_p_y""></span></p>","18","evaluation","35","17","2A,7A,9A,15B","60","43","18","","","","","","","","","","","","","",""
"","","","","","html-keyboard-response","204","419503","0.0-21.0-2.30","0e23e416-a1ce-4372-aa1d-a68695ae5df5","null","<p style=""text-align: center;"">+</p>","null","fixation","","","","","","","","","","","","","","","","","","","",""
"","","","","","html-keyboard-response","205","420505","0.0-22.0","0e23e416-a1ce-4372-aa1d-a68695ae5df5","null","<p style=""text-align: center;"">+</p>","null","fixation","","","","","","","","","","","","","","","","","","","",""
"","","","","","html-keyboard-response","206","421781","0.0-23.0","0e23e416-a1ce-4372-aa1d-a68695ae5df5","null","<p>הפסקה.
          <br>לחצו כדי להמשיך.</p>","1","scan_wait","","","","","","","","","","","","","","","","","","","",""
"","","","","","html-keyboard-response","207","422789","0.0-24.0","0e23e416-a1ce-4372-aa1d-a68695ae5df5","null","<p style=""text-align: center;"">+</p>","null","fixation","","","","","","","","","","","","","","","","","","","",""
"","","","","","html-slider-response","208","423790","0.0-25.0-0.0","0e23e416-a1ce-4372-aa1d-a68695ae5df5","1000","
                  <p style=""text-align: center;"">₪11
                                                <br>25%</p>
                  <p id=""wtp"" style=""text-align:center; margin-top: 0px; margin-bottom: 0px; font-size: 40px"";>&ensp;</p>","-","viewing","0","5","12A,27B,28B,30B","","","","","","","","","","","","","","","","",""
"","","","","","html-slider-response","209","426630","0.0-25.0-1.0","0e23e416-a1ce-4372-aa1d-a68695ae5df5","2838","
                  <p style=""text-align: center;"">₪11
                                                <br>25%</p>
                  <p id=""wtp"" style=""text-align:center; margin-top: 0px; margin-bottom: 0px; font-size: 40px"";>מוכנים לשלם: <span id=""c_p_y""></span></p>","3","evaluation","31","5","12A,27B,28B,30B","25","11","4","","","","","","","","","","","","","",""
"","","","","","html-keyboard-response","210","428064","0.0-25.0-2.0","0e23e416-a1ce-4372-aa1d-a68695ae5df5","null","<p style=""text-align: center;"">+</p>","null","fixation","","","","","","","","","","","","","","","","","","","",""
"","","","","","html-slider-response","211","429079","0.0-25.0-0.1","0e23e416-a1ce-4372-aa1d-a68695ae5df5","1000","
                  <p style=""text-align: center;"">₪43
                                                <br>75%</p>
                  <p id=""wtp"" style=""text-align:center; margin-top: 0px; margin-bottom: 0px; font-size: 40px"";>&ensp;</p>","-","viewing","0","18","11B,19B,24A,26A","","","","","","","","","","","","","","","","",""
"","","","","","html-slider-response","212","432294","0.0-25.0-1.1","0e23e416-a1ce-4372-aa1d-a68695ae5df5","3214","
                  <p style=""text-align: center;"">₪43
                                                <br>75%</p>
                  <p id=""wtp"" style=""text-align:center; margin-top: 0px; margin-bottom: 0px; font-size: 40px"";>מוכנים לשלם: <span id=""c_p_y""></span></p>","29","evaluation","17","18","11B,19B,24A,26A","75","43","29","","","","","","","","","","","","","",""
"","","","","","html-keyboard-response","213","433223","0.0-25.0-2.1","0e23e416-a1ce-4372-aa1d-a68695ae5df5","null","<p style=""text-align: center;"">+</p>","null","fixation","","","","","","","","","","","","","","","","","","","",""
"","","","","","html-slider-response","214","434235","0.0-25.0-0.2","0e23e416-a1ce-4372-aa1d-a68695ae5df5","1000","
                  <p style=""text-align: center;"">₪11
                                                <br>20%</p>
                  <p id=""wtp"" style=""text-align:center; margin-top: 0px; margin-bottom: 0px; font-size: 40px"";>&ensp;</p>","-","viewing","0","4","12C,17C,23C,28C","","","","","","","","","","","","","","","","",""
"","","","","","html-slider-response","215","436950","0.0-25.0-1.2","0e23e416-a1ce-4372-aa1d-a68695ae5df5","2714","
                  <p style=""text-align: center;"">₪11
                                                <br>20%</p>
                  <p id=""wtp"" style=""text-align:center; margin-top: 0px; margin-bottom: 0px; font-size: 40px"";>מוכנים לשלם: <span id=""c_p_y""></span></p>","2","evaluation","15","4","12C,17C,23C,28C","20","11","3","","","","","","","","","","","","","",""
"","","","","","html-keyboard-response","216","437610","0.0-25.0-2.2","0e23e416-a1ce-4372-aa1d-a68695ae5df5","null","<p style=""text-align: center;"">+</p>","null","fixation","","","","","","","","","","","","","","","","","","","",""
"","","","","","html-slider-response","217","438612","0.0-25.0-0.3","0e23e416-a1ce-4372-aa1d-a68695ae5df5","1000","
                  <p style=""text-align: center;"">₪79
                                                <br>65%</p>
                  <p id=""wtp"" style=""text-align:center; margin-top: 0px; margin-bottom: 0px; font-size: 40px"";>&ensp;</p>","-","viewing","0","31","8A","","","","","","","","","","","","","","","","",""
"","","","","","html-slider-response","218","442581","0.0-25.0-1.3","0e23e416-a1ce-4372-aa1d-a68695ae5df5","3968","
                  <p style=""text-align: center;"">₪79
                                                <br>65%</p>
                  <p id=""wtp"" style=""text-align:center; margin-top: 0px; margin-bottom: 0px; font-size: 40px"";>מוכנים לשלם: <span id=""c_p_y""></span></p>","40","evaluation","39","31","8A","65","79","40","","","","","","","","","","","","","",""
"","","","","","html-keyboard-response","219","443913","0.0-25.0-2.3","0e23e416-a1ce-4372-aa1d-a68695ae5df5","null","<p style=""text-align: center;"">+</p>","null","fixation","","","","","","","","","","","","","","","","","","","",""
"","","","","","html-slider-response","220","444920","0.0-25.0-0.4","0e23e416-a1ce-4372-aa1d-a68695ae5df5","1000","
                  <p style=""text-align: center;"">₪36
                                                <br>30%</p>
                  <p id=""wtp"" style=""text-align:center; margin-top: 0px; margin-bottom: 0px; font-size: 40px"";>&ensp;</p>","-","viewing","0","11","3C,20A,22A","","","","","","","","","","","","","","","","",""
"","","","","","html-slider-response","221","448293","0.0-25.0-1.4","0e23e416-a1ce-4372-aa1d-a68695ae5df5","3372","
                  <p style=""text-align: center;"">₪36
                                                <br>30%</p>
                  <p id=""wtp"" style=""text-align:center; margin-top: 0px; margin-bottom: 0px; font-size: 40px"";>מוכנים לשלם: <span id=""c_p_y""></span></p>","12","evaluation","25","11","3C,20A,22A","30","36","12","","","","","","","","","","","","","",""
"","","","","","html-keyboard-response","222","449613","0.0-25.0-2.4","0e23e416-a1ce-4372-aa1d-a68695ae5df5","null","<p style=""text-align: center;"">+</p>","null","fixation","","","","","","","","","","","","","","","","","","","",""
"","","","","","html-slider-response","223","450627","0.0-25.0-0.5","0e23e416-a1ce-4372-aa1d-a68695ae5df5","1000","
                  <p style=""text-align: center;"">₪58
                                                <br>40%</p>
                  <p id=""wtp"" style=""text-align:center; margin-top: 0px; margin-bottom: 0px; font-size: 40px"";>&ensp;</p>","-","viewing","0","20","10C,13A,19C,21B","","","","","","","","","","","","","","","","",""
"","","","","","html-slider-response","224","453141","0.0-25.0-1.5","0e23e416-a1ce-4372-aa1d-a68695ae5df5","2513","
                  <p style=""text-align: center;"">₪58
                                                <br>40%</p>
                  <p id=""wtp"" style=""text-align:center; margin-top: 0px; margin-bottom: 0px; font-size: 40px"";>מוכנים לשלם: <span id=""c_p_y""></span></p>","20","evaluation","11","20","10C,13A,19C,21B","40","58","20","","","","","","","","","","","","","",""
"","","","","","html-keyboard-response","225","454507","0.0-25.0-2.5","0e23e416-a1ce-4372-aa1d-a68695ae5df5","null","<p style=""text-align: center;"">+</p>","null","fixation","","","","","","","","","","","","","","","","","","","",""
"","","","","","html-slider-response","226","455520","0.0-25.0-0.6","0e23e416-a1ce-4372-aa1d-a68695ae5df5","1000","
                  <p style=""text-align: center;"">₪11
                                                <br>75%</p>
                  <p id=""wtp"" style=""text-align:center; margin-top: 0px; margin-bottom: 0px; font-size: 40px"";>&ensp;</p>","-","viewing","0","7","6B,18B,22C,24C,29A","","","","","","","","","","","","","","","","",""
"","","","","","html-slider-response","227","458053","0.0-25.0-1.6","0e23e416-a1ce-4372-aa1d-a68695ae5df5","2532","
                  <p style=""text-align: center;"">₪11
                                                <br>75%</p>
                  <p id=""wtp"" style=""text-align:center; margin-top: 0px; margin-bottom: 0px; font-size: 40px"";>מוכנים לשלם: <span id=""c_p_y""></span></p>","7","evaluation","30","7","6B,18B,22C,24C,29A","75","11","7","","","","","","","","","","","","","",""
"","","","","","html-keyboard-response","228","458794","0.0-25.0-2.6","0e23e416-a1ce-4372-aa1d-a68695ae5df5","null","<p style=""text-align: center;"">+</p>","null","fixation","","","","","","","","","","","","","","","","","","","",""
"","","","","","html-slider-response","229","459805","0.0-25.0-0.7","0e23e416-a1ce-4372-aa1d-a68695ae5df5","1000","
                  <p style=""text-align: center;"">₪18
                                                <br>50%</p>
                  <p id=""wtp"" style=""text-align:center; margin-top: 0px; margin-bottom: 0px; font-size: 40px"";>&ensp;</p>","-","viewing","0","10","2C,16C,22B,28A","","","","","","","","","","","","","","","","",""
"","","","","","html-slider-response","230","463816","0.0-25.0-1.7","0e23e416-a1ce-4372-aa1d-a68695ae5df5","null","
                  <p style=""text-align: center;"">₪18
                                                <br>50%</p>
                  <p id=""wtp"" style=""text-align:center; margin-top: 0px; margin-bottom: 0px; font-size: 40px"";>מוכנים לשלם: <span id=""c_p_y""></span></p>","null","evaluation","51","10","2C,16C,22B,28A","50","18","9","","","","","","","","","","","","","",""
"","","","","","html-keyboard-response","231","464764","0.0-25.0-2.7","0e23e416-a1ce-4372-aa1d-a68695ae5df5","null","<p style=""text-align: center;"">+</p>","null","fixation","","","","","","","","","","","","","","","","","","","",""
"","","","","","html-slider-response","232","465770","0.0-25.0-0.8","0e23e416-a1ce-4372-aa1d-a68695ae5df5","1000","
                  <p style=""text-align: center;"">₪18
                                                <br>25%</p>
                  <p id=""wtp"" style=""text-align:center; margin-top: 0px; margin-bottom: 0px; font-size: 40px"";>&ensp;</p>","-","viewing","0","9","14A,23A","","","","","","","","","","","","","","","","",""
"","","","","","html-slider-response","233","469766","0.0-25.0-1.8","0e23e416-a1ce-4372-aa1d-a68695ae5df5","3994","
                  <p style=""text-align: center;"">₪18
                                                <br>25%</p>
                  <p id=""wtp"" style=""text-align:center; margin-top: 0px; margin-bottom: 0px; font-size: 40px"";>מוכנים לשלם: <span id=""c_p_y""></span></p>","2","evaluation","59","9","14A,23A","25","18","3","","","","","","","","","","","","","",""
"","","","","","html-keyboard-response","234","470996","0.0-25.0-2.8","0e23e416-a1ce-4372-aa1d-a68695ae5df5","null","<p style=""text-align: center;"">+</p>","null","fixation","","","","","","","","","","","","","","","","","","","",""
"","","","","","html-slider-response","235","472003","0.0-25.0-0.9","0e23e416-a1ce-4372-aa1d-a68695ae5df5","1000","
                  <p style=""text-align: center;"">₪76
                                                <br>65%</p>
                  <p id=""wtp"" style=""text-align:center; margin-top: 0px; margin-bottom: 0px; font-size: 40px"";>&ensp;</p>","-","viewing","0","29","8C,19A,24B","","","","","","","","","","","","","","","","",""
"","","","","","html-slider-response","236","474741","0.0-25.0-1.9","0e23e416-a1ce-4372-aa1d-a68695ae5df5","2737","
                  <p style=""text-align: center;"">₪76
                                                <br>65%</p>
                  <p id=""wtp"" style=""text-align:center; margin-top: 0px; margin-bottom: 0px; font-size: 40px"";>מוכנים לשלם: <span id=""c_p_y""></span></p>","34","evaluation","9","29","8C,19A,24B","65","76","34","","","","","","","","","","","","","",""
"","","","","","html-keyboard-response","237","476035","0.0-25.0-2.9","0e23e416-a1ce-4372-aa1d-a68695ae5df5","null","<p style=""text-align: center;"">+</p>","null","fixation","","","","","","","","","","","","","","","","","","","",""
"","","","","","html-slider-response","238","477048","0.0-25.0-0.10","0e23e416-a1ce-4372-aa1d-a68695ae5df5","1000","
                  <p style=""text-align: center;"">₪61
                                                <br>45%</p>
                  <p id=""wtp"" style=""text-align:center; margin-top: 0px; margin-bottom: 0px; font-size: 40px"";>&ensp;</p>","-","viewing","0","22","10A,11A","","","","","","","","","","","","","","","","",""
"","","","","","html-slider-response","239","479061","0.0-25.0-1.10","0e23e416-a1ce-4372-aa1d-a68695ae5df5","2012","
                  <p style=""text-align: center;"">₪61
                                                <br>45%</p>
                  <p id=""wtp"" style=""text-align:center; margin-top: 0px; margin-bottom: 0px; font-size: 40px"";>מוכנים לשלם: <span id=""c_p_y""></span></p>","30","evaluation","61","22","10A,11A","45","61","30","","","","","","","","","","","","","",""
"","","","","","html-keyboard-response","240","479863","0.0-25.0-2.10","0e23e416-a1ce-4372-aa1d-a68695ae5df5","null","<p style=""text-align: center;"">+</p>","null","fixation","","","","","","","","","","","","","","","","","","","",""
"","","","","","html-slider-response","241","480869","0.0-25.0-0.11","0e23e416-a1ce-4372-aa1d-a68695ae5df5","1000","
                  <p style=""text-align: center;"">₪64
                                                <br>25%</p>
                  <p id=""wtp"" style=""text-align:center; margin-top: 0px; margin-bottom: 0px; font-size: 40px"";>&ensp;</p>","-","viewing","0","24","6A,21A","","","","","","","","","","","","","","","","",""
"","","","","","html-slider-response","242","483046","0.0-25.0-1.11","0e23e416-a1ce-4372-aa1d-a68695ae5df5","2176","
                  <p style=""text-align: center;"">₪64
                                                <br>25%</p>
                  <p id=""wtp"" style=""text-align:center; margin-top: 0px; margin-bottom: 0px; font-size: 40px"";>מוכנים לשלם: <span id=""c_p_y""></span></p>","14","evaluation","69","24","6A,21A","25","64","14","","","","","","","","","","","","","",""
"","","","","","html-keyboard-response","243","484545","0.0-25.0-2.11","0e23e416-a1ce-4372-aa1d-a68695ae5df5","null","<p style=""text-align: center;"">+</p>","null","fixation","","","","","","","","","","","","","","","","","","","",""
"","","","","","html-slider-response","244","485549","0.0-25.0-0.12","0e23e416-a1ce-4372-aa1d-a68695ae5df5","1000","
                  <p style=""text-align: center;"">₪39
                                                <br>65%</p>
                  <p id=""wtp"" style=""text-align:center; margin-top: 0px; margin-bottom: 0px; font-size: 40px"";>&ensp;</p>","-","viewing","0","16","1A,15A,26C","","","","","","","","","","","","","","","","",""
"","","","","","html-slider-response","245","489446","0.0-25.0-1.12","0e23e416-a1ce-4372-aa1d-a68695ae5df5","3896","
                  <p style=""text-align: center;"">₪39
                                                <br>65%</p>
                  <p id=""wtp"" style=""text-align:center; margin-top: 0px; margin-bottom: 0px; font-size: 40px"";>מוכנים לשלם: <span id=""c_p_y""></span></p>","31","evaluation","28","16","1A,15A,26C","65","39","31","","","","","","","","","","","","","",""
"","","","","","html-keyboard-response","246","490563","0.0-25.0-2.12","0e23e416-a1ce-4372-aa1d-a68695ae5df5","null","<p style=""text-align: center;"">+</p>","null","fixation","","","","","","","","","","","","","","","","","","","",""
"","","","","","html-slider-response","247","491565","0.0-25.0-0.13","0e23e416-a1ce-4372-aa1d-a68695ae5df5","1000","
                  <p style=""text-align: center;"">₪71
                                                <br>55%</p>
                  <p id=""wtp"" style=""text-align:center; margin-top: 0px; margin-bottom: 0px; font-size: 40px"";>&ensp;</p>","-","viewing","0","27","5B,18A","","","","","","","","","","","","","","","","",""
"","","","","","html-slider-response","248","493454","0.0-25.0-1.13","0e23e416-a1ce-4372-aa1d-a68695ae5df5","1888","
                  <p style=""text-align: center;"">₪71
                                                <br>55%</p>
                  <p id=""wtp"" style=""text-align:center; margin-top: 0px; margin-bottom: 0px; font-size: 40px"";>מוכנים לשלם: <span id=""c_p_y""></span></p>","25","evaluation","41","27","5B,18A","55","71","25","","","","","","","","","","","","","",""
"","","","","","html-keyboard-response","249","494675","0.0-25.0-2.13","0e23e416-a1ce-4372-aa1d-a68695ae5df5","null","<p style=""text-align: center;"">+</p>","null","fixation","","","","","","","","","","","","","","","","","","","",""
"","","","","","html-slider-response","250","495681","0.0-25.0-0.14","0e23e416-a1ce-4372-aa1d-a68695ae5df5","1000","
                  <p style=""text-align: center;"">₪36
                                                <br>60%</p>
                  <p id=""wtp"" style=""text-align:center; margin-top: 0px; margin-bottom: 0px; font-size: 40px"";>&ensp;</p>","-","viewing","0","12","1C,7C,15C","","","","","","","","","","","","","","","","",""
"","","","","","html-slider-response","251","498886","0.0-25.0-1.14","0e23e416-a1ce-4372-aa1d-a68695ae5df5","3204","
                  <p style=""text-align: center;"">₪36
                                                <br>60%</p>
                  <p id=""wtp"" style=""text-align:center; margin-top: 0px; margin-bottom: 0px; font-size: 40px"";>מוכנים לשלם: <span id=""c_p_y""></span></p>","32","evaluation","34","12","1C,7C,15C","60","36","32","","","","","","","","","","","","","",""
"","","","","","html-keyboard-response","252","499623","0.0-25.0-2.14","0e23e416-a1ce-4372-aa1d-a68695ae5df5","null","<p style=""text-align: center;"">+</p>","null","fixation","","","","","","","","","","","","","","","","","","","",""
"","","","","","html-slider-response","253","500641","0.0-25.0-0.15","0e23e416-a1ce-4372-aa1d-a68695ae5df5","1000","
                  <p style=""text-align: center;"">₪4
                                                <br>75%</p>
                  <p id=""wtp"" style=""text-align:center; margin-top: 0px; margin-bottom: 0px; font-size: 40px"";>&ensp;</p>","-","viewing","0","3","12B,20B,23B,27C,29C","","","","","","","","","","","","","","","","",""
"","","","","","html-slider-response","254","504652","0.0-25.0-1.15","0e23e416-a1ce-4372-aa1d-a68695ae5df5","null","
                  <p style=""text-align: center;"">₪4
                                                <br>75%</p>
