"success","timeout","failed_images","failed_audio","failed_video","trial_type","trial_index","time_elapsed","internal_node_id","subject_id","rt","stimulus","response","part","slider_start","ID","set_ID","prob","amount","last_location","actual_choice","actual_EV","binary_id","trinary_id","catch","direction","A_key","S_key","D_key","choice_prob","choice_amount","chosen_part","potential_prize_prob","potential_prize_amount","won_prize","total_prize","prize_cost","remaining_budget","accuracy"
"true","false","[]","[]","[]","preload","0","189","0.0-0.0","f3f4c9c6-1414-4b66-91ed-6a5bc6933887","","","","","","","","","","","","","","","","","","","","","","","","","","","","",""
"","","","","","html-keyboard-response","1","1892937","0.0-1.0","f3f4c9c6-1414-4b66-91ed-6a5bc6933887","null","
          <h1>שלום וברוכים הבאים!</h1>
          <p>לפניכם ניסוי בקבלת החלטות עם שני חלקים.
          <br><br>לחצו על העכבר כדי להמשיך.</p>","0","example","","","","","","","","","","","","","","","","","","","","","","","","",""
"","","","","","html-keyboard-response","2","1903712","0.0-2.0","f3f4c9c6-1414-4b66-91ed-6a5bc6933887","null","
        <h1>חלק 1</h1>
        <p>בקרוב יוצגו בפניכם הגרלות.
        <br>עליכם לבחור את המחיר המירבי שתהיו מוכנים לשלם כדי להשתתף בהגרלה שתוצג.
        <br>יש לכם תקציב של ₪80 לכל הגרלה. 
        <br>נסו להעריך כל הגרלה בנפרד ולחשוב כמה היא שווה עבורכם, ₪80 זמינים לכל הגרלה בנפרד.
        <br><br>לחצו על העכבר כדי להמשיך.</p>","1","instructions","","","","","","","","","","","","","","","","","","","","","","","","",""
"","","","","","html-keyboard-response","3","1920992","0.0-3.0","f3f4c9c6-1414-4b66-91ed-6a5bc6933887","null","
        <p>בסוף הניסוי, המחשב יבחר את אחת ההגרלות ויקבע מחיר לכרטיס עבורה. 
        <br>במידה והמחיר שבחרתם נמוך מהמחיר שנבחר על ידי המחשב, לא תשתתפו בהגרלה ותשארו עם מלוא התקציב.
        <br>במידה והמחיר שבחרתם גבוה מהמחיר שנבחר על ידי המחשב, תשלמו את המחיר שנקבע ותשתתפו בהגרלה.
        <br><br>לחצו על העכבר כדי להמשיך.</p>","1","instructions","","","","","","","","","","","","","","","","","","","","","","","","",""
"","","","","","html-slider-response","4","1942024","0.0-4.0","f3f4c9c6-1414-4b66-91ed-6a5bc6933887","20919","
        <p style=""font-size: 42px;"">נתחיל עם דוגמא: 
        <br>ההגרלה מטה מציעה 65% סיכוי לזכות ב-₪40 
        <br>&emsp;&emsp;&emsp;&emsp;&emsp;&emsp;&emsp;&emsp;&ensp;35% סיכוי לזכות ב-₪0.
        <br><br>מה המחיר המירבי שתהיו מוכנים לשלם על כרטיס להגרלה זו בין 0 ל-₪80?
        <br>הזיזו את העכבר על פני המלבן ולחצו כדי לבצע בחירה.</p>
        
        <p style=""text-align: center;"">₪40<br>65%</p>

        <p id=""wtp"" style=""text-align:center; margin-top: 0px; margin-bottom: 0px; font-size: 40px"";>מוכנים לשלם: <span id=""c_p_y""></span></p>","20","example","51","","","","","","","","","","","","","","","","","","","","","","","",""
"","","","","","html-keyboard-response","5","1950816","0.0-5.0","f3f4c9c6-1414-4b66-91ed-6a5bc6933887","null","<p>יפה מאוד!
                <br> בחרתם שתהיו מוכנים לשלם ₪20 כדי להשתתף בהגרלה:
                <br><p style=""text-align: center;"">₪40<br>65%</p>
                <p>נשמע נכון?
                <br>נניח שהגרלה זו נבחרה בסוף הניסוי.
                <br>כעת המחשב יקבע מחיר עבורה באקראי.
                <br>לחצו על העכבר להמשך.</p>","1","example","","","","","","","","","","","","","","","","","","","","","","","","",""
"","","","","","html-keyboard-response","6","1957976","0.0-6.0","f3f4c9c6-1414-4b66-91ed-6a5bc6933887","null","<p>המחשב קבע מחיר: ₪78
                <br>ואתם בחרתם לשלם לכל היותר: ₪20
                <br><br>מכיוון שהמחיר שבחרתם נמוך מהמחיר שנקבע, לא תתשתתפו בהגרלה.
                <br>במקרה כזה, בסוף הניסוי תקבלו את כל התקציב ההתחלתי של ₪80.
                <br><br>לחצו על העכבר להמשך.</p>","1","example","","","","","","","","","","","","","","","","","","","","","","","","",""
"","","","","","html-slider-response","7","1980769","0.0-7.0","f3f4c9c6-1414-4b66-91ed-6a5bc6933887","22537","<p style=""font-size: 42px;"">הנה עוד דוגמא:
                <br>ההגרלה מטה מציעה 35% סיכוי לזכות ב-₪18 
                <br>&emsp;&emsp;&emsp;&emsp;&emsp;&emsp;&emsp;&emsp;&ensp;65% סיכוי לזכות ב-₪0.</p>
        
                <p style=""text-align: center;"">₪18<br>35%</p>
                <p id=""wtp"" style=""text-align:center; margin-top: 0px; margin-bottom: 0px; font-size: 40px"";>מוכנים לשלם: <span id=""c_p_y""></span></p>","1","example","52","","","","","","","","","","","","","","","","","","","","","","","",""
"","","","","","html-keyboard-response","8","1985328","0.0-8.0","f3f4c9c6-1414-4b66-91ed-6a5bc6933887","null","<p>הייתם מוכנים לשלם  ₪1 כדי להשתתף בהגרלה:
                <p style=""text-align: center;"">₪18<br>35%</p>
                <p>כעת נניח שהמחשב בחר את ההגרלה הזו בסוף הניסוי, וקבע עבורה מחיר.
                <br><br>לחצו על העכבר כדי להמשיך.</p>","1","instructions","","","","","","","","","","","","","","","","","","","","","","","","",""
"","","","","","html-keyboard-response","9","1998984","0.0-9.0","f3f4c9c6-1414-4b66-91ed-6a5bc6933887","null","<p>המחשב קבע מחיר להגרלה: ₪1
                <br>ואתם בחרתם לשלם לכל היותר: ₪1
                <br><br>כעת המחיר שנקבע זהה לזה שבחרתם, אז תשלמו את המחיר שקבע המחשב (₪1) ותשתתפו בהגרלה.
                <br>במקרה כזה, תסיימו את הניסוי עם תקציב של ₪79 ועם סיכוי לזכות ב-₪18 נוספים מההגרלה.
                <br>כלומר, תוכלו לקבל ₪79 אם לא תזכו בהגרלה, או ₪97 אם תזכו בהגרלה.
                <br><br>לחצו על העכבר להמשך.</p>","1","example","","","","","","","","","","","","","","","","","","","","","","","","",""
"","","","","","html-keyboard-response","10","2005680","0.0-10.0","f3f4c9c6-1414-4b66-91ed-6a5bc6933887","null","<p>במהלך הניסוי, קודם תראו את ההגרלה ורק לאחר מכן תוכלו לבחור.
                <p>כמו כן, יהיו לכם מספר שניות מוגבל להגיב.
                <p>בואו ננסה זאת עם ההגרלה הקודמת.
                <br>לחצו על העכבר כדי להמשיך.</p>","1","instructions","","","","","","","","","","","","","","","","","","","","","","","","",""
"","","","","","html-slider-response","11","2006960","0.0-11.0","f3f4c9c6-1414-4b66-91ed-6a5bc6933887","1000","
                    <p style=""text-align: center;"">₪18<br>35%</p>
                    <p id=""wtp"" style=""text-align:center; margin-top: 0px; margin-bottom: 0px; font-size: 40px"";>&ensp;</p>","6","instructions","0","","","","","","","","","","","","","","","","","","","","","","","",""
"","","","","","html-slider-response","12","2011228","0.0-12.0","f3f4c9c6-1414-4b66-91ed-6a5bc6933887","null","
                    <p style=""text-align: center;"">₪18<br>35%</p>
                    <p id=""wtp"" style=""text-align:center; margin-top: 0px; margin-bottom: 0px; font-size: 40px"";>מוכנים לשלם: <span id=""c_p_y""></span></p>","null","instructions","80","","","","","","","","","","","","","","","","","","","","","","","",""
"","","","","","html-keyboard-response","13","2018512","0.0-13.0","f3f4c9c6-1414-4b66-91ed-6a5bc6933887","null","<p>לא הגבתם בזמן המוקצב לתגובה. 
                <br>נסו להגיב מהר יותר בפעם הבאה.
                <br><br>לחצו על העכבר כדי להמשיך.</p>","1","instructions","","","","","","","","","","","","","","","","","","","","","","","","",""
"","","","","","html-slider-response","14","2021712","0.0-14.0-0.0","f3f4c9c6-1414-4b66-91ed-6a5bc6933887","2936","
                    <p style=""text-align: center;"">₪40<br>65%</p>
                    <p id=""wtp"" style=""text-align:center; margin-top: 0px; margin-bottom: 0px; font-size: 40px"";>מוכנים לשלם: <span id=""c_p_y""></span></p>","20","instructions","50","","","","","","","","","","","","","","","","","","","","","","","",""
"","","","","","html-keyboard-response","15","2034680","0.0-14.0-1.0","f3f4c9c6-1414-4b66-91ed-6a5bc6933887","null","<p>יפה. הפעם בחרתם לשלם לכל היותר ₪20.
                <br><br>לחצו על העכבר כדי להמשיך.</p>","1","instructions","","","","","","","","","","","","","","","","","","","","","","","","",""
"","","","","","html-keyboard-response","16","2062784","0.0-15.0","f3f4c9c6-1414-4b66-91ed-6a5bc6933887","null","<p>כעת נתחיל את הניסוי.
                <br><br>אתם תראו הגרלות ותתבקשו לבחור כמה תהיו מוכנים לשלם כדי להשתתף בהן.
                <br>יש לכם תקציב של ₪80 עבור כל הגרלה.
                <br>בסוף הניסוי הגרלה אחת תבחר באקראי ותשוחק.
                <br><br>לחצו על העכבר כדי להתחיל את הניסוי.</p>","1","instructions","","","","","","","","","","","","","","","","","","","","","","","","",""
"","","","","","html-keyboard-response","17","2064041","0.0-16.0","f3f4c9c6-1414-4b66-91ed-6a5bc6933887","null","<p style=""text-align: center;"">+</p>","null","fixation","","","","","","","","","","","","","","","","","","","","","","","","",""
"","","","","","html-slider-response","18","2065048","0.0-17.0-0.0","f3f4c9c6-1414-4b66-91ed-6a5bc6933887","1000","
                  <p style=""text-align: center;"">₪58
                                                <br>30%</p>
                  <p id=""wtp"" style=""text-align:center; margin-top: 0px; margin-bottom: 0px; font-size: 40px"";>&ensp;</p>","-","viewing","0","19","13C,30A","","","","","","","","","","","","","","","","","","","","","",""
"","","","","","html-slider-response","19","2068456","0.0-17.0-1.0","f3f4c9c6-1414-4b66-91ed-6a5bc6933887","3407","
                  <p style=""text-align: center;"">₪58
                                                <br>30%</p>
                  <p id=""wtp"" style=""text-align:center; margin-top: 0px; margin-bottom: 0px; font-size: 40px"";>מוכנים לשלם: <span id=""c_p_y""></span></p>","13","evaluation","32","19","13C,30A","30","58","13","","","","","","","","","","","","","","","","","","",""
"","","","","","html-keyboard-response","20","2069313","0.0-17.0-2.0","f3f4c9c6-1414-4b66-91ed-6a5bc6933887","null","<p style=""text-align: center;"">+</p>","null","fixation","","","","","","","","","","","","","","","","","","","","","","","","",""
"","","","","","html-slider-response","21","2070321","0.0-17.0-0.1","f3f4c9c6-1414-4b66-91ed-6a5bc6933887","1000","
                  <p style=""text-align: center;"">₪36
                                                <br>75%</p>
                  <p id=""wtp"" style=""text-align:center; margin-top: 0px; margin-bottom: 0px; font-size: 40px"";>&ensp;</p>","-","viewing","0","14","4B,5A,13B,16B","","","","","","","","","","","","","","","","","","","","","",""
"","","","","","html-slider-response","22","2073040","0.0-17.0-1.1","f3f4c9c6-1414-4b66-91ed-6a5bc6933887","2718","
                  <p style=""text-align: center;"">₪36
                                                <br>75%</p>
                  <p id=""wtp"" style=""text-align:center; margin-top: 0px; margin-bottom: 0px; font-size: 40px"";>מוכנים לשלם: <span id=""c_p_y""></span></p>","14","evaluation","68","14","4B,5A,13B,16B","75","36","15","","","","","","","","","","","","","","","","","","",""
"","","","","","html-keyboard-response","23","2074175","0.0-17.0-2.1","f3f4c9c6-1414-4b66-91ed-6a5bc6933887","null","<p style=""text-align: center;"">+</p>","null","fixation","","","","","","","","","","","","","","","","","","","","","","","","",""
"","","","","","html-slider-response","24","2075176","0.0-17.0-0.2","f3f4c9c6-1414-4b66-91ed-6a5bc6933887","1000","
                  <p style=""text-align: center;"">₪4
                                                <br>50%</p>
                  <p id=""wtp"" style=""text-align:center; margin-top: 0px; margin-bottom: 0px; font-size: 40px"";>&ensp;</p>","-","viewing","0","2","4C,17B","","","","","","","","","","","","","","","","","","","","","",""
"","","","","","html-slider-response","25","2077424","0.0-17.0-1.2","f3f4c9c6-1414-4b66-91ed-6a5bc6933887","2247","
                  <p style=""text-align: center;"">₪4
                                                <br>50%</p>
                  <p id=""wtp"" style=""text-align:center; margin-top: 0px; margin-bottom: 0px; font-size: 40px"";>מוכנים לשלם: <span id=""c_p_y""></span></p>","0","evaluation","71","2","4C,17B","50","4","0","","","","","","","","","","","","","","","","","","",""
"","","","","","html-keyboard-response","26","2078596","0.0-17.0-2.2","f3f4c9c6-1414-4b66-91ed-6a5bc6933887","null","<p style=""text-align: center;"">+</p>","null","fixation","","","","","","","","","","","","","","","","","","","","","","","","",""
"","","","","","html-slider-response","27","2079599","0.0-17.0-0.3","f3f4c9c6-1414-4b66-91ed-6a5bc6933887","1000","
                  <p style=""text-align: center;"">₪11
                                                <br>25%</p>
                  <p id=""wtp"" style=""text-align:center; margin-top: 0px; margin-bottom: 0px; font-size: 40px"";>&ensp;</p>","-","viewing","0","5","12A,27B,28B,30B","","","","","","","","","","","","","","","","","","","","","",""
"","","","","","html-slider-response","28","2082376","0.0-17.0-1.3","f3f4c9c6-1414-4b66-91ed-6a5bc6933887","2776","
                  <p style=""text-align: center;"">₪11
                                                <br>25%</p>
                  <p id=""wtp"" style=""text-align:center; margin-top: 0px; margin-bottom: 0px; font-size: 40px"";>מוכנים לשלם: <span id=""c_p_y""></span></p>","0","evaluation","32","5","12A,27B,28B,30B","25","11","1","","","","","","","","","","","","","","","","","","",""
"","","","","","html-keyboard-response","29","2083868","0.0-17.0-2.3","f3f4c9c6-1414-4b66-91ed-6a5bc6933887","null","<p style=""text-align: center;"">+</p>","null","fixation","","","","","","","","","","","","","","","","","","","","","","","","",""
"","","","","","html-slider-response","30","2084883","0.0-17.0-0.4","f3f4c9c6-1414-4b66-91ed-6a5bc6933887","1000","
                  <p style=""text-align: center;"">₪76
                                                <br>65%</p>
                  <p id=""wtp"" style=""text-align:center; margin-top: 0px; margin-bottom: 0px; font-size: 40px"";>&ensp;</p>","-","viewing","0","29","8C,19A,24B","","","","","","","","","","","","","","","","","","","","","",""
"","","","","","html-slider-response","31","2088856","0.0-17.0-1.4","f3f4c9c6-1414-4b66-91ed-6a5bc6933887","3972","
                  <p style=""text-align: center;"">₪76
                                                <br>65%</p>
                  <p id=""wtp"" style=""text-align:center; margin-top: 0px; margin-bottom: 0px; font-size: 40px"";>מוכנים לשלם: <span id=""c_p_y""></span></p>","15","evaluation","56","29","8C,19A,24B","65","76","15","","","","","","","","","","","","","","","","","","",""
"","","","","","html-keyboard-response","32","2089382","0.0-17.0-2.4","f3f4c9c6-1414-4b66-91ed-6a5bc6933887","null","<p style=""text-align: center;"">+</p>","null","fixation","","","","","","","","","","","","","","","","","","","","","","","","",""
"","","","","","html-slider-response","33","2090387","0.0-17.0-0.5","f3f4c9c6-1414-4b66-91ed-6a5bc6933887","1000","
                  <p style=""text-align: center;"">₪43
                                                <br>60%</p>
                  <p id=""wtp"" style=""text-align:center; margin-top: 0px; margin-bottom: 0px; font-size: 40px"";>&ensp;</p>","-","viewing","0","17","2A,7A,9A,15B","","","","","","","","","","","","","","","","","","","","","",""
"","","","","","html-slider-response","34","2092560","0.0-17.0-1.5","f3f4c9c6-1414-4b66-91ed-6a5bc6933887","2172","
                  <p style=""text-align: center;"">₪43
                                                <br>60%</p>
                  <p id=""wtp"" style=""text-align:center; margin-top: 0px; margin-bottom: 0px; font-size: 40px"";>מוכנים לשלם: <span id=""c_p_y""></span></p>","15","evaluation","69","17","2A,7A,9A,15B","60","43","15","","","","","","","","","","","","","","","","","","",""
"","","","","","html-keyboard-response","35","2093524","0.0-17.0-2.5","f3f4c9c6-1414-4b66-91ed-6a5bc6933887","null","<p style=""text-align: center;"">+</p>","null","fixation","","","","","","","","","","","","","","","","","","","","","","","","",""
"","","","","","html-slider-response","36","2094527","0.0-17.0-0.6","f3f4c9c6-1414-4b66-91ed-6a5bc6933887","1000","
                  <p style=""text-align: center;"">₪61
                                                <br>45%</p>
                  <p id=""wtp"" style=""text-align:center; margin-top: 0px; margin-bottom: 0px; font-size: 40px"";>&ensp;</p>","-","viewing","0","22","10A,11A","","","","","","","","","","","","","","","","","","","","","",""
"","","","","","html-slider-response","37","2097112","0.0-17.0-1.6","f3f4c9c6-1414-4b66-91ed-6a5bc6933887","2584","
                  <p style=""text-align: center;"">₪61
                                                <br>45%</p>
                  <p id=""wtp"" style=""text-align:center; margin-top: 0px; margin-bottom: 0px; font-size: 40px"";>מוכנים לשלם: <span id=""c_p_y""></span></p>","8","evaluation","22","22","10A,11A","45","61","8","","","","","","","","","","","","","","","","","","",""
"","","","","","html-keyboard-response","38","2098110","0.0-17.0-2.6","f3f4c9c6-1414-4b66-91ed-6a5bc6933887","null","<p style=""text-align: center;"">+</p>","null","fixation","","","","","","","","","","","","","","","","","","","","","","","","",""
"","","","","","html-slider-response","39","2099117","0.0-17.0-0.7","f3f4c9c6-1414-4b66-91ed-6a5bc6933887","1000","
                  <p style=""text-align: center;"">₪71
                                                <br>55%</p>
                  <p id=""wtp"" style=""text-align:center; margin-top: 0px; margin-bottom: 0px; font-size: 40px"";>&ensp;</p>","-","viewing","0","27","5B,18A","","","","","","","","","","","","","","","","","","","","","",""
"","","","","","html-slider-response","40","2102816","0.0-17.0-1.7","f3f4c9c6-1414-4b66-91ed-6a5bc6933887","3698","
                  <p style=""text-align: center;"">₪71
                                                <br>55%</p>
                  <p id=""wtp"" style=""text-align:center; margin-top: 0px; margin-bottom: 0px; font-size: 40px"";>מוכנים לשלם: <span id=""c_p_y""></span></p>","10","evaluation","14","27","5B,18A","55","71","10","","","","","","","","","","","","","","","","","","",""
"","","","","","html-keyboard-response","41","2104155","0.0-17.0-2.7","f3f4c9c6-1414-4b66-91ed-6a5bc6933887","null","<p style=""text-align: center;"">+</p>","null","fixation","","","","","","","","","","","","","","","","","","","","","","","","",""
"","","","","","html-slider-response","42","2105172","0.0-17.0-0.8","f3f4c9c6-1414-4b66-91ed-6a5bc6933887","1000","
                  <p style=""text-align: center;"">₪39
                                                <br>65%</p>
                  <p id=""wtp"" style=""text-align:center; margin-top: 0px; margin-bottom: 0px; font-size: 40px"";>&ensp;</p>","-","viewing","0","16","1A,15A,26C","","","","","","","","","","","","","","","","","","","","","",""
"","","","","","html-slider-response","43","2108456","0.0-17.0-1.8","f3f4c9c6-1414-4b66-91ed-6a5bc6933887","3284","
                  <p style=""text-align: center;"">₪39
                                                <br>65%</p>
                  <p id=""wtp"" style=""text-align:center; margin-top: 0px; margin-bottom: 0px; font-size: 40px"";>מוכנים לשלם: <span id=""c_p_y""></span></p>","7","evaluation","51","16","1A,15A,26C","65","39","8","","","","","","","","","","","","","","","","","","",""
"","","","","","html-keyboard-response","44","2109477","0.0-17.0-2.8","f3f4c9c6-1414-4b66-91ed-6a5bc6933887","null","<p style=""text-align: center;"">+</p>","null","fixation","","","","","","","","","","","","","","","","","","","","","","","","",""
"","","","","","html-slider-response","45","2110494","0.0-17.0-0.9","f3f4c9c6-1414-4b66-91ed-6a5bc6933887","1000","
                  <p style=""text-align: center;"">₪71
                                                <br>75%</p>
                  <p id=""wtp"" style=""text-align:center; margin-top: 0px; margin-bottom: 0px; font-size: 40px"";>&ensp;</p>","-","viewing","0","28","8B","","","","","","","","","","","","","","","","","","","","","",""
"","","","","","html-slider-response","46","2113336","0.0-17.0-1.9","f3f4c9c6-1414-4b66-91ed-6a5bc6933887","2841","
                  <p style=""text-align: center;"">₪71
                                                <br>75%</p>
                  <p id=""wtp"" style=""text-align:center; margin-top: 0px; margin-bottom: 0px; font-size: 40px"";>מוכנים לשלם: <span id=""c_p_y""></span></p>","17","evaluation","79","28","8B","75","71","17","","","","","","","","","","","","","","","","","","",""
"","","","","","html-keyboard-response","47","2114634","0.0-17.0-2.9","f3f4c9c6-1414-4b66-91ed-6a5bc6933887","null","<p style=""text-align: center;"">+</p>","null","fixation","","","","","","","","","","","","","","","","","","","","","","","","",""
"","","","","","html-slider-response","48","2115641","0.0-17.0-0.10","f3f4c9c6-1414-4b66-91ed-6a5bc6933887","1000","
                  <p style=""text-align: center;"">₪18
                                                <br>50%</p>
                  <p id=""wtp"" style=""text-align:center; margin-top: 0px; margin-bottom: 0px; font-size: 40px"";>&ensp;</p>","-","viewing","0","10","2C,16C,22B,28A","","","","","","","","","","","","","","","","","","","","","",""
"","","","","","html-slider-response","49","2117104","0.0-17.0-1.10","f3f4c9c6-1414-4b66-91ed-6a5bc6933887","1462","
                  <p style=""text-align: center;"">₪18
                                                <br>50%</p>
                  <p id=""wtp"" style=""text-align:center; margin-top: 0px; margin-bottom: 0px; font-size: 40px"";>מוכנים לשלם: <span id=""c_p_y""></span></p>","4","evaluation","54","10","2C,16C,22B,28A","50","18","4","","","","","","","","","","","","","","","","","","",""
"","","","","","html-keyboard-response","50","2117689","0.0-17.0-2.10","f3f4c9c6-1414-4b66-91ed-6a5bc6933887","null","<p style=""text-align: center;"">+</p>","null","fixation","","","","","","","","","","","","","","","","","","","","","","","","",""
"","","","","","html-slider-response","51","2118698","0.0-17.0-0.11","f3f4c9c6-1414-4b66-91ed-6a5bc6933887","1000","
                  <p style=""text-align: center;"">₪36
                                                <br>30%</p>
                  <p id=""wtp"" style=""text-align:center; margin-top: 0px; margin-bottom: 0px; font-size: 40px"";>&ensp;</p>","-","viewing","0","11","3C,20A,22A","","","","","","","","","","","","","","","","","","","","","",""
"","","","","","html-slider-response","52","2121192","0.0-17.0-1.11","f3f4c9c6-1414-4b66-91ed-6a5bc6933887","2494","
                  <p style=""text-align: center;"">₪36
                                                <br>30%</p>
                  <p id=""wtp"" style=""text-align:center; margin-top: 0px; margin-bottom: 0px; font-size: 40px"";>מוכנים לשלם: <span id=""c_p_y""></span></p>","0","evaluation","13","11","3C,20A,22A","30","36","1","","","","","","","","","","","","","","","","","","",""
"","","","","","html-keyboard-response","53","2122491","0.0-17.0-2.11","f3f4c9c6-1414-4b66-91ed-6a5bc6933887","null","<p style=""text-align: center;"">+</p>","null","fixation","","","","","","","","","","","","","","","","","","","","","","","","",""
"","","","","","html-slider-response","54","2123493","0.0-17.0-0.12","f3f4c9c6-1414-4b66-91ed-6a5bc6933887","1000","
                  <p style=""text-align: center;"">₪36
                                                <br>60%</p>
                  <p id=""wtp"" style=""text-align:center; margin-top: 0px; margin-bottom: 0px; font-size: 40px"";>&ensp;</p>","-","viewing","0","12","1C,7C,15C","","","","","","","","","","","","","","","","","","","","","",""
"","","","","","html-slider-response","55","2126264","0.0-17.0-1.12","f3f4c9c6-1414-4b66-91ed-6a5bc6933887","2771","
                  <p style=""text-align: center;"">₪36
                                                <br>60%</p>
                  <p id=""wtp"" style=""text-align:center; margin-top: 0px; margin-bottom: 0px; font-size: 40px"";>מוכנים לשלם: <span id=""c_p_y""></span></p>","6","evaluation","29","12","1C,7C,15C","60","36","6","","","","","","","","","","","","","","","","","","",""
"","","","","","html-keyboard-response","56","2126784","0.0-17.0-2.12","f3f4c9c6-1414-4b66-91ed-6a5bc6933887","null","<p style=""text-align: center;"">+</p>","null","fixation","","","","","","","","","","","","","","","","","","","","","","","","",""
"","","","","","html-slider-response","57","2127785","0.0-17.0-0.13","f3f4c9c6-1414-4b66-91ed-6a5bc6933887","1000","
                  <p style=""text-align: center;"">₪4
                                                <br>25%</p>
                  <p id=""wtp"" style=""text-align:center; margin-top: 0px; margin-bottom: 0px; font-size: 40px"";>&ensp;</p>","-","viewing","0","1","6C,29B,30C","","","","","","","","","","","","","","","","","","","","","",""
"","","","","","html-slider-response","58","2130288","0.0-17.0-1.13","f3f4c9c6-1414-4b66-91ed-6a5bc6933887","2502","
                  <p style=""text-align: center;"">₪4
                                                <br>25%</p>
                  <p id=""wtp"" style=""text-align:center; margin-top: 0px; margin-bottom: 0px; font-size: 40px"";>מוכנים לשלם: <span id=""c_p_y""></span></p>","0","evaluation","21","1","6C,29B,30C","25","4","0","","","","","","","","","","","","","","","","","","",""
"","","","","","html-keyboard-response","59","2130851","0.0-17.0-2.13","f3f4c9c6-1414-4b66-91ed-6a5bc6933887","null","<p style=""text-align: center;"">+</p>","null","fixation","","","","","","","","","","","","","","","","","","","","","","","","",""
"","","","","","html-slider-response","60","2131865","0.0-17.0-0.14","f3f4c9c6-1414-4b66-91ed-6a5bc6933887","1000","
                  <p style=""text-align: center;"">₪43
                                                <br>75%</p>
                  <p id=""wtp"" style=""text-align:center; margin-top: 0px; margin-bottom: 0px; font-size: 40px"";>&ensp;</p>","-","viewing","0","18","11B,19B,24A,26A","","","","","","","","","","","","","","","","","","","","","",""
"","","","","","html-slider-response","61","2134128","0.0-17.0-1.14","f3f4c9c6-1414-4b66-91ed-6a5bc6933887","2262","
                  <p style=""text-align: center;"">₪43
                                                <br>75%</p>
                  <p id=""wtp"" style=""text-align:center; margin-top: 0px; margin-bottom: 0px; font-size: 40px"";>מוכנים לשלם: <span id=""c_p_y""></span></p>","17","evaluation","51","18","11B,19B,24A,26A","75","43","17","","","","","","","","","","","","","","","","","","",""
"","","","","","html-keyboard-response","62","2134724","0.0-17.0-2.14","f3f4c9c6-1414-4b66-91ed-6a5bc6933887","null","<p style=""text-align: center;"">+</p>","null","fixation","","","","","","","","","","","","","","","","","","","","","","","","",""
"","","","","","html-slider-response","63","2135734","0.0-17.0-0.15","f3f4c9c6-1414-4b66-91ed-6a5bc6933887","1000","
                  <p style=""text-align: center;"">₪36
                                                <br>70%</p>
                  <p id=""wtp"" style=""text-align:center; margin-top: 0px; margin-bottom: 0px; font-size: 40px"";>&ensp;</p>","-","viewing","0","13","3A,5C,10B","","","","","","","","","","","","","","","","","","","","","",""
"","","","","","html-slider-response","64","2137912","0.0-17.0-1.15","f3f4c9c6-1414-4b66-91ed-6a5bc6933887","2177","
                  <p style=""text-align: center;"">₪36
                                                <br>70%</p>
                  <p id=""wtp"" style=""text-align:center; margin-top: 0px; margin-bottom: 0px; font-size: 40px"";>מוכנים לשלם: <span id=""c_p_y""></span></p>","18","evaluation","16","13","3A,5C,10B","70","36","18","","","","","","","","","","","","","","","","","","",""
"","","","","","html-keyboard-response","65","2139422","0.0-17.0-2.15","f3f4c9c6-1414-4b66-91ed-6a5bc6933887","null","<p style=""text-align: center;"">+</p>","null","fixation","","","","","","","","","","","","","","","","","","","","","","","","",""
"","","","","","html-slider-response","66","2140437","0.0-17.0-0.16","f3f4c9c6-1414-4b66-91ed-6a5bc6933887","1000","
                  <p style=""text-align: center;"">₪4
                                                <br>75%</p>
                  <p id=""wtp"" style=""text-align:center; margin-top: 0px; margin-bottom: 0px; font-size: 40px"";>&ensp;</p>","-","viewing","0","3","12B,20B,23B,27C,29C","","","","","","","","","","","","","","","","","","","","","",""
"","","","","","html-slider-response","67","2141864","0.0-17.0-1.16","f3f4c9c6-1414-4b66-91ed-6a5bc6933887","1427","
                  <p style=""text-align: center;"">₪4
                                                <br>75%</p>
                  <p id=""wtp"" style=""text-align:center; margin-top: 0px; margin-bottom: 0px; font-size: 40px"";>מוכנים לשלם: <span id=""c_p_y""></span></p>","0","evaluation","76","3","12B,20B,23B,27C,29C","75","4","0","","","","","","","","","","","","","","","","","","",""
"","","","","","html-keyboard-response","68","2142515","0.0-17.0-2.16","f3f4c9c6-1414-4b66-91ed-6a5bc6933887","null","<p style=""text-align: center;"">+</p>","null","fixation","","","","","","","","","","","","","","","","","","","","","","","","",""
"","","","","","html-slider-response","69","2143522","0.0-17.0-0.17","f3f4c9c6-1414-4b66-91ed-6a5bc6933887","1000","
                  <p style=""text-align: center;"">₪71
                                                <br>45%</p>
                  <p id=""wtp"" style=""text-align:center; margin-top: 0px; margin-bottom: 0px; font-size: 40px"";>&ensp;</p>","-","viewing","0","26","2B,16A","","","","","","","","","","","","","","","","","","","","","",""
"","","","","","html-slider-response","70","2147524","0.0-17.0-1.17","f3f4c9c6-1414-4b66-91ed-6a5bc6933887","null","
                  <p style=""text-align: center;"">₪71
                                                <br>45%</p>
                  <p id=""wtp"" style=""text-align:center; margin-top: 0px; margin-bottom: 0px; font-size: 40px"";>מוכנים לשלם: <span id=""c_p_y""></span></p>","null","evaluation","53","26","2B,16A","45","71","5","","","","","","","","","","","","","","","","","","",""
"","","","","","html-keyboard-response","71","2148750","0.0-17.0-2.17","f3f4c9c6-1414-4b66-91ed-6a5bc6933887","null","<p style=""text-align: center;"">+</p>","null","fixation","","","","","","","","","","","","","","","","","","","","","","","","",""
"","","","","","html-slider-response","72","2149753","0.0-17.0-0.18","f3f4c9c6-1414-4b66-91ed-6a5bc6933887","1000","
                  <p style=""text-align: center;"">₪11
                                                <br>75%</p>
                  <p id=""wtp"" style=""text-align:center; margin-top: 0px; margin-bottom: 0px; font-size: 40px"";>&ensp;</p>","-","viewing","0","7","6B,18B,22C,24C,29A","","","","","","","","","","","","","","","","","","","","","",""
"","","","","","html-slider-response","73","2151201","0.0-17.0-1.18","f3f4c9c6-1414-4b66-91ed-6a5bc6933887","1447","
                  <p style=""text-align: center;"">₪11
                                                <br>75%</p>
                  <p id=""wtp"" style=""text-align:center; margin-top: 0px; margin-bottom: 0px; font-size: 40px"";>מוכנים לשלם: <span id=""c_p_y""></span></p>","1","evaluation","76","7","6B,18B,22C,24C,29A","75","11","2","","","","","","","","","","","","","","","","","","",""
"","","","","","html-keyboard-response","74","2152431","0.0-17.0-2.18","f3f4c9c6-1414-4b66-91ed-6a5bc6933887","null","<p style=""text-align: center;"">+</p>","null","fixation","","","","","","","","","","","","","","","","","","","","","","","","",""
"","","","","","html-slider-response","75","2153438","0.0-17.0-0.19","f3f4c9c6-1414-4b66-91ed-6a5bc6933887","1000","
                  <p style=""text-align: center;"">₪61
                                                <br>55%</p>
                  <p id=""wtp"" style=""text-align:center; margin-top: 0px; margin-bottom: 0px; font-size: 40px"";>&ensp;</p>","-","viewing","0","23","7B,26B","","","","","","","","","","","","","","","","","","","","","",""
"","","","","","html-slider-response","76","2155856","0.0-17.0-1.19","f3f4c9c6-1414-4b66-91ed-6a5bc6933887","2418","
                  <p style=""text-align: center;"">₪61
                                                <br>55%</p>
                  <p id=""wtp"" style=""text-align:center; margin-top: 0px; margin-bottom: 0px; font-size: 40px"";>מוכנים לשלם: <span id=""c_p_y""></span></p>","10","evaluation","64","23","7B,26B","55","61","11","","","","","","","","","","","","","","","","","","",""
"","","","","","html-keyboard-response","77","2156800","0.0-17.0-2.19","f3f4c9c6-1414-4b66-91ed-6a5bc6933887","null","<p style=""text-align: center;"">+</p>","null","fixation","","","","","","","","","","","","","","","","","","","","","","","","",""
"","","","","","html-slider-response","78","2157807","0.0-17.0-0.20","f3f4c9c6-1414-4b66-91ed-6a5bc6933887","1000","
                  <p style=""text-align: center;"">₪79
                                                <br>65%</p>
                  <p id=""wtp"" style=""text-align:center; margin-top: 0px; margin-bottom: 0px; font-size: 40px"";>&ensp;</p>","-","viewing","0","31","8A","","","","","","","","","","","","","","","","","","","","","",""
"","","","","","html-slider-response","79","2159688","0.0-17.0-1.20","f3f4c9c6-1414-4b66-91ed-6a5bc6933887","1881","
                  <p style=""text-align: center;"">₪79
                                                <br>65%</p>
                  <p id=""wtp"" style=""text-align:center; margin-top: 0px; margin-bottom: 0px; font-size: 40px"";>מוכנים לשלם: <span id=""c_p_y""></span></p>","17","evaluation","42","31","8A","65","79","17","","","","","","","","","","","","","","","","","","",""
"","","","","","html-keyboard-response","80","2160229","0.0-17.0-2.20","f3f4c9c6-1414-4b66-91ed-6a5bc6933887","null","<p style=""text-align: center;"">+</p>","null","fixation","","","","","","","","","","","","","","","","","","","","","","","","",""
"","","","","","html-slider-response","81","2161237","0.0-17.0-0.21","f3f4c9c6-1414-4b66-91ed-6a5bc6933887","1000","
                  <p style=""text-align: center;"">₪64
                                                <br>50%</p>
                  <p id=""wtp"" style=""text-align:center; margin-top: 0px; margin-bottom: 0px; font-size: 40px"";>&ensp;</p>","-","viewing","0","25","1B,3B,4A","","","","","","","","","","","","","","","","","","","","","",""
"","","","","","html-slider-response","82","2164185","0.0-17.0-1.21","f3f4c9c6-1414-4b66-91ed-6a5bc6933887","2946","
                  <p style=""text-align: center;"">₪64
                                                <br>50%</p>
                  <p id=""wtp"" style=""text-align:center; margin-top: 0px; margin-bottom: 0px; font-size: 40px"";>מוכנים לשלם: <span id=""c_p_y""></span></p>","11","evaluation","45","25","1B,3B,4A","50","64","11","","","","","","","","","","","","","","","","","","",""
"","","","","","html-keyboard-response","83","2165350","0.0-17.0-2.21","f3f4c9c6-1414-4b66-91ed-6a5bc6933887","null","<p style=""text-align: center;"">+</p>","null","fixation","","","","","","","","","","","","","","","","","","","","","","","","",""
"","","","","","html-slider-response","84","2166357","0.0-17.0-0.22","f3f4c9c6-1414-4b66-91ed-6a5bc6933887","1000","
                  <p style=""text-align: center;"">₪58
                                                <br>40%</p>
                  <p id=""wtp"" style=""text-align:center; margin-top: 0px; margin-bottom: 0px; font-size: 40px"";>&ensp;</p>","-","viewing","0","20","10C,13A,19C,21B","","","","","","","","","","","","","","","","","","","","","",""
"","","","","","html-slider-response","85","2168641","0.0-17.0-1.22","f3f4c9c6-1414-4b66-91ed-6a5bc6933887","2283","
                  <p style=""text-align: center;"">₪58
                                                <br>40%</p>
                  <p id=""wtp"" style=""text-align:center; margin-top: 0px; margin-bottom: 0px; font-size: 40px"";>מוכנים לשלם: <span id=""c_p_y""></span></p>","8","evaluation","31","20","10C,13A,19C,21B","40","58","8","","","","","","","","","","","","","","","","","","",""
"","","","","","html-keyboard-response","86","2169371","0.0-17.0-2.22","f3f4c9c6-1414-4b66-91ed-6a5bc6933887","null","<p style=""text-align: center;"">+</p>","null","fixation","","","","","","","","","","","","","","","","","","","","","","","","",""
"","","","","","html-slider-response","87","2170382","0.0-17.0-0.23","f3f4c9c6-1414-4b66-91ed-6a5bc6933887","1000","
                  <p style=""text-align: center;"">₪79
                                                <br>40%</p>
                  <p id=""wtp"" style=""text-align:center; margin-top: 0px; margin-bottom: 0px; font-size: 40px"";>&ensp;</p>","-","viewing","0","30","9B","","","","","","","","","","","","","","","","","","","","","",""
"","","","","","html-slider-response","88","2172873","0.0-17.0-1.23","f3f4c9c6-1414-4b66-91ed-6a5bc6933887","2489","
                  <p style=""text-align: center;"">₪79
                                                <br>40%</p>
                  <p id=""wtp"" style=""text-align:center; margin-top: 0px; margin-bottom: 0px; font-size: 40px"";>מוכנים לשלם: <span id=""c_p_y""></span></p>","11","evaluation","28","30","9B","40","79","12","","","","","","","","","","","","","","","","","","",""
"","","","","","html-keyboard-response","89","2173642","0.0-17.0-2.23","f3f4c9c6-1414-4b66-91ed-6a5bc6933887","null","<p style=""text-align: center;"">+</p>","null","fixation","","","","","","","","","","","","","","","","","","","","","","","","",""
"","","","","","html-slider-response","90","2174651","0.0-17.0-0.24","f3f4c9c6-1414-4b66-91ed-6a5bc6933887","1000","
                  <p style=""text-align: center;"">₪11
                                                <br>45%</p>
                  <p id=""wtp"" style=""text-align:center; margin-top: 0px; margin-bottom: 0px; font-size: 40px"";>&ensp;</p>","-","viewing","0","6","14B,21C,25C","","","","","","","","","","","","","","","","","","","","","",""
"","","","","","html-slider-response","91","2177120","0.0-17.0-1.24","f3f4c9c6-1414-4b66-91ed-6a5bc6933887","2468","
                  <p style=""text-align: center;"">₪11
                                                <br>45%</p>
                  <p id=""wtp"" style=""text-align:center; margin-top: 0px; margin-bottom: 0px; font-size: 40px"";>מוכנים לשלם: <span id=""c_p_y""></span></p>","0","evaluation","8","6","14B,21C,25C","45","11","0","","","","","","","","","","","","","","","","","","",""
"","","","","","html-keyboard-response","92","2177687","0.0-17.0-2.24","f3f4c9c6-1414-4b66-91ed-6a5bc6933887","null","<p style=""text-align: center;"">+</p>","null","fixation","","","","","","","","","","","","","","","","","","","","","","","","",""
"","","","","","html-slider-response","93","2178703","0.0-17.0-0.25","f3f4c9c6-1414-4b66-91ed-6a5bc6933887","1000","
                  <p style=""text-align: center;"">₪18
                                                <br>25%</p>
                  <p id=""wtp"" style=""text-align:center; margin-top: 0px; margin-bottom: 0px; font-size: 40px"";>&ensp;</p>","-","viewing","0","9","14A,23A","","","","","","","","","","","","","","","","","","","","","",""
"","","","","","html-slider-response","94","2180441","0.0-17.0-1.25","f3f4c9c6-1414-4b66-91ed-6a5bc6933887","1736","
                  <p style=""text-align: center;"">₪18
                                                <br>25%</p>
                  <p id=""wtp"" style=""text-align:center; margin-top: 0px; margin-bottom: 0px; font-size: 40px"";>מוכנים לשלם: <span id=""c_p_y""></span></p>","1","evaluation","45","9","14A,23A","25","18","2","","","","","","","","","","","","","","","","","","",""
"","","","","","html-keyboard-response","95","2181179","0.0-17.0-2.25","f3f4c9c6-1414-4b66-91ed-6a5bc6933887","null","<p style=""text-align: center;"">+</p>","null","fixation","","","","","","","","","","","","","","","","","","","","","","","","",""
"","","","","","html-slider-response","96","2182184","0.0-17.0-0.26","f3f4c9c6-1414-4b66-91ed-6a5bc6933887","1000","
                  <p style=""text-align: center;"">₪58
                                                <br>45%</p>
                  <p id=""wtp"" style=""text-align:center; margin-top: 0px; margin-bottom: 0px; font-size: 40px"";>&ensp;</p>","-","viewing","0","21","11C,18C,25A","","","","","","","","","","","","","","","","","","","","","",""
"","","","","","html-slider-response","97","2185056","0.0-17.0-1.26","f3f4c9c6-1414-4b66-91ed-6a5bc6933887","2871","
                  <p style=""text-align: center;"">₪58
                                                <br>45%</p>
                  <p id=""wtp"" style=""text-align:center; margin-top: 0px; margin-bottom: 0px; font-size: 40px"";>מוכנים לשלם: <span id=""c_p_y""></span></p>","5","evaluation","39","21","11C,18C,25A","45","58","6","","","","","","","","","","","","","","","","","","",""
"","","","","","html-keyboard-response","98","2185984","0.0-17.0-2.26","f3f4c9c6-1414-4b66-91ed-6a5bc6933887","null","<p style=""text-align: center;"">+</p>","null","fixation","","","","","","","","","","","","","","","","","","","","","","","","",""
"","","","","","html-slider-response","99","2187000","0.0-17.0-0.27","f3f4c9c6-1414-4b66-91ed-6a5bc6933887","1000","
                  <p style=""text-align: center;"">₪64
                                                <br>25%</p>
                  <p id=""wtp"" style=""text-align:center; margin-top: 0px; margin-bottom: 0px; font-size: 40px"";>&ensp;</p>","-","viewing","0","24","6A,21A","","","","","","","","","","","","","","","","","","","","","",""
"","","","","","html-slider-response","100","2189369","0.0-17.0-1.27","f3f4c9c6-1414-4b66-91ed-6a5bc6933887","2367","
                  <p style=""text-align: center;"">₪64
                                                <br>25%</p>
                  <p id=""wtp"" style=""text-align:center; margin-top: 0px; margin-bottom: 0px; font-size: 40px"";>מוכנים לשלם: <span id=""c_p_y""></span></p>","2","evaluation","62","24","6A,21A","25","64","2","","","","","","","","","","","","","","","","","","",""
"","","","","","html-keyboard-response","101","2190461","0.0-17.0-2.27","f3f4c9c6-1414-4b66-91ed-6a5bc6933887","null","<p style=""text-align: center;"">+</p>","null","fixation","","","","","","","","","","","","","","","","","","","","","","","","",""
"","","","","","html-slider-response","102","2191472","0.0-17.0-0.28","f3f4c9c6-1414-4b66-91ed-6a5bc6933887","1000","
                  <p style=""text-align: center;"">₪39
                                                <br>60%</p>
                  <p id=""wtp"" style=""text-align:center; margin-top: 0px; margin-bottom: 0px; font-size: 40px"";>&ensp;</p>","-","viewing","0","15","9C,25B","","","","","","","","","","","","","","","","","","","","","",""
"","","","","","html-slider-response","103","2193319","0.0-17.0-1.28","f3f4c9c6-1414-4b66-91ed-6a5bc6933887","1846","
                  <p style=""text-align: center;"">₪39
                                                <br>60%</p>
                  <p id=""wtp"" style=""text-align:center; margin-top: 0px; margin-bottom: 0px; font-size: 40px"";>מוכנים לשלם: <span id=""c_p_y""></span></p>","10","evaluation","1","15","9C,25B","60","39","10","","","","","","","","","","","","","","","","","","",""
"","","","","","html-keyboard-response","104","2194052","0.0-17.0-2.28","f3f4c9c6-1414-4b66-91ed-6a5bc6933887","null","<p style=""text-align: center;"">+</p>","null","fixation","","","","","","","","","","","","","","","","","","","","","","","","",""
"","","","","","html-slider-response","105","2195057","0.0-17.0-0.29","f3f4c9c6-1414-4b66-91ed-6a5bc6933887","1000","
                  <p style=""text-align: center;"">₪11
                                                <br>20%</p>
                  <p id=""wtp"" style=""text-align:center; margin-top: 0px; margin-bottom: 0px; font-size: 40px"";>&ensp;</p>","-","viewing","0","4","12C,17C,23C,28C","","","","","","","","","","","","","","","","","","","","","",""
"","","","","","html-slider-response","106","2197871","0.0-17.0-1.29","f3f4c9c6-1414-4b66-91ed-6a5bc6933887","2813","
                  <p style=""text-align: center;"">₪11
                                                <br>20%</p>
                  <p id=""wtp"" style=""text-align:center; margin-top: 0px; margin-bottom: 0px; font-size: 40px"";>מוכנים לשלם: <span id=""c_p_y""></span></p>","4","evaluation","3","4","12C,17C,23C,28C","20","11","5","","","","","","","","","","","","","","","","","","",""
"","","","","","html-keyboard-response","107","2198948","0.0-17.0-2.29","f3f4c9c6-1414-4b66-91ed-6a5bc6933887","null","<p style=""text-align: center;"">+</p>","null","fixation","","","","","","","","","","","","","","","","","","","","","","","","",""
"","","","","","html-slider-response","108","2199952","0.0-17.0-0.30","f3f4c9c6-1414-4b66-91ed-6a5bc6933887","1000","
                  <p style=""text-align: center;"">₪16
                                                <br>20%</p>
                  <p id=""wtp"" style=""text-align:center; margin-top: 0px; margin-bottom: 0px; font-size: 40px"";>&ensp;</p>","-","viewing","0","8","14C,17A,20C,27A","","","","","","","","","","","","","","","","","","","","","",""
"","","","","","html-slider-response","109","2201791","0.0-17.0-1.30","f3f4c9c6-1414-4b66-91ed-6a5bc6933887","1837","
                  <p style=""text-align: center;"">₪16
                                                <br>20%</p>
                  <p id=""wtp"" style=""text-align:center; margin-top: 0px; margin-bottom: 0px; font-size: 40px"";>מוכנים לשלם: <span id=""c_p_y""></span></p>","1","evaluation","77","8","14C,17A,20C,27A","20","16","1","","","","","","","","","","","","","","","","","","",""
"","","","","","html-keyboard-response","110","2202553","0.0-17.0-2.30","f3f4c9c6-1414-4b66-91ed-6a5bc6933887","null","<p style=""text-align: center;"">+</p>","null","fixation","","","","","","","","","","","","","","","","","","","","","","","","",""
"","","","","","html-keyboard-response","111","2203559","0.0-18.0","f3f4c9c6-1414-4b66-91ed-6a5bc6933887","null","<p style=""text-align: center;"">+</p>","null","fixation","","","","","","","","","","","","","","","","","","","","","","","","",""
"","","","","","html-keyboard-response","112","2217839","0.0-19.0","f3f4c9c6-1414-4b66-91ed-6a5bc6933887","null","<p>הפסקה.
          <br>לחצו כדי להמשיך.</p>","1","scan_wait","","","","","","","","","","","","","","","","","","","","","","","","",""
"","","","","","html-keyboard-response","113","2218843","0.0-20.0","f3f4c9c6-1414-4b66-91ed-6a5bc6933887","null","<p style=""text-align: center;"">+</p>","null","fixation","","","","","","","","","","","","","","","","","","","","","","","","",""
"","","","","","html-slider-response","114","2219845","0.0-21.0-0.0","f3f4c9c6-1414-4b66-91ed-6a5bc6933887","1000","
                  <p style=""text-align: center;"">₪4
                                                <br>75%</p>
                  <p id=""wtp"" style=""text-align:center; margin-top: 0px; margin-bottom: 0px; font-size: 40px"";>&ensp;</p>","-","viewing","0","3","12B,20B,23B,27C,29C","","","","","","","","","","","","","","","","","","","","","",""
"","","","","","html-slider-response","115","2220943","0.0-21.0-1.0","f3f4c9c6-1414-4b66-91ed-6a5bc6933887","1096","
                  <p style=""text-align: center;"">₪4
                                                <br>75%</p>
                  <p id=""wtp"" style=""text-align:center; margin-top: 0px; margin-bottom: 0px; font-size: 40px"";>מוכנים לשלם: <span id=""c_p_y""></span></p>","0","evaluation","23","3","12B,20B,23B,27C,29C","75","4","0","","","","","","","","","","","","","","","","","","",""
"","","","","","html-keyboard-response","116","2222116","0.0-21.0-2.0","f3f4c9c6-1414-4b66-91ed-6a5bc6933887","null","<p style=""text-align: center;"">+</p>","null","fixation","","","","","","","","","","","","","","","","","","","","","","","","",""
"","","","","","html-slider-response","117","2223119","0.0-21.0-0.1","f3f4c9c6-1414-4b66-91ed-6a5bc6933887","1000","
                  <p style=""text-align: center;"">₪36
                                                <br>70%</p>
                  <p id=""wtp"" style=""text-align:center; margin-top: 0px; margin-bottom: 0px; font-size: 40px"";>&ensp;</p>","-","viewing","0","13","3A,5C,10B","","","","","","","","","","","","","","","","","","","","","",""
"","","","","","html-slider-response","118","2224743","0.0-21.0-1.1","f3f4c9c6-1414-4b66-91ed-6a5bc6933887","1623","
                  <p style=""text-align: center;"">₪36
                                                <br>70%</p>
                  <p id=""wtp"" style=""text-align:center; margin-top: 0px; margin-bottom: 0px; font-size: 40px"";>מוכנים לשלם: <span id=""c_p_y""></span></p>","9","evaluation","60","13","3A,5C,10B","70","36","9","","","","","","","","","","","","","","","","","","",""
"","","","","","html-keyboard-response","119","2226229","0.0-21.0-2.1","f3f4c9c6-1414-4b66-91ed-6a5bc6933887","null","<p style=""text-align: center;"">+</p>","null","fixation","","","","","","","","","","","","","","","","","","","","","","","","",""
"","","","","","html-slider-response","120","2227232","0.0-21.0-0.2","f3f4c9c6-1414-4b66-91ed-6a5bc6933887","1000","
                  <p style=""text-align: center;"">₪58
                                                <br>30%</p>
                  <p id=""wtp"" style=""text-align:center; margin-top: 0px; margin-bottom: 0px; font-size: 40px"";>&ensp;</p>","-","viewing","0","19","13C,30A","","","","","","","","","","","","","","","","","","","","","",""
"","","","","","html-slider-response","121","2228919","0.0-21.0-1.2","f3f4c9c6-1414-4b66-91ed-6a5bc6933887","1686","
                  <p style=""text-align: center;"">₪58
                                                <br>30%</p>
                  <p id=""wtp"" style=""text-align:center; margin-top: 0px; margin-bottom: 0px; font-size: 40px"";>מוכנים לשלם: <span id=""c_p_y""></span></p>","4","evaluation","75","19","13C,30A","30","58","4","","","","","","","","","","","","","","","","","","",""
"","","","","","html-keyboard-response","122","2229520","0.0-21.0-2.2","f3f4c9c6-1414-4b66-91ed-6a5bc6933887","null","<p style=""text-align: center;"">+</p>","null","fixation","","","","","","","","","","","","","","","","","","","","","","","","",""
"","","","","","html-slider-response","123","2230530","0.0-21.0-0.3","f3f4c9c6-1414-4b66-91ed-6a5bc6933887","1000","
                  <p style=""text-align: center;"">₪36
                                                <br>30%</p>
                  <p id=""wtp"" style=""text-align:center; margin-top: 0px; margin-bottom: 0px; font-size: 40px"";>&ensp;</p>","-","viewing","0","11","3C,20A,22A","","","","","","","","","","","","","","","","","","","","","",""
"","","","","","html-slider-response","124","2232279","0.0-21.0-1.3","f3f4c9c6-1414-4b66-91ed-6a5bc6933887","1748","
                  <p style=""text-align: center;"">₪36
                                                <br>30%</p>
                  <p id=""wtp"" style=""text-align:center; margin-top: 0px; margin-bottom: 0px; font-size: 40px"";>מוכנים לשלם: <span id=""c_p_y""></span></p>","4","evaluation","26","11","3C,20A,22A","30","36","5","","","","","","","","","","","","","","","","","","",""
"","","","","","html-keyboard-response","125","2233611","0.0-21.0-2.3","f3f4c9c6-1414-4b66-91ed-6a5bc6933887","null","<p style=""text-align: center;"">+</p>","null","fixation","","","","","","","","","","","","","","","","","","","","","","","","",""
"","","","","","html-slider-response","126","2234612","0.0-21.0-0.4","f3f4c9c6-1414-4b66-91ed-6a5bc6933887","1000","
                  <p style=""text-align: center;"">₪61
                                                <br>45%</p>
                  <p id=""wtp"" style=""text-align:center; margin-top: 0px; margin-bottom: 0px; font-size: 40px"";>&ensp;</p>","-","viewing","0","22","10A,11A","","","","","","","","","","","","","","","","","","","","","",""
"","","","","","html-slider-response","127","2236583","0.0-21.0-1.4","f3f4c9c6-1414-4b66-91ed-6a5bc6933887","1970","
                  <p style=""text-align: center;"">₪61
                                                <br>45%</p>
                  <p id=""wtp"" style=""text-align:center; margin-top: 0px; margin-bottom: 0px; font-size: 40px"";>מוכנים לשלם: <span id=""c_p_y""></span></p>","7","evaluation","4","22","10A,11A","45","61","8","","","","","","","","","","","","","","","","","","",""
"","","","","","html-keyboard-response","128","2237632","0.0-21.0-2.4","f3f4c9c6-1414-4b66-91ed-6a5bc6933887","null","<p style=""text-align: center;"">+</p>","null","fixation","","","","","","","","","","","","","","","","","","","","","","","","",""
"","","","","","html-slider-response","129","2238638","0.0-21.0-0.5","f3f4c9c6-1414-4b66-91ed-6a5bc6933887","1000","
                  <p style=""text-align: center;"">₪79
                                                <br>40%</p>
                  <p id=""wtp"" style=""text-align:center; margin-top: 0px; margin-bottom: 0px; font-size: 40px"";>&ensp;</p>","-","viewing","0","30","9B","","","","","","","","","","","","","","","","","","","","","",""
"","","","","","html-slider-response","130","2241087","0.0-21.0-1.5","f3f4c9c6-1414-4b66-91ed-6a5bc6933887","2448","
                  <p style=""text-align: center;"">₪79
                                                <br>40%</p>
                  <p id=""wtp"" style=""text-align:center; margin-top: 0px; margin-bottom: 0px; font-size: 40px"";>מוכנים לשלם: <span id=""c_p_y""></span></p>","8","evaluation","54","30","9B","40","79","8","","","","","","","","","","","","","","","","","","",""
"","","","","","html-keyboard-response","131","2242248","0.0-21.0-2.5","f3f4c9c6-1414-4b66-91ed-6a5bc6933887","null","<p style=""text-align: center;"">+</p>","null","fixation","","","","","","","","","","","","","","","","","","","","","","","","",""
"","","","","","html-slider-response","132","2243254","0.0-21.0-0.6","f3f4c9c6-1414-4b66-91ed-6a5bc6933887","1000","
                  <p style=""text-align: center;"">₪79
                                                <br>65%</p>
                  <p id=""wtp"" style=""text-align:center; margin-top: 0px; margin-bottom: 0px; font-size: 40px"";>&ensp;</p>","-","viewing","0","31","8A","","","","","","","","","","","","","","","","","","","","","",""
"","","","","","html-slider-response","133","2245887","0.0-21.0-1.6","f3f4c9c6-1414-4b66-91ed-6a5bc6933887","2632","
                  <p style=""text-align: center;"">₪79
                                                <br>65%</p>
                  <p id=""wtp"" style=""text-align:center; margin-top: 0px; margin-bottom: 0px; font-size: 40px"";>מוכנים לשלם: <span id=""c_p_y""></span></p>","18","evaluation","56","31","8A","65","79","18","","","","","","","","","","","","","","","","","","",""
"","","","","","html-keyboard-response","134","2246894","0.0-21.0-2.6","f3f4c9c6-1414-4b66-91ed-6a5bc6933887","null","<p style=""text-align: center;"">+</p>","null","fixation","","","","","","","","","","","","","","","","","","","","","","","","",""
"","","","","","html-slider-response","135","2247904","0.0-21.0-0.7","f3f4c9c6-1414-4b66-91ed-6a5bc6933887","1000","
                  <p style=""text-align: center;"">₪71
                                                <br>75%</p>
                  <p id=""wtp"" style=""text-align:center; margin-top: 0px; margin-bottom: 0px; font-size: 40px"";>&ensp;</p>","-","viewing","0","28","8B","","","","","","","","","","","","","","","","","","","","","",""
"","","","","","html-slider-response","136","2250215","0.0-21.0-1.7","f3f4c9c6-1414-4b66-91ed-6a5bc6933887","2310","
                  <p style=""text-align: center;"">₪71
                                                <br>75%</p>
                  <p id=""wtp"" style=""text-align:center; margin-top: 0px; margin-bottom: 0px; font-size: 40px"";>מוכנים לשלם: <span id=""c_p_y""></span></p>","18","evaluation","29","28","8B","75","71","18","","","","","","","","","","","","","","","","","","",""
"","","","","","html-keyboard-response","137","2251575","0.0-21.0-2.7","f3f4c9c6-1414-4b66-91ed-6a5bc6933887","null","<p style=""text-align: center;"">+</p>","null","fixation","","","","","","","","","","","","","","","","","","","","","","","","",""
"","","","","","html-slider-response","138","2252589","0.0-21.0-0.8","f3f4c9c6-1414-4b66-91ed-6a5bc6933887","1000","
                  <p style=""text-align: center;"">₪36
                                                <br>75%</p>
                  <p id=""wtp"" style=""text-align:center; margin-top: 0px; margin-bottom: 0px; font-size: 40px"";>&ensp;</p>","-","viewing","0","14","4B,5A,13B,16B","","","","","","","","","","","","","","","","","","","","","",""
"","","","","","html-slider-response","139","2254840","0.0-21.0-1.8","f3f4c9c6-1414-4b66-91ed-6a5bc6933887","2250","
                  <p style=""text-align: center;"">₪36
                                                <br>75%</p>
                  <p id=""wtp"" style=""text-align:center; margin-top: 0px; margin-bottom: 0px; font-size: 40px"";>מוכנים לשלם: <span id=""c_p_y""></span></p>","10","evaluation","29","14","4B,5A,13B,16B","75","36","11","","","","","","","","","","","","","","","","","","",""
"","","","","","html-keyboard-response","140","2255989","0.0-21.0-2.8","f3f4c9c6-1414-4b66-91ed-6a5bc6933887","null","<p style=""text-align: center;"">+</p>","null","fixation","","","","","","","","","","","","","","","","","","","","","","","","",""
"","","","","","html-slider-response","141","2256992","0.0-21.0-0.9","f3f4c9c6-1414-4b66-91ed-6a5bc6933887","1000","
                  <p style=""text-align: center;"">₪64
                                                <br>25%</p>
                  <p id=""wtp"" style=""text-align:center; margin-top: 0px; margin-bottom: 0px; font-size: 40px"";>&ensp;</p>","-","viewing","0","24","6A,21A","","","","","","","","","","","","","","","","","","","","","",""
"","","","","","html-slider-response","142","2259825","0.0-21.0-1.9","f3f4c9c6-1414-4b66-91ed-6a5bc6933887","2832","
                  <p style=""text-align: center;"">₪64
                                                <br>25%</p>
                  <p id=""wtp"" style=""text-align:center; margin-top: 0px; margin-bottom: 0px; font-size: 40px"";>מוכנים לשלם: <span id=""c_p_y""></span></p>","4","evaluation","43","24","6A,21A","25","64","5","","","","","","","","","","","","","","","","","","",""
"","","","","","html-keyboard-response","143","2261041","0.0-21.0-2.9","f3f4c9c6-1414-4b66-91ed-6a5bc6933887","null","<p style=""text-align: center;"">+</p>","null","fixation","","","","","","","","","","","","","","","","","","","","","","","","",""
"","","","","","html-slider-response","144","2262049","0.0-21.0-0.10","f3f4c9c6-1414-4b66-91ed-6a5bc6933887","1000","
                  <p style=""text-align: center;"">₪11
                                                <br>45%</p>
                  <p id=""wtp"" style=""text-align:center; margin-top: 0px; margin-bottom: 0px; font-size: 40px"";>&ensp;</p>","-","viewing","0","6","14B,21C,25C","","","","","","","","","","","","","","","","","","","","","",""
"","","","","","html-slider-response","145","2264593","0.0-21.0-1.10","f3f4c9c6-1414-4b66-91ed-6a5bc6933887","2543","
                  <p style=""text-align: center;"">₪11
                                                <br>45%</p>
                  <p id=""wtp"" style=""text-align:center; margin-top: 0px; margin-bottom: 0px; font-size: 40px"";>מוכנים לשלם: <span id=""c_p_y""></span></p>","3","evaluation","2","6","14B,21C,25C","45","11","3","","","","","","","","","","","","","","","","","","",""
"","","","","","html-keyboard-response","146","2265809","0.0-21.0-2.10","f3f4c9c6-1414-4b66-91ed-6a5bc6933887","null","<p style=""text-align: center;"">+</p>","null","fixation","","","","","","","","","","","","","","","","","","","","","","","","",""
"","","","","","html-slider-response","147","2266821","0.0-21.0-0.11","f3f4c9c6-1414-4b66-91ed-6a5bc6933887","1000","
                  <p style=""text-align: center;"">₪4
                                                <br>25%</p>
                  <p id=""wtp"" style=""text-align:center; margin-top: 0px; margin-bottom: 0px; font-size: 40px"";>&ensp;</p>","-","viewing","0","1","6C,29B,30C","","","","","","","","","","","","","","","","","","","","","",""
"","","","","","html-slider-response","148","2268481","0.0-21.0-1.11","f3f4c9c6-1414-4b66-91ed-6a5bc6933887","1658","
                  <p style=""text-align: center;"">₪4
                                                <br>25%</p>
                  <p id=""wtp"" style=""text-align:center; margin-top: 0px; margin-bottom: 0px; font-size: 40px"";>מוכנים לשלם: <span id=""c_p_y""></span></p>","1","evaluation","28","1","6C,29B,30C","25","4","1","","","","","","","","","","","","","","","","","","",""
"","","","","","html-keyboard-response","149","2269901","0.0-21.0-2.11","f3f4c9c6-1414-4b66-91ed-6a5bc6933887","null","<p style=""text-align: center;"">+</p>","null","fixation","","","","","","","","","","","","","","","","","","","","","","","","",""
"","","","","","html-slider-response","150","2270905","0.0-21.0-0.12","f3f4c9c6-1414-4b66-91ed-6a5bc6933887","1000","
                  <p style=""text-align: center;"">₪64
                                                <br>50%</p>
                  <p id=""wtp"" style=""text-align:center; margin-top: 0px; margin-bottom: 0px; font-size: 40px"";>&ensp;</p>","-","viewing","0","25","1B,3B,4A","","","","","","","","","","","","","","","","","","","","","",""
"","","","","","html-slider-response","151","2273760","0.0-21.0-1.12","f3f4c9c6-1414-4b66-91ed-6a5bc6933887","2855","
                  <p style=""text-align: center;"">₪64
                                                <br>50%</p>
                  <p id=""wtp"" style=""text-align:center; margin-top: 0px; margin-bottom: 0px; font-size: 40px"";>מוכנים לשלם: <span id=""c_p_y""></span></p>","17","evaluation","4","25","1B,3B,4A","50","64","17","","","","","","","","","","","","","","","","","","",""
"","","","","","html-keyboard-response","152","2275215","0.0-21.0-2.12","f3f4c9c6-1414-4b66-91ed-6a5bc6933887","null","<p style=""text-align: center;"">+</p>","null","fixation","","","","","","","","","","","","","","","","","","","","","","","","",""
"","","","","","html-slider-response","153","2276229","0.0-21.0-0.13","f3f4c9c6-1414-4b66-91ed-6a5bc6933887","1000","
                  <p style=""text-align: center;"">₪76
                                                <br>65%</p>
                  <p id=""wtp"" style=""text-align:center; margin-top: 0px; margin-bottom: 0px; font-size: 40px"";>&ensp;</p>","-","viewing","0","29","8C,19A,24B","","","","","","","","","","","","","","","","","","","","","",""
"","","","","","html-slider-response","154","2278561","0.0-21.0-1.13","f3f4c9c6-1414-4b66-91ed-6a5bc6933887","2330","
                  <p style=""text-align: center;"">₪76
                                                <br>65%</p>
                  <p id=""wtp"" style=""text-align:center; margin-top: 0px; margin-bottom: 0px; font-size: 40px"";>מוכנים לשלם: <span id=""c_p_y""></span></p>","21","evaluation","32","29","8C,19A,24B","65","76","21","","","","","","","","","","","","","","","","","","",""
"","","","","","html-keyboard-response","155","2279513","0.0-21.0-2.13","f3f4c9c6-1414-4b66-91ed-6a5bc6933887","null","<p style=""text-align: center;"">+</p>","null","fixation","","","","","","","","","","","","","","","","","","","","","","","","",""
"","","","","","html-slider-response","156","2280521","0.0-21.0-0.14","f3f4c9c6-1414-4b66-91ed-6a5bc6933887","1000","
                  <p style=""text-align: center;"">₪71
                                                <br>55%</p>
                  <p id=""wtp"" style=""text-align:center; margin-top: 0px; margin-bottom: 0px; font-size: 40px"";>&ensp;</p>","-","viewing","0","27","5B,18A","","","","","","","","","","","","","","","","","","","","","",""
"","","","","","html-slider-response","157","2282841","0.0-21.0-1.14","f3f4c9c6-1414-4b66-91ed-6a5bc6933887","2318","
                  <p style=""text-align: center;"">₪71
                                                <br>55%</p>
                  <p id=""wtp"" style=""text-align:center; margin-top: 0px; margin-bottom: 0px; font-size: 40px"";>מוכנים לשלם: <span id=""c_p_y""></span></p>","19","evaluation","53","27","5B,18A","55","71","19","","","","","","","","","","","","","","","","","","",""
"","","","","","html-keyboard-response","158","2283649","0.0-21.0-2.14","f3f4c9c6-1414-4b66-91ed-6a5bc6933887","null","<p style=""text-align: center;"">+</p>","null","fixation","","","","","","","","","","","","","","","","","","","","","","","","",""
"","","","","","html-slider-response","159","2284665","0.0-21.0-0.15","f3f4c9c6-1414-4b66-91ed-6a5bc6933887","1000","
                  <p style=""text-align: center;"">₪16
                                                <br>20%</p>
                  <p id=""wtp"" style=""text-align:center; margin-top: 0px; margin-bottom: 0px; font-size: 40px"";>&ensp;</p>","-","viewing","0","8","14C,17A,20C,27A","","","","","","","","","","","","","","","","","","","","","",""
"","","","","","html-slider-response","160","2285945","0.0-21.0-1.15","f3f4c9c6-1414-4b66-91ed-6a5bc6933887","1279","
                  <p style=""text-align: center;"">₪16
                                                <br>20%</p>
                  <p id=""wtp"" style=""text-align:center; margin-top: 0px; margin-bottom: 0px; font-size: 40px"";>מוכנים לשלם: <span id=""c_p_y""></span></p>","2","evaluation","51","8","14C,17A,20C,27A","20","16","2","","","","","","","","","","","","","","","","","","",""
"","","","","","html-keyboard-response","161","2287065","0.0-21.0-2.15","f3f4c9c6-1414-4b66-91ed-6a5bc6933887","null","<p style=""text-align: center;"">+</p>","null","fixation","","","","","","","","","","","","","","","","","","","","","","","","",""
"","","","","","html-slider-response","162","2288066","0.0-21.0-0.16","f3f4c9c6-1414-4b66-91ed-6a5bc6933887","1000","
                  <p style=""text-align: center;"">₪61
                                                <br>55%</p>
                  <p id=""wtp"" style=""text-align:center; margin-top: 0px; margin-bottom: 0px; font-size: 40px"";>&ensp;</p>","-","viewing","0","23","7B,26B","","","","","","","","","","","","","","","","","","","","","",""
"","","","","","html-slider-response","163","2290785","0.0-21.0-1.16","f3f4c9c6-1414-4b66-91ed-6a5bc6933887","2717","
                  <p style=""text-align: center;"">₪61
                                                <br>55%</p>
                  <p id=""wtp"" style=""text-align:center; margin-top: 0px; margin-bottom: 0px; font-size: 40px"";>מוכנים לשלם: <span id=""c_p_y""></span></p>","16","evaluation","67","23","7B,26B","55","61","16","","","","","","","","","","","","","","","","","","",""
"","","","","","html-keyboard-response","164","2292109","0.0-21.0-2.16","f3f4c9c6-1414-4b66-91ed-6a5bc6933887","null","<p style=""text-align: center;"">+</p>","null","fixation","","","","","","","","","","","","","","","","","","","","","","","","",""
"","","","","","html-slider-response","165","2293112","0.0-21.0-0.17","f3f4c9c6-1414-4b66-91ed-6a5bc6933887","1000","
                  <p style=""text-align: center;"">₪58
                                                <br>40%</p>
                  <p id=""wtp"" style=""text-align:center; margin-top: 0px; margin-bottom: 0px; font-size: 40px"";>&ensp;</p>","-","viewing","0","20","10C,13A,19C,21B","","","","","","","","","","","","","","","","","","","","","",""
"","","","","","html-slider-response","166","2294489","0.0-21.0-1.17","f3f4c9c6-1414-4b66-91ed-6a5bc6933887","1376","
                  <p style=""text-align: center;"">₪58
                                                <br>40%</p>
                  <p id=""wtp"" style=""text-align:center; margin-top: 0px; margin-bottom: 0px; font-size: 40px"";>מוכנים לשלם: <span id=""c_p_y""></span></p>","10","evaluation","34","20","10C,13A,19C,21B","40","58","10","","","","","","","","","","","","","","","","","","",""
"","","","","","html-keyboard-response","167","2295473","0.0-21.0-2.17","f3f4c9c6-1414-4b66-91ed-6a5bc6933887","null","<p style=""text-align: center;"">+</p>","null","fixation","","","","","","","","","","","","","","","","","","","","","","","","",""
"","","","","","html-slider-response","168","2296481","0.0-21.0-0.18","f3f4c9c6-1414-4b66-91ed-6a5bc6933887","1000","
                  <p style=""text-align: center;"">₪71
                                                <br>45%</p>
                  <p id=""wtp"" style=""text-align:center; margin-top: 0px; margin-bottom: 0px; font-size: 40px"";>&ensp;</p>","-","viewing","0","26","2B,16A","","","","","","","","","","","","","","","","","","","","","",""
"","","","","","html-slider-response","169","2297952","0.0-21.0-1.18","f3f4c9c6-1414-4b66-91ed-6a5bc6933887","1471","
                  <p style=""text-align: center;"">₪71
                                                <br>45%</p>
                  <p id=""wtp"" style=""text-align:center; margin-top: 0px; margin-bottom: 0px; font-size: 40px"";>מוכנים לשלם: <span id=""c_p_y""></span></p>","14","evaluation","61","26","2B,16A","45","71","14","","","","","","","","","","","","","","","","","","",""
"","","","","","html-keyboard-response","170","2299094","0.0-21.0-2.18","f3f4c9c6-1414-4b66-91ed-6a5bc6933887","null","<p style=""text-align: center;"">+</p>","null","fixation","","","","","","","","","","","","","","","","","","","","","","","","",""
"","","","","","html-slider-response","171","2300099","0.0-21.0-0.19","f3f4c9c6-1414-4b66-91ed-6a5bc6933887","1000","
                  <p style=""text-align: center;"">₪43
                                                <br>60%</p>
                  <p id=""wtp"" style=""text-align:center; margin-top: 0px; margin-bottom: 0px; font-size: 40px"";>&ensp;</p>","-","viewing","0","17","2A,7A,9A,15B","","","","","","","","","","","","","","","","","","","","","",""
"","","","","","html-slider-response","172","2301569","0.0-21.0-1.19","f3f4c9c6-1414-4b66-91ed-6a5bc6933887","1468","
                  <p style=""text-align: center;"">₪43
                                                <br>60%</p>
                  <p id=""wtp"" style=""text-align:center; margin-top: 0px; margin-bottom: 0px; font-size: 40px"";>מוכנים לשלם: <span id=""c_p_y""></span></p>","9","evaluation","32","17","2A,7A,9A,15B","60","43","10","","","","","","","","","","","","","","","","","","",""
"","","","","","html-keyboard-response","173","2302379","0.0-21.0-2.19","f3f4c9c6-1414-4b66-91ed-6a5bc6933887","null","<p style=""text-align: center;"">+</p>","null","fixation","","","","","","","","","","","","","","","","","","","","","","","","",""
"","","","","","html-slider-response","174","2303387","0.0-21.0-0.20","f3f4c9c6-1414-4b66-91ed-6a5bc6933887","1000","
                  <p style=""text-align: center;"">₪11
                                                <br>75%</p>
                  <p id=""wtp"" style=""text-align:center; margin-top: 0px; margin-bottom: 0px; font-size: 40px"";>&ensp;</p>","-","viewing","0","7","6B,18B,22C,24C,29A","","","","","","","","","","","","","","","","","","","","","",""
"","","","","","html-slider-response","175","2306305","0.0-21.0-1.20","f3f4c9c6-1414-4b66-91ed-6a5bc6933887","2916","
                  <p style=""text-align: center;"">₪11
                                                <br>75%</p>
                  <p id=""wtp"" style=""text-align:center; margin-top: 0px; margin-bottom: 0px; font-size: 40px"";>מוכנים לשלם: <span id=""c_p_y""></span></p>","3","evaluation","71","7","6B,18B,22C,24C,29A","75","11","4","","","","","","","","","","","","","","","","","","",""
"","","","","","html-keyboard-response","176","2307308","0.0-21.0-2.20","f3f4c9c6-1414-4b66-91ed-6a5bc6933887","null","<p style=""text-align: center;"">+</p>","null","fixation","","","","","","","","","","","","","","","","","","","","","","","","",""
"","","","","","html-slider-response","177","2308326","0.0-21.0-0.21","f3f4c9c6-1414-4b66-91ed-6a5bc6933887","1000","
                  <p style=""text-align: center;"">₪4
                                                <br>50%</p>
                  <p id=""wtp"" style=""text-align:center; margin-top: 0px; margin-bottom: 0px; font-size: 40px"";>&ensp;</p>","-","viewing","0","2","4C,17B","","","","","","","","","","","","","","","","","","","","","",""
"","","","","","html-slider-response","178","2309824","0.0-21.0-1.21","f3f4c9c6-1414-4b66-91ed-6a5bc6933887","1497","
                  <p style=""text-align: center;"">₪4
                                                <br>50%</p>
                  <p id=""wtp"" style=""text-align:center; margin-top: 0px; margin-bottom: 0px; font-size: 40px"";>מוכנים לשלם: <span id=""c_p_y""></span></p>","0","evaluation","56","2","4C,17B","50","4","0","","","","","","","","","","","","","","","","","","",""
"","","","","","html-keyboard-response","179","2311008","0.0-21.0-2.21","f3f4c9c6-1414-4b66-91ed-6a5bc6933887","null","<p style=""text-align: center;"">+</p>","null","fixation","","","","","","","","","","","","","","","","","","","","","","","","",""
"","","","","","html-slider-response","180","2312017","0.0-21.0-0.22","f3f4c9c6-1414-4b66-91ed-6a5bc6933887","1000","
                  <p style=""text-align: center;"">₪43
                                                <br>75%</p>
                  <p id=""wtp"" style=""text-align:center; margin-top: 0px; margin-bottom: 0px; font-size: 40px"";>&ensp;</p>","-","viewing","0","18","11B,19B,24A,26A","","","","","","","","","","","","","","","","","","","","","",""
"","","","","","html-slider-response","181","2313928","0.0-21.0-1.22","f3f4c9c6-1414-4b66-91ed-6a5bc6933887","1910","
                  <p style=""text-align: center;"">₪43
                                                <br>75%</p>
                  <p id=""wtp"" style=""text-align:center; margin-top: 0px; margin-bottom: 0px; font-size: 40px"";>מוכנים לשלם: <span id=""c_p_y""></span></p>","11","evaluation","76","18","11B,19B,24A,26A","75","43","11","","","","","","","","","","","","","","","","","","",""
"","","","","","html-keyboard-response","182","2315332","0.0-21.0-2.22","f3f4c9c6-1414-4b66-91ed-6a5bc6933887","null","<p style=""text-align: center;"">+</p>","null","fixation","","","","","","","","","","","","","","","","","","","","","","","","",""
"","","","","","html-slider-response","183","2316334","0.0-21.0-0.23","f3f4c9c6-1414-4b66-91ed-6a5bc6933887","1000","
                  <p style=""text-align: center;"">₪11
                                                <br>25%</p>
                  <p id=""wtp"" style=""text-align:center; margin-top: 0px; margin-bottom: 0px; font-size: 40px"";>&ensp;</p>","-","viewing","0","5","12A,27B,28B,30B","","","","","","","","","","","","","","","","","","","","","",""
"","","","","","html-slider-response","184","2317688","0.0-21.0-1.23","f3f4c9c6-1414-4b66-91ed-6a5bc6933887","1354","
                  <p style=""text-align: center;"">₪11
                                                <br>25%</p>
                  <p id=""wtp"" style=""text-align:center; margin-top: 0px; margin-bottom: 0px; font-size: 40px"";>מוכנים לשלם: <span id=""c_p_y""></span></p>","1","evaluation","21","5","12A,27B,28B,30B","25","11","2","","","","","","","","","","","","","","","","","","",""
"","","","","","html-keyboard-response","185","2318520","0.0-21.0-2.23","f3f4c9c6-1414-4b66-91ed-6a5bc6933887","null","<p style=""text-align: center;"">+</p>","null","fixation","","","","","","","","","","","","","","","","","","","","","","","","",""
"","","","","","html-slider-response","186","2319523","0.0-21.0-0.24","f3f4c9c6-1414-4b66-91ed-6a5bc6933887","1000","
                  <p style=""text-align: center;"">₪39
                                                <br>65%</p>
                  <p id=""wtp"" style=""text-align:center; margin-top: 0px; margin-bottom: 0px; font-size: 40px"";>&ensp;</p>","-","viewing","0","16","1A,15A,26C","","","","","","","","","","","","","","","","","","","","","",""
"","","","","","html-slider-response","187","2321936","0.0-21.0-1.24","f3f4c9c6-1414-4b66-91ed-6a5bc6933887","2412","
                  <p style=""text-align: center;"">₪39
                                                <br>65%</p>
                  <p id=""wtp"" style=""text-align:center; margin-top: 0px; margin-bottom: 0px; font-size: 40px"";>מוכנים לשלם: <span id=""c_p_y""></span></p>","11","evaluation","7","16","1A,15A,26C","65","39","11","","","","","","","","","","","","","","","","","","",""
"","","","","","html-keyboard-response","188","2322754","0.0-21.0-2.24","f3f4c9c6-1414-4b66-91ed-6a5bc6933887","null","<p style=""text-align: center;"">+</p>","null","fixation","","","","","","","","","","","","","","","","","","","","","","","","",""
"","","","","","html-slider-response","189","2323756","0.0-21.0-0.25","f3f4c9c6-1414-4b66-91ed-6a5bc6933887","1000","
                  <p style=""text-align: center;"">₪18
                                                <br>25%</p>
                  <p id=""wtp"" style=""text-align:center; margin-top: 0px; margin-bottom: 0px; font-size: 40px"";>&ensp;</p>","-","viewing","0","9","14A,23A","","","","","","","","","","","","","","","","","","","","","",""
"","","","","","html-slider-response","190","2326104","0.0-21.0-1.25","f3f4c9c6-1414-4b66-91ed-6a5bc6933887","2347","
                  <p style=""text-align: center;"">₪18
                                                <br>25%</p>
                  <p id=""wtp"" style=""text-align:center; margin-top: 0px; margin-bottom: 0px; font-size: 40px"";>מוכנים לשלם: <span id=""c_p_y""></span></p>","3","evaluation","9","9","14A,23A","25","18","4","","","","","","","","","","","","","","","","","","",""
"","","","","","html-keyboard-response","191","2327443","0.0-21.0-2.25","f3f4c9c6-1414-4b66-91ed-6a5bc6933887","null","<p style=""text-align: center;"">+</p>","null","fixation","","","","","","","","","","","","","","","","","","","","","","","","",""
"","","","","","html-slider-response","192","2328445","0.0-21.0-0.26","f3f4c9c6-1414-4b66-91ed-6a5bc6933887","1000","
                  <p style=""text-align: center;"">₪18
                                                <br>50%</p>
                  <p id=""wtp"" style=""text-align:center; margin-top: 0px; margin-bottom: 0px; font-size: 40px"";>&ensp;</p>","-","viewing","0","10","2C,16C,22B,28A","","","","","","","","","","","","","","","","","","","","","",""
"","","","","","html-slider-response","193","2330752","0.0-21.0-1.26","f3f4c9c6-1414-4b66-91ed-6a5bc6933887","2306","
                  <p style=""text-align: center;"">₪18
                                                <br>50%</p>
                  <p id=""wtp"" style=""text-align:center; margin-top: 0px; margin-bottom: 0px; font-size: 40px"";>מוכנים לשלם: <span id=""c_p_y""></span></p>","3","evaluation","66","10","2C,16C,22B,28A","50","18","3","","","","","","","","","","","","","","","","","","",""
"","","","","","html-keyboard-response","194","2331873","0.0-21.0-2.26","f3f4c9c6-1414-4b66-91ed-6a5bc6933887","null","<p style=""text-align: center;"">+</p>","null","fixation","","","","","","","","","","","","","","","","","","","","","","","","",""
"","","","","","html-slider-response","195","2332883","0.0-21.0-0.27","f3f4c9c6-1414-4b66-91ed-6a5bc6933887","1000","
                  <p style=""text-align: center;"">₪11
                                                <br>20%</p>
                  <p id=""wtp"" style=""text-align:center; margin-top: 0px; margin-bottom: 0px; font-size: 40px"";>&ensp;</p>","-","viewing","0","4","12C,17C,23C,28C","","","","","","","","","","","","","","","","","","","","","",""
"","","","","","html-slider-response","196","2335688","0.0-21.0-1.27","f3f4c9c6-1414-4b66-91ed-6a5bc6933887","2804","
                  <p style=""text-align: center;"">₪11
                                                <br>20%</p>
                  <p id=""wtp"" style=""text-align:center; margin-top: 0px; margin-bottom: 0px; font-size: 40px"";>מוכנים לשלם: <span id=""c_p_y""></span></p>","0","evaluation","3","4","12C,17C,23C,28C","20","11","0","","","","","","","","","","","","","","","","","","",""
"","","","","","html-keyboard-response","197","2336313","0.0-21.0-2.27","f3f4c9c6-1414-4b66-91ed-6a5bc6933887","null","<p style=""text-align: center;"">+</p>","null","fixation","","","","","","","","","","","","","","","","","","","","","","","","",""
"","","","","","html-slider-response","198","2337322","0.0-21.0-0.28","f3f4c9c6-1414-4b66-91ed-6a5bc6933887","1000","
                  <p style=""text-align: center;"">₪39
                                                <br>60%</p>
                  <p id=""wtp"" style=""text-align:center; margin-top: 0px; margin-bottom: 0px; font-size: 40px"";>&ensp;</p>","-","viewing","0","15","9C,25B","","","","","","","","","","","","","","","","","","","","","",""
"","","","","","html-slider-response","199","2339856","0.0-21.0-1.28","f3f4c9c6-1414-4b66-91ed-6a5bc6933887","2533","
                  <p style=""text-align: center;"">₪39
                                                <br>60%</p>
                  <p id=""wtp"" style=""text-align:center; margin-top: 0px; margin-bottom: 0px; font-size: 40px"";>מוכנים לשלם: <span id=""c_p_y""></span></p>","12","evaluation","20","15","9C,25B","60","39","12","","","","","","","","","","","","","","","","","","",""
"","","","","","html-keyboard-response","200","2340861","0.0-21.0-2.28","f3f4c9c6-1414-4b66-91ed-6a5bc6933887","null","<p style=""text-align: center;"">+</p>","null","fixation","","","","","","","","","","","","","","","","","","","","","","","","",""
"","","","","","html-slider-response","201","2341875","0.0-21.0-0.29","f3f4c9c6-1414-4b66-91ed-6a5bc6933887","1000","
                  <p style=""text-align: center;"">₪58
                                                <br>45%</p>
                  <p id=""wtp"" style=""text-align:center; margin-top: 0px; margin-bottom: 0px; font-size: 40px"";>&ensp;</p>","-","viewing","0","21","11C,18C,25A","","","","","","","","","","","","","","","","","","","","","",""
"","","","","","html-slider-response","202","2343656","0.0-21.0-1.29","f3f4c9c6-1414-4b66-91ed-6a5bc6933887","1780","
                  <p style=""text-align: center;"">₪58
                                                <br>45%</p>
                  <p id=""wtp"" style=""text-align:center; margin-top: 0px; margin-bottom: 0px; font-size: 40px"";>מוכנים לשלם: <span id=""c_p_y""></span></p>","4","evaluation","22","21","11C,18C,25A","45","58","5","","","","","","","","","","","","","","","","","","",""
"","","","","","html-keyboard-response","203","2344770","0.0-21.0-2.29","f3f4c9c6-1414-4b66-91ed-6a5bc6933887","null","<p style=""text-align: center;"">+</p>","null","fixation","","","","","","","","","","","","","","","","","","","","","","","","",""
"","","","","","html-slider-response","204","2345777","0.0-21.0-0.30","f3f4c9c6-1414-4b66-91ed-6a5bc6933887","1000","
                  <p style=""text-align: center;"">₪36
                                                <br>60%</p>
                  <p id=""wtp"" style=""text-align:center; margin-top: 0px; margin-bottom: 0px; font-size: 40px"";>&ensp;</p>","-","viewing","0","12","1C,7C,15C","","","","","","","","","","","","","","","","","","","","","",""
"","","","","","html-slider-response","205","2347832","0.0-21.0-1.30","f3f4c9c6-1414-4b66-91ed-6a5bc6933887","2054","
                  <p style=""text-align: center;"">₪36
                                                <br>60%</p>
                  <p id=""wtp"" style=""text-align:center; margin-top: 0px; margin-bottom: 0px; font-size: 40px"";>מוכנים לשלם: <span id=""c_p_y""></span></p>","11","evaluation","50","12","1C,7C,15C","60","36","12","","","","","","","","","","","","","","","","","","",""
"","","","","","html-keyboard-response","206","2349335","0.0-21.0-2.30","f3f4c9c6-1414-4b66-91ed-6a5bc6933887","null","<p style=""text-align: center;"">+</p>","null","fixation","","","","","","","","","","","","","","","","","","","","","","","","",""
"","","","","","html-keyboard-response","207","2350338","0.0-22.0","f3f4c9c6-1414-4b66-91ed-6a5bc6933887","null","<p style=""text-align: center;"">+</p>","null","fixation","","","","","","","","","","","","","","","","","","","","","","","","",""
"","","","","","html-keyboard-response","208","2356832","0.0-23.0","f3f4c9c6-1414-4b66-91ed-6a5bc6933887","null","<p>הפסקה.
          <br>לחצו כדי להמשיך.</p>","1","scan_wait","","","","","","","","","","","","","","","","","","","","","","","","",""
"","","","","","html-keyboard-response","209","2357838","0.0-24.0","f3f4c9c6-1414-4b66-91ed-6a5bc6933887","null","<p style=""text-align: center;"">+</p>","null","fixation","","","","","","","","","","","","","","","","","","","","","","","","",""
"","","","","","html-slider-response","210","2358848","0.0-25.0-0.0","f3f4c9c6-1414-4b66-91ed-6a5bc6933887","1000","
                  <p style=""text-align: center;"">₪4
                                                <br>25%</p>
                  <p id=""wtp"" style=""text-align:center; margin-top: 0px; margin-bottom: 0px; font-size: 40px"";>&ensp;</p>","-","viewing","0","1","6C,29B,30C","","","","","","","","","","","","","","","","","","","","","",""
"","","","","","html-slider-response","211","2360120","0.0-25.0-1.0","f3f4c9c6-1414-4b66-91ed-6a5bc6933887","1272","
                  <p style=""text-align: center;"">₪4
                                                <br>25%</p>
                  <p id=""wtp"" style=""text-align:center; margin-top: 0px; margin-bottom: 0px; font-size: 40px"";>מוכנים לשלם: <span id=""c_p_y""></span></p>","0","evaluation","3","1","6C,29B,30C","25","4","0","","","","","","","","","","","","","","","","","","",""
"","","","","","html-keyboard-response","212","2361215","0.0-25.0-2.0","f3f4c9c6-1414-4b66-91ed-6a5bc6933887","null","<p style=""text-align: center;"">+</p>","null","fixation","","","","","","","","","","","","","","","","","","","","","","","","",""
"","","","","","html-slider-response","213","2362217","0.0-25.0-0.1","f3f4c9c6-1414-4b66-91ed-6a5bc6933887","1000","
                  <p style=""text-align: center;"">₪18
                                                <br>50%</p>
                  <p id=""wtp"" style=""text-align:center; margin-top: 0px; margin-bottom: 0px; font-size: 40px"";>&ensp;</p>","-","viewing","0","10","2C,16C,22B,28A","","","","","","","","","","","","","","","","","","","","","",""
"","","","","","html-slider-response","214","2363408","0.0-25.0-1.1","f3f4c9c6-1414-4b66-91ed-6a5bc6933887","1190","
                  <p style=""text-align: center;"">₪18
                                                <br>50%</p>
                  <p id=""wtp"" style=""text-align:center; margin-top: 0px; margin-bottom: 0px; font-size: 40px"";>מוכנים לשלם: <span id=""c_p_y""></span></p>","2","evaluation","22","10","2C,16C,22B,28A","50","18","2","","","","","","","","","","","","","","","","","","",""
"","","","","","html-keyboard-response","215","2364742","0.0-25.0-2.1","f3f4c9c6-1414-4b66-91ed-6a5bc6933887","null","<p style=""text-align: center;"">+</p>","null","fixation","","","","","","","","","","","","","","","","","","","","","","","","",""
"","","","","","html-slider-response","216","2365744","0.0-25.0-0.2","f3f4c9c6-1414-4b66-91ed-6a5bc6933887","1000","
                  <p style=""text-align: center;"">₪36
                                                <br>30%</p>
                  <p id=""wtp"" style=""text-align:center; margin-top: 0px; margin-bottom: 0px; font-size: 40px"";>&ensp;</p>","-","viewing","0","11","3C,20A,22A","","","","","","","","","","","","","","","","","","","","","",""
"","","","","","html-slider-response","217","2367520","0.0-25.0-1.2","f3f4c9c6-1414-4b66-91ed-6a5bc6933887","1776","
                  <p style=""text-align: center;"">₪36
                                                <br>30%</p>
                  <p id=""wtp"" style=""text-align:center; margin-top: 0px; margin-bottom: 0px; font-size: 40px"";>מוכנים לשלם: <span id=""c_p_y""></span></p>","2","evaluation","53","11","3C,20A,22A","30","36","2","","","","","","","","","","","","","","","","","","",""
"","","","","","html-keyboard-response","218","2368543","0.0-25.0-2.2","f3f4c9c6-1414-4b66-91ed-6a5bc6933887","null","<p style=""text-align: center;"">+</p>","null","fixation","","","","","","","","","","","","","","","","","","","","","","","","",""
"","","","","","html-slider-response","219","2369553","0.0-25.0-0.3","f3f4c9c6-1414-4b66-91ed-6a5bc6933887","1000","
                  <p style=""text-align: center;"">₪18
                                                <br>25%</p>
                  <p id=""wtp"" style=""text-align:center; margin-top: 0px; margin-bottom: 0px; font-size: 40px"";>&ensp;</p>","-","viewing","0","9","14A,23A","","","","","","","","","","","","","","","","","","","","","",""
"","","","","","html-slider-response","220","2371608","0.0-25.0-1.3","f3f4c9c6-1414-4b66-91ed-6a5bc6933887","2054","
                  <p style=""text-align: center;"">₪18
                                                <br>25%</p>
                  <p id=""wtp"" style=""text-align:center; margin-top: 0px; margin-bottom: 0px; font-size: 40px"";>מוכנים לשלם: <span id=""c_p_y""></span></p>","2","evaluation","11","9","14A,23A","25","18","2","","","","","","","","","","","","","","","","","","",""
"","","","","","html-keyboard-response","221","2372405","0.0-25.0-2.3","f3f4c9c6-1414-4b66-91ed-6a5bc6933887","null","<p style=""text-align: center;"">+</p>","null","fixation","","","","","","","","","","","","","","","","","","","","","","","","",""
"","","","","","html-slider-response","222","2373407","0.0-25.0-0.4","f3f4c9c6-1414-4b66-91ed-6a5bc6933887","1000","
                  <p style=""text-align: center;"">₪36
                                                <br>75%</p>
                  <p id=""wtp"" style=""text-align:center; margin-top: 0px; margin-bottom: 0px; font-size: 40px"";>&ensp;</p>","-","viewing","0","14","4B,5A,13B,16B","","","","","","","","","","","","","","","","","","","","","",""
"","","","","","html-slider-response","223","2375912","0.0-25.0-1.4","f3f4c9c6-1414-4b66-91ed-6a5bc6933887","2505","
                  <p style=""text-align: center;"">₪36
                                                <br>75%</p>
                  <p id=""wtp"" style=""text-align:center; margin-top: 0px; margin-bottom: 0px; font-size: 40px"";>מוכנים לשלם: <span id=""c_p_y""></span></p>","15","evaluation","21","14","4B,5A,13B,16B","75","36","15","","","","","","","","","","","","","","","","","","",""
"","","","","","html-keyboard-response","224","2376708","0.0-25.0-2.4","f3f4c9c6-1414-4b66-91ed-6a5bc6933887","null","<p style=""text-align: center;"">+</p>","null","fixation","","","","","","","","","","","","","","","","","","","","","","","","",""
"","","","","","html-slider-response","225","2377722","0.0-25.0-0.5","f3f4c9c6-1414-4b66-91ed-6a5bc6933887","1000","
                  <p style=""text-align: center;"">₪76
                                                <br>65%</p>
                  <p id=""wtp"" style=""text-align:center; margin-top: 0px; margin-bottom: 0px; font-size: 40px"";>&ensp;</p>","-","viewing","0","29","8C,19A,24B","","","","","","","","","","","","","","","","","","","","","",""
"","","","","","html-slider-response","226","2379584","0.0-25.0-1.5","f3f4c9c6-1414-4b66-91ed-6a5bc6933887","1862","
                  <p style=""text-align: center;"">₪76
                                                <br>65%</p>
                  <p id=""wtp"" style=""text-align:center; margin-top: 0px; margin-bottom: 0px; font-size: 40px"";>מוכנים לשלם: <span id=""c_p_y""></span></p>","15","evaluation","34","29","8C,19A,24B","65","76","15","","","","","","","","","","","","","","","","","","",""
"","","","","","html-keyboard-response","227","2381046","0.0-25.0-2.5","f3f4c9c6-1414-4b66-91ed-6a5bc6933887","null","<p style=""text-align: center;"">+</p>","null","fixation","","","","","","","","","","","","","","","","","","","","","","","","",""
"","","","","","html-slider-response","228","2382049","0.0-25.0-0.6","f3f4c9c6-1414-4b66-91ed-6a5bc6933887","1000","
                  <p style=""text-align: center;"">₪58
                                                <br>45%</p>
                  <p id=""wtp"" style=""text-align:center; margin-top: 0px; margin-bottom: 0px; font-size: 40px"";>&ensp;</p>","-","viewing","0","21","11C,18C,25A","","","","","","","","","","","","","","","","","","","","","",""
"","","","","","html-slider-response","229","2384624","0.0-25.0-1.6","f3f4c9c6-1414-4b66-91ed-6a5bc6933887","2574","
                  <p style=""text-align: center;"">₪58
                                                <br>45%</p>
                  <p id=""wtp"" style=""text-align:center; margin-top: 0px; margin-bottom: 0px; font-size: 40px"";>מוכנים לשלם: <span id=""c_p_y""></span></p>","5","evaluation","5","21","11C,18C,25A","45","58","5","","","","","","","","","","","","","","","","","","",""
"","","","","","html-keyboard-response","230","2385979","0.0-25.0-2.6","f3f4c9c6-1414-4b66-91ed-6a5bc6933887","null","<p style=""text-align: center;"">+</p>","null","fixation","","","","","","","","","","","","","","","","","","","","","","","","",""
"","","","","","html-slider-response","231","2386985","0.0-25.0-0.7","f3f4c9c6-1414-4b66-91ed-6a5bc6933887","1000","
                  <p style=""text-align: center;"">₪58
                                                <br>40%</p>
                  <p id=""wtp"" style=""text-align:center; margin-top: 0px; margin-bottom: 0px; font-size: 40px"";>&ensp;</p>","-","viewing","0","20","10C,13A,19C,21B","","","","","","","","","","","","","","","","","","","","","",""
"","","","","","html-slider-response","232","2389376","0.0-25.0-1.7","f3f4c9c6-1414-4b66-91ed-6a5bc6933887","2390","
                  <p style=""text-align: center;"">₪58
                                                <br>40%</p>
                  <p id=""wtp"" style=""text-align:center; margin-top: 0px; margin-bottom: 0px; font-size: 40px"";>מוכנים לשלם: <span id=""c_p_y""></span></p>","5","evaluation","2","20","10C,13A,19C,21B","40","58","5","","","","","","","","","","","","","","","","","","",""
"","","","","","html-keyboard-response","233","2390841","0.0-25.0-2.7","f3f4c9c6-1414-4b66-91ed-6a5bc6933887","null","<p style=""text-align: center;"">+</p>","null","fixation","","","","","","","","","","","","","","","","","","","","","","","","",""
"","","","","","html-slider-response","234","2391847","0.0-25.0-0.8","f3f4c9c6-1414-4b66-91ed-6a5bc6933887","1000","
                  <p style=""text-align: center;"">₪43
                                                <br>75%</p>
                  <p id=""wtp"" style=""text-align:center; margin-top: 0px; margin-bottom: 0px; font-size: 40px"";>&ensp;</p>","-","viewing","0","18","11B,19B,24A,26A","","","","","","","","","","","","","","","","","","","","","",""
"","","","","","html-slider-response","235","2393568","0.0-25.0-1.8","f3f4c9c6-1414-4b66-91ed-6a5bc6933887","1720","
                  <p style=""text-align: center;"">₪43
                                                <br>75%</p>
                  <p id=""wtp"" style=""text-align:center; margin-top: 0px; margin-bottom: 0px; font-size: 40px"";>מוכנים לשלם: <span id=""c_p_y""></span></p>","15","evaluation","72","18","11B,19B,24A,26A","75","43","15","","","","","","","","","","","","","","","","","","",""
"","","","","","html-keyboard-response","236","2394585","0.0-25.0-2.8","f3f4c9c6-1414-4b66-91ed-6a5bc6933887","null","<p style=""text-align: center;"">+</p>","null","fixation","","","","","","","","","","","","","","","","","","","","","","","","",""
"","","","","","html-slider-response","237","2395602","0.0-25.0-0.9","f3f4c9c6-1414-4b66-91ed-6a5bc6933887","1000","
                  <p style=""text-align: center;"">₪11
                                                <br>75%</p>
                  <p id=""wtp"" style=""text-align:center; margin-top: 0px; margin-bottom: 0px; font-size: 40px"";>&ensp;</p>","-","viewing","0","7","6B,18B,22C,24C,29A","","","","","","","","","","","","","","","","","","","","","",""
"","","","","","html-slider-response","238","2398280","0.0-25.0-1.9","f3f4c9c6-1414-4b66-91ed-6a5bc6933887","2677","
                  <p style=""text-align: center;"">₪11
                                                <br>75%</p>
                  <p id=""wtp"" style=""text-align:center; margin-top: 0px; margin-bottom: 0px; font-size: 40px"";>מוכנים לשלם: <span id=""c_p_y""></span></p>","3","evaluation","57","7","6B,18B,22C,24C,29A","75","11","3","","","","","","","","","","","","","","","","","","",""
"","","","","","html-keyboard-response","239","2399176","0.0-25.0-2.9","f3f4c9c6-1414-4b66-91ed-6a5bc6933887","null","<p style=""text-align: center;"">+</p>","null","fixation","","","","","","","","","","","","","","","","","","","","","","","","",""
"","","","","","html-slider-response","240","2400189","0.0-25.0-0.10","f3f4c9c6-1414-4b66-91ed-6a5bc6933887","1000","
                  <p style=""text-align: center;"">₪16
                                                <br>20%</p>
                  <p id=""wtp"" style=""text-align:center; margin-top: 0px; margin-bottom: 0px; font-size: 40px"";>&ensp;</p>","-","viewing","0","8","14C,17A,20C,27A","","","","","","","","","","","","","","","","","","","","","",""
"","","","","","html-slider-response","241","2403752","0.0-25.0-1.10","f3f4c9c6-1414-4b66-91ed-6a5bc6933887","3561","
                  <p style=""text-align: center;"">₪16
                                                <br>20%</p>
                  <p id=""wtp"" style=""text-align:center; margin-top: 0px; margin-bottom: 0px; font-size: 40px"";>מוכנים לשלם: <span id=""c_p_y""></span></p>","1","evaluation","68","8","14C,17A,20C,27A","20","16","1","","","","","","","","","","","","","","","","","","",""
"","","","","","html-keyboard-response","242","2404814","0.0-25.0-2.10","f3f4c9c6-1414-4b66-91ed-6a5bc6933887","null","<p style=""text-align: center;"">+</p>","null","fixation","","","","","","","","","","","","","","","","","","","","","","","","",""
"","","","","","html-slider-response","243","2405817","0.0-25.0-0.11","f3f4c9c6-1414-4b66-91ed-6a5bc6933887","1000","
                  <p style=""text-align: center;"">₪58
                                                <br>30%</p>
                  <p id=""wtp"" style=""text-align:center; margin-top: 0px; margin-bottom: 0px; font-size: 40px"";>&ensp;</p>","-","viewing","0","19","13C,30A","","","","","","","","","","","","","","","","","","","","","",""
"","","","","","html-slider-response","244","2407360","0.0-25.0-1.11","f3f4c9c6-1414-4b66-91ed-6a5bc6933887","1542","
                  <p style=""text-align: center;"">₪58
                                                <br>30%</p>
                  <p id=""wtp"" style=""text-align:center; margin-top: 0px; margin-bottom: 0px; font-size: 40px"";>מוכנים לשלם: <span id=""c_p_y""></span></p>","3","evaluation","9","19","13C,30A","30","58","3","","","","","","","","","","","","","","","","","","",""
