"success","timeout","failed_images","failed_audio","failed_video","trial_type","trial_index","time_elapsed","internal_node_id","subject_id","rt","stimulus","response","part","slider_start","ID","set_ID","prob","amount","last_location","actual_choice","actual_EV","binary_id","trinary_id","catch","A_key","D_key","choice_prob","choice_amount","chosen_part","potential_prize_prob","potential_prize_amount","won_prize","total_prize","prize_cost","remaining_budget","accuracy"
"true","false","[]","[]","[]","preload","0","23","0.0-0.0","c485716c-e631-43bd-8393-1f3ce811240f","","","","","","","","","","","","","","","","","","","","","","","","","","",""
"","","","","","html-keyboard-response","1","1180967","0.0-1.0","c485716c-e631-43bd-8393-1f3ce811240f","1180941","
          <h1>שלום וברוכים הבאים!</h1>
          <p>לפניכם ניסוי בקבלת החלטות עם שני חלקים.
          <br><br>לחצו על העכבר כדי להמשיך.</p>","0","example","","","","","","","","","","","","","","","","","","","","","","",""
"","","","","","html-keyboard-response","2","1192326","0.0-2.0","c485716c-e631-43bd-8393-1f3ce811240f","null","
        <h1>חלק 1</h1>
        <p>בקרוב יוצגו בפניכם הגרלות.
        <br>עליכם לבחור את המחיר המירבי שתהיו מוכנים לשלם כדי להשתתף בהגרלה שתוצג.
        <br>יש לכם תקציב של ₪80 לכל הגרלה. 
        <br>נסו להעריך כל הגרלה בנפרד ולחשוב כמה היא שווה עבורכם, ₪80 זמינים לכל הגרלה בנפרד.
        <br><br>לחצו על העכבר כדי להמשיך.</p>","1","instructions","","","","","","","","","","","","","","","","","","","","","","",""
"","","","","","html-keyboard-response","3","1198279","0.0-3.0","c485716c-e631-43bd-8393-1f3ce811240f","null","
        <p>בסוף הניסוי, המחשב יבחר את אחת ההגרלות ויקבע מחיר לכרטיס עבורה. 
        <br>במידה והמחיר שבחרתם נמוך מהמחיר שנבחר על ידי המחשב, לא תשתתפו בהגרלה ותשארו עם מלוא התקציב.
        <br>במידה והמחיר שבחרתם גבוה מהמחיר שנבחר על ידי המחשב, תשלמו את המחיר שנקבע ותשתתפו בהגרלה.
        <br><br>לחצו על העכבר כדי להמשיך.</p>","1","instructions","","","","","","","","","","","","","","","","","","","","","","",""
"","","","","","html-slider-response","4","1214494","0.0-4.0","c485716c-e631-43bd-8393-1f3ce811240f","16112","
        <p style=""font-size: 42px;"">נתחיל עם דוגמא: 
        <br>ההגרלה מטה מציעה 65% סיכוי לזכות ב-₪40 
        <br>&emsp;&emsp;&emsp;&emsp;&emsp;&emsp;&emsp;&emsp;&ensp;35% סיכוי לזכות ב-₪0.
        <br><br>מה המחיר המירבי שתהיו מוכנים לשלם על כרטיס להגרלה זו בין 0 ל-₪80?
        <br>הזיזו את העכבר על פני המלבן ולחצו כדי לבצע בחירה.</p>
        
        <p style=""text-align: center;"">₪40<br>65%</p>

        <p id=""wtp"" style=""text-align:center; margin-top: 0px; margin-bottom: 0px; font-size: 40px"";>מוכנים לשלם: <span id=""c_p_y""></span></p>","25","example","21","","","","","","","","","","","","","","","","","","","","","",""
"","","","","","html-keyboard-response","5","1222774","0.0-5.0","c485716c-e631-43bd-8393-1f3ce811240f","null","<p>יפה מאוד!
                <br> בחרתם שתהיו מוכנים לשלם ₪25 כדי להשתתף בהגרלה:
                <br><p style=""text-align: center;"">₪40<br>65%</p>
                <p>נשמע נכון?
                <br>נניח שהגרלה זו נבחרה בסוף הניסוי.
                <br>כעת המחשב יקבע מחיר עבורה באקראי.
                <br>לחצו על העכבר להמשך.</p>","1","example","","","","","","","","","","","","","","","","","","","","","","",""
"","","","","","html-keyboard-response","6","1228431","0.0-6.0","c485716c-e631-43bd-8393-1f3ce811240f","null","<p>המחשב קבע מחיר: ₪29
                <br>ואתם בחרתם לשלם לכל היותר: ₪25
                <br><br>מכיוון שהמחיר שבחרתם נמוך מהמחיר שנקבע, לא תתשתתפו בהגרלה.
                <br>במקרה כזה, בסוף הניסוי תקבלו את כל התקציב ההתחלתי של ₪80.
                <br><br>לחצו על העכבר להמשך.</p>","1","example","","","","","","","","","","","","","","","","","","","","","","",""
"","","","","","html-slider-response","7","1238103","0.0-7.0","c485716c-e631-43bd-8393-1f3ce811240f","9415","<p style=""font-size: 42px;"">הנה עוד דוגמא:
                <br>ההגרלה מטה מציעה 35% סיכוי לזכות ב-₪18 
                <br>&emsp;&emsp;&emsp;&emsp;&emsp;&emsp;&emsp;&emsp;&ensp;65% סיכוי לזכות ב-₪0.</p>
        
                <p style=""text-align: center;"">₪18<br>35%</p>
                <p id=""wtp"" style=""text-align:center; margin-top: 0px; margin-bottom: 0px; font-size: 40px"";>מוכנים לשלם: <span id=""c_p_y""></span></p>","13","example","7","","","","","","","","","","","","","","","","","","","","","",""
"","","","","","html-keyboard-response","8","1240167","0.0-8.0","c485716c-e631-43bd-8393-1f3ce811240f","null","<p>הייתם מוכנים לשלם  ₪13 כדי להשתתף בהגרלה:
                <p style=""text-align: center;"">₪18<br>35%</p>
                <p>כעת נניח שהמחשב בחר את ההגרלה הזו בסוף הניסוי, וקבע עבורה מחיר.
                <br><br>לחצו על העכבר כדי להמשיך.</p>","1","instructions","","","","","","","","","","","","","","","","","","","","","","",""
"","","","","","html-keyboard-response","9","1244503","0.0-9.0","c485716c-e631-43bd-8393-1f3ce811240f","null","<p>המחשב קבע מחיר להגרלה: ₪11<br>ואתם בחרתם לשלם לכל היותר: ₪13
                <br><br>כעת המחיר שנקבע נמוך מזה שבחרתם, אז תשלמו את המחיר שקבע המחשב (₪11) ותשתתפו בהגרלה.
                <br>במקרה כזה, תסיימו את הניסוי עם תקציב של ₪69 ועם סיכוי לזכות ב-₪18 נוספים מההגרלה.
                <br>כלומר, תוכלו לקבל ₪69 אם לא תזכו בהגרלה, או ₪87 אם תזכו בהגרלה.
                <br><br>לחצו על העכבר להמשך.</p>","1","example","","","","","","","","","","","","","","","","","","","","","","",""
"","","","","","html-keyboard-response","10","1247223","0.0-10.0","c485716c-e631-43bd-8393-1f3ce811240f","null","<p>במהלך הניסוי, קודם תראו את ההגרלה ורק לאחר מכן תוכלו לבחור.
                <p>כמו כן, יהיו לכם מספר שניות מוגבל להגיב.
                <p>בואו ננסה זאת עם ההגרלה הקודמת.
                <br>לחצו על העכבר כדי להמשיך.</p>","1","instructions","","","","","","","","","","","","","","","","","","","","","","",""
"","","","","","html-slider-response","11","1248489","0.0-11.0","c485716c-e631-43bd-8393-1f3ce811240f","1000","
                    <p style=""text-align: center;"">₪18<br>35%</p>
                    <p id=""wtp"" style=""text-align:center; margin-top: 0px; margin-bottom: 0px; font-size: 40px"";>&ensp;</p>","40","instructions","0","","","","","","","","","","","","","","","","","","","","","",""
"","","","","","html-slider-response","12","1252756","0.0-12.0","c485716c-e631-43bd-8393-1f3ce811240f","null","
                    <p style=""text-align: center;"">₪18<br>35%</p>
                    <p id=""wtp"" style=""text-align:center; margin-top: 0px; margin-bottom: 0px; font-size: 40px"";>מוכנים לשלם: <span id=""c_p_y""></span></p>","null","instructions","51","","","","","","","","","","","","","","","","","","","","","",""
"","","","","","html-keyboard-response","13","1259319","0.0-13.0","c485716c-e631-43bd-8393-1f3ce811240f","6308","<p>לא הגבתם בזמן המוקצב לתגובה. 
                <br>נסו להגיב מהר יותר בפעם הבאה.
                <br><br>לחצו על העכבר כדי להמשיך.</p>"," ","instructions","","","","","","","","","","","","","","","","","","","","","","",""
"","","","","","html-slider-response","14","1261575","0.0-14.0-0.0","c485716c-e631-43bd-8393-1f3ce811240f","1991","
                    <p style=""text-align: center;"">₪40<br>65%</p>
                    <p id=""wtp"" style=""text-align:center; margin-top: 0px; margin-bottom: 0px; font-size: 40px"";>מוכנים לשלם: <span id=""c_p_y""></span></p>","23","instructions","15","","","","","","","","","","","","","","","","","","","","","",""
"","","","","","html-keyboard-response","15","1263607","0.0-14.0-1.0","c485716c-e631-43bd-8393-1f3ce811240f","1773","<p>יפה. הפעם בחרתם לשלם לכל היותר ₪23.
                <br><br>לחצו על העכבר כדי להמשיך.</p>"," ","instructions","","","","","","","","","","","","","","","","","","","","","","",""
"","","","","","html-keyboard-response","16","1269255","0.0-15.0","c485716c-e631-43bd-8393-1f3ce811240f","5385","<p>כעת נתחיל את הניסוי.
                <br><br>אתם תראו הגרלות ותתבקשו לבחור כמה תהיו מוכנים לשלם כדי להשתתף בהן.
                <br>יש לכם תקציב של ₪80 עבור כל הגרלה.
                <br>בסוף הניסוי הגרלה אחת תבחר באקראי ותשוחק.
                <br><br>לחצו על העכבר כדי להתחיל את הניסוי.</p>"," ","instructions","","","","","","","","","","","","","","","","","","","","","","",""
"","","","","","html-keyboard-response","17","1270510","0.0-16.0","c485716c-e631-43bd-8393-1f3ce811240f","null","<p style=""text-align: center;"">+</p>","null","fixation","","","","","","","","","","","","","","","","","","","","","","",""
"","","","","","html-slider-response","18","1271528","0.0-17.0-0.0","c485716c-e631-43bd-8393-1f3ce811240f","1000","
                  <p style=""text-align: center;"">₪11
                                                <br>25%</p>
                  <p id=""wtp"" style=""text-align:center; margin-top: 0px; margin-bottom: 0px; font-size: 40px"";>&ensp;</p>","-","viewing","0","5","12A,27B,28B,30B","","","","","","","","","","","","","","","","","","","",""
"","","","","","html-slider-response","19","1273447","0.0-17.0-1.0","c485716c-e631-43bd-8393-1f3ce811240f","1918","
                  <p style=""text-align: center;"">₪11
                                                <br>25%</p>
                  <p id=""wtp"" style=""text-align:center; margin-top: 0px; margin-bottom: 0px; font-size: 40px"";>מוכנים לשלם: <span id=""c_p_y""></span></p>","11","evaluation","32","5","12A,27B,28B,30B","25","11","11","","","","","","","","","","","","","","","","",""
"","","","","","html-keyboard-response","20","1274807","0.0-17.0-2.0","c485716c-e631-43bd-8393-1f3ce811240f","null","<p style=""text-align: center;"">+</p>","null","fixation","","","","","","","","","","","","","","","","","","","","","","",""
"","","","","","html-slider-response","21","1275815","0.0-17.0-0.1","c485716c-e631-43bd-8393-1f3ce811240f","1000","
                  <p style=""text-align: center;"">₪71
                                                <br>75%</p>
                  <p id=""wtp"" style=""text-align:center; margin-top: 0px; margin-bottom: 0px; font-size: 40px"";>&ensp;</p>","-","viewing","0","28","8B","","","","","","","","","","","","","","","","","","","",""
"","","","","","html-slider-response","22","1278183","0.0-17.0-1.1","c485716c-e631-43bd-8393-1f3ce811240f","2367","
                  <p style=""text-align: center;"">₪71
                                                <br>75%</p>
                  <p id=""wtp"" style=""text-align:center; margin-top: 0px; margin-bottom: 0px; font-size: 40px"";>מוכנים לשלם: <span id=""c_p_y""></span></p>","28","evaluation","40","28","8B","75","71","28","","","","","","","","","","","","","","","","",""
"","","","","","html-keyboard-response","23","1279311","0.0-17.0-2.1","c485716c-e631-43bd-8393-1f3ce811240f","null","<p style=""text-align: center;"">+</p>","null","fixation","","","","","","","","","","","","","","","","","","","","","","",""
"","","","","","html-slider-response","24","1280322","0.0-17.0-0.2","c485716c-e631-43bd-8393-1f3ce811240f","1000","
                  <p style=""text-align: center;"">₪4
                                                <br>75%</p>
                  <p id=""wtp"" style=""text-align:center; margin-top: 0px; margin-bottom: 0px; font-size: 40px"";>&ensp;</p>","-","viewing","0","3","12B,20B,23B,27C,29C","","","","","","","","","","","","","","","","","","","",""
"","","","","","html-slider-response","25","1282239","0.0-17.0-1.2","c485716c-e631-43bd-8393-1f3ce811240f","1916","
                  <p style=""text-align: center;"">₪4
                                                <br>75%</p>
                  <p id=""wtp"" style=""text-align:center; margin-top: 0px; margin-bottom: 0px; font-size: 40px"";>מוכנים לשלם: <span id=""c_p_y""></span></p>","3","evaluation","15","3","12B,20B,23B,27C,29C","75","4","4","","","","","","","","","","","","","","","","",""
"","","","","","html-keyboard-response","26","1283547","0.0-17.0-2.2","c485716c-e631-43bd-8393-1f3ce811240f","null","<p style=""text-align: center;"">+</p>","null","fixation","","","","","","","","","","","","","","","","","","","","","","",""
"","","","","","html-slider-response","27","1284556","0.0-17.0-0.3","c485716c-e631-43bd-8393-1f3ce811240f","1000","
                  <p style=""text-align: center;"">₪11
                                                <br>45%</p>
                  <p id=""wtp"" style=""text-align:center; margin-top: 0px; margin-bottom: 0px; font-size: 40px"";>&ensp;</p>","-","viewing","0","6","14B,21C,25C","","","","","","","","","","","","","","","","","","","",""
"","","","","","html-slider-response","28","1286943","0.0-17.0-1.3","c485716c-e631-43bd-8393-1f3ce811240f","2386","
                  <p style=""text-align: center;"">₪11
                                                <br>45%</p>
                  <p id=""wtp"" style=""text-align:center; margin-top: 0px; margin-bottom: 0px; font-size: 40px"";>מוכנים לשלם: <span id=""c_p_y""></span></p>","9","evaluation","4","6","14B,21C,25C","45","11","10","","","","","","","","","","","","","","","","",""
"","","","","","html-keyboard-response","29","1288444","0.0-17.0-2.3","c485716c-e631-43bd-8393-1f3ce811240f","null","<p style=""text-align: center;"">+</p>","null","fixation","","","","","","","","","","","","","","","","","","","","","","",""
"","","","","","html-slider-response","30","1289446","0.0-17.0-0.4","c485716c-e631-43bd-8393-1f3ce811240f","1000","
                  <p style=""text-align: center;"">₪71
                                                <br>55%</p>
                  <p id=""wtp"" style=""text-align:center; margin-top: 0px; margin-bottom: 0px; font-size: 40px"";>&ensp;</p>","-","viewing","0","27","5B,18A","","","","","","","","","","","","","","","","","","","",""
"","","","","","html-slider-response","31","1291143","0.0-17.0-1.4","c485716c-e631-43bd-8393-1f3ce811240f","1697","
                  <p style=""text-align: center;"">₪71
                                                <br>55%</p>
                  <p id=""wtp"" style=""text-align:center; margin-top: 0px; margin-bottom: 0px; font-size: 40px"";>מוכנים לשלם: <span id=""c_p_y""></span></p>","19","evaluation","68","27","5B,18A","55","71","19","","","","","","","","","","","","","","","","",""
"","","","","","html-keyboard-response","32","1291789","0.0-17.0-2.4","c485716c-e631-43bd-8393-1f3ce811240f","null","<p style=""text-align: center;"">+</p>","null","fixation","","","","","","","","","","","","","","","","","","","","","","",""
"","","","","","html-slider-response","33","1292800","0.0-17.0-0.5","c485716c-e631-43bd-8393-1f3ce811240f","1000","
                  <p style=""text-align: center;"">₪58
                                                <br>40%</p>
                  <p id=""wtp"" style=""text-align:center; margin-top: 0px; margin-bottom: 0px; font-size: 40px"";>&ensp;</p>","-","viewing","0","20","10C,13A,19C,21B","","","","","","","","","","","","","","","","","","","",""
"","","","","","html-slider-response","34","1295223","0.0-17.0-1.5","c485716c-e631-43bd-8393-1f3ce811240f","2423","
                  <p style=""text-align: center;"">₪58
                                                <br>40%</p>
                  <p id=""wtp"" style=""text-align:center; margin-top: 0px; margin-bottom: 0px; font-size: 40px"";>מוכנים לשלם: <span id=""c_p_y""></span></p>","23","evaluation","44","20","10C,13A,19C,21B","40","58","23","","","","","","","","","","","","","","","","",""
"","","","","","html-keyboard-response","35","1295735","0.0-17.0-2.5","c485716c-e631-43bd-8393-1f3ce811240f","null","<p style=""text-align: center;"">+</p>","null","fixation","","","","","","","","","","","","","","","","","","","","","","",""
"","","","","","html-slider-response","36","1296741","0.0-17.0-0.6","c485716c-e631-43bd-8393-1f3ce811240f","1000","
                  <p style=""text-align: center;"">₪39
                                                <br>65%</p>
                  <p id=""wtp"" style=""text-align:center; margin-top: 0px; margin-bottom: 0px; font-size: 40px"";>&ensp;</p>","-","viewing","0","16","1A,15A,26C","","","","","","","","","","","","","","","","","","","",""
"","","","","","html-slider-response","37","1299519","0.0-17.0-1.6","c485716c-e631-43bd-8393-1f3ce811240f","2777","
                  <p style=""text-align: center;"">₪39
                                                <br>65%</p>
                  <p id=""wtp"" style=""text-align:center; margin-top: 0px; margin-bottom: 0px; font-size: 40px"";>מוכנים לשלם: <span id=""c_p_y""></span></p>","24","evaluation","51","16","1A,15A,26C","65","39","24","","","","","","","","","","","","","","","","",""
"","","","","","html-keyboard-response","38","1300524","0.0-17.0-2.6","c485716c-e631-43bd-8393-1f3ce811240f","null","<p style=""text-align: center;"">+</p>","null","fixation","","","","","","","","","","","","","","","","","","","","","","",""
"","","","","","html-slider-response","39","1301539","0.0-17.0-0.7","c485716c-e631-43bd-8393-1f3ce811240f","1000","
                  <p style=""text-align: center;"">₪64
                                                <br>50%</p>
                  <p id=""wtp"" style=""text-align:center; margin-top: 0px; margin-bottom: 0px; font-size: 40px"";>&ensp;</p>","-","viewing","0","25","1B,3B,4A","","","","","","","","","","","","","","","","","","","",""
"","","","","","html-slider-response","40","1303791","0.0-17.0-1.7","c485716c-e631-43bd-8393-1f3ce811240f","2251","
                  <p style=""text-align: center;"">₪64
                                                <br>50%</p>
                  <p id=""wtp"" style=""text-align:center; margin-top: 0px; margin-bottom: 0px; font-size: 40px"";>מוכנים לשלם: <span id=""c_p_y""></span></p>","20","evaluation","33","25","1B,3B,4A","50","64","20","","","","","","","","","","","","","","","","",""
"","","","","","html-keyboard-response","41","1304606","0.0-17.0-2.7","c485716c-e631-43bd-8393-1f3ce811240f","null","<p style=""text-align: center;"">+</p>","null","fixation","","","","","","","","","","","","","","","","","","","","","","",""
"","","","","","html-slider-response","42","1305612","0.0-17.0-0.8","c485716c-e631-43bd-8393-1f3ce811240f","1000","
                  <p style=""text-align: center;"">₪36
                                                <br>30%</p>
                  <p id=""wtp"" style=""text-align:center; margin-top: 0px; margin-bottom: 0px; font-size: 40px"";>&ensp;</p>","-","viewing","0","11","3C,20A,22A","","","","","","","","","","","","","","","","","","","",""
"","","","","","html-slider-response","43","1308446","0.0-17.0-1.8","c485716c-e631-43bd-8393-1f3ce811240f","2834","
                  <p style=""text-align: center;"">₪36
                                                <br>30%</p>
                  <p id=""wtp"" style=""text-align:center; margin-top: 0px; margin-bottom: 0px; font-size: 40px"";>מוכנים לשלם: <span id=""c_p_y""></span></p>","12","evaluation","67","11","3C,20A,22A","30","36","12","","","","","","","","","","","","","","","","",""
"","","","","","html-keyboard-response","44","1309244","0.0-17.0-2.8","c485716c-e631-43bd-8393-1f3ce811240f","null","<p style=""text-align: center;"">+</p>","null","fixation","","","","","","","","","","","","","","","","","","","","","","",""
"","","","","","html-slider-response","45","1310262","0.0-17.0-0.9","c485716c-e631-43bd-8393-1f3ce811240f","1000","
                  <p style=""text-align: center;"">₪43
                                                <br>60%</p>
                  <p id=""wtp"" style=""text-align:center; margin-top: 0px; margin-bottom: 0px; font-size: 40px"";>&ensp;</p>","-","viewing","0","17","2A,7A,9A,15B","","","","","","","","","","","","","","","","","","","",""
"","","","","","html-slider-response","46","1312447","0.0-17.0-1.9","c485716c-e631-43bd-8393-1f3ce811240f","2185","
                  <p style=""text-align: center;"">₪43
                                                <br>60%</p>
                  <p id=""wtp"" style=""text-align:center; margin-top: 0px; margin-bottom: 0px; font-size: 40px"";>מוכנים לשלם: <span id=""c_p_y""></span></p>","19","evaluation","58","17","2A,7A,9A,15B","60","43","19","","","","","","","","","","","","","","","","",""
"","","","","","html-keyboard-response","47","1313687","0.0-17.0-2.9","c485716c-e631-43bd-8393-1f3ce811240f","null","<p style=""text-align: center;"">+</p>","null","fixation","","","","","","","","","","","","","","","","","","","","","","",""
"","","","","","html-slider-response","48","1314704","0.0-17.0-0.10","c485716c-e631-43bd-8393-1f3ce811240f","1000","
                  <p style=""text-align: center;"">₪79
                                                <br>65%</p>
                  <p id=""wtp"" style=""text-align:center; margin-top: 0px; margin-bottom: 0px; font-size: 40px"";>&ensp;</p>","-","viewing","0","31","8A","","","","","","","","","","","","","","","","","","","",""
"","","","","","html-slider-response","49","1316615","0.0-17.0-1.10","c485716c-e631-43bd-8393-1f3ce811240f","1910","
                  <p style=""text-align: center;"">₪79
                                                <br>65%</p>
                  <p id=""wtp"" style=""text-align:center; margin-top: 0px; margin-bottom: 0px; font-size: 40px"";>מוכנים לשלם: <span id=""c_p_y""></span></p>","25","evaluation","71","31","8A","65","79","25","","","","","","","","","","","","","","","","",""
"","","","","","html-keyboard-response","50","1317826","0.0-17.0-2.10","c485716c-e631-43bd-8393-1f3ce811240f","null","<p style=""text-align: center;"">+</p>","null","fixation","","","","","","","","","","","","","","","","","","","","","","",""
"","","","","","html-slider-response","51","1318840","0.0-17.0-0.11","c485716c-e631-43bd-8393-1f3ce811240f","1000","
                  <p style=""text-align: center;"">₪58
                                                <br>30%</p>
                  <p id=""wtp"" style=""text-align:center; margin-top: 0px; margin-bottom: 0px; font-size: 40px"";>&ensp;</p>","-","viewing","0","19","13C,30A","","","","","","","","","","","","","","","","","","","",""
"","","","","","html-slider-response","52","1321663","0.0-17.0-1.11","c485716c-e631-43bd-8393-1f3ce811240f","2822","
                  <p style=""text-align: center;"">₪58
                                                <br>30%</p>
                  <p id=""wtp"" style=""text-align:center; margin-top: 0px; margin-bottom: 0px; font-size: 40px"";>מוכנים לשלם: <span id=""c_p_y""></span></p>","16","evaluation","3","19","13C,30A","30","58","17","","","","","","","","","","","","","","","","",""
"","","","","","html-keyboard-response","53","1322522","0.0-17.0-2.11","c485716c-e631-43bd-8393-1f3ce811240f","null","<p style=""text-align: center;"">+</p>","null","fixation","","","","","","","","","","","","","","","","","","","","","","",""
"","","","","","html-slider-response","54","1323529","0.0-17.0-0.12","c485716c-e631-43bd-8393-1f3ce811240f","1000","
                  <p style=""text-align: center;"">₪43
                                                <br>75%</p>
                  <p id=""wtp"" style=""text-align:center; margin-top: 0px; margin-bottom: 0px; font-size: 40px"";>&ensp;</p>","-","viewing","0","18","11B,19B,24A,26A","","","","","","","","","","","","","","","","","","","",""
"","","","","","html-slider-response","55","1325919","0.0-17.0-1.12","c485716c-e631-43bd-8393-1f3ce811240f","2389","
                  <p style=""text-align: center;"">₪43
                                                <br>75%</p>
                  <p id=""wtp"" style=""text-align:center; margin-top: 0px; margin-bottom: 0px; font-size: 40px"";>מוכנים לשלם: <span id=""c_p_y""></span></p>","14","evaluation","41","18","11B,19B,24A,26A","75","43","15","","","","","","","","","","","","","","","","",""
"","","","","","html-keyboard-response","56","1327354","0.0-17.0-2.12","c485716c-e631-43bd-8393-1f3ce811240f","null","<p style=""text-align: center;"">+</p>","null","fixation","","","","","","","","","","","","","","","","","","","","","","",""
"","","","","","html-slider-response","57","1328368","0.0-17.0-0.13","c485716c-e631-43bd-8393-1f3ce811240f","1000","
                  <p style=""text-align: center;"">₪79
                                                <br>40%</p>
                  <p id=""wtp"" style=""text-align:center; margin-top: 0px; margin-bottom: 0px; font-size: 40px"";>&ensp;</p>","-","viewing","0","30","9B","","","","","","","","","","","","","","","","","","","",""
"","","","","","html-slider-response","58","1330991","0.0-17.0-1.13","c485716c-e631-43bd-8393-1f3ce811240f","2622","
                  <p style=""text-align: center;"">₪79
                                                <br>40%</p>
                  <p id=""wtp"" style=""text-align:center; margin-top: 0px; margin-bottom: 0px; font-size: 40px"";>מוכנים לשלם: <span id=""c_p_y""></span></p>","20","evaluation","35","30","9B","40","79","20","","","","","","","","","","","","","","","","",""
"","","","","","html-keyboard-response","59","1331707","0.0-17.0-2.13","c485716c-e631-43bd-8393-1f3ce811240f","null","<p style=""text-align: center;"">+</p>","null","fixation","","","","","","","","","","","","","","","","","","","","","","",""
"","","","","","html-slider-response","60","1332720","0.0-17.0-0.14","c485716c-e631-43bd-8393-1f3ce811240f","1000","
                  <p style=""text-align: center;"">₪36
                                                <br>70%</p>
                  <p id=""wtp"" style=""text-align:center; margin-top: 0px; margin-bottom: 0px; font-size: 40px"";>&ensp;</p>","-","viewing","0","13","3A,5C,10B","","","","","","","","","","","","","","","","","","","",""
"","","","","","html-slider-response","61","1334663","0.0-17.0-1.14","c485716c-e631-43bd-8393-1f3ce811240f","1942","
                  <p style=""text-align: center;"">₪36
                                                <br>70%</p>
                  <p id=""wtp"" style=""text-align:center; margin-top: 0px; margin-bottom: 0px; font-size: 40px"";>מוכנים לשלם: <span id=""c_p_y""></span></p>","12","evaluation","59","13","3A,5C,10B","70","36","12","","","","","","","","","","","","","","","","",""
"","","","","","html-keyboard-response","62","1335752","0.0-17.0-2.14","c485716c-e631-43bd-8393-1f3ce811240f","null","<p style=""text-align: center;"">+</p>","null","fixation","","","","","","","","","","","","","","","","","","","","","","",""
"","","","","","html-slider-response","63","1336759","0.0-17.0-0.15","c485716c-e631-43bd-8393-1f3ce811240f","1000","
                  <p style=""text-align: center;"">₪39
                                                <br>60%</p>
                  <p id=""wtp"" style=""text-align:center; margin-top: 0px; margin-bottom: 0px; font-size: 40px"";>&ensp;</p>","-","viewing","0","15","9C,25B","","","","","","","","","","","","","","","","","","","",""
"","","","","","html-slider-response","64","1339047","0.0-17.0-1.15","c485716c-e631-43bd-8393-1f3ce811240f","2286","
                  <p style=""text-align: center;"">₪39
                                                <br>60%</p>
                  <p id=""wtp"" style=""text-align:center; margin-top: 0px; margin-bottom: 0px; font-size: 40px"";>מוכנים לשלם: <span id=""c_p_y""></span></p>","14","evaluation","42","15","9C,25B","60","39","15","","","","","","","","","","","","","","","","",""
"","","","","","html-keyboard-response","65","1339671","0.0-17.0-2.15","c485716c-e631-43bd-8393-1f3ce811240f","null","<p style=""text-align: center;"">+</p>","null","fixation","","","","","","","","","","","","","","","","","","","","","","",""
"","","","","","html-slider-response","66","1340682","0.0-17.0-0.16","c485716c-e631-43bd-8393-1f3ce811240f","1000","
                  <p style=""text-align: center;"">₪16
                                                <br>20%</p>
                  <p id=""wtp"" style=""text-align:center; margin-top: 0px; margin-bottom: 0px; font-size: 40px"";>&ensp;</p>","-","viewing","0","8","14C,17A,20C,27A","","","","","","","","","","","","","","","","","","","",""
"","","","","","html-slider-response","67","1342526","0.0-17.0-1.16","c485716c-e631-43bd-8393-1f3ce811240f","1844","
                  <p style=""text-align: center;"">₪16
                                                <br>20%</p>
                  <p id=""wtp"" style=""text-align:center; margin-top: 0px; margin-bottom: 0px; font-size: 40px"";>מוכנים לשלם: <span id=""c_p_y""></span></p>","3","evaluation","48","8","14C,17A,20C,27A","20","16","4","","","","","","","","","","","","","","","","",""
"","","","","","html-keyboard-response","68","1343134","0.0-17.0-2.16","c485716c-e631-43bd-8393-1f3ce811240f","null","<p style=""text-align: center;"">+</p>","null","fixation","","","","","","","","","","","","","","","","","","","","","","",""
"","","","","","html-slider-response","69","1344140","0.0-17.0-0.17","c485716c-e631-43bd-8393-1f3ce811240f","1000","
                  <p style=""text-align: center;"">₪36
                                                <br>75%</p>
                  <p id=""wtp"" style=""text-align:center; margin-top: 0px; margin-bottom: 0px; font-size: 40px"";>&ensp;</p>","-","viewing","0","14","4B,5A,13B,16B","","","","","","","","","","","","","","","","","","","",""
"","","","","","html-slider-response","70","1345718","0.0-17.0-1.17","c485716c-e631-43bd-8393-1f3ce811240f","1578","
                  <p style=""text-align: center;"">₪36
                                                <br>75%</p>
                  <p id=""wtp"" style=""text-align:center; margin-top: 0px; margin-bottom: 0px; font-size: 40px"";>מוכנים לשלם: <span id=""c_p_y""></span></p>","11","evaluation","45","14","4B,5A,13B,16B","75","36","11","","","","","","","","","","","","","","","","",""
"","","","","","html-keyboard-response","71","1347221","0.0-17.0-2.17","c485716c-e631-43bd-8393-1f3ce811240f","null","<p style=""text-align: center;"">+</p>","null","fixation","","","","","","","","","","","","","","","","","","","","","","",""
"","","","","","html-slider-response","72","1348234","0.0-17.0-0.18","c485716c-e631-43bd-8393-1f3ce811240f","1000","
                  <p style=""text-align: center;"">₪36
                                                <br>60%</p>
                  <p id=""wtp"" style=""text-align:center; margin-top: 0px; margin-bottom: 0px; font-size: 40px"";>&ensp;</p>","-","viewing","0","12","1C,7C,15C","","","","","","","","","","","","","","","","","","","",""
"","","","","","html-slider-response","73","1350078","0.0-17.0-1.18","c485716c-e631-43bd-8393-1f3ce811240f","1844","
                  <p style=""text-align: center;"">₪36
                                                <br>60%</p>
                  <p id=""wtp"" style=""text-align:center; margin-top: 0px; margin-bottom: 0px; font-size: 40px"";>מוכנים לשלם: <span id=""c_p_y""></span></p>","13","evaluation","75","12","1C,7C,15C","60","36","14","","","","","","","","","","","","","","","","",""
"","","","","","html-keyboard-response","74","1350980","0.0-17.0-2.18","c485716c-e631-43bd-8393-1f3ce811240f","null","<p style=""text-align: center;"">+</p>","null","fixation","","","","","","","","","","","","","","","","","","","","","","",""
"","","","","","html-slider-response","75","1351990","0.0-17.0-0.19","c485716c-e631-43bd-8393-1f3ce811240f","1000","
                  <p style=""text-align: center;"">₪64
                                                <br>25%</p>
                  <p id=""wtp"" style=""text-align:center; margin-top: 0px; margin-bottom: 0px; font-size: 40px"";>&ensp;</p>","-","viewing","0","24","6A,21A","","","","","","","","","","","","","","","","","","","",""
"","","","","","html-slider-response","76","1354167","0.0-17.0-1.19","c485716c-e631-43bd-8393-1f3ce811240f","2176","
                  <p style=""text-align: center;"">₪64
                                                <br>25%</p>
                  <p id=""wtp"" style=""text-align:center; margin-top: 0px; margin-bottom: 0px; font-size: 40px"";>מוכנים לשלם: <span id=""c_p_y""></span></p>","14","evaluation","62","24","6A,21A","25","64","14","","","","","","","","","","","","","","","","",""
"","","","","","html-keyboard-response","77","1355114","0.0-17.0-2.19","c485716c-e631-43bd-8393-1f3ce811240f","null","<p style=""text-align: center;"">+</p>","null","fixation","","","","","","","","","","","","","","","","","","","","","","",""
"","","","","","html-slider-response","78","1356128","0.0-17.0-0.20","c485716c-e631-43bd-8393-1f3ce811240f","1000","
                  <p style=""text-align: center;"">₪18
                                                <br>50%</p>
                  <p id=""wtp"" style=""text-align:center; margin-top: 0px; margin-bottom: 0px; font-size: 40px"";>&ensp;</p>","-","viewing","0","10","2C,16C,22B,28A","","","","","","","","","","","","","","","","","","","",""
"","","","","","html-slider-response","79","1359615","0.0-17.0-1.20","c485716c-e631-43bd-8393-1f3ce811240f","3486","
                  <p style=""text-align: center;"">₪18
                                                <br>50%</p>
                  <p id=""wtp"" style=""text-align:center; margin-top: 0px; margin-bottom: 0px; font-size: 40px"";>מוכנים לשלם: <span id=""c_p_y""></span></p>","9","evaluation","60","10","2C,16C,22B,28A","50","18","10","","","","","","","","","","","","","","","","",""
"","","","","","html-keyboard-response","80","1360148","0.0-17.0-2.20","c485716c-e631-43bd-8393-1f3ce811240f","null","<p style=""text-align: center;"">+</p>","null","fixation","","","","","","","","","","","","","","","","","","","","","","",""
"","","","","","html-slider-response","81","1361151","0.0-17.0-0.21","c485716c-e631-43bd-8393-1f3ce811240f","1000","
                  <p style=""text-align: center;"">₪61
                                                <br>55%</p>
                  <p id=""wtp"" style=""text-align:center; margin-top: 0px; margin-bottom: 0px; font-size: 40px"";>&ensp;</p>","-","viewing","0","23","7B,26B","","","","","","","","","","","","","","","","","","","",""
"","","","","","html-slider-response","82","1363662","0.0-17.0-1.21","c485716c-e631-43bd-8393-1f3ce811240f","2511","
                  <p style=""text-align: center;"">₪61
                                                <br>55%</p>
                  <p id=""wtp"" style=""text-align:center; margin-top: 0px; margin-bottom: 0px; font-size: 40px"";>מוכנים לשלם: <span id=""c_p_y""></span></p>","19","evaluation","42","23","7B,26B","55","61","19","","","","","","","","","","","","","","","","",""
"","","","","","html-keyboard-response","83","1364904","0.0-17.0-2.21","c485716c-e631-43bd-8393-1f3ce811240f","null","<p style=""text-align: center;"">+</p>","null","fixation","","","","","","","","","","","","","","","","","","","","","","",""
"","","","","","html-slider-response","84","1365905","0.0-17.0-0.22","c485716c-e631-43bd-8393-1f3ce811240f","1000","
                  <p style=""text-align: center;"">₪71
                                                <br>45%</p>
                  <p id=""wtp"" style=""text-align:center; margin-top: 0px; margin-bottom: 0px; font-size: 40px"";>&ensp;</p>","-","viewing","0","26","2B,16A","","","","","","","","","","","","","","","","","","","",""
"","","","","","html-slider-response","85","1367159","0.0-17.0-1.22","c485716c-e631-43bd-8393-1f3ce811240f","1253","
                  <p style=""text-align: center;"">₪71
                                                <br>45%</p>
                  <p id=""wtp"" style=""text-align:center; margin-top: 0px; margin-bottom: 0px; font-size: 40px"";>מוכנים לשלם: <span id=""c_p_y""></span></p>","23","evaluation","23","26","2B,16A","45","71","23","","","","","","","","","","","","","","","","",""
"","","","","","html-keyboard-response","86","1368157","0.0-17.0-2.22","c485716c-e631-43bd-8393-1f3ce811240f","null","<p style=""text-align: center;"">+</p>","null","fixation","","","","","","","","","","","","","","","","","","","","","","",""
"","","","","","html-slider-response","87","1369159","0.0-17.0-0.23","c485716c-e631-43bd-8393-1f3ce811240f","1000","
                  <p style=""text-align: center;"">₪4
                                                <br>50%</p>
                  <p id=""wtp"" style=""text-align:center; margin-top: 0px; margin-bottom: 0px; font-size: 40px"";>&ensp;</p>","-","viewing","0","2","4C,17B","","","","","","","","","","","","","","","","","","","",""
"","","","","","html-slider-response","88","1371375","0.0-17.0-1.23","c485716c-e631-43bd-8393-1f3ce811240f","2215","
                  <p style=""text-align: center;"">₪4
                                                <br>50%</p>
                  <p id=""wtp"" style=""text-align:center; margin-top: 0px; margin-bottom: 0px; font-size: 40px"";>מוכנים לשלם: <span id=""c_p_y""></span></p>","2","evaluation","73","2","4C,17B","50","4","2","","","","","","","","","","","","","","","","",""
"","","","","","html-keyboard-response","89","1372019","0.0-17.0-2.23","c485716c-e631-43bd-8393-1f3ce811240f","null","<p style=""text-align: center;"">+</p>","null","fixation","","","","","","","","","","","","","","","","","","","","","","",""
"","","","","","html-slider-response","90","1373028","0.0-17.0-0.24","c485716c-e631-43bd-8393-1f3ce811240f","1000","
                  <p style=""text-align: center;"">₪4
                                                <br>25%</p>
                  <p id=""wtp"" style=""text-align:center; margin-top: 0px; margin-bottom: 0px; font-size: 40px"";>&ensp;</p>","-","viewing","0","1","6C,29B,30C","","","","","","","","","","","","","","","","","","","",""
"","","","","","html-slider-response","91","1374550","0.0-17.0-1.24","c485716c-e631-43bd-8393-1f3ce811240f","1522","
                  <p style=""text-align: center;"">₪4
                                                <br>25%</p>
                  <p id=""wtp"" style=""text-align:center; margin-top: 0px; margin-bottom: 0px; font-size: 40px"";>מוכנים לשלם: <span id=""c_p_y""></span></p>","2","evaluation","28","1","6C,29B,30C","25","4","2","","","","","","","","","","","","","","","","",""
"","","","","","html-keyboard-response","92","1375688","0.0-17.0-2.24","c485716c-e631-43bd-8393-1f3ce811240f","null","<p style=""text-align: center;"">+</p>","null","fixation","","","","","","","","","","","","","","","","","","","","","","",""
"","","","","","html-slider-response","93","1376698","0.0-17.0-0.25","c485716c-e631-43bd-8393-1f3ce811240f","1000","
                  <p style=""text-align: center;"">₪11
                                                <br>20%</p>
                  <p id=""wtp"" style=""text-align:center; margin-top: 0px; margin-bottom: 0px; font-size: 40px"";>&ensp;</p>","-","viewing","0","4","12C,17C,23C,28C","","","","","","","","","","","","","","","","","","","",""
"","","","","","html-slider-response","94","1378726","0.0-17.0-1.25","c485716c-e631-43bd-8393-1f3ce811240f","2028","
                  <p style=""text-align: center;"">₪11
                                                <br>20%</p>
                  <p id=""wtp"" style=""text-align:center; margin-top: 0px; margin-bottom: 0px; font-size: 40px"";>מוכנים לשלם: <span id=""c_p_y""></span></p>","6","evaluation","17","4","12C,17C,23C,28C","20","11","6","","","","","","","","","","","","","","","","",""
"","","","","","html-keyboard-response","95","1379500","0.0-17.0-2.25","c485716c-e631-43bd-8393-1f3ce811240f","null","<p style=""text-align: center;"">+</p>","null","fixation","","","","","","","","","","","","","","","","","","","","","","",""
"","","","","","html-slider-response","96","1380502","0.0-17.0-0.26","c485716c-e631-43bd-8393-1f3ce811240f","1000","
                  <p style=""text-align: center;"">₪11
                                                <br>75%</p>
                  <p id=""wtp"" style=""text-align:center; margin-top: 0px; margin-bottom: 0px; font-size: 40px"";>&ensp;</p>","-","viewing","0","7","6B,18B,22C,24C,29A","","","","","","","","","","","","","","","","","","","",""
"","","","","","html-slider-response","97","1382279","0.0-17.0-1.26","c485716c-e631-43bd-8393-1f3ce811240f","1776","
                  <p style=""text-align: center;"">₪11
                                                <br>75%</p>
                  <p id=""wtp"" style=""text-align:center; margin-top: 0px; margin-bottom: 0px; font-size: 40px"";>מוכנים לשלם: <span id=""c_p_y""></span></p>","5","evaluation","65","7","6B,18B,22C,24C,29A","75","11","6","","","","","","","","","","","","","","","","",""
"","","","","","html-keyboard-response","98","1383116","0.0-17.0-2.26","c485716c-e631-43bd-8393-1f3ce811240f","null","<p style=""text-align: center;"">+</p>","null","fixation","","","","","","","","","","","","","","","","","","","","","","",""
"","","","","","html-slider-response","99","1384121","0.0-17.0-0.27","c485716c-e631-43bd-8393-1f3ce811240f","1000","
                  <p style=""text-align: center;"">₪76
                                                <br>65%</p>
                  <p id=""wtp"" style=""text-align:center; margin-top: 0px; margin-bottom: 0px; font-size: 40px"";>&ensp;</p>","-","viewing","0","29","8C,19A,24B","","","","","","","","","","","","","","","","","","","",""
"","","","","","html-slider-response","100","1385599","0.0-17.0-1.27","c485716c-e631-43bd-8393-1f3ce811240f","1477","
                  <p style=""text-align: center;"">₪76
                                                <br>65%</p>
                  <p id=""wtp"" style=""text-align:center; margin-top: 0px; margin-bottom: 0px; font-size: 40px"";>מוכנים לשלם: <span id=""c_p_y""></span></p>","13","evaluation","72","29","8C,19A,24B","65","76","13","","","","","","","","","","","","","","","","",""
"","","","","","html-keyboard-response","101","1386639","0.0-17.0-2.27","c485716c-e631-43bd-8393-1f3ce811240f","null","<p style=""text-align: center;"">+</p>","null","fixation","","","","","","","","","","","","","","","","","","","","","","",""
"","","","","","html-slider-response","102","1387645","0.0-17.0-0.28","c485716c-e631-43bd-8393-1f3ce811240f","1000","
                  <p style=""text-align: center;"">₪58
                                                <br>45%</p>
                  <p id=""wtp"" style=""text-align:center; margin-top: 0px; margin-bottom: 0px; font-size: 40px"";>&ensp;</p>","-","viewing","0","21","11C,18C,25A","","","","","","","","","","","","","","","","","","","",""
"","","","","","html-slider-response","103","1389198","0.0-17.0-1.28","c485716c-e631-43bd-8393-1f3ce811240f","1552","
                  <p style=""text-align: center;"">₪58
                                                <br>45%</p>
                  <p id=""wtp"" style=""text-align:center; margin-top: 0px; margin-bottom: 0px; font-size: 40px"";>מוכנים לשלם: <span id=""c_p_y""></span></p>","14","evaluation","39","21","11C,18C,25A","45","58","14","","","","","","","","","","","","","","","","",""
"","","","","","html-keyboard-response","104","1389883","0.0-17.0-2.28","c485716c-e631-43bd-8393-1f3ce811240f","null","<p style=""text-align: center;"">+</p>","null","fixation","","","","","","","","","","","","","","","","","","","","","","",""
"","","","","","html-slider-response","105","1390897","0.0-17.0-0.29","c485716c-e631-43bd-8393-1f3ce811240f","1000","
                  <p style=""text-align: center;"">₪61
                                                <br>45%</p>
                  <p id=""wtp"" style=""text-align:center; margin-top: 0px; margin-bottom: 0px; font-size: 40px"";>&ensp;</p>","-","viewing","0","22","10A,11A","","","","","","","","","","","","","","","","","","","",""
"","","","","","html-slider-response","106","1392686","0.0-17.0-1.29","c485716c-e631-43bd-8393-1f3ce811240f","1789","
                  <p style=""text-align: center;"">₪61
                                                <br>45%</p>
                  <p id=""wtp"" style=""text-align:center; margin-top: 0px; margin-bottom: 0px; font-size: 40px"";>מוכנים לשלם: <span id=""c_p_y""></span></p>","15","evaluation","21","22","10A,11A","45","61","15","","","","","","","","","","","","","","","","",""
"","","","","","html-keyboard-response","107","1393479","0.0-17.0-2.29","c485716c-e631-43bd-8393-1f3ce811240f","null","<p style=""text-align: center;"">+</p>","null","fixation","","","","","","","","","","","","","","","","","","","","","","",""
"","","","","","html-slider-response","108","1394484","0.0-17.0-0.30","c485716c-e631-43bd-8393-1f3ce811240f","1000","
                  <p style=""text-align: center;"">₪18
                                                <br>25%</p>
                  <p id=""wtp"" style=""text-align:center; margin-top: 0px; margin-bottom: 0px; font-size: 40px"";>&ensp;</p>","-","viewing","0","9","14A,23A","","","","","","","","","","","","","","","","","","","",""
"","","","","","html-slider-response","109","1396054","0.0-17.0-1.30","c485716c-e631-43bd-8393-1f3ce811240f","1570","
                  <p style=""text-align: center;"">₪18
                                                <br>25%</p>
                  <p id=""wtp"" style=""text-align:center; margin-top: 0px; margin-bottom: 0px; font-size: 40px"";>מוכנים לשלם: <span id=""c_p_y""></span></p>","12","evaluation","39","9","14A,23A","25","18","12","","","","","","","","","","","","","","","","",""
"","","","","","html-keyboard-response","110","1397099","0.0-17.0-2.30","c485716c-e631-43bd-8393-1f3ce811240f","null","<p style=""text-align: center;"">+</p>","null","fixation","","","","","","","","","","","","","","","","","","","","","","",""
"","","","","","html-keyboard-response","111","1398103","0.0-18.0","c485716c-e631-43bd-8393-1f3ce811240f","null","<p style=""text-align: center;"">+</p>","null","fixation","","","","","","","","","","","","","","","","","","","","","","",""
"","","","","","html-keyboard-response","112","1405430","0.0-19.0","c485716c-e631-43bd-8393-1f3ce811240f","7326","<p>הפסקה.
          <br>לחצו כדי להמשיך.</p>"," ","scan_wait","","","","","","","","","","","","","","","","","","","","","","",""
"","","","","","html-keyboard-response","113","1406445","0.0-20.0","c485716c-e631-43bd-8393-1f3ce811240f","null","<p style=""text-align: center;"">+</p>","null","fixation","","","","","","","","","","","","","","","","","","","","","","",""
"","","","","","html-slider-response","114","1407446","0.0-21.0-0.0","c485716c-e631-43bd-8393-1f3ce811240f","1000","
                  <p style=""text-align: center;"">₪58
                                                <br>40%</p>
                  <p id=""wtp"" style=""text-align:center; margin-top: 0px; margin-bottom: 0px; font-size: 40px"";>&ensp;</p>","-","viewing","0","20","10C,13A,19C,21B","","","","","","","","","","","","","","","","","","","",""
"","","","","","html-slider-response","115","1409590","0.0-21.0-1.0","c485716c-e631-43bd-8393-1f3ce811240f","2143","
                  <p style=""text-align: center;"">₪58
                                                <br>40%</p>
                  <p id=""wtp"" style=""text-align:center; margin-top: 0px; margin-bottom: 0px; font-size: 40px"";>מוכנים לשלם: <span id=""c_p_y""></span></p>","12","evaluation","59","20","10C,13A,19C,21B","40","58","12","","","","","","","","","","","","","","","","",""
"","","","","","html-keyboard-response","116","1410755","0.0-21.0-2.0","c485716c-e631-43bd-8393-1f3ce811240f","null","<p style=""text-align: center;"">+</p>","null","fixation","","","","","","","","","","","","","","","","","","","","","","",""
"","","","","","html-slider-response","117","1411766","0.0-21.0-0.1","c485716c-e631-43bd-8393-1f3ce811240f","1000","
                  <p style=""text-align: center;"">₪58
                                                <br>30%</p>
                  <p id=""wtp"" style=""text-align:center; margin-top: 0px; margin-bottom: 0px; font-size: 40px"";>&ensp;</p>","-","viewing","0","19","13C,30A","","","","","","","","","","","","","","","","","","","",""
"","","","","","html-slider-response","118","1413998","0.0-21.0-1.1","c485716c-e631-43bd-8393-1f3ce811240f","2232","
                  <p style=""text-align: center;"">₪58
                                                <br>30%</p>
                  <p id=""wtp"" style=""text-align:center; margin-top: 0px; margin-bottom: 0px; font-size: 40px"";>מוכנים לשלם: <span id=""c_p_y""></span></p>","11","evaluation","59","19","13C,30A","30","58","11","","","","","","","","","","","","","","","","",""
"","","","","","html-keyboard-response","119","1414739","0.0-21.0-2.1","c485716c-e631-43bd-8393-1f3ce811240f","null","<p style=""text-align: center;"">+</p>","null","fixation","","","","","","","","","","","","","","","","","","","","","","",""
"","","","","","html-slider-response","120","1415754","0.0-21.0-0.2","c485716c-e631-43bd-8393-1f3ce811240f","1000","
                  <p style=""text-align: center;"">₪71
                                                <br>55%</p>
                  <p id=""wtp"" style=""text-align:center; margin-top: 0px; margin-bottom: 0px; font-size: 40px"";>&ensp;</p>","-","viewing","0","27","5B,18A","","","","","","","","","","","","","","","","","","","",""
"","","","","","html-slider-response","121","1417654","0.0-21.0-1.2","c485716c-e631-43bd-8393-1f3ce811240f","1900","
                  <p style=""text-align: center;"">₪71
                                                <br>55%</p>
                  <p id=""wtp"" style=""text-align:center; margin-top: 0px; margin-bottom: 0px; font-size: 40px"";>מוכנים לשלם: <span id=""c_p_y""></span></p>","17","evaluation","57","27","5B,18A","55","71","17","","","","","","","","","","","","","","","","",""
"","","","","","html-keyboard-response","122","1418943","0.0-21.0-2.2","c485716c-e631-43bd-8393-1f3ce811240f","null","<p style=""text-align: center;"">+</p>","null","fixation","","","","","","","","","","","","","","","","","","","","","","",""
"","","","","","html-slider-response","123","1419958","0.0-21.0-0.3","c485716c-e631-43bd-8393-1f3ce811240f","1000","
                  <p style=""text-align: center;"">₪79
                                                <br>65%</p>
                  <p id=""wtp"" style=""text-align:center; margin-top: 0px; margin-bottom: 0px; font-size: 40px"";>&ensp;</p>","-","viewing","0","31","8A","","","","","","","","","","","","","","","","","","","",""
"","","","","","html-slider-response","124","1421510","0.0-21.0-1.3","c485716c-e631-43bd-8393-1f3ce811240f","1552","
                  <p style=""text-align: center;"">₪79
                                                <br>65%</p>
                  <p id=""wtp"" style=""text-align:center; margin-top: 0px; margin-bottom: 0px; font-size: 40px"";>מוכנים לשלם: <span id=""c_p_y""></span></p>","21","evaluation","27","31","8A","65","79","21","","","","","","","","","","","","","","","","",""
"","","","","","html-keyboard-response","125","1422668","0.0-21.0-2.3","c485716c-e631-43bd-8393-1f3ce811240f","null","<p style=""text-align: center;"">+</p>","null","fixation","","","","","","","","","","","","","","","","","","","","","","",""
"","","","","","html-slider-response","126","1423678","0.0-21.0-0.4","c485716c-e631-43bd-8393-1f3ce811240f","1000","
                  <p style=""text-align: center;"">₪16
                                                <br>20%</p>
                  <p id=""wtp"" style=""text-align:center; margin-top: 0px; margin-bottom: 0px; font-size: 40px"";>&ensp;</p>","-","viewing","0","8","14C,17A,20C,27A","","","","","","","","","","","","","","","","","","","",""
"","","","","","html-slider-response","127","1425358","0.0-21.0-1.4","c485716c-e631-43bd-8393-1f3ce811240f","1679","
                  <p style=""text-align: center;"">₪16
                                                <br>20%</p>
                  <p id=""wtp"" style=""text-align:center; margin-top: 0px; margin-bottom: 0px; font-size: 40px"";>מוכנים לשלם: <span id=""c_p_y""></span></p>","5","evaluation","11","8","14C,17A,20C,27A","20","16","6","","","","","","","","","","","","","","","","",""
"","","","","","html-keyboard-response","128","1425865","0.0-21.0-2.4","c485716c-e631-43bd-8393-1f3ce811240f","null","<p style=""text-align: center;"">+</p>","null","fixation","","","","","","","","","","","","","","","","","","","","","","",""
"","","","","","html-slider-response","129","1426882","0.0-21.0-0.5","c485716c-e631-43bd-8393-1f3ce811240f","1000","
                  <p style=""text-align: center;"">₪36
                                                <br>70%</p>
                  <p id=""wtp"" style=""text-align:center; margin-top: 0px; margin-bottom: 0px; font-size: 40px"";>&ensp;</p>","-","viewing","0","13","3A,5C,10B","","","","","","","","","","","","","","","","","","","",""
"","","","","","html-slider-response","130","1429158","0.0-21.0-1.5","c485716c-e631-43bd-8393-1f3ce811240f","2276","
                  <p style=""text-align: center;"">₪36
                                                <br>70%</p>
                  <p id=""wtp"" style=""text-align:center; margin-top: 0px; margin-bottom: 0px; font-size: 40px"";>מוכנים לשלם: <span id=""c_p_y""></span></p>","13","evaluation","39","13","3A,5C,10B","70","36","13","","","","","","","","","","","","","","","","",""
"","","","","","html-keyboard-response","131","1430637","0.0-21.0-2.5","c485716c-e631-43bd-8393-1f3ce811240f","null","<p style=""text-align: center;"">+</p>","null","fixation","","","","","","","","","","","","","","","","","","","","","","",""
"","","","","","html-slider-response","132","1431652","0.0-21.0-0.6","c485716c-e631-43bd-8393-1f3ce811240f","1000","
                  <p style=""text-align: center;"">₪18
                                                <br>25%</p>
                  <p id=""wtp"" style=""text-align:center; margin-top: 0px; margin-bottom: 0px; font-size: 40px"";>&ensp;</p>","-","viewing","0","9","14A,23A","","","","","","","","","","","","","","","","","","","",""
"","","","","","html-slider-response","133","1433110","0.0-21.0-1.6","c485716c-e631-43bd-8393-1f3ce811240f","1457","
                  <p style=""text-align: center;"">₪18
                                                <br>25%</p>
                  <p id=""wtp"" style=""text-align:center; margin-top: 0px; margin-bottom: 0px; font-size: 40px"";>מוכנים לשלם: <span id=""c_p_y""></span></p>","5","evaluation","56","9","14A,23A","25","18","5","","","","","","","","","","","","","","","","",""
"","","","","","html-keyboard-response","134","1434045","0.0-21.0-2.6","c485716c-e631-43bd-8393-1f3ce811240f","null","<p style=""text-align: center;"">+</p>","null","fixation","","","","","","","","","","","","","","","","","","","","","","",""
"","","","","","html-slider-response","135","1435056","0.0-21.0-0.7","c485716c-e631-43bd-8393-1f3ce811240f","1000","
                  <p style=""text-align: center;"">₪43
                                                <br>75%</p>
                  <p id=""wtp"" style=""text-align:center; margin-top: 0px; margin-bottom: 0px; font-size: 40px"";>&ensp;</p>","-","viewing","0","18","11B,19B,24A,26A","","","","","","","","","","","","","","","","","","","",""
"","","","","","html-slider-response","136","1437862","0.0-21.0-1.7","c485716c-e631-43bd-8393-1f3ce811240f","2806","
                  <p style=""text-align: center;"">₪43
                                                <br>75%</p>
                  <p id=""wtp"" style=""text-align:center; margin-top: 0px; margin-bottom: 0px; font-size: 40px"";>מוכנים לשלם: <span id=""c_p_y""></span></p>","17","evaluation","55","18","11B,19B,24A,26A","75","43","17","","","","","","","","","","","","","","","","",""
"","","","","","html-keyboard-response","137","1438721","0.0-21.0-2.7","c485716c-e631-43bd-8393-1f3ce811240f","null","<p style=""text-align: center;"">+</p>","null","fixation","","","","","","","","","","","","","","","","","","","","","","",""
"","","","","","html-slider-response","138","1439727","0.0-21.0-0.8","c485716c-e631-43bd-8393-1f3ce811240f","1000","
                  <p style=""text-align: center;"">₪64
                                                <br>25%</p>
                  <p id=""wtp"" style=""text-align:center; margin-top: 0px; margin-bottom: 0px; font-size: 40px"";>&ensp;</p>","-","viewing","0","24","6A,21A","","","","","","","","","","","","","","","","","","","",""
"","","","","","html-slider-response","139","1442550","0.0-21.0-1.8","c485716c-e631-43bd-8393-1f3ce811240f","2822","
                  <p style=""text-align: center;"">₪64
                                                <br>25%</p>
                  <p id=""wtp"" style=""text-align:center; margin-top: 0px; margin-bottom: 0px; font-size: 40px"";>מוכנים לשלם: <span id=""c_p_y""></span></p>","11","evaluation","59","24","6A,21A","25","64","11","","","","","","","","","","","","","","","","",""
"","","","","","html-keyboard-response","140","1443956","0.0-21.0-2.8","c485716c-e631-43bd-8393-1f3ce811240f","null","<p style=""text-align: center;"">+</p>","null","fixation","","","","","","","","","","","","","","","","","","","","","","",""
"","","","","","html-slider-response","141","1444965","0.0-21.0-0.9","c485716c-e631-43bd-8393-1f3ce811240f","1000","
                  <p style=""text-align: center;"">₪36
                                                <br>75%</p>
                  <p id=""wtp"" style=""text-align:center; margin-top: 0px; margin-bottom: 0px; font-size: 40px"";>&ensp;</p>","-","viewing","0","14","4B,5A,13B,16B","","","","","","","","","","","","","","","","","","","",""
"","","","","","html-slider-response","142","1446422","0.0-21.0-1.9","c485716c-e631-43bd-8393-1f3ce811240f","1456","
                  <p style=""text-align: center;"">₪36
                                                <br>75%</p>
                  <p id=""wtp"" style=""text-align:center; margin-top: 0px; margin-bottom: 0px; font-size: 40px"";>מוכנים לשלם: <span id=""c_p_y""></span></p>","11","evaluation","21","14","4B,5A,13B,16B","75","36","21","","","","","","","","","","","","","","","","",""
"","","","","","html-keyboard-response","143","1447560","0.0-21.0-2.9","c485716c-e631-43bd-8393-1f3ce811240f","null","<p style=""text-align: center;"">+</p>","null","fixation","","","","","","","","","","","","","","","","","","","","","","",""
"","","","","","html-slider-response","144","1448569","0.0-21.0-0.10","c485716c-e631-43bd-8393-1f3ce811240f","1000","
                  <p style=""text-align: center;"">₪39
                                                <br>60%</p>
                  <p id=""wtp"" style=""text-align:center; margin-top: 0px; margin-bottom: 0px; font-size: 40px"";>&ensp;</p>","-","viewing","0","15","9C,25B","","","","","","","","","","","","","","","","","","","",""
"","","","","","html-slider-response","145","1451078","0.0-21.0-1.10","c485716c-e631-43bd-8393-1f3ce811240f","2508","
                  <p style=""text-align: center;"">₪39
                                                <br>60%</p>
                  <p id=""wtp"" style=""text-align:center; margin-top: 0px; margin-bottom: 0px; font-size: 40px"";>מוכנים לשלם: <span id=""c_p_y""></span></p>","11","evaluation","55","15","9C,25B","60","39","11","","","","","","","","","","","","","","","","",""
"","","","","","html-keyboard-response","146","1452449","0.0-21.0-2.10","c485716c-e631-43bd-8393-1f3ce811240f","null","<p style=""text-align: center;"">+</p>","null","fixation","","","","","","","","","","","","","","","","","","","","","","",""
"","","","","","html-slider-response","147","1453461","0.0-21.0-0.11","c485716c-e631-43bd-8393-1f3ce811240f","1000","
                  <p style=""text-align: center;"">₪11
                                                <br>45%</p>
                  <p id=""wtp"" style=""text-align:center; margin-top: 0px; margin-bottom: 0px; font-size: 40px"";>&ensp;</p>","-","viewing","0","6","14B,21C,25C","","","","","","","","","","","","","","","","","","","",""
"","","","","","html-slider-response","148","1454830","0.0-21.0-1.11","c485716c-e631-43bd-8393-1f3ce811240f","1368","
                  <p style=""text-align: center;"">₪11
                                                <br>45%</p>
                  <p id=""wtp"" style=""text-align:center; margin-top: 0px; margin-bottom: 0px; font-size: 40px"";>מוכנים לשלם: <span id=""c_p_y""></span></p>","5","evaluation","48","6","14B,21C,25C","45","11","5","","","","","","","","","","","","","","","","",""
"","","","","","html-keyboard-response","149","1455531","0.0-21.0-2.11","c485716c-e631-43bd-8393-1f3ce811240f","null","<p style=""text-align: center;"">+</p>","null","fixation","","","","","","","","","","","","","","","","","","","","","","",""
"","","","","","html-slider-response","150","1456544","0.0-21.0-0.12","c485716c-e631-43bd-8393-1f3ce811240f","1000","
                  <p style=""text-align: center;"">₪71
                                                <br>45%</p>
                  <p id=""wtp"" style=""text-align:center; margin-top: 0px; margin-bottom: 0px; font-size: 40px"";>&ensp;</p>","-","viewing","0","26","2B,16A","","","","","","","","","","","","","","","","","","","",""
"","","","","","html-slider-response","151","1458686","0.0-21.0-1.12","c485716c-e631-43bd-8393-1f3ce811240f","2141","
                  <p style=""text-align: center;"">₪71
                                                <br>45%</p>
                  <p id=""wtp"" style=""text-align:center; margin-top: 0px; margin-bottom: 0px; font-size: 40px"";>מוכנים לשלם: <span id=""c_p_y""></span></p>","15","evaluation","56","26","2B,16A","45","71","16","","","","","","","","","","","","","","","","",""
"","","","","","html-keyboard-response","152","1459807","0.0-21.0-2.12","c485716c-e631-43bd-8393-1f3ce811240f","null","<p style=""text-align: center;"">+</p>","null","fixation","","","","","","","","","","","","","","","","","","","","","","",""
"","","","","","html-slider-response","153","1460815","0.0-21.0-0.13","c485716c-e631-43bd-8393-1f3ce811240f","1000","
                  <p style=""text-align: center;"">₪58
                                                <br>45%</p>
                  <p id=""wtp"" style=""text-align:center; margin-top: 0px; margin-bottom: 0px; font-size: 40px"";>&ensp;</p>","-","viewing","0","21","11C,18C,25A","","","","","","","","","","","","","","","","","","","",""
"","","","","","html-slider-response","154","1462518","0.0-21.0-1.13","c485716c-e631-43bd-8393-1f3ce811240f","1702","
                  <p style=""text-align: center;"">₪58
                                                <br>45%</p>
                  <p id=""wtp"" style=""text-align:center; margin-top: 0px; margin-bottom: 0px; font-size: 40px"";>מוכנים לשלם: <span id=""c_p_y""></span></p>","16","evaluation","64","21","11C,18C,25A","45","58","17","","","","","","","","","","","","","","","","",""
"","","","","","html-keyboard-response","155","1463659","0.0-21.0-2.13","c485716c-e631-43bd-8393-1f3ce811240f","null","<p style=""text-align: center;"">+</p>","null","fixation","","","","","","","","","","","","","","","","","","","","","","",""
"","","","","","html-slider-response","156","1464669","0.0-21.0-0.14","c485716c-e631-43bd-8393-1f3ce811240f","1000","
                  <p style=""text-align: center;"">₪39
                                                <br>65%</p>
                  <p id=""wtp"" style=""text-align:center; margin-top: 0px; margin-bottom: 0px; font-size: 40px"";>&ensp;</p>","-","viewing","0","16","1A,15A,26C","","","","","","","","","","","","","","","","","","","",""
"","","","","","html-slider-response","157","1467510","0.0-21.0-1.14","c485716c-e631-43bd-8393-1f3ce811240f","2841","
                  <p style=""text-align: center;"">₪39
                                                <br>65%</p>
                  <p id=""wtp"" style=""text-align:center; margin-top: 0px; margin-bottom: 0px; font-size: 40px"";>מוכנים לשלם: <span id=""c_p_y""></span></p>","17","evaluation","37","16","1A,15A,26C","65","39","17","","","","","","","","","","","","","","","","",""
"","","","","","html-keyboard-response","158","1468754","0.0-21.0-2.14","c485716c-e631-43bd-8393-1f3ce811240f","null","<p style=""text-align: center;"">+</p>","null","fixation","","","","","","","","","","","","","","","","","","","","","","",""
"","","","","","html-slider-response","159","1469759","0.0-21.0-0.15","c485716c-e631-43bd-8393-1f3ce811240f","1000","
                  <p style=""text-align: center;"">₪4
                                                <br>75%</p>
                  <p id=""wtp"" style=""text-align:center; margin-top: 0px; margin-bottom: 0px; font-size: 40px"";>&ensp;</p>","-","viewing","0","3","12B,20B,23B,27C,29C","","","","","","","","","","","","","","","","","","","",""
"","","","","","html-slider-response","160","1471342","0.0-21.0-1.15","c485716c-e631-43bd-8393-1f3ce811240f","1583","
                  <p style=""text-align: center;"">₪4
                                                <br>75%</p>
                  <p id=""wtp"" style=""text-align:center; margin-top: 0px; margin-bottom: 0px; font-size: 40px"";>מוכנים לשלם: <span id=""c_p_y""></span></p>","0","evaluation","11","3","12B,20B,23B,27C,29C","75","4","0","","","","","","","","","","","","","","","","",""
"","","","","","html-keyboard-response","161","1471989","0.0-21.0-2.15","c485716c-e631-43bd-8393-1f3ce811240f","null","<p style=""text-align: center;"">+</p>","null","fixation","","","","","","","","","","","","","","","","","","","","","","",""
"","","","","","html-slider-response","162","1472996","0.0-21.0-0.16","c485716c-e631-43bd-8393-1f3ce811240f","1000","
                  <p style=""text-align: center;"">₪11
                                                <br>75%</p>
                  <p id=""wtp"" style=""text-align:center; margin-top: 0px; margin-bottom: 0px; font-size: 40px"";>&ensp;</p>","-","viewing","0","7","6B,18B,22C,24C,29A","","","","","","","","","","","","","","","","","","","",""
"","","","","","html-slider-response","163","1475886","0.0-21.0-1.16","c485716c-e631-43bd-8393-1f3ce811240f","2889","
                  <p style=""text-align: center;"">₪11
                                                <br>75%</p>
                  <p id=""wtp"" style=""text-align:center; margin-top: 0px; margin-bottom: 0px; font-size: 40px"";>מוכנים לשלם: <span id=""c_p_y""></span></p>","5","evaluation","66","7","6B,18B,22C,24C,29A","75","11","6","","","","","","","","","","","","","","","","",""
"","","","","","html-keyboard-response","164","1476836","0.0-21.0-2.16","c485716c-e631-43bd-8393-1f3ce811240f","null","<p style=""text-align: center;"">+</p>","null","fixation","","","","","","","","","","","","","","","","","","","","","","",""
"","","","","","html-slider-response","165","1477850","0.0-21.0-0.17","c485716c-e631-43bd-8393-1f3ce811240f","1000","
                  <p style=""text-align: center;"">₪36
                                                <br>30%</p>
                  <p id=""wtp"" style=""text-align:center; margin-top: 0px; margin-bottom: 0px; font-size: 40px"";>&ensp;</p>","-","viewing","0","11","3C,20A,22A","","","","","","","","","","","","","","","","","","","",""
"","","","","","html-slider-response","166","1479166","0.0-21.0-1.17","c485716c-e631-43bd-8393-1f3ce811240f","1316","
                  <p style=""text-align: center;"">₪36
                                                <br>30%</p>
                  <p id=""wtp"" style=""text-align:center; margin-top: 0px; margin-bottom: 0px; font-size: 40px"";>מוכנים לשלם: <span id=""c_p_y""></span></p>","7","evaluation","53","11","3C,20A,22A","30","36","8","","","","","","","","","","","","","","","","",""
"","","","","","html-keyboard-response","167","1480216","0.0-21.0-2.17","c485716c-e631-43bd-8393-1f3ce811240f","null","<p style=""text-align: center;"">+</p>","null","fixation","","","","","","","","","","","","","","","","","","","","","","",""
"","","","","","html-slider-response","168","1481220","0.0-21.0-0.18","c485716c-e631-43bd-8393-1f3ce811240f","1000","
                  <p style=""text-align: center;"">₪4
                                                <br>25%</p>
                  <p id=""wtp"" style=""text-align:center; margin-top: 0px; margin-bottom: 0px; font-size: 40px"";>&ensp;</p>","-","viewing","0","1","6C,29B,30C","","","","","","","","","","","","","","","","","","","",""
"","","","","","html-slider-response","169","1482638","0.0-21.0-1.18","c485716c-e631-43bd-8393-1f3ce811240f","1417","
                  <p style=""text-align: center;"">₪4
                                                <br>25%</p>
                  <p id=""wtp"" style=""text-align:center; margin-top: 0px; margin-bottom: 0px; font-size: 40px"";>מוכנים לשלם: <span id=""c_p_y""></span></p>","0","evaluation","32","1","6C,29B,30C","25","4","1","","","","","","","","","","","","","","","","",""
"","","","","","html-keyboard-response","170","1483577","0.0-21.0-2.18","c485716c-e631-43bd-8393-1f3ce811240f","null","<p style=""text-align: center;"">+</p>","null","fixation","","","","","","","","","","","","","","","","","","","","","","",""
"","","","","","html-slider-response","171","1484589","0.0-21.0-0.19","c485716c-e631-43bd-8393-1f3ce811240f","1000","
                  <p style=""text-align: center;"">₪61
                                                <br>55%</p>
                  <p id=""wtp"" style=""text-align:center; margin-top: 0px; margin-bottom: 0px; font-size: 40px"";>&ensp;</p>","-","viewing","0","23","7B,26B","","","","","","","","","","","","","","","","","","","",""
"","","","","","html-slider-response","172","1488602","0.0-21.0-1.19","c485716c-e631-43bd-8393-1f3ce811240f","null","
                  <p style=""text-align: center;"">₪61
                                                <br>55%</p>
                  <p id=""wtp"" style=""text-align:center; margin-top: 0px; margin-bottom: 0px; font-size: 40px"";>מוכנים לשלם: <span id=""c_p_y""></span></p>","null","evaluation","1","23","7B,26B","55","61","19","","","","","","","","","","","","","","","","",""
"","","","","","html-keyboard-response","173","1489501","0.0-21.0-2.19","c485716c-e631-43bd-8393-1f3ce811240f","null","<p style=""text-align: center;"">+</p>","null","fixation","","","","","","","","","","","","","","","","","","","","","","",""
"","","","","","html-slider-response","174","1490511","0.0-21.0-0.20","c485716c-e631-43bd-8393-1f3ce811240f","1000","
                  <p style=""text-align: center;"">₪79
                                                <br>40%</p>
                  <p id=""wtp"" style=""text-align:center; margin-top: 0px; margin-bottom: 0px; font-size: 40px"";>&ensp;</p>","-","viewing","0","30","9B","","","","","","","","","","","","","","","","","","","",""
"","","","","","html-slider-response","175","1493446","0.0-21.0-1.20","c485716c-e631-43bd-8393-1f3ce811240f","2935","
                  <p style=""text-align: center;"">₪79
                                                <br>40%</p>
                  <p id=""wtp"" style=""text-align:center; margin-top: 0px; margin-bottom: 0px; font-size: 40px"";>מוכנים לשלם: <span id=""c_p_y""></span></p>","23","evaluation","37","30","9B","40","79","23","","","","","","","","","","","","","","","","",""
"","","","","","html-keyboard-response","176","1494480","0.0-21.0-2.20","c485716c-e631-43bd-8393-1f3ce811240f","null","<p style=""text-align: center;"">+</p>","null","fixation","","","","","","","","","","","","","","","","","","","","","","",""
"","","","","","html-slider-response","177","1495484","0.0-21.0-0.21","c485716c-e631-43bd-8393-1f3ce811240f","1000","
                  <p style=""text-align: center;"">₪4
                                                <br>50%</p>
                  <p id=""wtp"" style=""text-align:center; margin-top: 0px; margin-bottom: 0px; font-size: 40px"";>&ensp;</p>","-","viewing","0","2","4C,17B","","","","","","","","","","","","","","","","","","","",""
"","","","","","html-slider-response","178","1497238","0.0-21.0-1.21","c485716c-e631-43bd-8393-1f3ce811240f","1753","
                  <p style=""text-align: center;"">₪4
                                                <br>50%</p>
                  <p id=""wtp"" style=""text-align:center; margin-top: 0px; margin-bottom: 0px; font-size: 40px"";>מוכנים לשלם: <span id=""c_p_y""></span></p>","0","evaluation","15","2","4C,17B","50","4","1","","","","","","","","","","","","","","","","",""
"","","","","","html-keyboard-response","179","1498721","0.0-21.0-2.21","c485716c-e631-43bd-8393-1f3ce811240f","null","<p style=""text-align: center;"">+</p>","null","fixation","","","","","","","","","","","","","","","","","","","","","","",""
"","","","","","html-slider-response","180","1499737","0.0-21.0-0.22","c485716c-e631-43bd-8393-1f3ce811240f","1000","
                  <p style=""text-align: center;"">₪36
                                                <br>60%</p>
                  <p id=""wtp"" style=""text-align:center; margin-top: 0px; margin-bottom: 0px; font-size: 40px"";>&ensp;</p>","-","viewing","0","12","1C,7C,15C","","","","","","","","","","","","","","","","","","","",""
"","","","","","html-slider-response","181","1503246","0.0-21.0-1.22","c485716c-e631-43bd-8393-1f3ce811240f","3508","
                  <p style=""text-align: center;"">₪36
                                                <br>60%</p>
                  <p id=""wtp"" style=""text-align:center; margin-top: 0px; margin-bottom: 0px; font-size: 40px"";>מוכנים לשלם: <span id=""c_p_y""></span></p>","13","evaluation","51","12","1C,7C,15C","60","36","13","","","","","","","","","","","","","","","","",""
"","","","","","html-keyboard-response","182","1504461","0.0-21.0-2.22","c485716c-e631-43bd-8393-1f3ce811240f","null","<p style=""text-align: center;"">+</p>","null","fixation","","","","","","","","","","","","","","","","","","","","","","",""
"","","","","","html-slider-response","183","1505476","0.0-21.0-0.23","c485716c-e631-43bd-8393-1f3ce811240f","1000","
                  <p style=""text-align: center;"">₪64
                                                <br>50%</p>
                  <p id=""wtp"" style=""text-align:center; margin-top: 0px; margin-bottom: 0px; font-size: 40px"";>&ensp;</p>","-","viewing","0","25","1B,3B,4A","","","","","","","","","","","","","","","","","","","",""
"","","","","","html-slider-response","184","1507870","0.0-21.0-1.23","c485716c-e631-43bd-8393-1f3ce811240f","2393","
                  <p style=""text-align: center;"">₪64
                                                <br>50%</p>
                  <p id=""wtp"" style=""text-align:center; margin-top: 0px; margin-bottom: 0px; font-size: 40px"";>מוכנים לשלם: <span id=""c_p_y""></span></p>","20","evaluation","55","25","1B,3B,4A","50","64","20","","","","","","","","","","","","","","","","",""
"","","","","","html-keyboard-response","185","1508809","0.0-21.0-2.23","c485716c-e631-43bd-8393-1f3ce811240f","null","<p style=""text-align: center;"">+</p>","null","fixation","","","","","","","","","","","","","","","","","","","","","","",""
"","","","","","html-slider-response","186","1509815","0.0-21.0-0.24","c485716c-e631-43bd-8393-1f3ce811240f","1000","
                  <p style=""text-align: center;"">₪11
                                                <br>20%</p>
                  <p id=""wtp"" style=""text-align:center; margin-top: 0px; margin-bottom: 0px; font-size: 40px"";>&ensp;</p>","-","viewing","0","4","12C,17C,23C,28C","","","","","","","","","","","","","","","","","","","",""
"","","","","","html-slider-response","187","1510997","0.0-21.0-1.24","c485716c-e631-43bd-8393-1f3ce811240f","1182","
                  <p style=""text-align: center;"">₪11
                                                <br>20%</p>
                  <p id=""wtp"" style=""text-align:center; margin-top: 0px; margin-bottom: 0px; font-size: 40px"";>מוכנים לשלם: <span id=""c_p_y""></span></p>","7","evaluation","59","4","12C,17C,23C,28C","20","11","7","","","","","","","","","","","","","","","","",""
"","","","","","html-keyboard-response","188","1511922","0.0-21.0-2.24","c485716c-e631-43bd-8393-1f3ce811240f","null","<p style=""text-align: center;"">+</p>","null","fixation","","","","","","","","","","","","","","","","","","","","","","",""
"","","","","","html-slider-response","189","1512932","0.0-21.0-0.25","c485716c-e631-43bd-8393-1f3ce811240f","1000","
                  <p style=""text-align: center;"">₪43
                                                <br>60%</p>
                  <p id=""wtp"" style=""text-align:center; margin-top: 0px; margin-bottom: 0px; font-size: 40px"";>&ensp;</p>","-","viewing","0","17","2A,7A,9A,15B","","","","","","","","","","","","","","","","","","","",""
"","","","","","html-slider-response","190","1515302","0.0-21.0-1.25","c485716c-e631-43bd-8393-1f3ce811240f","2369","
                  <p style=""text-align: center;"">₪43
                                                <br>60%</p>
                  <p id=""wtp"" style=""text-align:center; margin-top: 0px; margin-bottom: 0px; font-size: 40px"";>מוכנים לשלם: <span id=""c_p_y""></span></p>","20","evaluation","64","17","2A,7A,9A,15B","60","43","20","","","","","","","","","","","","","","","","",""
"","","","","","html-keyboard-response","191","1516117","0.0-21.0-2.25","c485716c-e631-43bd-8393-1f3ce811240f","null","<p style=""text-align: center;"">+</p>","null","fixation","","","","","","","","","","","","","","","","","","","","","","",""
"","","","","","html-slider-response","192","1517129","0.0-21.0-0.26","c485716c-e631-43bd-8393-1f3ce811240f","1000","
                  <p style=""text-align: center;"">₪18
                                                <br>50%</p>
                  <p id=""wtp"" style=""text-align:center; margin-top: 0px; margin-bottom: 0px; font-size: 40px"";>&ensp;</p>","-","viewing","0","10","2C,16C,22B,28A","","","","","","","","","","","","","","","","","","","",""
"","","","","","html-slider-response","193","1518821","0.0-21.0-1.26","c485716c-e631-43bd-8393-1f3ce811240f","1691","
                  <p style=""text-align: center;"">₪18
                                                <br>50%</p>
                  <p id=""wtp"" style=""text-align:center; margin-top: 0px; margin-bottom: 0px; font-size: 40px"";>מוכנים לשלם: <span id=""c_p_y""></span></p>","10","evaluation","7","10","2C,16C,22B,28A","50","18","10","","","","","","","","","","","","","","","","",""
"","","","","","html-keyboard-response","194","1519341","0.0-21.0-2.26","c485716c-e631-43bd-8393-1f3ce811240f","null","<p style=""text-align: center;"">+</p>","null","fixation","","","","","","","","","","","","","","","","","","","","","","",""
"","","","","","html-slider-response","195","1520357","0.0-21.0-0.27","c485716c-e631-43bd-8393-1f3ce811240f","1000","
                  <p style=""text-align: center;"">₪71
                                                <br>75%</p>
                  <p id=""wtp"" style=""text-align:center; margin-top: 0px; margin-bottom: 0px; font-size: 40px"";>&ensp;</p>","-","viewing","0","28","8B","","","","","","","","","","","","","","","","","","","",""
"","","","","","html-slider-response","196","1522174","0.0-21.0-1.27","c485716c-e631-43bd-8393-1f3ce811240f","1815","
                  <p style=""text-align: center;"">₪71
                                                <br>75%</p>
                  <p id=""wtp"" style=""text-align:center; margin-top: 0px; margin-bottom: 0px; font-size: 40px"";>מוכנים לשלם: <span id=""c_p_y""></span></p>","27","evaluation","30","28","8B","75","71","27","","","","","","","","","","","","","","","","",""
"","","","","","html-keyboard-response","197","1523086","0.0-21.0-2.27","c485716c-e631-43bd-8393-1f3ce811240f","null","<p style=""text-align: center;"">+</p>","null","fixation","","","","","","","","","","","","","","","","","","","","","","",""
"","","","","","html-slider-response","198","1524088","0.0-21.0-0.28","c485716c-e631-43bd-8393-1f3ce811240f","1000","
                  <p style=""text-align: center;"">₪11
                                                <br>25%</p>
                  <p id=""wtp"" style=""text-align:center; margin-top: 0px; margin-bottom: 0px; font-size: 40px"";>&ensp;</p>","-","viewing","0","5","12A,27B,28B,30B","","","","","","","","","","","","","","","","","","","",""
"","","","","","html-slider-response","199","1526350","0.0-21.0-1.28","c485716c-e631-43bd-8393-1f3ce811240f","2261","
                  <p style=""text-align: center;"">₪11
                                                <br>25%</p>
                  <p id=""wtp"" style=""text-align:center; margin-top: 0px; margin-bottom: 0px; font-size: 40px"";>מוכנים לשלם: <span id=""c_p_y""></span></p>","5","evaluation","76","5","12A,27B,28B,30B","25","11","6","","","","","","","","","","","","","","","","",""
"","","","","","html-keyboard-response","200","1527131","0.0-21.0-2.28","c485716c-e631-43bd-8393-1f3ce811240f","null","<p style=""text-align: center;"">+</p>","null","fixation","","","","","","","","","","","","","","","","","","","","","","",""
"","","","","","html-slider-response","201","1528133","0.0-21.0-0.29","c485716c-e631-43bd-8393-1f3ce811240f","1000","
                  <p style=""text-align: center;"">₪61
                                                <br>45%</p>
                  <p id=""wtp"" style=""text-align:center; margin-top: 0px; margin-bottom: 0px; font-size: 40px"";>&ensp;</p>","-","viewing","0","22","10A,11A","","","","","","","","","","","","","","","","","","","",""
"","","","","","html-slider-response","202","1530669","0.0-21.0-1.29","c485716c-e631-43bd-8393-1f3ce811240f","2536","
                  <p style=""text-align: center;"">₪61
                                                <br>45%</p>
                  <p id=""wtp"" style=""text-align:center; margin-top: 0px; margin-bottom: 0px; font-size: 40px"";>מוכנים לשלם: <span id=""c_p_y""></span></p>","20","evaluation","9","22","10A,11A","45","61","20","","","","","","","","","","","","","","","","",""
"","","","","","html-keyboard-response","203","1531389","0.0-21.0-2.29","c485716c-e631-43bd-8393-1f3ce811240f","null","<p style=""text-align: center;"">+</p>","null","fixation","","","","","","","","","","","","","","","","","","","","","","",""
"","","","","","html-slider-response","204","1532403","0.0-21.0-0.30","c485716c-e631-43bd-8393-1f3ce811240f","1000","
                  <p style=""text-align: center;"">₪76
                                                <br>65%</p>
                  <p id=""wtp"" style=""text-align:center; margin-top: 0px; margin-bottom: 0px; font-size: 40px"";>&ensp;</p>","-","viewing","0","29","8C,19A,24B","","","","","","","","","","","","","","","","","","","",""
"","","","","","html-slider-response","205","1535726","0.0-21.0-1.30","c485716c-e631-43bd-8393-1f3ce811240f","3322","
                  <p style=""text-align: center;"">₪76
                                                <br>65%</p>
                  <p id=""wtp"" style=""text-align:center; margin-top: 0px; margin-bottom: 0px; font-size: 40px"";>מוכנים לשלם: <span id=""c_p_y""></span></p>","20","evaluation","62","29","8C,19A,24B","65","76","21","","","","","","","","","","","","","","","","",""
"","","","","","html-keyboard-response","206","1537053","0.0-21.0-2.30","c485716c-e631-43bd-8393-1f3ce811240f","null","<p style=""text-align: center;"">+</p>","null","fixation","","","","","","","","","","","","","","","","","","","","","","",""
"","","","","","html-keyboard-response","207","1538060","0.0-22.0","c485716c-e631-43bd-8393-1f3ce811240f","null","<p style=""text-align: center;"">+</p>","null","fixation","","","","","","","","","","","","","","","","","","","","","","",""
"","","","","","html-keyboard-response","208","1545127","0.0-23.0","c485716c-e631-43bd-8393-1f3ce811240f","7066","<p>הפסקה.
          <br>לחצו כדי להמשיך.</p>"," ","scan_wait","","","","","","","","","","","","","","","","","","","","","","",""
"","","","","","html-keyboard-response","209","1546129","0.0-24.0","c485716c-e631-43bd-8393-1f3ce811240f","null","<p style=""text-align: center;"">+</p>","null","fixation","","","","","","","","","","","","","","","","","","","","","","",""
"","","","","","html-slider-response","210","1547130","0.0-25.0-0.0","c485716c-e631-43bd-8393-1f3ce811240f","1000","
                  <p style=""text-align: center;"">₪61
                                                <br>55%</p>
                  <p id=""wtp"" style=""text-align:center; margin-top: 0px; margin-bottom: 0px; font-size: 40px"";>&ensp;</p>","-","viewing","0","23","7B,26B","","","","","","","","","","","","","","","","","","","",""
"","","","","","html-slider-response","211","1548518","0.0-25.0-1.0","c485716c-e631-43bd-8393-1f3ce811240f","1387","
                  <p style=""text-align: center;"">₪61
                                                <br>55%</p>
                  <p id=""wtp"" style=""text-align:center; margin-top: 0px; margin-bottom: 0px; font-size: 40px"";>מוכנים לשלם: <span id=""c_p_y""></span></p>","15","evaluation","45","23","7B,26B","55","61","15","","","","","","","","","","","","","","","","",""
"","","","","","html-keyboard-response","212","1549459","0.0-25.0-2.0","c485716c-e631-43bd-8393-1f3ce811240f","null","<p style=""text-align: center;"">+</p>","null","fixation","","","","","","","","","","","","","","","","","","","","","","",""
"","","","","","html-slider-response","213","1550470","0.0-25.0-0.1","c485716c-e631-43bd-8393-1f3ce811240f","1000","
                  <p style=""text-align: center;"">₪36
                                                <br>60%</p>
                  <p id=""wtp"" style=""text-align:center; margin-top: 0px; margin-bottom: 0px; font-size: 40px"";>&ensp;</p>","-","viewing","0","12","1C,7C,15C","","","","","","","","","","","","","","","","","","","",""
"","","","","","html-slider-response","214","1551910","0.0-25.0-1.1","c485716c-e631-43bd-8393-1f3ce811240f","1439","
                  <p style=""text-align: center;"">₪36
                                                <br>60%</p>
                  <p id=""wtp"" style=""text-align:center; margin-top: 0px; margin-bottom: 0px; font-size: 40px"";>מוכנים לשלם: <span id=""c_p_y""></span></p>","15","evaluation","41","12","1C,7C,15C","60","36","16","","","","","","","","","","","","","","","","",""
"","","","","","html-keyboard-response","215","1553126","0.0-25.0-2.1","c485716c-e631-43bd-8393-1f3ce811240f","null","<p style=""text-align: center;"">+</p>","null","fixation","","","","","","","","","","","","","","","","","","","","","","",""
"","","","","","html-slider-response","216","1554142","0.0-25.0-0.2","c485716c-e631-43bd-8393-1f3ce811240f","1000","
                  <p style=""text-align: center;"">₪11
                                                <br>45%</p>
                  <p id=""wtp"" style=""text-align:center; margin-top: 0px; margin-bottom: 0px; font-size: 40px"";>&ensp;</p>","-","viewing","0","6","14B,21C,25C","","","","","","","","","","","","","","","","","","","",""
"","","","","","html-slider-response","217","1555366","0.0-25.0-1.2","c485716c-e631-43bd-8393-1f3ce811240f","1223","
                  <p style=""text-align: center;"">₪11
                                                <br>45%</p>
                  <p id=""wtp"" style=""text-align:center; margin-top: 0px; margin-bottom: 0px; font-size: 40px"";>מוכנים לשלם: <span id=""c_p_y""></span></p>","6","evaluation","14","6","14B,21C,25C","45","11","6","","","","","","","","","","","","","","","","",""
"","","","","","html-keyboard-response","218","1556158","0.0-25.0-2.2","c485716c-e631-43bd-8393-1f3ce811240f","null","<p style=""text-align: center;"">+</p>","null","fixation","","","","","","","","","","","","","","","","","","","","","","",""
"","","","","","html-slider-response","219","1557162","0.0-25.0-0.3","c485716c-e631-43bd-8393-1f3ce811240f","1000","
                  <p style=""text-align: center;"">₪36
                                                <br>75%</p>
                  <p id=""wtp"" style=""text-align:center; margin-top: 0px; margin-bottom: 0px; font-size: 40px"";>&ensp;</p>","-","viewing","0","14","4B,5A,13B,16B","","","","","","","","","","","","","","","","","","","",""
"","","","","","html-slider-response","220","1557950","0.0-25.0-1.3","c485716c-e631-43bd-8393-1f3ce811240f","788","
                  <p style=""text-align: center;"">₪36
                                                <br>75%</p>
                  <p id=""wtp"" style=""text-align:center; margin-top: 0px; margin-bottom: 0px; font-size: 40px"";>מוכנים לשלם: <span id=""c_p_y""></span></p>","6","evaluation","15","14","4B,5A,13B,16B","75","36","6","","","","","","","","","","","","","","","","",""
"","","","","","html-keyboard-response","221","1558932","0.0-25.0-2.3","c485716c-e631-43bd-8393-1f3ce811240f","null","<p style=""text-align: center;"">+</p>","null","fixation","","","","","","","","","","","","","","","","","","","","","","",""
"","","","","","html-slider-response","222","1559947","0.0-25.0-0.4","c485716c-e631-43bd-8393-1f3ce811240f","1000","
                  <p style=""text-align: center;"">₪58
                                                <br>45%</p>
                  <p id=""wtp"" style=""text-align:center; margin-top: 0px; margin-bottom: 0px; font-size: 40px"";>&ensp;</p>","-","viewing","0","21","11C,18C,25A","","","","","","","","","","","","","","","","","","","",""
"","","","","","html-slider-response","223","1561878","0.0-25.0-1.4","c485716c-e631-43bd-8393-1f3ce811240f","1931","
                  <p style=""text-align: center;"">₪58
                                                <br>45%</p>
                  <p id=""wtp"" style=""text-align:center; margin-top: 0px; margin-bottom: 0px; font-size: 40px"";>מוכנים לשלם: <span id=""c_p_y""></span></p>","20","evaluation","21","21","11C,18C,25A","45","58","20","","","","","","","","","","","","","","","","",""
"","","","","","html-keyboard-response","224","1562769","0.0-25.0-2.4","c485716c-e631-43bd-8393-1f3ce811240f","null","<p style=""text-align: center;"">+</p>","null","fixation","","","","","","","","","","","","","","","","","","","","","","",""
"","","","","","html-slider-response","225","1563784","0.0-25.0-0.5","c485716c-e631-43bd-8393-1f3ce811240f","1000","
                  <p style=""text-align: center;"">₪61
                                                <br>45%</p>
                  <p id=""wtp"" style=""text-align:center; margin-top: 0px; margin-bottom: 0px; font-size: 40px"";>&ensp;</p>","-","viewing","0","22","10A,11A","","","","","","","","","","","","","","","","","","","",""
"","","","","","html-slider-response","226","1564438","0.0-25.0-1.5","c485716c-e631-43bd-8393-1f3ce811240f","652","
                  <p style=""text-align: center;"">₪61
                                                <br>45%</p>
                  <p id=""wtp"" style=""text-align:center; margin-top: 0px; margin-bottom: 0px; font-size: 40px"";>מוכנים לשלם: <span id=""c_p_y""></span></p>","20","evaluation","42","22","10A,11A","45","61","20","","","","","","","","","","","","","","","","",""
"","","","","","html-keyboard-response","227","1565453","0.0-25.0-2.5","c485716c-e631-43bd-8393-1f3ce811240f","null","<p style=""text-align: center;"">+</p>","null","fixation","","","","","","","","","","","","","","","","","","","","","","",""
"","","","","","html-slider-response","228","1566455","0.0-25.0-0.6","c485716c-e631-43bd-8393-1f3ce811240f","1000","
                  <p style=""text-align: center;"">₪11
                                                <br>25%</p>
                  <p id=""wtp"" style=""text-align:center; margin-top: 0px; margin-bottom: 0px; font-size: 40px"";>&ensp;</p>","-","viewing","0","5","12A,27B,28B,30B","","","","","","","","","","","","","","","","","","","",""
"","","","","","html-slider-response","229","1567742","0.0-25.0-1.6","c485716c-e631-43bd-8393-1f3ce811240f","1286","
                  <p style=""text-align: center;"">₪11
                                                <br>25%</p>
                  <p id=""wtp"" style=""text-align:center; margin-top: 0px; margin-bottom: 0px; font-size: 40px"";>מוכנים לשלם: <span id=""c_p_y""></span></p>","6","evaluation","58","5","12A,27B,28B,30B","25","11","6","","","","","","","","","","","","","","","","",""
"","","","","","html-keyboard-response","230","1568807","0.0-25.0-2.6","c485716c-e631-43bd-8393-1f3ce811240f","null","<p style=""text-align: center;"">+</p>","null","fixation","","","","","","","","","","","","","","","","","","","","","","",""
"","","","","","html-slider-response","231","1569824","0.0-25.0-0.7","c485716c-e631-43bd-8393-1f3ce811240f","1000","
                  <p style=""text-align: center;"">₪39
                                                <br>65%</p>
                  <p id=""wtp"" style=""text-align:center; margin-top: 0px; margin-bottom: 0px; font-size: 40px"";>&ensp;</p>","-","viewing","0","16","1A,15A,26C","","","","","","","","","","","","","","","","","","","",""
"","","","","","html-slider-response","232","1571838","0.0-25.0-1.7","c485716c-e631-43bd-8393-1f3ce811240f","2013","
                  <p style=""text-align: center;"">₪39
                                                <br>65%</p>
                  <p id=""wtp"" style=""text-align:center; margin-top: 0px; margin-bottom: 0px; font-size: 40px"";>מוכנים לשלם: <span id=""c_p_y""></span></p>","15","evaluation","68","16","1A,15A,26C","65","39","15","","","","","","","","","","","","","","","","",""
"","","","","","html-keyboard-response","233","1572390","0.0-25.0-2.7","c485716c-e631-43bd-8393-1f3ce811240f","null","<p style=""text-align: center;"">+</p>","null","fixation","","","","","","","","","","","","","","","","","","","","","","",""
"","","","","","html-slider-response","234","1573396","0.0-25.0-0.8","c485716c-e631-43bd-8393-1f3ce811240f","1000","
                  <p style=""text-align: center;"">₪11
                                                <br>20%</p>
                  <p id=""wtp"" style=""text-align:center; margin-top: 0px; margin-bottom: 0px; font-size: 40px"";>&ensp;</p>","-","viewing","0","4","12C,17C,23C,28C","","","","","","","","","","","","","","","","","","","",""
"","","","","","html-slider-response","235","1574566","0.0-25.0-1.8","c485716c-e631-43bd-8393-1f3ce811240f","1169","
                  <p style=""text-align: center;"">₪11
                                                <br>20%</p>
                  <p id=""wtp"" style=""text-align:center; margin-top: 0px; margin-bottom: 0px; font-size: 40px"";>מוכנים לשלם: <span id=""c_p_y""></span></p>","3","evaluation","44","4","12C,17C,23C,28C","20","11","3","","","","","","","","","","","","","","","","",""
"","","","","","html-keyboard-response","236","1575704","0.0-25.0-2.8","c485716c-e631-43bd-8393-1f3ce811240f","null","<p style=""text-align: center;"">+</p>","null","fixation","","","","","","","","","","","","","","","","","","","","","","",""
"","","","","","html-slider-response","237","1576714","0.0-25.0-0.9","c485716c-e631-43bd-8393-1f3ce811240f","1000","
                  <p style=""text-align: center;"">₪39
                                                <br>60%</p>
                  <p id=""wtp"" style=""text-align:center; margin-top: 0px; margin-bottom: 0px; font-size: 40px"";>&ensp;</p>","-","viewing","0","15","9C,25B","","","","","","","","","","","","","","","","","","","",""
"","","","","","html-slider-response","238","1579350","0.0-25.0-1.9","c485716c-e631-43bd-8393-1f3ce811240f","2635","
                  <p style=""text-align: center;"">₪39
                                                <br>60%</p>
                  <p id=""wtp"" style=""text-align:center; margin-top: 0px; margin-bottom: 0px; font-size: 40px"";>מוכנים לשלם: <span id=""c_p_y""></span></p>","11","evaluation","32","15","9C,25B","60","39","11","","","","","","","","","","","","","","","","",""
"","","","","","html-keyboard-response","239","1580571","0.0-25.0-2.9","c485716c-e631-43bd-8393-1f3ce811240f","null","<p style=""text-align: center;"">+</p>","null","fixation","","","","","","","","","","","","","","","","","","","","","","",""
"","","","","","html-slider-response","240","1581585","0.0-25.0-0.10","c485716c-e631-43bd-8393-1f3ce811240f","1000","
                  <p style=""text-align: center;"">₪16
                                                <br>20%</p>
                  <p id=""wtp"" style=""text-align:center; margin-top: 0px; margin-bottom: 0px; font-size: 40px"";>&ensp;</p>","-","viewing","0","8","14C,17A,20C,27A","","","","","","","","","","","","","","","","","","","",""
"","","","","","html-slider-response","241","1583022","0.0-25.0-1.10","c485716c-e631-43bd-8393-1f3ce811240f","1436","
                  <p style=""text-align: center;"">₪16
                                                <br>20%</p>
                  <p id=""wtp"" style=""text-align:center; margin-top: 0px; margin-bottom: 0px; font-size: 40px"";>מוכנים לשלם: <span id=""c_p_y""></span></p>","4","evaluation","36","8","14C,17A,20C,27A","20","16","4","","","","","","","","","","","","","","","","",""
"","","","","","html-keyboard-response","242","1583694","0.0-25.0-2.10","c485716c-e631-43bd-8393-1f3ce811240f","null","<p style=""text-align: center;"">+</p>","null","fixation","","","","","","","","","","","","","","","","","","","","","","",""
"","","","","","html-slider-response","243","1584704","0.0-25.0-0.11","c485716c-e631-43bd-8393-1f3ce811240f","1000","
                  <p style=""text-align: center;"">₪4
                                                <br>75%</p>
                  <p id=""wtp"" style=""text-align:center; margin-top: 0px; margin-bottom: 0px; font-size: 40px"";>&ensp;</p>","-","viewing","0","3","12B,20B,23B,27C,29C","","","","","","","","","","","","","","","","","","","",""
"","","","","","html-slider-response","244","1585814","0.0-25.0-1.11","c485716c-e631-43bd-8393-1f3ce811240f","1108","
                  <p style=""text-align: center;"">₪4
                                                <br>75%</p>
                  <p id=""wtp"" style=""text-align:center; margin-top: 0px; margin-bottom: 0px; font-size: 40px"";>מוכנים לשלם: <span id=""c_p_y""></span></p>","0","evaluation","4","3","12B,20B,23B,27C,29C","75","4","0","","","","","","","","","","","","","","","","",""
"","","","","","html-keyboard-response","245","1587042","0.0-25.0-2.11","c485716c-e631-43bd-8393-1f3ce811240f","null","<p style=""text-align: center;"">+</p>","null","fixation","","","","","","","","","","","","","","","","","","","","","","",""
"","","","","","html-slider-response","246","1588046","0.0-25.0-0.12","c485716c-e631-43bd-8393-1f3ce811240f","1000","
                  <p style=""text-align: center;"">₪36
                                                <br>30%</p>
                  <p id=""wtp"" style=""text-align:center; margin-top: 0px; margin-bottom: 0px; font-size: 40px"";>&ensp;</p>","-","viewing","0","11","3C,20A,22A","","","","","","","","","","","","","","","","","","","",""
"","","","","","html-slider-response","247","1589950","0.0-25.0-1.12","c485716c-e631-43bd-8393-1f3ce811240f","1903","
                  <p style=""text-align: center;"">₪36
                                                <br>30%</p>
                  <p id=""wtp"" style=""text-align:center; margin-top: 0px; margin-bottom: 0px; font-size: 40px"";>מוכנים לשלם: <span id=""c_p_y""></span></p>","11","evaluation","72","11","3C,20A,22A","30","36","12","","","","","","","","","","","","","","","","",""
"","","","","","html-keyboard-response","248","1590602","0.0-25.0-2.12","c485716c-e631-43bd-8393-1f3ce811240f","null","<p style=""text-align: center;"">+</p>","null","fixation","","","","","","","","","","","","","","","","","","","","","","",""
"","","","","","html-slider-response","249","1591612","0.0-25.0-0.13","c485716c-e631-43bd-8393-1f3ce811240f","1000","
