"success","timeout","failed_images","failed_audio","failed_video","trial_type","trial_index","time_elapsed","internal_node_id","subject_id","rt","stimulus","response","part","slider_start","ID","set_ID","prob","amount","last_location","actual_choice","actual_EV","binary_id","trinary_id","catch","direction","A_key","S_key","D_key","choice_prob","choice_amount","chosen_part","won_prize","potential_prize_amount","potential_prize_prob","total_prize","accuracy"
"true","false","[]","[]","[]","preload","0","86","0.0-0.0","e01d7969-97a7-4f3b-9d74-dc0748981af3","","","","","","","","","","","","","","","","","","","","","","","","","","",""
"","","","","","html-keyboard-response","1","1068282","0.0-1.0","e01d7969-97a7-4f3b-9d74-dc0748981af3","null","
          <h1>שלום וברוכים הבאים!</h1>
          <p>לפניכם ניסוי בקבלת החלטות עם שני חלקים.
          <br><br>לחצו על העכבר כדי להמשיך.</p>","0","example","","","","","","","","","","","","","","","","","","","","","","",""
"","","","","","html-keyboard-response","2","1071065","0.0-2.0","e01d7969-97a7-4f3b-9d74-dc0748981af3","null","
        <h1>חלק 1</h1>
        <p>בקרוב יוצגו בפניכם הגרלות.
        <br>עליכם לבחור את המחיר המירבי שתהיו מוכנים לשלם כדי להשתתף בהגרלה שתוצג.
        <br>יש לכם תקציב של ₪80 לכל הגרלה. 
        <br>נסו להעריך כל הגרלה בנפרד ולחשוב כמה היא שווה עבורכם, ₪80 זמינים לכל הגרלה בנפרד.
        <br><br>לחצו על העכבר כדי להמשיך.</p>","1","instructions","","","","","","","","","","","","","","","","","","","","","","",""
"","","","","","html-keyboard-response","3","1072385","0.0-3.0","e01d7969-97a7-4f3b-9d74-dc0748981af3","null","
        <p>בסוף הניסוי, המחשב יבחר את אחת ההגרלות ויקבע מחיר לכרטיס עבורה. 
        <br>במידה והמחיר שבחרתם נמוך מהמחיר שנבחר על ידי המחשב, לא תשתתפו בהגרלה ותשארו עם מלוא התקציב.
        <br>במידה והמחיר שבחרתם גבוה מהמחיר שנבחר על ידי המחשב, תשלמו את המחיר שנקבע ותשתתפו בהגרלה.
        <br><br>לחצו על העכבר כדי להמשיך.</p>","1","instructions","","","","","","","","","","","","","","","","","","","","","","",""
"","","","","","html-slider-response","4","1098265","0.0-4.0","e01d7969-97a7-4f3b-9d74-dc0748981af3","25769","
        <p style=""font-size: 42px;"">נתחיל עם דוגמא: 
        <br>ההגרלה מטה מציעה 65% סיכוי לזכות ב-₪40 
        <br>&emsp;&emsp;&emsp;&emsp;&emsp;&emsp;&emsp;&emsp;&ensp;35% סיכוי לזכות ב-₪0.
        <br><br>מה המחיר המירבי שתהיו מוכנים לשלם על כרטיס להגרלה זו בין 0 ל-₪80?
        <br>הזיזו את העכבר על פני המלבן ולחצו כדי לבצע בחירה.</p>
        
        <p style=""text-align: center;"">₪40<br>65%</p>

        <p id=""wtp"" style=""text-align:center; margin-top: 0px; margin-bottom: 0px; font-size: 40px"";>מוכנים לשלם: <span id=""c_p_y""></span></p>","40","example","10","","","","","","","","","","","","","","","","","","","","","",""
"","","","","","html-keyboard-response","5","1111033","0.0-5.0","e01d7969-97a7-4f3b-9d74-dc0748981af3","null","<p>יפה מאוד!
                <br> בחרתם שתהיו מוכנים לשלם ₪40 כדי להשתתף בהגרלה:
                <br><p style=""text-align: center;"">₪40<br>65%</p>
                <p>נשמע נכון?
                <br>נניח שהגרלה זו נבחרה בסוף הניסוי.
                <br>כעת המחשב יקבע מחיר עבורה באקראי.
                <br>לחצו על העכבר להמשך.</p>","1","example","","","","","","","","","","","","","","","","","","","","","","",""
"","","","","","html-keyboard-response","6","1122641","0.0-6.0","e01d7969-97a7-4f3b-9d74-dc0748981af3","null","<p>המחשב קבע מחיר: ₪46
                <br>ואתם בחרתם לשלם לכל היותר: ₪40
                <br><br>מכיוון שהמחיר שבחרתם נמוך מהמחיר שנקבע, לא תתשתתפו בהגרלה.
                <br>במקרה כזה, בסוף הניסוי תקבלו את כל התקציב ההתחלתי של ₪80.
                <br><br>לחצו על העכבר להמשך.</p>","1","example","","","","","","","","","","","","","","","","","","","","","","",""
"","","","","","html-slider-response","7","1127441","0.0-7.0","e01d7969-97a7-4f3b-9d74-dc0748981af3","4542","<p style=""font-size: 42px;"">הנה עוד דוגמא:
                <br>ההגרלה מטה מציעה 35% סיכוי לזכות ב-₪18 
                <br>&emsp;&emsp;&emsp;&emsp;&emsp;&emsp;&emsp;&emsp;&ensp;65% סיכוי לזכות ב-₪0.</p>
        
                <p style=""text-align: center;"">₪18<br>35%</p>
                <p id=""wtp"" style=""text-align:center; margin-top: 0px; margin-bottom: 0px; font-size: 40px"";>מוכנים לשלם: <span id=""c_p_y""></span></p>","2","example","0","","","","","","","","","","","","","","","","","","","","","",""
"","","","","","html-keyboard-response","8","1134865","0.0-8.0","e01d7969-97a7-4f3b-9d74-dc0748981af3","null","<p>הייתם מוכנים לשלם  ₪2 כדי להשתתף בהגרלה:
                <p style=""text-align: center;"">₪18<br>35%</p>
                <p>כעת נניח שהמחשב בחר את ההגרלה הזו בסוף הניסוי, וקבע עבורה מחיר.
                <br><br>לחצו על העכבר כדי להמשיך.</p>","1","instructions","","","","","","","","","","","","","","","","","","","","","","",""
"","","","","","html-keyboard-response","9","1153505","0.0-9.0","e01d7969-97a7-4f3b-9d74-dc0748981af3","null","<p>המחשב קבע מחיר להגרלה: ₪2
                <br>ואתם בחרתם לשלם לכל היותר: ₪2
                <br><br>כעת המחיר שנקבע זהה לזה שבחרתם, אז תשלמו את המחיר שקבע המחשב (₪2) ותשתתפו בהגרלה.
                <br>במקרה כזה, תסיימו את הניסוי עם תקציב של ₪78 ועם סיכוי לזכות ב-₪18 נוספים מההגרלה.
                <br>כלומר, תוכלו לקבל ₪78 אם לא תזכו בהגרלה, או ₪96 אם תזכו בהגרלה.
                <br><br>לחצו על העכבר להמשך.</p>","1","example","","","","","","","","","","","","","","","","","","","","","","",""
"","","","","","html-keyboard-response","10","1156440","0.0-10.0","e01d7969-97a7-4f3b-9d74-dc0748981af3","null","<p>במהלך הניסוי, קודם תראו את ההגרלה ורק לאחר מכן תוכלו לבחור.
                <p>כמו כן, יהיו לכם מספר שניות מוגבל להגיב.
                <p>בואו ננסה זאת עם ההגרלה הקודמת.
                <br>לחצו על העכבר כדי להמשיך.</p>","1","instructions","","","","","","","","","","","","","","","","","","","","","","",""
"","","","","","html-slider-response","11","1157716","0.0-11.0","e01d7969-97a7-4f3b-9d74-dc0748981af3","1000","
                    <p style=""text-align: center;"">₪18<br>35%</p>
                    <p id=""wtp"" style=""text-align:center; margin-top: 0px; margin-bottom: 0px; font-size: 40px"";>&ensp;</p>","73","instructions","0","","","","","","","","","","","","","","","","","","","","","",""
"","","","","","html-slider-response","12","1161979","0.0-12.0","e01d7969-97a7-4f3b-9d74-dc0748981af3","null","
                    <p style=""text-align: center;"">₪18<br>35%</p>
                    <p id=""wtp"" style=""text-align:center; margin-top: 0px; margin-bottom: 0px; font-size: 40px"";>מוכנים לשלם: <span id=""c_p_y""></span></p>","null","instructions","17","","","","","","","","","","","","","","","","","","","","","",""
"","","","","","html-keyboard-response","13","1169960","0.0-13.0","e01d7969-97a7-4f3b-9d74-dc0748981af3","null","<p>לא הגבתם בזמן המוקצב לתגובה. 
                <br>נסו להגיב מהר יותר בפעם הבאה.
                <br><br>לחצו על העכבר כדי להמשיך.</p>","1","instructions","","","","","","","","","","","","","","","","","","","","","","",""
"","","","","","html-slider-response","14","1171881","0.0-14.0-0.0","e01d7969-97a7-4f3b-9d74-dc0748981af3","1662","
                    <p style=""text-align: center;"">₪40<br>65%</p>
                    <p id=""wtp"" style=""text-align:center; margin-top: 0px; margin-bottom: 0px; font-size: 40px"";>מוכנים לשלם: <span id=""c_p_y""></span></p>","38","instructions","59","","","","","","","","","","","","","","","","","","","","","",""
"","","","","","html-keyboard-response","15","1174904","0.0-14.0-1.0","e01d7969-97a7-4f3b-9d74-dc0748981af3","null","<p>יפה. הפעם בחרתם לשלם לכל היותר ₪38.
                <br><br>לחצו על העכבר כדי להמשיך.</p>","1","instructions","","","","","","","","","","","","","","","","","","","","","","",""
"","","","","","html-keyboard-response","16","1179216","0.0-15.0","e01d7969-97a7-4f3b-9d74-dc0748981af3","null","<p>כעת נתחיל את הניסוי.
                <br><br>אתם תראו הגרלות ותתבקשו לבחור כמה תהיו מוכנים לשלם כדי להשתתף בהן.
                <br>יש לכם תקציב של ₪80 עבור כל הגרלה.
                <br>בסוף הניסוי הגרלה אחת תבחר באקראי ותשוחק.
                <br><br>לחצו על העכבר כדי להתחיל את הניסוי.</p>","1","instructions","","","","","","","","","","","","","","","","","","","","","","",""
"","","","","","html-keyboard-response","17","1180473","0.0-16.0","e01d7969-97a7-4f3b-9d74-dc0748981af3","null","<p style=""text-align: center;"">+</p>","null","fixation","","","","","","","","","","","","","","","","","","","","","","",""
"","","","","","html-slider-response","18","1181489","0.0-17.0-0.0","e01d7969-97a7-4f3b-9d74-dc0748981af3","1000","
                  <p style=""text-align: center;"">₪39
                                                <br>65%</p>
                  <p id=""wtp"" style=""text-align:center; margin-top: 0px; margin-bottom: 0px; font-size: 40px"";>&ensp;</p>","-","viewing","0","16","1A,15A,26C","","","","","","","","","","","","","","","","","","","",""
"","","","","","html-slider-response","19","1183696","0.0-17.0-1.0","e01d7969-97a7-4f3b-9d74-dc0748981af3","2206","
                  <p style=""text-align: center;"">₪39
                                                <br>65%</p>
                  <p id=""wtp"" style=""text-align:center; margin-top: 0px; margin-bottom: 0px; font-size: 40px"";>מוכנים לשלם: <span id=""c_p_y""></span></p>","41","evaluation","9","16","1A,15A,26C","65","39","41","","","","","","","","","","","","","","","","",""
"","","","","","html-keyboard-response","20","1184943","0.0-17.0-2.0","e01d7969-97a7-4f3b-9d74-dc0748981af3","null","<p style=""text-align: center;"">+</p>","null","fixation","","","","","","","","","","","","","","","","","","","","","","",""
"","","","","","html-slider-response","21","1185960","0.0-17.0-0.1","e01d7969-97a7-4f3b-9d74-dc0748981af3","1000","
                  <p style=""text-align: center;"">₪4
                                                <br>50%</p>
                  <p id=""wtp"" style=""text-align:center; margin-top: 0px; margin-bottom: 0px; font-size: 40px"";>&ensp;</p>","-","viewing","0","2","4C,17B","","","","","","","","","","","","","","","","","","","",""
"","","","","","html-slider-response","22","1189328","0.0-17.0-1.1","e01d7969-97a7-4f3b-9d74-dc0748981af3","3367","
                  <p style=""text-align: center;"">₪4
                                                <br>50%</p>
                  <p id=""wtp"" style=""text-align:center; margin-top: 0px; margin-bottom: 0px; font-size: 40px"";>מוכנים לשלם: <span id=""c_p_y""></span></p>","13","evaluation","48","2","4C,17B","50","4","13","","","","","","","","","","","","","","","","",""
"","","","","","html-keyboard-response","23","1190801","0.0-17.0-2.1","e01d7969-97a7-4f3b-9d74-dc0748981af3","null","<p style=""text-align: center;"">+</p>","null","fixation","","","","","","","","","","","","","","","","","","","","","","",""
"","","","","","html-slider-response","24","1191816","0.0-17.0-0.2","e01d7969-97a7-4f3b-9d74-dc0748981af3","1000","
                  <p style=""text-align: center;"">₪18
                                                <br>25%</p>
                  <p id=""wtp"" style=""text-align:center; margin-top: 0px; margin-bottom: 0px; font-size: 40px"";>&ensp;</p>","-","viewing","0","9","14A,23A","","","","","","","","","","","","","","","","","","","",""
"","","","","","html-slider-response","25","1194528","0.0-17.0-1.2","e01d7969-97a7-4f3b-9d74-dc0748981af3","2711","
                  <p style=""text-align: center;"">₪18
                                                <br>25%</p>
                  <p id=""wtp"" style=""text-align:center; margin-top: 0px; margin-bottom: 0px; font-size: 40px"";>מוכנים לשלם: <span id=""c_p_y""></span></p>","1","evaluation","56","9","14A,23A","25","18","1","","","","","","","","","","","","","","","","",""
"","","","","","html-keyboard-response","26","1195193","0.0-17.0-2.2","e01d7969-97a7-4f3b-9d74-dc0748981af3","null","<p style=""text-align: center;"">+</p>","null","fixation","","","","","","","","","","","","","","","","","","","","","","",""
"","","","","","html-slider-response","27","1196205","0.0-17.0-0.3","e01d7969-97a7-4f3b-9d74-dc0748981af3","1000","
                  <p style=""text-align: center;"">₪4
                                                <br>25%</p>
                  <p id=""wtp"" style=""text-align:center; margin-top: 0px; margin-bottom: 0px; font-size: 40px"";>&ensp;</p>","-","viewing","0","1","6C,29B,30C","","","","","","","","","","","","","","","","","","","",""
"","","","","","html-slider-response","28","1197896","0.0-17.0-1.3","e01d7969-97a7-4f3b-9d74-dc0748981af3","1691","
                  <p style=""text-align: center;"">₪4
                                                <br>25%</p>
                  <p id=""wtp"" style=""text-align:center; margin-top: 0px; margin-bottom: 0px; font-size: 40px"";>מוכנים לשלם: <span id=""c_p_y""></span></p>","20","evaluation","78","1","6C,29B,30C","25","4","20","","","","","","","","","","","","","","","","",""
"","","","","","html-keyboard-response","29","1198782","0.0-17.0-2.3","e01d7969-97a7-4f3b-9d74-dc0748981af3","null","<p style=""text-align: center;"">+</p>","null","fixation","","","","","","","","","","","","","","","","","","","","","","",""
"","","","","","html-slider-response","30","1199790","0.0-17.0-0.4","e01d7969-97a7-4f3b-9d74-dc0748981af3","1000","
                  <p style=""text-align: center;"">₪71
                                                <br>75%</p>
                  <p id=""wtp"" style=""text-align:center; margin-top: 0px; margin-bottom: 0px; font-size: 40px"";>&ensp;</p>","-","viewing","0","28","8B","","","","","","","","","","","","","","","","","","","",""
"","","","","","html-slider-response","31","1201704","0.0-17.0-1.4","e01d7969-97a7-4f3b-9d74-dc0748981af3","1914","
                  <p style=""text-align: center;"">₪71
                                                <br>75%</p>
                  <p id=""wtp"" style=""text-align:center; margin-top: 0px; margin-bottom: 0px; font-size: 40px"";>מוכנים לשלם: <span id=""c_p_y""></span></p>","60","evaluation","8","28","8B","75","71","60","","","","","","","","","","","","","","","","",""
"","","","","","html-keyboard-response","32","1202742","0.0-17.0-2.4","e01d7969-97a7-4f3b-9d74-dc0748981af3","null","<p style=""text-align: center;"">+</p>","null","fixation","","","","","","","","","","","","","","","","","","","","","","",""
"","","","","","html-slider-response","33","1203746","0.0-17.0-0.5","e01d7969-97a7-4f3b-9d74-dc0748981af3","1000","
                  <p style=""text-align: center;"">₪36
                                                <br>70%</p>
                  <p id=""wtp"" style=""text-align:center; margin-top: 0px; margin-bottom: 0px; font-size: 40px"";>&ensp;</p>","-","viewing","0","13","3A,5C,10B","","","","","","","","","","","","","","","","","","","",""
"","","","","","html-slider-response","34","1205064","0.0-17.0-1.5","e01d7969-97a7-4f3b-9d74-dc0748981af3","1318","
                  <p style=""text-align: center;"">₪36
                                                <br>70%</p>
                  <p id=""wtp"" style=""text-align:center; margin-top: 0px; margin-bottom: 0px; font-size: 40px"";>מוכנים לשלם: <span id=""c_p_y""></span></p>","52","evaluation","27","13","3A,5C,10B","70","36","52","","","","","","","","","","","","","","","","",""
"","","","","","html-keyboard-response","35","1205799","0.0-17.0-2.5","e01d7969-97a7-4f3b-9d74-dc0748981af3","null","<p style=""text-align: center;"">+</p>","null","fixation","","","","","","","","","","","","","","","","","","","","","","",""
"","","","","","html-slider-response","36","1206815","0.0-17.0-0.6","e01d7969-97a7-4f3b-9d74-dc0748981af3","1000","
                  <p style=""text-align: center;"">₪71
                                                <br>55%</p>
                  <p id=""wtp"" style=""text-align:center; margin-top: 0px; margin-bottom: 0px; font-size: 40px"";>&ensp;</p>","-","viewing","0","27","5B,18A","","","","","","","","","","","","","","","","","","","",""
"","","","","","html-slider-response","37","1208152","0.0-17.0-1.6","e01d7969-97a7-4f3b-9d74-dc0748981af3","1336","
                  <p style=""text-align: center;"">₪71
                                                <br>55%</p>
                  <p id=""wtp"" style=""text-align:center; margin-top: 0px; margin-bottom: 0px; font-size: 40px"";>מוכנים לשלם: <span id=""c_p_y""></span></p>","29","evaluation","75","27","5B,18A","55","71","29","","","","","","","","","","","","","","","","",""
"","","","","","html-keyboard-response","38","1209307","0.0-17.0-2.6","e01d7969-97a7-4f3b-9d74-dc0748981af3","null","<p style=""text-align: center;"">+</p>","null","fixation","","","","","","","","","","","","","","","","","","","","","","",""
"","","","","","html-slider-response","39","1210309","0.0-17.0-0.7","e01d7969-97a7-4f3b-9d74-dc0748981af3","1000","
                  <p style=""text-align: center;"">₪36
                                                <br>30%</p>
                  <p id=""wtp"" style=""text-align:center; margin-top: 0px; margin-bottom: 0px; font-size: 40px"";>&ensp;</p>","-","viewing","0","11","3C,20A,22A","","","","","","","","","","","","","","","","","","","",""
"","","","","","html-slider-response","40","1211424","0.0-17.0-1.7","e01d7969-97a7-4f3b-9d74-dc0748981af3","1114","
                  <p style=""text-align: center;"">₪36
                                                <br>30%</p>
                  <p id=""wtp"" style=""text-align:center; margin-top: 0px; margin-bottom: 0px; font-size: 40px"";>מוכנים לשלם: <span id=""c_p_y""></span></p>","9","evaluation","69","11","3C,20A,22A","30","36","9","","","","","","","","","","","","","","","","",""
"","","","","","html-keyboard-response","41","1212202","0.0-17.0-2.7","e01d7969-97a7-4f3b-9d74-dc0748981af3","null","<p style=""text-align: center;"">+</p>","null","fixation","","","","","","","","","","","","","","","","","","","","","","",""
"","","","","","html-slider-response","42","1213205","0.0-17.0-0.8","e01d7969-97a7-4f3b-9d74-dc0748981af3","1000","
                  <p style=""text-align: center;"">₪36
                                                <br>60%</p>
                  <p id=""wtp"" style=""text-align:center; margin-top: 0px; margin-bottom: 0px; font-size: 40px"";>&ensp;</p>","-","viewing","0","12","1C,7C,15C","","","","","","","","","","","","","","","","","","","",""
"","","","","","html-slider-response","43","1214616","0.0-17.0-1.8","e01d7969-97a7-4f3b-9d74-dc0748981af3","1410","
                  <p style=""text-align: center;"">₪36
                                                <br>60%</p>
                  <p id=""wtp"" style=""text-align:center; margin-top: 0px; margin-bottom: 0px; font-size: 40px"";>מוכנים לשלם: <span id=""c_p_y""></span></p>","21","evaluation","64","12","1C,7C,15C","60","36","21","","","","","","","","","","","","","","","","",""
"","","","","","html-keyboard-response","44","1215358","0.0-17.0-2.8","e01d7969-97a7-4f3b-9d74-dc0748981af3","null","<p style=""text-align: center;"">+</p>","null","fixation","","","","","","","","","","","","","","","","","","","","","","",""
"","","","","","html-slider-response","45","1216374","0.0-17.0-0.9","e01d7969-97a7-4f3b-9d74-dc0748981af3","1000","
                  <p style=""text-align: center;"">₪58
                                                <br>30%</p>
                  <p id=""wtp"" style=""text-align:center; margin-top: 0px; margin-bottom: 0px; font-size: 40px"";>&ensp;</p>","-","viewing","0","19","13C,30A","","","","","","","","","","","","","","","","","","","",""
"","","","","","html-slider-response","46","1218000","0.0-17.0-1.9","e01d7969-97a7-4f3b-9d74-dc0748981af3","1625","
                  <p style=""text-align: center;"">₪58
                                                <br>30%</p>
                  <p id=""wtp"" style=""text-align:center; margin-top: 0px; margin-bottom: 0px; font-size: 40px"";>מוכנים לשלם: <span id=""c_p_y""></span></p>","13","evaluation","62","19","13C,30A","30","58","13","","","","","","","","","","","","","","","","",""
"","","","","","html-keyboard-response","47","1219088","0.0-17.0-2.9","e01d7969-97a7-4f3b-9d74-dc0748981af3","null","<p style=""text-align: center;"">+</p>","null","fixation","","","","","","","","","","","","","","","","","","","","","","",""
"","","","","","html-slider-response","48","1220095","0.0-17.0-0.10","e01d7969-97a7-4f3b-9d74-dc0748981af3","1000","
                  <p style=""text-align: center;"">₪11
                                                <br>75%</p>
                  <p id=""wtp"" style=""text-align:center; margin-top: 0px; margin-bottom: 0px; font-size: 40px"";>&ensp;</p>","-","viewing","0","7","6B,18B,22C,24C,29A","","","","","","","","","","","","","","","","","","","",""
"","","","","","html-slider-response","49","1221576","0.0-17.0-1.10","e01d7969-97a7-4f3b-9d74-dc0748981af3","1481","
                  <p style=""text-align: center;"">₪11
                                                <br>75%</p>
                  <p id=""wtp"" style=""text-align:center; margin-top: 0px; margin-bottom: 0px; font-size: 40px"";>מוכנים לשלם: <span id=""c_p_y""></span></p>","62","evaluation","24","7","6B,18B,22C,24C,29A","75","11","62","","","","","","","","","","","","","","","","",""
"","","","","","html-keyboard-response","50","1223051","0.0-17.0-2.10","e01d7969-97a7-4f3b-9d74-dc0748981af3","null","<p style=""text-align: center;"">+</p>","null","fixation","","","","","","","","","","","","","","","","","","","","","","",""
"","","","","","html-slider-response","51","1224065","0.0-17.0-0.11","e01d7969-97a7-4f3b-9d74-dc0748981af3","1000","
                  <p style=""text-align: center;"">₪79
                                                <br>65%</p>
                  <p id=""wtp"" style=""text-align:center; margin-top: 0px; margin-bottom: 0px; font-size: 40px"";>&ensp;</p>","-","viewing","0","31","8A","","","","","","","","","","","","","","","","","","","",""
"","","","","","html-slider-response","52","1225168","0.0-17.0-1.11","e01d7969-97a7-4f3b-9d74-dc0748981af3","1102","
                  <p style=""text-align: center;"">₪79
                                                <br>65%</p>
                  <p id=""wtp"" style=""text-align:center; margin-top: 0px; margin-bottom: 0px; font-size: 40px"";>מוכנים לשלם: <span id=""c_p_y""></span></p>","49","evaluation","27","31","8A","65","79","49","","","","","","","","","","","","","","","","",""
"","","","","","html-keyboard-response","53","1226216","0.0-17.0-2.11","e01d7969-97a7-4f3b-9d74-dc0748981af3","null","<p style=""text-align: center;"">+</p>","null","fixation","","","","","","","","","","","","","","","","","","","","","","",""
"","","","","","html-slider-response","54","1227219","0.0-17.0-0.12","e01d7969-97a7-4f3b-9d74-dc0748981af3","1000","
                  <p style=""text-align: center;"">₪71
                                                <br>45%</p>
                  <p id=""wtp"" style=""text-align:center; margin-top: 0px; margin-bottom: 0px; font-size: 40px"";>&ensp;</p>","-","viewing","0","26","2B,16A","","","","","","","","","","","","","","","","","","","",""
"","","","","","html-slider-response","55","1228784","0.0-17.0-1.12","e01d7969-97a7-4f3b-9d74-dc0748981af3","1564","
                  <p style=""text-align: center;"">₪71
                                                <br>45%</p>
                  <p id=""wtp"" style=""text-align:center; margin-top: 0px; margin-bottom: 0px; font-size: 40px"";>מוכנים לשלם: <span id=""c_p_y""></span></p>","39","evaluation","60","26","2B,16A","45","71","39","","","","","","","","","","","","","","","","",""
"","","","","","html-keyboard-response","56","1229601","0.0-17.0-2.12","e01d7969-97a7-4f3b-9d74-dc0748981af3","null","<p style=""text-align: center;"">+</p>","null","fixation","","","","","","","","","","","","","","","","","","","","","","",""
"","","","","","html-slider-response","57","1230607","0.0-17.0-0.13","e01d7969-97a7-4f3b-9d74-dc0748981af3","1000","
                  <p style=""text-align: center;"">₪43
                                                <br>60%</p>
                  <p id=""wtp"" style=""text-align:center; margin-top: 0px; margin-bottom: 0px; font-size: 40px"";>&ensp;</p>","-","viewing","0","17","2A,7A,9A,15B","","","","","","","","","","","","","","","","","","","",""
"","","","","","html-slider-response","58","1232096","0.0-17.0-1.13","e01d7969-97a7-4f3b-9d74-dc0748981af3","1488","
                  <p style=""text-align: center;"">₪43
                                                <br>60%</p>
                  <p id=""wtp"" style=""text-align:center; margin-top: 0px; margin-bottom: 0px; font-size: 40px"";>מוכנים לשלם: <span id=""c_p_y""></span></p>","38","evaluation","48","17","2A,7A,9A,15B","60","43","38","","","","","","","","","","","","","","","","",""
"","","","","","html-keyboard-response","59","1233154","0.0-17.0-2.13","e01d7969-97a7-4f3b-9d74-dc0748981af3","null","<p style=""text-align: center;"">+</p>","null","fixation","","","","","","","","","","","","","","","","","","","","","","",""
"","","","","","html-slider-response","60","1234161","0.0-17.0-0.14","e01d7969-97a7-4f3b-9d74-dc0748981af3","1000","
                  <p style=""text-align: center;"">₪36
                                                <br>75%</p>
                  <p id=""wtp"" style=""text-align:center; margin-top: 0px; margin-bottom: 0px; font-size: 40px"";>&ensp;</p>","-","viewing","0","14","4B,5A,13B,16B","","","","","","","","","","","","","","","","","","","",""
"","","","","","html-slider-response","61","1235672","0.0-17.0-1.14","e01d7969-97a7-4f3b-9d74-dc0748981af3","1511","
                  <p style=""text-align: center;"">₪36
                                                <br>75%</p>
                  <p id=""wtp"" style=""text-align:center; margin-top: 0px; margin-bottom: 0px; font-size: 40px"";>מוכנים לשלם: <span id=""c_p_y""></span></p>","65","evaluation","7","14","4B,5A,13B,16B","75","36","65","","","","","","","","","","","","","","","","",""
"","","","","","html-keyboard-response","62","1236927","0.0-17.0-2.14","e01d7969-97a7-4f3b-9d74-dc0748981af3","null","<p style=""text-align: center;"">+</p>","null","fixation","","","","","","","","","","","","","","","","","","","","","","",""
"","","","","","html-slider-response","63","1237943","0.0-17.0-0.15","e01d7969-97a7-4f3b-9d74-dc0748981af3","1000","
                  <p style=""text-align: center;"">₪4
                                                <br>75%</p>
                  <p id=""wtp"" style=""text-align:center; margin-top: 0px; margin-bottom: 0px; font-size: 40px"";>&ensp;</p>","-","viewing","0","3","12B,20B,23B,27C,29C","","","","","","","","","","","","","","","","","","","",""
"","","","","","html-slider-response","64","1239472","0.0-17.0-1.15","e01d7969-97a7-4f3b-9d74-dc0748981af3","1528","
                  <p style=""text-align: center;"">₪4
                                                <br>75%</p>
                  <p id=""wtp"" style=""text-align:center; margin-top: 0px; margin-bottom: 0px; font-size: 40px"";>מוכנים לשלם: <span id=""c_p_y""></span></p>","60","evaluation","38","3","12B,20B,23B,27C,29C","75","4","60","","","","","","","","","","","","","","","","",""
"","","","","","html-keyboard-response","65","1240685","0.0-17.0-2.15","e01d7969-97a7-4f3b-9d74-dc0748981af3","null","<p style=""text-align: center;"">+</p>","null","fixation","","","","","","","","","","","","","","","","","","","","","","",""
"","","","","","html-slider-response","66","1241696","0.0-17.0-0.16","e01d7969-97a7-4f3b-9d74-dc0748981af3","1000","
                  <p style=""text-align: center;"">₪61
                                                <br>45%</p>
                  <p id=""wtp"" style=""text-align:center; margin-top: 0px; margin-bottom: 0px; font-size: 40px"";>&ensp;</p>","-","viewing","0","22","10A,11A","","","","","","","","","","","","","","","","","","","",""
"","","","","","html-slider-response","67","1242744","0.0-17.0-1.16","e01d7969-97a7-4f3b-9d74-dc0748981af3","1046","
                  <p style=""text-align: center;"">₪61
                                                <br>45%</p>
                  <p id=""wtp"" style=""text-align:center; margin-top: 0px; margin-bottom: 0px; font-size: 40px"";>מוכנים לשלם: <span id=""c_p_y""></span></p>","21","evaluation","56","22","10A,11A","45","61","21","","","","","","","","","","","","","","","","",""
"","","","","","html-keyboard-response","68","1243495","0.0-17.0-2.16","e01d7969-97a7-4f3b-9d74-dc0748981af3","null","<p style=""text-align: center;"">+</p>","null","fixation","","","","","","","","","","","","","","","","","","","","","","",""
"","","","","","html-slider-response","69","1244502","0.0-17.0-0.17","e01d7969-97a7-4f3b-9d74-dc0748981af3","1000","
                  <p style=""text-align: center;"">₪64
                                                <br>50%</p>
                  <p id=""wtp"" style=""text-align:center; margin-top: 0px; margin-bottom: 0px; font-size: 40px"";>&ensp;</p>","-","viewing","0","25","1B,3B,4A","","","","","","","","","","","","","","","","","","","",""
"","","","","","html-slider-response","70","1248112","0.0-17.0-1.17","e01d7969-97a7-4f3b-9d74-dc0748981af3","3609","
                  <p style=""text-align: center;"">₪64
                                                <br>50%</p>
                  <p id=""wtp"" style=""text-align:center; margin-top: 0px; margin-bottom: 0px; font-size: 40px"";>מוכנים לשלם: <span id=""c_p_y""></span></p>","30","evaluation","79","25","1B,3B,4A","50","64","30","","","","","","","","","","","","","","","","",""
"","","","","","html-keyboard-response","71","1248765","0.0-17.0-2.17","e01d7969-97a7-4f3b-9d74-dc0748981af3","null","<p style=""text-align: center;"">+</p>","null","fixation","","","","","","","","","","","","","","","","","","","","","","",""
"","","","","","html-slider-response","72","1249773","0.0-17.0-0.18","e01d7969-97a7-4f3b-9d74-dc0748981af3","1000","
                  <p style=""text-align: center;"">₪39
                                                <br>60%</p>
                  <p id=""wtp"" style=""text-align:center; margin-top: 0px; margin-bottom: 0px; font-size: 40px"";>&ensp;</p>","-","viewing","0","15","9C,25B","","","","","","","","","","","","","","","","","","","",""
"","","","","","html-slider-response","73","1250881","0.0-17.0-1.18","e01d7969-97a7-4f3b-9d74-dc0748981af3","1106","
                  <p style=""text-align: center;"">₪39
                                                <br>60%</p>
                  <p id=""wtp"" style=""text-align:center; margin-top: 0px; margin-bottom: 0px; font-size: 40px"";>מוכנים לשלם: <span id=""c_p_y""></span></p>","41","evaluation","22","15","9C,25B","60","39","41","","","","","","","","","","","","","","","","",""
"","","","","","html-keyboard-response","74","1252049","0.0-17.0-2.18","e01d7969-97a7-4f3b-9d74-dc0748981af3","null","<p style=""text-align: center;"">+</p>","null","fixation","","","","","","","","","","","","","","","","","","","","","","",""
"","","","","","html-slider-response","75","1253061","0.0-17.0-0.19","e01d7969-97a7-4f3b-9d74-dc0748981af3","1000","
                  <p style=""text-align: center;"">₪64
                                                <br>25%</p>
                  <p id=""wtp"" style=""text-align:center; margin-top: 0px; margin-bottom: 0px; font-size: 40px"";>&ensp;</p>","-","viewing","0","24","6A,21A","","","","","","","","","","","","","","","","","","","",""
"","","","","","html-slider-response","76","1254024","0.0-17.0-1.19","e01d7969-97a7-4f3b-9d74-dc0748981af3","962","
                  <p style=""text-align: center;"">₪64
                                                <br>25%</p>
                  <p id=""wtp"" style=""text-align:center; margin-top: 0px; margin-bottom: 0px; font-size: 40px"";>מוכנים לשלם: <span id=""c_p_y""></span></p>","3","evaluation","54","24","6A,21A","25","64","3","","","","","","","","","","","","","","","","",""
"","","","","","html-keyboard-response","77","1254860","0.0-17.0-2.19","e01d7969-97a7-4f3b-9d74-dc0748981af3","null","<p style=""text-align: center;"">+</p>","null","fixation","","","","","","","","","","","","","","","","","","","","","","",""
"","","","","","html-slider-response","78","1255862","0.0-17.0-0.20","e01d7969-97a7-4f3b-9d74-dc0748981af3","1000","
                  <p style=""text-align: center;"">₪58
                                                <br>45%</p>
                  <p id=""wtp"" style=""text-align:center; margin-top: 0px; margin-bottom: 0px; font-size: 40px"";>&ensp;</p>","-","viewing","0","21","11C,18C,25A","","","","","","","","","","","","","","","","","","","",""
"","","","","","html-slider-response","79","1256753","0.0-17.0-1.20","e01d7969-97a7-4f3b-9d74-dc0748981af3","889","
                  <p style=""text-align: center;"">₪58
                                                <br>45%</p>
                  <p id=""wtp"" style=""text-align:center; margin-top: 0px; margin-bottom: 0px; font-size: 40px"";>מוכנים לשלם: <span id=""c_p_y""></span></p>","3","evaluation","78","21","11C,18C,25A","45","58","3","","","","","","","","","","","","","","","","",""
"","","","","","html-keyboard-response","80","1257311","0.0-17.0-2.20","e01d7969-97a7-4f3b-9d74-dc0748981af3","null","<p style=""text-align: center;"">+</p>","null","fixation","","","","","","","","","","","","","","","","","","","","","","",""
"","","","","","html-slider-response","81","1258313","0.0-17.0-0.21","e01d7969-97a7-4f3b-9d74-dc0748981af3","1000","
                  <p style=""text-align: center;"">₪79
                                                <br>40%</p>
                  <p id=""wtp"" style=""text-align:center; margin-top: 0px; margin-bottom: 0px; font-size: 40px"";>&ensp;</p>","-","viewing","0","30","9B","","","","","","","","","","","","","","","","","","","",""
"","","","","","html-slider-response","82","1259880","0.0-17.0-1.21","e01d7969-97a7-4f3b-9d74-dc0748981af3","1566","
                  <p style=""text-align: center;"">₪79
                                                <br>40%</p>
                  <p id=""wtp"" style=""text-align:center; margin-top: 0px; margin-bottom: 0px; font-size: 40px"";>מוכנים לשלם: <span id=""c_p_y""></span></p>","2","evaluation","49","30","9B","40","79","3","","","","","","","","","","","","","","","","",""
"","","","","","html-keyboard-response","83","1260667","0.0-17.0-2.21","e01d7969-97a7-4f3b-9d74-dc0748981af3","null","<p style=""text-align: center;"">+</p>","null","fixation","","","","","","","","","","","","","","","","","","","","","","",""
"","","","","","html-slider-response","84","1261670","0.0-17.0-0.22","e01d7969-97a7-4f3b-9d74-dc0748981af3","1000","
                  <p style=""text-align: center;"">₪16
                                                <br>20%</p>
                  <p id=""wtp"" style=""text-align:center; margin-top: 0px; margin-bottom: 0px; font-size: 40px"";>&ensp;</p>","-","viewing","0","8","14C,17A,20C,27A","","","","","","","","","","","","","","","","","","","",""
"","","","","","html-slider-response","85","1263657","0.0-17.0-1.22","e01d7969-97a7-4f3b-9d74-dc0748981af3","1986","
                  <p style=""text-align: center;"">₪16
                                                <br>20%</p>
                  <p id=""wtp"" style=""text-align:center; margin-top: 0px; margin-bottom: 0px; font-size: 40px"";>מוכנים לשלם: <span id=""c_p_y""></span></p>","1","evaluation","28","8","14C,17A,20C,27A","20","16","1","","","","","","","","","","","","","","","","",""
"","","","","","html-keyboard-response","86","1264542","0.0-17.0-2.22","e01d7969-97a7-4f3b-9d74-dc0748981af3","null","<p style=""text-align: center;"">+</p>","null","fixation","","","","","","","","","","","","","","","","","","","","","","",""
"","","","","","html-slider-response","87","1265553","0.0-17.0-0.23","e01d7969-97a7-4f3b-9d74-dc0748981af3","1000","
                  <p style=""text-align: center;"">₪43
                                                <br>75%</p>
                  <p id=""wtp"" style=""text-align:center; margin-top: 0px; margin-bottom: 0px; font-size: 40px"";>&ensp;</p>","-","viewing","0","18","11B,19B,24A,26A","","","","","","","","","","","","","","","","","","","",""
"","","","","","html-slider-response","88","1267024","0.0-17.0-1.23","e01d7969-97a7-4f3b-9d74-dc0748981af3","1470","
                  <p style=""text-align: center;"">₪43
                                                <br>75%</p>
                  <p id=""wtp"" style=""text-align:center; margin-top: 0px; margin-bottom: 0px; font-size: 40px"";>מוכנים לשלם: <span id=""c_p_y""></span></p>","60","evaluation","75","18","11B,19B,24A,26A","75","43","60","","","","","","","","","","","","","","","","",""
"","","","","","html-keyboard-response","89","1268448","0.0-17.0-2.23","e01d7969-97a7-4f3b-9d74-dc0748981af3","null","<p style=""text-align: center;"">+</p>","null","fixation","","","","","","","","","","","","","","","","","","","","","","",""
"","","","","","html-slider-response","90","1269461","0.0-17.0-0.24","e01d7969-97a7-4f3b-9d74-dc0748981af3","1000","
                  <p style=""text-align: center;"">₪11
                                                <br>25%</p>
                  <p id=""wtp"" style=""text-align:center; margin-top: 0px; margin-bottom: 0px; font-size: 40px"";>&ensp;</p>","-","viewing","0","5","12A,27B,28B,30B","","","","","","","","","","","","","","","","","","","",""
"","","","","","html-slider-response","91","1270560","0.0-17.0-1.24","e01d7969-97a7-4f3b-9d74-dc0748981af3","1099","
                  <p style=""text-align: center;"">₪11
                                                <br>25%</p>
                  <p id=""wtp"" style=""text-align:center; margin-top: 0px; margin-bottom: 0px; font-size: 40px"";>מוכנים לשלם: <span id=""c_p_y""></span></p>","4","evaluation","4","5","12A,27B,28B,30B","25","11","4","","","","","","","","","","","","","","","","",""
"","","","","","html-keyboard-response","92","1271235","0.0-17.0-2.24","e01d7969-97a7-4f3b-9d74-dc0748981af3","null","<p style=""text-align: center;"">+</p>","null","fixation","","","","","","","","","","","","","","","","","","","","","","",""
"","","","","","html-slider-response","93","1272241","0.0-17.0-0.25","e01d7969-97a7-4f3b-9d74-dc0748981af3","1000","
                  <p style=""text-align: center;"">₪58
                                                <br>40%</p>
                  <p id=""wtp"" style=""text-align:center; margin-top: 0px; margin-bottom: 0px; font-size: 40px"";>&ensp;</p>","-","viewing","0","20","10C,13A,19C,21B","","","","","","","","","","","","","","","","","","","",""
"","","","","","html-slider-response","94","1273072","0.0-17.0-1.25","e01d7969-97a7-4f3b-9d74-dc0748981af3","831","
                  <p style=""text-align: center;"">₪58
                                                <br>40%</p>
                  <p id=""wtp"" style=""text-align:center; margin-top: 0px; margin-bottom: 0px; font-size: 40px"";>מוכנים לשלם: <span id=""c_p_y""></span></p>","17","evaluation","16","20","10C,13A,19C,21B","40","58","17","","","","","","","","","","","","","","","","",""
"","","","","","html-keyboard-response","95","1274363","0.0-17.0-2.25","e01d7969-97a7-4f3b-9d74-dc0748981af3","null","<p style=""text-align: center;"">+</p>","null","fixation","","","","","","","","","","","","","","","","","","","","","","",""
"","","","","","html-slider-response","96","1275366","0.0-17.0-0.26","e01d7969-97a7-4f3b-9d74-dc0748981af3","1000","
                  <p style=""text-align: center;"">₪18
                                                <br>50%</p>
                  <p id=""wtp"" style=""text-align:center; margin-top: 0px; margin-bottom: 0px; font-size: 40px"";>&ensp;</p>","-","viewing","0","10","2C,16C,22B,28A","","","","","","","","","","","","","","","","","","","",""
"","","","","","html-slider-response","97","1276440","0.0-17.0-1.26","e01d7969-97a7-4f3b-9d74-dc0748981af3","1073","
                  <p style=""text-align: center;"">₪18
                                                <br>50%</p>
                  <p id=""wtp"" style=""text-align:center; margin-top: 0px; margin-bottom: 0px; font-size: 40px"";>מוכנים לשלם: <span id=""c_p_y""></span></p>","30","evaluation","77","10","2C,16C,22B,28A","50","18","30","","","","","","","","","","","","","","","","",""
"","","","","","html-keyboard-response","98","1277311","0.0-17.0-2.26","e01d7969-97a7-4f3b-9d74-dc0748981af3","null","<p style=""text-align: center;"">+</p>","null","fixation","","","","","","","","","","","","","","","","","","","","","","",""
"","","","","","html-slider-response","99","1278320","0.0-17.0-0.27","e01d7969-97a7-4f3b-9d74-dc0748981af3","1000","
                  <p style=""text-align: center;"">₪11
                                                <br>45%</p>
                  <p id=""wtp"" style=""text-align:center; margin-top: 0px; margin-bottom: 0px; font-size: 40px"";>&ensp;</p>","-","viewing","0","6","14B,21C,25C","","","","","","","","","","","","","","","","","","","",""
"","","","","","html-slider-response","100","1279984","0.0-17.0-1.27","e01d7969-97a7-4f3b-9d74-dc0748981af3","1663","
                  <p style=""text-align: center;"">₪11
                                                <br>45%</p>
                  <p id=""wtp"" style=""text-align:center; margin-top: 0px; margin-bottom: 0px; font-size: 40px"";>מוכנים לשלם: <span id=""c_p_y""></span></p>","33","evaluation","38","6","14B,21C,25C","45","11","33","","","","","","","","","","","","","","","","",""
"","","","","","html-keyboard-response","101","1281047","0.0-17.0-2.27","e01d7969-97a7-4f3b-9d74-dc0748981af3","null","<p style=""text-align: center;"">+</p>","null","fixation","","","","","","","","","","","","","","","","","","","","","","",""
"","","","","","html-slider-response","102","1282051","0.0-17.0-0.28","e01d7969-97a7-4f3b-9d74-dc0748981af3","1000","
                  <p style=""text-align: center;"">₪61
                                                <br>55%</p>
                  <p id=""wtp"" style=""text-align:center; margin-top: 0px; margin-bottom: 0px; font-size: 40px"";>&ensp;</p>","-","viewing","0","23","7B,26B","","","","","","","","","","","","","","","","","","","",""
"","","","","","html-slider-response","103","1282872","0.0-17.0-1.28","e01d7969-97a7-4f3b-9d74-dc0748981af3","820","
                  <p style=""text-align: center;"">₪61
                                                <br>55%</p>
                  <p id=""wtp"" style=""text-align:center; margin-top: 0px; margin-bottom: 0px; font-size: 40px"";>מוכנים לשלם: <span id=""c_p_y""></span></p>","40","evaluation","19","23","7B,26B","55","61","40","","","","","","","","","","","","","","","","",""
"","","","","","html-keyboard-response","104","1283626","0.0-17.0-2.28","e01d7969-97a7-4f3b-9d74-dc0748981af3","null","<p style=""text-align: center;"">+</p>","null","fixation","","","","","","","","","","","","","","","","","","","","","","",""
"","","","","","html-slider-response","105","1284642","0.0-17.0-0.29","e01d7969-97a7-4f3b-9d74-dc0748981af3","1000","
                  <p style=""text-align: center;"">₪76
                                                <br>65%</p>
                  <p id=""wtp"" style=""text-align:center; margin-top: 0px; margin-bottom: 0px; font-size: 40px"";>&ensp;</p>","-","viewing","0","29","8C,19A,24B","","","","","","","","","","","","","","","","","","","",""
"","","","","","html-slider-response","106","1285464","0.0-17.0-1.29","e01d7969-97a7-4f3b-9d74-dc0748981af3","821","
                  <p style=""text-align: center;"">₪76
                                                <br>65%</p>
                  <p id=""wtp"" style=""text-align:center; margin-top: 0px; margin-bottom: 0px; font-size: 40px"";>מוכנים לשלם: <span id=""c_p_y""></span></p>","47","evaluation","22","29","8C,19A,24B","65","76","47","","","","","","","","","","","","","","","","",""
"","","","","","html-keyboard-response","107","1286588","0.0-17.0-2.29","e01d7969-97a7-4f3b-9d74-dc0748981af3","null","<p style=""text-align: center;"">+</p>","null","fixation","","","","","","","","","","","","","","","","","","","","","","",""
"","","","","","html-slider-response","108","1287593","0.0-17.0-0.30","e01d7969-97a7-4f3b-9d74-dc0748981af3","1000","
                  <p style=""text-align: center;"">₪11
                                                <br>20%</p>
                  <p id=""wtp"" style=""text-align:center; margin-top: 0px; margin-bottom: 0px; font-size: 40px"";>&ensp;</p>","-","viewing","0","4","12C,17C,23C,28C","","","","","","","","","","","","","","","","","","","",""
"","","","","","html-slider-response","109","1288656","0.0-17.0-1.30","e01d7969-97a7-4f3b-9d74-dc0748981af3","1062","
                  <p style=""text-align: center;"">₪11
                                                <br>20%</p>
                  <p id=""wtp"" style=""text-align:center; margin-top: 0px; margin-bottom: 0px; font-size: 40px"";>מוכנים לשלם: <span id=""c_p_y""></span></p>","3","evaluation","71","4","12C,17C,23C,28C","20","11","3","","","","","","","","","","","","","","","","",""
"","","","","","html-keyboard-response","110","1289164","0.0-17.0-2.30","e01d7969-97a7-4f3b-9d74-dc0748981af3","null","<p style=""text-align: center;"">+</p>","null","fixation","","","","","","","","","","","","","","","","","","","","","","",""
"","","","","","html-keyboard-response","111","1290166","0.0-18.0","e01d7969-97a7-4f3b-9d74-dc0748981af3","null","<p style=""text-align: center;"">+</p>","null","fixation","","","","","","","","","","","","","","","","","","","","","","",""
"","","","","","html-keyboard-response","112","1291776","0.0-19.0","e01d7969-97a7-4f3b-9d74-dc0748981af3","null","<p>הפסקה.
          <br>לחצו כדי להמשיך.</p>","1","scan_wait","","","","","","","","","","","","","","","","","","","","","","",""
"","","","","","html-keyboard-response","113","1292784","0.0-20.0","e01d7969-97a7-4f3b-9d74-dc0748981af3","null","<p style=""text-align: center;"">+</p>","null","fixation","","","","","","","","","","","","","","","","","","","","","","",""
"","","","","","html-slider-response","114","1293785","0.0-21.0-0.0","e01d7969-97a7-4f3b-9d74-dc0748981af3","1000","
                  <p style=""text-align: center;"">₪11
                                                <br>45%</p>
                  <p id=""wtp"" style=""text-align:center; margin-top: 0px; margin-bottom: 0px; font-size: 40px"";>&ensp;</p>","-","viewing","0","6","14B,21C,25C","","","","","","","","","","","","","","","","","","","",""
"","","","","","html-slider-response","115","1295408","0.0-21.0-1.0","e01d7969-97a7-4f3b-9d74-dc0748981af3","1623","
                  <p style=""text-align: center;"">₪11
                                                <br>45%</p>
                  <p id=""wtp"" style=""text-align:center; margin-top: 0px; margin-bottom: 0px; font-size: 40px"";>מוכנים לשלם: <span id=""c_p_y""></span></p>","6","evaluation","51","6","14B,21C,25C","45","11","6","","","","","","","","","","","","","","","","",""
"","","","","","html-keyboard-response","116","1295952","0.0-21.0-2.0","e01d7969-97a7-4f3b-9d74-dc0748981af3","null","<p style=""text-align: center;"">+</p>","null","fixation","","","","","","","","","","","","","","","","","","","","","","",""
"","","","","","html-slider-response","117","1296964","0.0-21.0-0.1","e01d7969-97a7-4f3b-9d74-dc0748981af3","1000","
                  <p style=""text-align: center;"">₪76
                                                <br>65%</p>
                  <p id=""wtp"" style=""text-align:center; margin-top: 0px; margin-bottom: 0px; font-size: 40px"";>&ensp;</p>","-","viewing","0","29","8C,19A,24B","","","","","","","","","","","","","","","","","","","",""
"","","","","","html-slider-response","118","1297888","0.0-21.0-1.1","e01d7969-97a7-4f3b-9d74-dc0748981af3","923","
                  <p style=""text-align: center;"">₪76
                                                <br>65%</p>
                  <p id=""wtp"" style=""text-align:center; margin-top: 0px; margin-bottom: 0px; font-size: 40px"";>מוכנים לשלם: <span id=""c_p_y""></span></p>","52","evaluation","8","29","8C,19A,24B","65","76","52","","","","","","","","","","","","","","","","",""
"","","","","","html-keyboard-response","119","1299297","0.0-21.0-2.1","e01d7969-97a7-4f3b-9d74-dc0748981af3","null","<p style=""text-align: center;"">+</p>","null","fixation","","","","","","","","","","","","","","","","","","","","","","",""
"","","","","","html-slider-response","120","1300308","0.0-21.0-0.2","e01d7969-97a7-4f3b-9d74-dc0748981af3","1000","
                  <p style=""text-align: center;"">₪79
                                                <br>40%</p>
                  <p id=""wtp"" style=""text-align:center; margin-top: 0px; margin-bottom: 0px; font-size: 40px"";>&ensp;</p>","-","viewing","0","30","9B","","","","","","","","","","","","","","","","","","","",""
"","","","","","html-slider-response","121","1301624","0.0-21.0-1.2","e01d7969-97a7-4f3b-9d74-dc0748981af3","1316","
                  <p style=""text-align: center;"">₪79
                                                <br>40%</p>
                  <p id=""wtp"" style=""text-align:center; margin-top: 0px; margin-bottom: 0px; font-size: 40px"";>מוכנים לשלם: <span id=""c_p_y""></span></p>","13","evaluation","33","30","9B","40","79","13","","","","","","","","","","","","","","","","",""
"","","","","","html-keyboard-response","122","1302957","0.0-21.0-2.2","e01d7969-97a7-4f3b-9d74-dc0748981af3","null","<p style=""text-align: center;"">+</p>","null","fixation","","","","","","","","","","","","","","","","","","","","","","",""
"","","","","","html-slider-response","123","1303962","0.0-21.0-0.3","e01d7969-97a7-4f3b-9d74-dc0748981af3","1000","
                  <p style=""text-align: center;"">₪39
                                                <br>60%</p>
                  <p id=""wtp"" style=""text-align:center; margin-top: 0px; margin-bottom: 0px; font-size: 40px"";>&ensp;</p>","-","viewing","0","15","9C,25B","","","","","","","","","","","","","","","","","","","",""
"","","","","","html-slider-response","124","1305136","0.0-21.0-1.3","e01d7969-97a7-4f3b-9d74-dc0748981af3","1173","
                  <p style=""text-align: center;"">₪39
                                                <br>60%</p>
                  <p id=""wtp"" style=""text-align:center; margin-top: 0px; margin-bottom: 0px; font-size: 40px"";>מוכנים לשלם: <span id=""c_p_y""></span></p>","43","evaluation","1","15","9C,25B","60","39","43","","","","","","","","","","","","","","","","",""
"","","","","","html-keyboard-response","125","1306553","0.0-21.0-2.3","e01d7969-97a7-4f3b-9d74-dc0748981af3","null","<p style=""text-align: center;"">+</p>","null","fixation","","","","","","","","","","","","","","","","","","","","","","",""
"","","","","","html-slider-response","126","1307565","0.0-21.0-0.4","e01d7969-97a7-4f3b-9d74-dc0748981af3","1000","
                  <p style=""text-align: center;"">₪43
                                                <br>60%</p>
                  <p id=""wtp"" style=""text-align:center; margin-top: 0px; margin-bottom: 0px; font-size: 40px"";>&ensp;</p>","-","viewing","0","17","2A,7A,9A,15B","","","","","","","","","","","","","","","","","","","",""
"","","","","","html-slider-response","127","1309713","0.0-21.0-1.4","e01d7969-97a7-4f3b-9d74-dc0748981af3","2147","
                  <p style=""text-align: center;"">₪43
                                                <br>60%</p>
                  <p id=""wtp"" style=""text-align:center; margin-top: 0px; margin-bottom: 0px; font-size: 40px"";>מוכנים לשלם: <span id=""c_p_y""></span></p>","39","evaluation","16","17","2A,7A,9A,15B","60","43","39","","","","","","","","","","","","","","","","",""
"","","","","","html-keyboard-response","128","1310734","0.0-21.0-2.4","e01d7969-97a7-4f3b-9d74-dc0748981af3","null","<p style=""text-align: center;"">+</p>","null","fixation","","","","","","","","","","","","","","","","","","","","","","",""
"","","","","","html-slider-response","129","1311737","0.0-21.0-0.5","e01d7969-97a7-4f3b-9d74-dc0748981af3","1000","
                  <p style=""text-align: center;"">₪61
                                                <br>45%</p>
                  <p id=""wtp"" style=""text-align:center; margin-top: 0px; margin-bottom: 0px; font-size: 40px"";>&ensp;</p>","-","viewing","0","22","10A,11A","","","","","","","","","","","","","","","","","","","",""
"","","","","","html-slider-response","130","1312544","0.0-21.0-1.5","e01d7969-97a7-4f3b-9d74-dc0748981af3","806","
                  <p style=""text-align: center;"">₪61
                                                <br>45%</p>
                  <p id=""wtp"" style=""text-align:center; margin-top: 0px; margin-bottom: 0px; font-size: 40px"";>מוכנים לשלם: <span id=""c_p_y""></span></p>","28","evaluation","35","22","10A,11A","45","61","28","","","","","","","","","","","","","","","","",""
"","","","","","html-keyboard-response","131","1313883","0.0-21.0-2.5","e01d7969-97a7-4f3b-9d74-dc0748981af3","null","<p style=""text-align: center;"">+</p>","null","fixation","","","","","","","","","","","","","","","","","","","","","","",""
"","","","","","html-slider-response","132","1314890","0.0-21.0-0.6","e01d7969-97a7-4f3b-9d74-dc0748981af3","1000","
                  <p style=""text-align: center;"">₪64
                                                <br>50%</p>
                  <p id=""wtp"" style=""text-align:center; margin-top: 0px; margin-bottom: 0px; font-size: 40px"";>&ensp;</p>","-","viewing","0","25","1B,3B,4A","","","","","","","","","","","","","","","","","","","",""
"","","","","","html-slider-response","133","1316232","0.0-21.0-1.6","e01d7969-97a7-4f3b-9d74-dc0748981af3","1341","
                  <p style=""text-align: center;"">₪64
                                                <br>50%</p>
                  <p id=""wtp"" style=""text-align:center; margin-top: 0px; margin-bottom: 0px; font-size: 40px"";>מוכנים לשלם: <span id=""c_p_y""></span></p>","35","evaluation","59","25","1B,3B,4A","50","64","35","","","","","","","","","","","","","","","","",""
"","","","","","html-keyboard-response","134","1317179","0.0-21.0-2.6","e01d7969-97a7-4f3b-9d74-dc0748981af3","null","<p style=""text-align: center;"">+</p>","null","fixation","","","","","","","","","","","","","","","","","","","","","","",""
"","","","","","html-slider-response","135","1318193","0.0-21.0-0.7","e01d7969-97a7-4f3b-9d74-dc0748981af3","1000","
                  <p style=""text-align: center;"">₪64
                                                <br>25%</p>
                  <p id=""wtp"" style=""text-align:center; margin-top: 0px; margin-bottom: 0px; font-size: 40px"";>&ensp;</p>","-","viewing","0","24","6A,21A","","","","","","","","","","","","","","","","","","","",""
"","","","","","html-slider-response","136","1319161","0.0-21.0-1.7","e01d7969-97a7-4f3b-9d74-dc0748981af3","967","
                  <p style=""text-align: center;"">₪64
                                                <br>25%</p>
                  <p id=""wtp"" style=""text-align:center; margin-top: 0px; margin-bottom: 0px; font-size: 40px"";>מוכנים לשלם: <span id=""c_p_y""></span></p>","5","evaluation","69","24","6A,21A","25","64","5","","","","","","","","","","","","","","","","",""
"","","","","","html-keyboard-response","137","1320375","0.0-21.0-2.7","e01d7969-97a7-4f3b-9d74-dc0748981af3","null","<p style=""text-align: center;"">+</p>","null","fixation","","","","","","","","","","","","","","","","","","","","","","",""
"","","","","","html-slider-response","138","1321378","0.0-21.0-0.8","e01d7969-97a7-4f3b-9d74-dc0748981af3","1000","
                  <p style=""text-align: center;"">₪18
                                                <br>25%</p>
                  <p id=""wtp"" style=""text-align:center; margin-top: 0px; margin-bottom: 0px; font-size: 40px"";>&ensp;</p>","-","viewing","0","9","14A,23A","","","","","","","","","","","","","","","","","","","",""
"","","","","","html-slider-response","139","1322481","0.0-21.0-1.8","e01d7969-97a7-4f3b-9d74-dc0748981af3","1102","
                  <p style=""text-align: center;"">₪18
                                                <br>25%</p>
                  <p id=""wtp"" style=""text-align:center; margin-top: 0px; margin-bottom: 0px; font-size: 40px"";>מוכנים לשלם: <span id=""c_p_y""></span></p>","8","evaluation","56","9","14A,23A","25","18","9","","","","","","","","","","","","","","","","",""
"","","","","","html-keyboard-response","140","1323652","0.0-21.0-2.8","e01d7969-97a7-4f3b-9d74-dc0748981af3","null","<p style=""text-align: center;"">+</p>","null","fixation","","","","","","","","","","","","","","","","","","","","","","",""
"","","","","","html-slider-response","141","1324663","0.0-21.0-0.9","e01d7969-97a7-4f3b-9d74-dc0748981af3","1000","
                  <p style=""text-align: center;"">₪71
                                                <br>55%</p>
                  <p id=""wtp"" style=""text-align:center; margin-top: 0px; margin-bottom: 0px; font-size: 40px"";>&ensp;</p>","-","viewing","0","27","5B,18A","","","","","","","","","","","","","","","","","","","",""
"","","","","","html-slider-response","142","1326025","0.0-21.0-1.9","e01d7969-97a7-4f3b-9d74-dc0748981af3","1360","
                  <p style=""text-align: center;"">₪71
                                                <br>55%</p>
                  <p id=""wtp"" style=""text-align:center; margin-top: 0px; margin-bottom: 0px; font-size: 40px"";>מוכנים לשלם: <span id=""c_p_y""></span></p>","30","evaluation","56","27","5B,18A","55","71","30","","","","","","","","","","","","","","","","",""
"","","","","","html-keyboard-response","143","1327519","0.0-21.0-2.9","e01d7969-97a7-4f3b-9d74-dc0748981af3","null","<p style=""text-align: center;"">+</p>","null","fixation","","","","","","","","","","","","","","","","","","","","","","",""
"","","","","","html-slider-response","144","1328521","0.0-21.0-0.10","e01d7969-97a7-4f3b-9d74-dc0748981af3","1000","
                  <p style=""text-align: center;"">₪71
                                                <br>45%</p>
                  <p id=""wtp"" style=""text-align:center; margin-top: 0px; margin-bottom: 0px; font-size: 40px"";>&ensp;</p>","-","viewing","0","26","2B,16A","","","","","","","","","","","","","","","","","","","",""
"","","","","","html-slider-response","145","1329464","0.0-21.0-1.10","e01d7969-97a7-4f3b-9d74-dc0748981af3","943","
                  <p style=""text-align: center;"">₪71
                                                <br>45%</p>
                  <p id=""wtp"" style=""text-align:center; margin-top: 0px; margin-bottom: 0px; font-size: 40px"";>מוכנים לשלם: <span id=""c_p_y""></span></p>","14","evaluation","10","26","2B,16A","45","71","15","","","","","","","","","","","","","","","","",""
"","","","","","html-keyboard-response","146","1330799","0.0-21.0-2.10","e01d7969-97a7-4f3b-9d74-dc0748981af3","null","<p style=""text-align: center;"">+</p>","null","fixation","","","","","","","","","","","","","","","","","","","","","","",""
"","","","","","html-slider-response","147","1331808","0.0-21.0-0.11","e01d7969-97a7-4f3b-9d74-dc0748981af3","1000","
                  <p style=""text-align: center;"">₪36
                                                <br>75%</p>
                  <p id=""wtp"" style=""text-align:center; margin-top: 0px; margin-bottom: 0px; font-size: 40px"";>&ensp;</p>","-","viewing","0","14","4B,5A,13B,16B","","","","","","","","","","","","","","","","","","","",""
"","","","","","html-slider-response","148","1333464","0.0-21.0-1.11","e01d7969-97a7-4f3b-9d74-dc0748981af3","1655","
                  <p style=""text-align: center;"">₪36
                                                <br>75%</p>
                  <p id=""wtp"" style=""text-align:center; margin-top: 0px; margin-bottom: 0px; font-size: 40px"";>מוכנים לשלם: <span id=""c_p_y""></span></p>","58","evaluation","79","14","4B,5A,13B,16B","75","36","58","","","","","","","","","","","","","","","","",""
"","","","","","html-keyboard-response","149","1334631","0.0-21.0-2.11","e01d7969-97a7-4f3b-9d74-dc0748981af3","null","<p style=""text-align: center;"">+</p>","null","fixation","","","","","","","","","","","","","","","","","","","","","","",""
"","","","","","html-slider-response","150","1335643","0.0-21.0-0.12","e01d7969-97a7-4f3b-9d74-dc0748981af3","1000","
                  <p style=""text-align: center;"">₪61
                                                <br>55%</p>
                  <p id=""wtp"" style=""text-align:center; margin-top: 0px; margin-bottom: 0px; font-size: 40px"";>&ensp;</p>","-","viewing","0","23","7B,26B","","","","","","","","","","","","","","","","","","","",""
"","","","","","html-slider-response","151","1337000","0.0-21.0-1.12","e01d7969-97a7-4f3b-9d74-dc0748981af3","1356","
                  <p style=""text-align: center;"">₪61
                                                <br>55%</p>
                  <p id=""wtp"" style=""text-align:center; margin-top: 0px; margin-bottom: 0px; font-size: 40px"";>מוכנים לשלם: <span id=""c_p_y""></span></p>","24","evaluation","11","23","7B,26B","55","61","24","","","","","","","","","","","","","","","","",""
"","","","","","html-keyboard-response","152","1338449","0.0-21.0-2.12","e01d7969-97a7-4f3b-9d74-dc0748981af3","null","<p style=""text-align: center;"">+</p>","null","fixation","","","","","","","","","","","","","","","","","","","","","","",""
"","","","","","html-slider-response","153","1339462","0.0-21.0-0.13","e01d7969-97a7-4f3b-9d74-dc0748981af3","1000","
                  <p style=""text-align: center;"">₪79
                                                <br>65%</p>
                  <p id=""wtp"" style=""text-align:center; margin-top: 0px; margin-bottom: 0px; font-size: 40px"";>&ensp;</p>","-","viewing","0","31","8A","","","","","","","","","","","","","","","","","","","",""
"","","","","","html-slider-response","154","1340440","0.0-21.0-1.13","e01d7969-97a7-4f3b-9d74-dc0748981af3","977","
                  <p style=""text-align: center;"">₪79
                                                <br>65%</p>
                  <p id=""wtp"" style=""text-align:center; margin-top: 0px; margin-bottom: 0px; font-size: 40px"";>מוכנים לשלם: <span id=""c_p_y""></span></p>","36","evaluation","51","31","8A","65","79","36","","","","","","","","","","","","","","","","",""
"","","","","","html-keyboard-response","155","1341809","0.0-21.0-2.13","e01d7969-97a7-4f3b-9d74-dc0748981af3","null","<p style=""text-align: center;"">+</p>","null","fixation","","","","","","","","","","","","","","","","","","","","","","",""
"","","","","","html-slider-response","156","1342816","0.0-21.0-0.14","e01d7969-97a7-4f3b-9d74-dc0748981af3","1000","
                  <p style=""text-align: center;"">₪58
                                                <br>30%</p>
                  <p id=""wtp"" style=""text-align:center; margin-top: 0px; margin-bottom: 0px; font-size: 40px"";>&ensp;</p>","-","viewing","0","19","13C,30A","","","","","","","","","","","","","","","","","","","",""
"","","","","","html-slider-response","157","1344256","0.0-21.0-1.14","e01d7969-97a7-4f3b-9d74-dc0748981af3","1439","
                  <p style=""text-align: center;"">₪58
                                                <br>30%</p>
                  <p id=""wtp"" style=""text-align:center; margin-top: 0px; margin-bottom: 0px; font-size: 40px"";>מוכנים לשלם: <span id=""c_p_y""></span></p>","13","evaluation","15","19","13C,30A","30","58","13","","","","","","","","","","","","","","","","",""
"","","","","","html-keyboard-response","158","1345441","0.0-21.0-2.14","e01d7969-97a7-4f3b-9d74-dc0748981af3","null","<p style=""text-align: center;"">+</p>","null","fixation","","","","","","","","","","","","","","","","","","","","","","",""
"","","","","","html-slider-response","159","1346450","0.0-21.0-0.15","e01d7969-97a7-4f3b-9d74-dc0748981af3","1000","
                  <p style=""text-align: center;"">₪11
                                                <br>25%</p>
                  <p id=""wtp"" style=""text-align:center; margin-top: 0px; margin-bottom: 0px; font-size: 40px"";>&ensp;</p>","-","viewing","0","5","12A,27B,28B,30B","","","","","","","","","","","","","","","","","","","",""
"","","","","","html-slider-response","160","1347792","0.0-21.0-1.15","e01d7969-97a7-4f3b-9d74-dc0748981af3","1341","
                  <p style=""text-align: center;"">₪11
                                                <br>25%</p>
                  <p id=""wtp"" style=""text-align:center; margin-top: 0px; margin-bottom: 0px; font-size: 40px"";>מוכנים לשלם: <span id=""c_p_y""></span></p>","4","evaluation","43","5","12A,27B,28B,30B","25","11","4","","","","","","","","","","","","","","","","",""
"","","","","","html-keyboard-response","161","1349165","0.0-21.0-2.15","e01d7969-97a7-4f3b-9d74-dc0748981af3","null","<p style=""text-align: center;"">+</p>","null","fixation","","","","","","","","","","","","","","","","","","","","","","",""
"","","","","","html-slider-response","162","1350172","0.0-21.0-0.16","e01d7969-97a7-4f3b-9d74-dc0748981af3","1000","
                  <p style=""text-align: center;"">₪4
                                                <br>25%</p>
                  <p id=""wtp"" style=""text-align:center; margin-top: 0px; margin-bottom: 0px; font-size: 40px"";>&ensp;</p>","-","viewing","0","1","6C,29B,30C","","","","","","","","","","","","","","","","","","","",""
"","","","","","html-slider-response","163","1351672","0.0-21.0-1.16","e01d7969-97a7-4f3b-9d74-dc0748981af3","1500","
                  <p style=""text-align: center;"">₪4
                                                <br>25%</p>
                  <p id=""wtp"" style=""text-align:center; margin-top: 0px; margin-bottom: 0px; font-size: 40px"";>מוכנים לשלם: <span id=""c_p_y""></span></p>","2","evaluation","26","1","6C,29B,30C","25","4","2","","","","","","","","","","","","","","","","",""
"","","","","","html-keyboard-response","164","1352461","0.0-21.0-2.16","e01d7969-97a7-4f3b-9d74-dc0748981af3","null","<p style=""text-align: center;"">+</p>","null","fixation","","","","","","","","","","","","","","","","","","","","","","",""
"","","","","","html-slider-response","165","1353474","0.0-21.0-0.17","e01d7969-97a7-4f3b-9d74-dc0748981af3","1000","
                  <p style=""text-align: center;"">₪18
                                                <br>50%</p>
                  <p id=""wtp"" style=""text-align:center; margin-top: 0px; margin-bottom: 0px; font-size: 40px"";>&ensp;</p>","-","viewing","0","10","2C,16C,22B,28A","","","","","","","","","","","","","","","","","","","",""
"","","","","","html-slider-response","166","1354640","0.0-21.0-1.17","e01d7969-97a7-4f3b-9d74-dc0748981af3","1166","
                  <p style=""text-align: center;"">₪18
                                                <br>50%</p>
                  <p id=""wtp"" style=""text-align:center; margin-top: 0px; margin-bottom: 0px; font-size: 40px"";>מוכנים לשלם: <span id=""c_p_y""></span></p>","15","evaluation","33","10","2C,16C,22B,28A","50","18","15","","","","","","","","","","","","","","","","",""
"","","","","","html-keyboard-response","167","1355365","0.0-21.0-2.17","e01d7969-97a7-4f3b-9d74-dc0748981af3","null","<p style=""text-align: center;"">+</p>","null","fixation","","","","","","","","","","","","","","","","","","","","","","",""
"","","","","","html-slider-response","168","1356380","0.0-21.0-0.18","e01d7969-97a7-4f3b-9d74-dc0748981af3","1000","
                  <p style=""text-align: center;"">₪39
                                                <br>65%</p>
                  <p id=""wtp"" style=""text-align:center; margin-top: 0px; margin-bottom: 0px; font-size: 40px"";>&ensp;</p>","-","viewing","0","16","1A,15A,26C","","","","","","","","","","","","","","","","","","","",""
"","","","","","html-slider-response","169","1359024","0.0-21.0-1.18","e01d7969-97a7-4f3b-9d74-dc0748981af3","2643","
                  <p style=""text-align: center;"">₪39
                                                <br>65%</p>
                  <p id=""wtp"" style=""text-align:center; margin-top: 0px; margin-bottom: 0px; font-size: 40px"";>מוכנים לשלם: <span id=""c_p_y""></span></p>","38","evaluation","48","16","1A,15A,26C","65","39","38","","","","","","","","","","","","","","","","",""
"","","","","","html-keyboard-response","170","1359972","0.0-21.0-2.18","e01d7969-97a7-4f3b-9d74-dc0748981af3","null","<p style=""text-align: center;"">+</p>","null","fixation","","","","","","","","","","","","","","","","","","","","","","",""
"","","","","","html-slider-response","171","1360985","0.0-21.0-0.19","e01d7969-97a7-4f3b-9d74-dc0748981af3","1000","
                  <p style=""text-align: center;"">₪58
                                                <br>40%</p>
                  <p id=""wtp"" style=""text-align:center; margin-top: 0px; margin-bottom: 0px; font-size: 40px"";>&ensp;</p>","-","viewing","0","20","10C,13A,19C,21B","","","","","","","","","","","","","","","","","","","",""
"","","","","","html-slider-response","172","1361960","0.0-21.0-1.19","e01d7969-97a7-4f3b-9d74-dc0748981af3","974","
                  <p style=""text-align: center;"">₪58
                                                <br>40%</p>
                  <p id=""wtp"" style=""text-align:center; margin-top: 0px; margin-bottom: 0px; font-size: 40px"";>מוכנים לשלם: <span id=""c_p_y""></span></p>","24","evaluation","56","20","10C,13A,19C,21B","40","58","25","","","","","","","","","","","","","","","","",""
"","","","","","html-keyboard-response","173","1363266","0.0-21.0-2.19","e01d7969-97a7-4f3b-9d74-dc0748981af3","null","<p style=""text-align: center;"">+</p>","null","fixation","","","","","","","","","","","","","","","","","","","","","","",""
"","","","","","html-slider-response","174","1364273","0.0-21.0-0.20","e01d7969-97a7-4f3b-9d74-dc0748981af3","1000","
                  <p style=""text-align: center;"">₪11
                                                <br>75%</p>
                  <p id=""wtp"" style=""text-align:center; margin-top: 0px; margin-bottom: 0px; font-size: 40px"";>&ensp;</p>","-","viewing","0","7","6B,18B,22C,24C,29A","","","","","","","","","","","","","","","","","","","",""
"","","","","","html-slider-response","175","1365568","0.0-21.0-1.20","e01d7969-97a7-4f3b-9d74-dc0748981af3","1295","
                  <p style=""text-align: center;"">₪11
                                                <br>75%</p>
                  <p id=""wtp"" style=""text-align:center; margin-top: 0px; margin-bottom: 0px; font-size: 40px"";>מוכנים לשלם: <span id=""c_p_y""></span></p>","27","evaluation","59","7","6B,18B,22C,24C,29A","75","11","27","","","","","","","","","","","","","","","","",""
"","","","","","html-keyboard-response","176","1366870","0.0-21.0-2.20","e01d7969-97a7-4f3b-9d74-dc0748981af3","null","<p style=""text-align: center;"">+</p>","null","fixation","","","","","","","","","","","","","","","","","","","","","","",""
"","","","","","html-slider-response","177","1367873","0.0-21.0-0.21","e01d7969-97a7-4f3b-9d74-dc0748981af3","1000","
                  <p style=""text-align: center;"">₪36
                                                <br>30%</p>
                  <p id=""wtp"" style=""text-align:center; margin-top: 0px; margin-bottom: 0px; font-size: 40px"";>&ensp;</p>","-","viewing","0","11","3C,20A,22A","","","","","","","","","","","","","","","","","","","",""
"","","","","","html-slider-response","178","1369016","0.0-21.0-1.21","e01d7969-97a7-4f3b-9d74-dc0748981af3","1142","
                  <p style=""text-align: center;"">₪36
                                                <br>30%</p>
                  <p id=""wtp"" style=""text-align:center; margin-top: 0px; margin-bottom: 0px; font-size: 40px"";>מוכנים לשלם: <span id=""c_p_y""></span></p>","5","evaluation","73","11","3C,20A,22A","30","36","5","","","","","","","","","","","","","","","","",""
"","","","","","html-keyboard-response","179","1370066","0.0-21.0-2.21","e01d7969-97a7-4f3b-9d74-dc0748981af3","null","<p style=""text-align: center;"">+</p>","null","fixation","","","","","","","","","","","","","","","","","","","","","","",""
"","","","","","html-slider-response","180","1371079","0.0-21.0-0.22","e01d7969-97a7-4f3b-9d74-dc0748981af3","1000","
                  <p style=""text-align: center;"">₪4
                                                <br>75%</p>
                  <p id=""wtp"" style=""text-align:center; margin-top: 0px; margin-bottom: 0px; font-size: 40px"";>&ensp;</p>","-","viewing","0","3","12B,20B,23B,27C,29C","","","","","","","","","","","","","","","","","","","",""
"","","","","","html-slider-response","181","1372384","0.0-21.0-1.22","e01d7969-97a7-4f3b-9d74-dc0748981af3","1305","
                  <p style=""text-align: center;"">₪4
                                                <br>75%</p>
                  <p id=""wtp"" style=""text-align:center; margin-top: 0px; margin-bottom: 0px; font-size: 40px"";>מוכנים לשלם: <span id=""c_p_y""></span></p>","3","evaluation","53","3","12B,20B,23B,27C,29C","75","4","3","","","","","","","","","","","","","","","","",""
"","","","","","html-keyboard-response","182","1373422","0.0-21.0-2.22","e01d7969-97a7-4f3b-9d74-dc0748981af3","null","<p style=""text-align: center;"">+</p>","null","fixation","","","","","","","","","","","","","","","","","","","","","","",""
"","","","","","html-slider-response","183","1374423","0.0-21.0-0.23","e01d7969-97a7-4f3b-9d74-dc0748981af3","1000","
                  <p style=""text-align: center;"">₪11
                                                <br>20%</p>
                  <p id=""wtp"" style=""text-align:center; margin-top: 0px; margin-bottom: 0px; font-size: 40px"";>&ensp;</p>","-","viewing","0","4","12C,17C,23C,28C","","","","","","","","","","","","","","","","","","","",""
"","","","","","html-slider-response","184","1375472","0.0-21.0-1.23","e01d7969-97a7-4f3b-9d74-dc0748981af3","1047","
                  <p style=""text-align: center;"">₪11
                                                <br>20%</p>
                  <p id=""wtp"" style=""text-align:center; margin-top: 0px; margin-bottom: 0px; font-size: 40px"";>מוכנים לשלם: <span id=""c_p_y""></span></p>","8","evaluation","41","4","12C,17C,23C,28C","20","11","8","","","","","","","","","","","","","","","","",""
"","","","","","html-keyboard-response","185","1376719","0.0-21.0-2.23","e01d7969-97a7-4f3b-9d74-dc0748981af3","null","<p style=""text-align: center;"">+</p>","null","fixation","","","","","","","","","","","","","","","","","","","","","","",""
"","","","","","html-slider-response","186","1377735","0.0-21.0-0.24","e01d7969-97a7-4f3b-9d74-dc0748981af3","1000","
                  <p style=""text-align: center;"">₪71
                                                <br>75%</p>
                  <p id=""wtp"" style=""text-align:center; margin-top: 0px; margin-bottom: 0px; font-size: 40px"";>&ensp;</p>","-","viewing","0","28","8B","","","","","","","","","","","","","","","","","","","",""
"","","","","","html-slider-response","187","1380016","0.0-21.0-1.24","e01d7969-97a7-4f3b-9d74-dc0748981af3","2280","
                  <p style=""text-align: center;"">₪71
                                                <br>75%</p>
                  <p id=""wtp"" style=""text-align:center; margin-top: 0px; margin-bottom: 0px; font-size: 40px"";>מוכנים לשלם: <span id=""c_p_y""></span></p>","64","evaluation","0","28","8B","75","71","64","","","","","","","","","","","","","","","","",""
"","","","","","html-keyboard-response","188","1381115","0.0-21.0-2.24","e01d7969-97a7-4f3b-9d74-dc0748981af3","null","<p style=""text-align: center;"">+</p>","null","fixation","","","","","","","","","","","","","","","","","","","","","","",""
"","","","","","html-slider-response","189","1382121","0.0-21.0-0.25","e01d7969-97a7-4f3b-9d74-dc0748981af3","1000","
                  <p style=""text-align: center;"">₪36
                                                <br>70%</p>
                  <p id=""wtp"" style=""text-align:center; margin-top: 0px; margin-bottom: 0px; font-size: 40px"";>&ensp;</p>","-","viewing","0","13","3A,5C,10B","","","","","","","","","","","","","","","","","","","",""
"","","","","","html-slider-response","190","1382904","0.0-21.0-1.25","e01d7969-97a7-4f3b-9d74-dc0748981af3","782","
                  <p style=""text-align: center;"">₪36
                                                <br>70%</p>
                  <p id=""wtp"" style=""text-align:center; margin-top: 0px; margin-bottom: 0px; font-size: 40px"";>מוכנים לשלם: <span id=""c_p_y""></span></p>","50","evaluation","80","13","3A,5C,10B","70","36","50","","","","","","","","","","","","","","","","",""
"","","","","","html-keyboard-response","191","1383832","0.0-21.0-2.25","e01d7969-97a7-4f3b-9d74-dc0748981af3","null","<p style=""text-align: center;"">+</p>","null","fixation","","","","","","","","","","","","","","","","","","","","","","",""
"","","","","","html-slider-response","192","1384841","0.0-21.0-0.26","e01d7969-97a7-4f3b-9d74-dc0748981af3","1000","
                  <p style=""text-align: center;"">₪4
                                                <br>50%</p>
                  <p id=""wtp"" style=""text-align:center; margin-top: 0px; margin-bottom: 0px; font-size: 40px"";>&ensp;</p>","-","viewing","0","2","4C,17B","","","","","","","","","","","","","","","","","","","",""
"","","","","","html-slider-response","193","1385816","0.0-21.0-1.26","e01d7969-97a7-4f3b-9d74-dc0748981af3","974","
                  <p style=""text-align: center;"">₪4
                                                <br>50%</p>
                  <p id=""wtp"" style=""text-align:center; margin-top: 0px; margin-bottom: 0px; font-size: 40px"";>מוכנים לשלם: <span id=""c_p_y""></span></p>","27","evaluation","55","2","4C,17B","50","4","27","","","","","","","","","","","","","","","","",""
"","","","","","html-keyboard-response","194","1387265","0.0-21.0-2.26","e01d7969-97a7-4f3b-9d74-dc0748981af3","null","<p style=""text-align: center;"">+</p>","null","fixation","","","","","","","","","","","","","","","","","","","","","","",""
"","","","","","html-slider-response","195","1388280","0.0-21.0-0.27","e01d7969-97a7-4f3b-9d74-dc0748981af3","1000","
                  <p style=""text-align: center;"">₪36
                                                <br>60%</p>
                  <p id=""wtp"" style=""text-align:center; margin-top: 0px; margin-bottom: 0px; font-size: 40px"";>&ensp;</p>","-","viewing","0","12","1C,7C,15C","","","","","","","","","","","","","","","","","","","",""
"","","","","","html-slider-response","196","1389272","0.0-21.0-1.27","e01d7969-97a7-4f3b-9d74-dc0748981af3","991","
                  <p style=""text-align: center;"">₪36
                                                <br>60%</p>
                  <p id=""wtp"" style=""text-align:center; margin-top: 0px; margin-bottom: 0px; font-size: 40px"";>מוכנים לשלם: <span id=""c_p_y""></span></p>","44","evaluation","73","12","1C,7C,15C","60","36","44","","","","","","","","","","","","","","","","",""
"","","","","","html-keyboard-response","197","1390094","0.0-21.0-2.27","e01d7969-97a7-4f3b-9d74-dc0748981af3","null","<p style=""text-align: center;"">+</p>","null","fixation","","","","","","","","","","","","","","","","","","","","","","",""
"","","","","","html-slider-response","198","1391097","0.0-21.0-0.28","e01d7969-97a7-4f3b-9d74-dc0748981af3","1000","
                  <p style=""text-align: center;"">₪16
                                                <br>20%</p>
                  <p id=""wtp"" style=""text-align:center; margin-top: 0px; margin-bottom: 0px; font-size: 40px"";>&ensp;</p>","-","viewing","0","8","14C,17A,20C,27A","","","","","","","","","","","","","","","","","","","",""
"","","","","","html-slider-response","199","1392024","0.0-21.0-1.28","e01d7969-97a7-4f3b-9d74-dc0748981af3","926","
                  <p style=""text-align: center;"">₪16
                                                <br>20%</p>
                  <p id=""wtp"" style=""text-align:center; margin-top: 0px; margin-bottom: 0px; font-size: 40px"";>מוכנים לשלם: <span id=""c_p_y""></span></p>","6","evaluation","51","8","14C,17A,20C,27A","20","16","6","","","","","","","","","","","","","","","","",""
"","","","","","html-keyboard-response","200","1393520","0.0-21.0-2.28","e01d7969-97a7-4f3b-9d74-dc0748981af3","null","<p style=""text-align: center;"">+</p>","null","fixation","","","","","","","","","","","","","","","","","","","","","","",""
"","","","","","html-slider-response","201","1394536","0.0-21.0-0.29","e01d7969-97a7-4f3b-9d74-dc0748981af3","1000","
                  <p style=""text-align: center;"">₪58
                                                <br>45%</p>
                  <p id=""wtp"" style=""text-align:center; margin-top: 0px; margin-bottom: 0px; font-size: 40px"";>&ensp;</p>","-","viewing","0","21","11C,18C,25A","","","","","","","","","","","","","","","","","","","",""
"","","","","","html-slider-response","202","1395784","0.0-21.0-1.29","e01d7969-97a7-4f3b-9d74-dc0748981af3","1246","
                  <p style=""text-align: center;"">₪58
                                                <br>45%</p>
                  <p id=""wtp"" style=""text-align:center; margin-top: 0px; margin-bottom: 0px; font-size: 40px"";>מוכנים לשלם: <span id=""c_p_y""></span></p>","29","evaluation","42","21","11C,18C,25A","45","58","29","","","","","","","","","","","","","","","","",""
"","","","","","html-keyboard-response","203","1397008","0.0-21.0-2.29","e01d7969-97a7-4f3b-9d74-dc0748981af3","null","<p style=""text-align: center;"">+</p>","null","fixation","","","","","","","","","","","","","","","","","","","","","","",""
"","","","","","html-slider-response","204","1398022","0.0-21.0-0.30","e01d7969-97a7-4f3b-9d74-dc0748981af3","1000","
                  <p style=""text-align: center;"">₪43
                                                <br>75%</p>
                  <p id=""wtp"" style=""text-align:center; margin-top: 0px; margin-bottom: 0px; font-size: 40px"";>&ensp;</p>","-","viewing","0","18","11B,19B,24A,26A","","","","","","","","","","","","","","","","","","","",""
"","","","","","html-slider-response","205","1399488","0.0-21.0-1.30","e01d7969-97a7-4f3b-9d74-dc0748981af3","1465","
                  <p style=""text-align: center;"">₪43
                                                <br>75%</p>
                  <p id=""wtp"" style=""text-align:center; margin-top: 0px; margin-bottom: 0px; font-size: 40px"";>מוכנים לשלם: <span id=""c_p_y""></span></p>","56","evaluation","10","18","11B,19B,24A,26A","75","43","56","","","","","","","","","","","","","","","","",""
"","","","","","html-keyboard-response","206","1400195","0.0-21.0-2.30","e01d7969-97a7-4f3b-9d74-dc0748981af3","null","<p style=""text-align: center;"">+</p>","null","fixation","","","","","","","","","","","","","","","","","","","","","","",""
"","","","","","html-keyboard-response","207","1401209","0.0-22.0","e01d7969-97a7-4f3b-9d74-dc0748981af3","null","<p style=""text-align: center;"">+</p>","null","fixation","","","","","","","","","","","","","","","","","","","","","","",""
"","","","","","html-keyboard-response","208","1402288","0.0-23.0","e01d7969-97a7-4f3b-9d74-dc0748981af3","null","<p>הפסקה.
          <br>לחצו כדי להמשיך.</p>","1","scan_wait","","","","","","","","","","","","","","","","","","","","","","",""
"","","","","","html-keyboard-response","209","1403294","0.0-24.0","e01d7969-97a7-4f3b-9d74-dc0748981af3","null","<p style=""text-align: center;"">+</p>","null","fixation","","","","","","","","","","","","","","","","","","","","","","",""
"","","","","","html-slider-response","210","1404297","0.0-25.0-0.0","e01d7969-97a7-4f3b-9d74-dc0748981af3","1000","
                  <p style=""text-align: center;"">₪4
                                                <br>25%</p>
                  <p id=""wtp"" style=""text-align:center; margin-top: 0px; margin-bottom: 0px; font-size: 40px"";>&ensp;</p>","-","viewing","0","1","6C,29B,30C","","","","","","","","","","","","","","","","","","","",""
"","","","","","html-slider-response","211","1405528","0.0-25.0-1.0","e01d7969-97a7-4f3b-9d74-dc0748981af3","1231","
                  <p style=""text-align: center;"">₪4
                                                <br>25%</p>
                  <p id=""wtp"" style=""text-align:center; margin-top: 0px; margin-bottom: 0px; font-size: 40px"";>מוכנים לשלם: <span id=""c_p_y""></span></p>","3","evaluation","11","1","6C,29B,30C","25","4","3","","","","","","","","","","","","","","","","",""
"","","","","","html-keyboard-response","212","1406480","0.0-25.0-2.0","e01d7969-97a7-4f3b-9d74-dc0748981af3","null","<p style=""text-align: center;"">+</p>","null","fixation","","","","","","","","","","","","","","","","","","","","","","",""
"","","","","","html-slider-response","213","1407489","0.0-25.0-0.1","e01d7969-97a7-4f3b-9d74-dc0748981af3","1000","
                  <p style=""text-align: center;"">₪16
                                                <br>20%</p>
                  <p id=""wtp"" style=""text-align:center; margin-top: 0px; margin-bottom: 0px; font-size: 40px"";>&ensp;</p>","-","viewing","0","8","14C,17A,20C,27A","","","","","","","","","","","","","","","","","","","",""
"","","","","","html-slider-response","214","1408608","0.0-25.0-1.1","e01d7969-97a7-4f3b-9d74-dc0748981af3","1118","
                  <p style=""text-align: center;"">₪16
                                                <br>20%</p>
                  <p id=""wtp"" style=""text-align:center; margin-top: 0px; margin-bottom: 0px; font-size: 40px"";>מוכנים לשלם: <span id=""c_p_y""></span></p>","9","evaluation","25","8","14C,17A,20C,27A","20","16","9","","","","","","","","","","","","","","","","",""
"","","","","","html-keyboard-response","215","1409321","0.0-25.0-2.1","e01d7969-97a7-4f3b-9d74-dc0748981af3","null","<p style=""text-align: center;"">+</p>","null","fixation","","","","","","","","","","","","","","","","","","","","","","",""
"","","","","","html-slider-response","216","1410324","0.0-25.0-0.2","e01d7969-97a7-4f3b-9d74-dc0748981af3","1000","
                  <p style=""text-align: center;"">₪76
                                                <br>65%</p>
                  <p id=""wtp"" style=""text-align:center; margin-top: 0px; margin-bottom: 0px; font-size: 40px"";>&ensp;</p>","-","viewing","0","29","8C,19A,24B","","","","","","","","","","","","","","","","","","","",""
"","","","","","html-slider-response","217","1411793","0.0-25.0-1.2","e01d7969-97a7-4f3b-9d74-dc0748981af3","1468","
                  <p style=""text-align: center;"">₪76
                                                <br>65%</p>
                  <p id=""wtp"" style=""text-align:center; margin-top: 0px; margin-bottom: 0px; font-size: 40px"";>מוכנים לשלם: <span id=""c_p_y""></span></p>","61","evaluation","17","29","8C,19A,24B","65","76","61","","","","","","","","","","","","","","","","",""
"","","","","","html-keyboard-response","218","1412601","0.0-25.0-2.2","e01d7969-97a7-4f3b-9d74-dc0748981af3","null","<p style=""text-align: center;"">+</p>","null","fixation","","","","","","","","","","","","","","","","","","","","","","",""
"","","","","","html-slider-response","219","1413604","0.0-25.0-0.3","e01d7969-97a7-4f3b-9d74-dc0748981af3","1000","
                  <p style=""text-align: center;"">₪64
                                                <br>25%</p>
                  <p id=""wtp"" style=""text-align:center; margin-top: 0px; margin-bottom: 0px; font-size: 40px"";>&ensp;</p>","-","viewing","0","24","6A,21A","","","","","","","","","","","","","","","","","","","",""
"","","","","","html-slider-response","220","1414584","0.0-25.0-1.3","e01d7969-97a7-4f3b-9d74-dc0748981af3","980","
                  <p style=""text-align: center;"">₪64
                                                <br>25%</p>
                  <p id=""wtp"" style=""text-align:center; margin-top: 0px; margin-bottom: 0px; font-size: 40px"";>מוכנים לשלם: <span id=""c_p_y""></span></p>","11","evaluation","63","24","6A,21A","25","64","11","","","","","","","","","","","","","","","","",""
"","","","","","html-keyboard-response","221","1415246","0.0-25.0-2.3","e01d7969-97a7-4f3b-9d74-dc0748981af3","null","<p style=""text-align: center;"">+</p>","null","fixation","","","","","","","","","","","","","","","","","","","","","","",""
"","","","","","html-slider-response","222","1416257","0.0-25.0-0.4","e01d7969-97a7-4f3b-9d74-dc0748981af3","1000","
                  <p style=""text-align: center;"">₪71
                                                <br>45%</p>
                  <p id=""wtp"" style=""text-align:center; margin-top: 0px; margin-bottom: 0px; font-size: 40px"";>&ensp;</p>","-","viewing","0","26","2B,16A","","","","","","","","","","","","","","","","","","","",""
"","","","","","html-slider-response","223","1418264","0.0-25.0-1.4","e01d7969-97a7-4f3b-9d74-dc0748981af3","2007","
                  <p style=""text-align: center;"">₪71
                                                <br>45%</p>
                  <p id=""wtp"" style=""text-align:center; margin-top: 0px; margin-bottom: 0px; font-size: 40px"";>מוכנים לשלם: <span id=""c_p_y""></span></p>","16","evaluation","43","26","2B,16A","45","71","16","","","","","","","","","","","","","","","","",""
"","","","","","html-keyboard-response","224","1419011","0.0-25.0-2.4","e01d7969-97a7-4f3b-9d74-dc0748981af3","null","<p style=""text-align: center;"">+</p>","null","fixation","","","","","","","","","","","","","","","","","","","","","","",""
"","","","","","html-slider-response","225","1420027","0.0-25.0-0.5","e01d7969-97a7-4f3b-9d74-dc0748981af3","1000","
                  <p style=""text-align: center;"">₪4
                                                <br>75%</p>
                  <p id=""wtp"" style=""text-align:center; margin-top: 0px; margin-bottom: 0px; font-size: 40px"";>&ensp;</p>","-","viewing","0","3","12B,20B,23B,27C,29C","","","","","","","","","","","","","","","","","","","",""
"","","","","","html-slider-response","226","1421593","0.0-25.0-1.5","e01d7969-97a7-4f3b-9d74-dc0748981af3","1564","
                  <p style=""text-align: center;"">₪4
                                                <br>75%</p>
                  <p id=""wtp"" style=""text-align:center; margin-top: 0px; margin-bottom: 0px; font-size: 40px"";>מוכנים לשלם: <span id=""c_p_y""></span></p>","75","evaluation","9","3","12B,20B,23B,27C,29C","75","4","74","","","","","","","","","","","","","","","","",""
"","","","","","html-keyboard-response","227","1423005","0.0-25.0-2.5","e01d7969-97a7-4f3b-9d74-dc0748981af3","null","<p style=""text-align: center;"">+</p>","null","fixation","","","","","","","","","","","","","","","","","","","","","","",""
"","","","","","html-slider-response","228","1424020","0.0-25.0-0.6","e01d7969-97a7-4f3b-9d74-dc0748981af3","1000","
                  <p style=""text-align: center;"">₪79
                                                <br>40%</p>
                  <p id=""wtp"" style=""text-align:center; margin-top: 0px; margin-bottom: 0px; font-size: 40px"";>&ensp;</p>","-","viewing","0","30","9B","","","","","","","","","","","","","","","","","","","",""
"","","","","","html-slider-response","229","1425377","0.0-25.0-1.6","e01d7969-97a7-4f3b-9d74-dc0748981af3","1355","
                  <p style=""text-align: center;"">₪79
                                                <br>40%</p>
                  <p id=""wtp"" style=""text-align:center; margin-top: 0px; margin-bottom: 0px; font-size: 40px"";>מוכנים לשלם: <span id=""c_p_y""></span></p>","23","evaluation","50","30","9B","40","79","23","","","","","","","","","","","","","","","","",""
"","","","","","html-keyboard-response","230","1426306","0.0-25.0-2.6","e01d7969-97a7-4f3b-9d74-dc0748981af3","null","<p style=""text-align: center;"">+</p>","null","fixation","","","","","","","","","","","","","","","","","","","","","","",""
"","","","","","html-slider-response","231","1427318","0.0-25.0-0.7","e01d7969-97a7-4f3b-9d74-dc0748981af3","1000","
                  <p style=""text-align: center;"">₪39
                                                <br>60%</p>
                  <p id=""wtp"" style=""text-align:center; margin-top: 0px; margin-bottom: 0px; font-size: 40px"";>&ensp;</p>","-","viewing","0","15","9C,25B","","","","","","","","","","","","","","","","","","","",""
"","","","","","html-slider-response","232","1429496","0.0-25.0-1.7","e01d7969-97a7-4f3b-9d74-dc0748981af3","2177","
                  <p style=""text-align: center;"">₪39
                                                <br>60%</p>
                  <p id=""wtp"" style=""text-align:center; margin-top: 0px; margin-bottom: 0px; font-size: 40px"";>מוכנים לשלם: <span id=""c_p_y""></span></p>","43","evaluation","11","15","9C,25B","60","39","43","","","","","","","","","","","","","","","","",""
"","","","","","html-keyboard-response","233","1430833","0.0-25.0-2.7","e01d7969-97a7-4f3b-9d74-dc0748981af3","null","<p style=""text-align: center;"">+</p>","null","fixation","","","","","","","","","","","","","","","","","","","","","","",""
"","","","","","html-slider-response","234","1431834","0.0-25.0-0.8","e01d7969-97a7-4f3b-9d74-dc0748981af3","1000","
                  <p style=""text-align: center;"">₪36
                                                <br>70%</p>
                  <p id=""wtp"" style=""text-align:center; margin-top: 0px; margin-bottom: 0px; font-size: 40px"";>&ensp;</p>","-","viewing","0","13","3A,5C,10B","","","","","","","","","","","","","","","","","","","",""
"","","","","","html-slider-response","235","1433168","0.0-25.0-1.8","e01d7969-97a7-4f3b-9d74-dc0748981af3","1333","
                  <p style=""text-align: center;"">₪36
                                                <br>70%</p>
                  <p id=""wtp"" style=""text-align:center; margin-top: 0px; margin-bottom: 0px; font-size: 40px"";>מוכנים לשלם: <span id=""c_p_y""></span></p>","67","evaluation","49","13","3A,5C,10B","70","36","66","","","","","","","","","","","","","","","","",""
"","","","","","html-keyboard-response","236","1434175","0.0-25.0-2.8","e01d7969-97a7-4f3b-9d74-dc0748981af3","null","<p style=""text-align: center;"">+</p>","null","fixation","","","","","","","","","","","","","","","","","","","","","","",""
"","","","","","html-slider-response","237","1435177","0.0-25.0-0.9","e01d7969-97a7-4f3b-9d74-dc0748981af3","1000","
                  <p style=""text-align: center;"">₪18
                                                <br>50%</p>
                  <p id=""wtp"" style=""text-align:center; margin-top: 0px; margin-bottom: 0px; font-size: 40px"";>&ensp;</p>","-","viewing","0","10","2C,16C,22B,28A","","","","","","","","","","","","","","","","","","","",""
"","","","","","html-slider-response","238","1436225","0.0-25.0-1.9","e01d7969-97a7-4f3b-9d74-dc0748981af3","1046","
                  <p style=""text-align: center;"">₪18
                                                <br>50%</p>
                  <p id=""wtp"" style=""text-align:center; margin-top: 0px; margin-bottom: 0px; font-size: 40px"";>מוכנים לשלם: <span id=""c_p_y""></span></p>","22","evaluation","31","10","2C,16C,22B,28A","50","18","22","","","","","","","","","","","","","","","","",""
"","","","","","html-keyboard-response","239","1437043","0.0-25.0-2.9","e01d7969-97a7-4f3b-9d74-dc0748981af3","null","<p style=""text-align: center;"">+</p>","null","fixation","","","","","","","","","","","","","","","","","","","","","","",""
"","","","","","html-slider-response","240","1438047","0.0-25.0-0.10","e01d7969-97a7-4f3b-9d74-dc0748981af3","1000","
                  <p style=""text-align: center;"">₪43
                                                <br>60%</p>
                  <p id=""wtp"" style=""text-align:center; margin-top: 0px; margin-bottom: 0px; font-size: 40px"";>&ensp;</p>","-","viewing","0","17","2A,7A,9A,15B","","","","","","","","","","","","","","","","","","","",""
"","","","","","html-slider-response","241","1438888","0.0-25.0-1.10","e01d7969-97a7-4f3b-9d74-dc0748981af3","840","
                  <p style=""text-align: center;"">₪43
                                                <br>60%</p>
                  <p id=""wtp"" style=""text-align:center; margin-top: 0px; margin-bottom: 0px; font-size: 40px"";>מוכנים לשלם: <span id=""c_p_y""></span></p>","44","evaluation","77","17","2A,7A,9A,15B","60","43","44","","","","","","","","","","","","","","","","",""
"","","","","","html-keyboard-response","242","1440117","0.0-25.0-2.10","e01d7969-97a7-4f3b-9d74-dc0748981af3","null","<p style=""text-align: center;"">+</p>","null","fixation","","","","","","","","","","","","","","","","","","","","","","",""
"","","","","","html-slider-response","243","1441121","0.0-25.0-0.11","e01d7969-97a7-4f3b-9d74-dc0748981af3","1000","
                  <p style=""text-align: center;"">₪43
                                                <br>75%</p>
                  <p id=""wtp"" style=""text-align:center; margin-top: 0px; margin-bottom: 0px; font-size: 40px"";>&ensp;</p>","-","viewing","0","18","11B,19B,24A,26A","","","","","","","","","","","","","","","","","","","",""
"","","","","","html-slider-response","244","1442001","0.0-25.0-1.11","e01d7969-97a7-4f3b-9d74-dc0748981af3","879","
                  <p style=""text-align: center;"">₪43
                                                <br>75%</p>
                  <p id=""wtp"" style=""text-align:center; margin-top: 0px; margin-bottom: 0px; font-size: 40px"";>מוכנים לשלם: <span id=""c_p_y""></span></p>","62","evaluation","47","18","11B,19B,24A,26A","75","43","62","","","","","","","","","","","","","","","","",""
"","","","","","html-keyboard-response","245","1442658","0.0-25.0-2.11","e01d7969-97a7-4f3b-9d74-dc0748981af3","null","<p style=""text-align: center;"">+</p>","null","fixation","","","","","","","","","","","","","","","","","","","","","","",""
"","","","","","html-slider-response","246","1443669","0.0-25.0-0.12","e01d7969-97a7-4f3b-9d74-dc0748981af3","1000","
                  <p style=""text-align: center;"">₪39
                                                <br>65%</p>
                  <p id=""wtp"" style=""text-align:center; margin-top: 0px; margin-bottom: 0px; font-size: 40px"";>&ensp;</p>","-","viewing","0","16","1A,15A,26C","","","","","","","","","","","","","","","","","","","",""
"","","","","","html-slider-response","247","1445056","0.0-25.0-1.12","e01d7969-97a7-4f3b-9d74-dc0748981af3","1386","
                  <p style=""text-align: center;"">₪39
                                                <br>65%</p>
                  <p id=""wtp"" style=""text-align:center; margin-top: 0px; margin-bottom: 0px; font-size: 40px"";>מוכנים לשלם: <span id=""c_p_y""></span></p>","66","evaluation","49","16","1A,15A,26C","65","39","66","","","","","","","","","","","","","","","","",""
"","","","","","html-keyboard-response","248","1445649","0.0-25.0-2.12","e01d7969-97a7-4f3b-9d74-dc0748981af3","null","<p style=""text-align: center;"">+</p>","null","fixation","","","","","","","","","","","","","","","","","","","","","","",""
"","","","","","html-slider-response","249","1446653","0.0-25.0-0.13","e01d7969-97a7-4f3b-9d74-dc0748981af3","1000","
