"success","timeout","failed_images","failed_audio","failed_video","trial_type","trial_index","time_elapsed","internal_node_id","subject_id","rt","stimulus","response","part","slider_start","ID","set_ID","prob","amount","last_location","actual_choice","actual_EV","binary_id","trinary_id","catch","direction","A_key","S_key","D_key","choice_prob","choice_amount","potential_prize_prob","potential_prize_amount","won_prize","total_prize","remaining_budget","accuracy"
"true","false","[]","[]","[]","preload","0","12","0.0-0.0","02bbfb96-af5c-4361-8c54-93ea8d3f38dc","","","","","","","","","","","","","","","","","","","","","","","","","","",""
"","","","","","html-keyboard-response","1","14969","0.0-1.0","02bbfb96-af5c-4361-8c54-93ea8d3f38dc","null","
          <h1>שלום וברוכים הבאים!</h1>
          <p>לפניכם ניסוי בקבלת החלטות עם שני חלקים.
          <br><br>לחצו על העכבר כדי להמשיך.</p>","0","example","","","","","","","","","","","","","","","","","","","","","","",""
"","","","","","html-keyboard-response","2","27248","0.0-2.0","02bbfb96-af5c-4361-8c54-93ea8d3f38dc","null","
        <h1>חלק 1</h1>
        <p>בקרוב יוצגו בפניכם הגרלות.
        <br>עליכם לבחור את המחיר המירבי שתהיו מוכנים לשלם כדי להשתתף בהגרלה שתוצג.
        <br>יש לכם תקציב של ₪80 לכל הגרלה. 
        <br>נסו להעריך כל הגרלה בנפרד ולחשוב כמה היא שווה עבורכם, ₪80 זמינים לכל הגרלה בנפרד.
        <br><br>לחצו על העכבר כדי להמשיך.</p>","1","instructions","","","","","","","","","","","","","","","","","","","","","","",""
"","","","","","html-keyboard-response","3","37968","0.0-3.0","02bbfb96-af5c-4361-8c54-93ea8d3f38dc","null","
        <p>בסוף הניסוי, המחשב יבחר את אחת ההגרלות ויקבע מחיר לכרטיס עבורה. 
        <br>במידה והמחיר שבחרתם נמוך מהמחיר שנבחר על ידי המחשב, לא תשתתפו בהגרלה ותשארו עם מלוא התקציב.
        <br>במידה והמחיר שבחרתם גבוה מהמחיר שנבחר על ידי המחשב, תשלמו את המחיר שנקבע ותשתתפו בהגרלה.
        <br><br>לחצו על העכבר כדי להמשיך.</p>","1","instructions","","","","","","","","","","","","","","","","","","","","","","",""
"","","","","","html-slider-response","4","74425","0.0-4.0","02bbfb96-af5c-4361-8c54-93ea8d3f38dc","36345","
        <p style=""font-size: 42px;"">נתחיל עם דוגמא: 
        <br>ההגרלה מטה מציעה 65% סיכוי לזכות ב-₪40 
        <br>&emsp;&emsp;&emsp;&emsp;&emsp;&emsp;&emsp;&emsp;&ensp;35% סיכוי לזכות ב-₪0.
        <br><br>מה המחיר המירבי שתהיו מוכנים לשלם על כרטיס להגרלה זו בין 0 ל-₪80?
        <br>הזיזו את העכבר על פני המלבן ולחצו כדי לבצע בחירה.</p>
        
        <p style=""text-align: center;"">₪40<br>65%</p>

        <p id=""wtp"" style=""text-align:center; margin-top: 0px; margin-bottom: 0px; font-size: 40px"";>מוכנים לשלם: <span id=""c_p_y""></span></p>","20","example","8","","","","","","","","","","","","","","","","","","","","","",""
"","","","","","html-keyboard-response","5","80896","0.0-5.0","02bbfb96-af5c-4361-8c54-93ea8d3f38dc","null","<p>יפה מאוד!
                <br> בחרתם שתהיו מוכנים לשלם ₪20 כדי להשתתף בהגרלה:
                <br><p style=""text-align: center;"">₪40<br>65%</p>
                <p>נשמע נכון?
                <br>נניח שהגרלה זו נבחרה בסוף הניסוי.
                <br>כעת המחשב יקבע מחיר עבורה באקראי.
                <br>לחצו על העכבר להמשך.</p>","1","example","","","","","","","","","","","","","","","","","","","","","","",""
"","","","","","html-keyboard-response","6","93232","0.0-6.0","02bbfb96-af5c-4361-8c54-93ea8d3f38dc","null","<p>המחשב קבע מחיר: ₪77
                <br>ואתם בחרתם לשלם לכל היותר: ₪20
                <br><br>מכיוון שהמחיר שבחרתם נמוך מהמחיר שנקבע, לא תתשתתפו בהגרלה.
                <br>במקרה כזה, בסוף הניסוי תקבלו את כל התקציב ההתחלתי של ₪80.
                <br><br>לחצו על העכבר להמשך.</p>","1","example","","","","","","","","","","","","","","","","","","","","","","",""
"","","","","","html-slider-response","7","109400","0.0-7.0","02bbfb96-af5c-4361-8c54-93ea8d3f38dc","15906","<p style=""font-size: 42px;"">הנה עוד דוגמא:
                <br>ההגרלה מטה מציעה 35% סיכוי לזכות ב-₪18 
                <br>&emsp;&emsp;&emsp;&emsp;&emsp;&emsp;&emsp;&emsp;&ensp;65% סיכוי לזכות ב-₪0.</p>
        
                <p style=""text-align: center;"">₪18<br>35%</p>
                <p id=""wtp"" style=""text-align:center; margin-top: 0px; margin-bottom: 0px; font-size: 40px"";>מוכנים לשלם: <span id=""c_p_y""></span></p>","5","example","32","","","","","","","","","","","","","","","","","","","","","",""
"","","","","","html-keyboard-response","8","113984","0.0-8.0","02bbfb96-af5c-4361-8c54-93ea8d3f38dc","null","<p>הייתם מוכנים לשלם  ₪5 כדי להשתתף בהגרלה:
                <p style=""text-align: center;"">₪18<br>35%</p>
                <p>כעת נניח שהמחשב בחר את ההגרלה הזו בסוף הניסוי, וקבע עבורה מחיר.
                <br><br>לחצו על העכבר כדי להמשיך.</p>","1","instructions","","","","","","","","","","","","","","","","","","","","","","",""
"","","","","","html-keyboard-response","9","128865","0.0-9.0","02bbfb96-af5c-4361-8c54-93ea8d3f38dc","null","<p>המחשב קבע מחיר להגרלה: ₪5
                <br>ואתם בחרתם לשלם לכל היותר: ₪5
                <br><br>כעת המחיר שנקבע זהה לזה שבחרתם, אז תשלמו את המחיר שקבע המחשב (₪5) ותשתתפו בהגרלה.
                <br>במקרה כזה, תסיימו את הניסוי עם תקציב של ₪75 ועם סיכוי לזכות ב-₪18 נוספים מההגרלה.
                <br>כלומר, תוכלו לקבל ₪75 אם לא תזכו בהגרלה, או ₪93 אם תזכו בהגרלה.
                <br><br>לחצו על העכבר להמשך.</p>","1","example","","","","","","","","","","","","","","","","","","","","","","",""
"","","","","","html-keyboard-response","10","137689","0.0-10.0","02bbfb96-af5c-4361-8c54-93ea8d3f38dc","null","<p>במהלך הניסוי, קודם תראו את ההגרלה ורק לאחר מכן תוכלו לבחור.
                <p>כמו כן, יהיו לכם מספר שניות מוגבל להגיב.
                <p>בואו ננסה זאת עם ההגרלה הקודמת.
                <br>לחצו על העכבר כדי להמשיך.</p>","1","instructions","","","","","","","","","","","","","","","","","","","","","","",""
"","","","","","html-slider-response","11","138962","0.0-11.0","02bbfb96-af5c-4361-8c54-93ea8d3f38dc","1000","
                    <p style=""text-align: center;"">₪18<br>35%</p>
                    <p id=""wtp"" style=""text-align:center; margin-top: 0px; margin-bottom: 0px; font-size: 40px"";>&ensp;</p>","59","instructions","0","","","","","","","","","","","","","","","","","","","","","",""
"","","","","","html-slider-response","12","141777","0.0-12.0","02bbfb96-af5c-4361-8c54-93ea8d3f38dc","2557","
                    <p style=""text-align: center;"">₪18<br>35%</p>
                    <p id=""wtp"" style=""text-align:center; margin-top: 0px; margin-bottom: 0px; font-size: 40px"";>מוכנים לשלם: <span id=""c_p_y""></span></p>","5","instructions","61","","","","","","","","","","","","","","","","","","","","","",""
"","","","","","html-keyboard-response","13","144361","0.0-13.0","02bbfb96-af5c-4361-8c54-93ea8d3f38dc","null","<p>יפה. הפעם בחרתם לשלם לכל היותר ₪5.
                <br><br>לחצו על העכבר כדי להמשיך.</p>","1","instructions","","","","","","","","","","","","","","","","","","","","","","",""
"","","","","","html-keyboard-response","14","154385","0.0-15.0","02bbfb96-af5c-4361-8c54-93ea8d3f38dc","null","<p>כעת נתחיל את הניסוי.
                <br><br>אתם תראו הגרלות ותתבקשו לבחור כמה תהיו מוכנים לשלם כדי להשתתף בהן.
                <br>יש לכם תקציב של ₪80 עבור כל הגרלה.
                <br>בסוף הניסוי הגרלה אחת תבחר באקראי ותשוחק.
                <br><br>לחצו על העכבר כדי להתחיל את הניסוי.</p>","1","instructions","","","","","","","","","","","","","","","","","","","","","","",""
"","","","","","html-keyboard-response","15","155648","0.0-16.0","02bbfb96-af5c-4361-8c54-93ea8d3f38dc","null","<p style=""text-align: center;"">+</p>","null","fixation","","","","","","","","","","","","","","","","","","","","","","",""
"","","","","","html-slider-response","16","156662","0.0-17.0-0.0","02bbfb96-af5c-4361-8c54-93ea8d3f38dc","1000","
                  <p style=""text-align: center;"">₪36
                                                <br>70%</p>
                  <p id=""wtp"" style=""text-align:center; margin-top: 0px; margin-bottom: 0px; font-size: 40px"";>&ensp;</p>","-","viewing","0","13","3A,5C,10B","","","","","","","","","","","","","","","","","","","",""
"","","","","","html-slider-response","17","160665","0.0-17.0-1.0","02bbfb96-af5c-4361-8c54-93ea8d3f38dc","null","
                  <p style=""text-align: center;"">₪36
                                                <br>70%</p>
                  <p id=""wtp"" style=""text-align:center; margin-top: 0px; margin-bottom: 0px; font-size: 40px"";>מוכנים לשלם: <span id=""c_p_y""></span></p>","null","evaluation","0","13","3A,5C,10B","70","36","20","","","","","","","","","","","","","","","","",""
"","","","","","html-keyboard-response","18","161357","0.0-17.0-2.0","02bbfb96-af5c-4361-8c54-93ea8d3f38dc","null","<p style=""text-align: center;"">+</p>","null","fixation","","","","","","","","","","","","","","","","","","","","","","",""
"","","","","","html-slider-response","19","162361","0.0-17.0-0.1","02bbfb96-af5c-4361-8c54-93ea8d3f38dc","1000","
                  <p style=""text-align: center;"">₪36
                                                <br>60%</p>
                  <p id=""wtp"" style=""text-align:center; margin-top: 0px; margin-bottom: 0px; font-size: 40px"";>&ensp;</p>","-","viewing","0","12","1C,7C,15C","","","","","","","","","","","","","","","","","","","",""
"","","","","","html-slider-response","20","165409","0.0-17.0-1.1","02bbfb96-af5c-4361-8c54-93ea8d3f38dc","3046","
                  <p style=""text-align: center;"">₪36
                                                <br>60%</p>
                  <p id=""wtp"" style=""text-align:center; margin-top: 0px; margin-bottom: 0px; font-size: 40px"";>מוכנים לשלם: <span id=""c_p_y""></span></p>","12","evaluation","6","12","1C,7C,15C","60","36","13","","","","","","","","","","","","","","","","",""
"","","","","","html-keyboard-response","21","166045","0.0-17.0-2.1","02bbfb96-af5c-4361-8c54-93ea8d3f38dc","null","<p style=""text-align: center;"">+</p>","null","fixation","","","","","","","","","","","","","","","","","","","","","","",""
"","","","","","html-slider-response","22","167048","0.0-17.0-0.2","02bbfb96-af5c-4361-8c54-93ea8d3f38dc","1000","
                  <p style=""text-align: center;"">₪39
                                                <br>60%</p>
                  <p id=""wtp"" style=""text-align:center; margin-top: 0px; margin-bottom: 0px; font-size: 40px"";>&ensp;</p>","-","viewing","0","15","9C,25B","","","","","","","","","","","","","","","","","","","",""
"","","","","","html-slider-response","23","170305","0.0-17.0-1.2","02bbfb96-af5c-4361-8c54-93ea8d3f38dc","3255","
                  <p style=""text-align: center;"">₪39
                                                <br>60%</p>
                  <p id=""wtp"" style=""text-align:center; margin-top: 0px; margin-bottom: 0px; font-size: 40px"";>מוכנים לשלם: <span id=""c_p_y""></span></p>","14","evaluation","12","15","9C,25B","60","39","14","","","","","","","","","","","","","","","","",""
"","","","","","html-keyboard-response","24","171568","0.0-17.0-2.2","02bbfb96-af5c-4361-8c54-93ea8d3f38dc","null","<p style=""text-align: center;"">+</p>","null","fixation","","","","","","","","","","","","","","","","","","","","","","",""
"","","","","","html-slider-response","25","172570","0.0-17.0-0.3","02bbfb96-af5c-4361-8c54-93ea8d3f38dc","1000","
                  <p style=""text-align: center;"">₪18
                                                <br>25%</p>
                  <p id=""wtp"" style=""text-align:center; margin-top: 0px; margin-bottom: 0px; font-size: 40px"";>&ensp;</p>","-","viewing","0","9","14A,23A","","","","","","","","","","","","","","","","","","","",""
"","","","","","html-slider-response","26","175769","0.0-17.0-1.3","02bbfb96-af5c-4361-8c54-93ea8d3f38dc","3197","
                  <p style=""text-align: center;"">₪18
                                                <br>25%</p>
                  <p id=""wtp"" style=""text-align:center; margin-top: 0px; margin-bottom: 0px; font-size: 40px"";>מוכנים לשלם: <span id=""c_p_y""></span></p>","4","evaluation","39","9","14A,23A","25","18","4","","","","","","","","","","","","","","","","",""
"","","","","","html-keyboard-response","27","176509","0.0-17.0-2.3","02bbfb96-af5c-4361-8c54-93ea8d3f38dc","null","<p style=""text-align: center;"">+</p>","null","fixation","","","","","","","","","","","","","","","","","","","","","","",""
"","","","","","html-slider-response","28","177512","0.0-17.0-0.4","02bbfb96-af5c-4361-8c54-93ea8d3f38dc","1000","
                  <p style=""text-align: center;"">₪11
                                                <br>45%</p>
                  <p id=""wtp"" style=""text-align:center; margin-top: 0px; margin-bottom: 0px; font-size: 40px"";>&ensp;</p>","-","viewing","0","6","14B,21C,25C","","","","","","","","","","","","","","","","","","","",""
"","","","","","html-slider-response","29","179897","0.0-17.0-1.4","02bbfb96-af5c-4361-8c54-93ea8d3f38dc","2384","
                  <p style=""text-align: center;"">₪11
                                                <br>45%</p>
                  <p id=""wtp"" style=""text-align:center; margin-top: 0px; margin-bottom: 0px; font-size: 40px"";>מוכנים לשלם: <span id=""c_p_y""></span></p>","4","evaluation","61","6","14B,21C,25C","45","11","4","","","","","","","","","","","","","","","","",""
"","","","","","html-keyboard-response","30","180561","0.0-17.0-2.4","02bbfb96-af5c-4361-8c54-93ea8d3f38dc","null","<p style=""text-align: center;"">+</p>","null","fixation","","","","","","","","","","","","","","","","","","","","","","",""
"","","","","","html-slider-response","31","181566","0.0-17.0-0.5","02bbfb96-af5c-4361-8c54-93ea8d3f38dc","1000","
                  <p style=""text-align: center;"">₪58
                                                <br>40%</p>
                  <p id=""wtp"" style=""text-align:center; margin-top: 0px; margin-bottom: 0px; font-size: 40px"";>&ensp;</p>","-","viewing","0","20","10C,13A,19C,21B","","","","","","","","","","","","","","","","","","","",""
"","","","","","html-slider-response","32","185580","0.0-17.0-1.5","02bbfb96-af5c-4361-8c54-93ea8d3f38dc","null","
                  <p style=""text-align: center;"">₪58
                                                <br>40%</p>
                  <p id=""wtp"" style=""text-align:center; margin-top: 0px; margin-bottom: 0px; font-size: 40px"";>מוכנים לשלם: <span id=""c_p_y""></span></p>","null","evaluation","34","20","10C,13A,19C,21B","40","58","28","","","","","","","","","","","","","","","","",""
"","","","","","html-keyboard-response","33","187028","0.0-17.0-2.5","02bbfb96-af5c-4361-8c54-93ea8d3f38dc","null","<p style=""text-align: center;"">+</p>","null","fixation","","","","","","","","","","","","","","","","","","","","","","",""
"","","","","","html-slider-response","34","188030","0.0-17.0-0.6","02bbfb96-af5c-4361-8c54-93ea8d3f38dc","1000","
                  <p style=""text-align: center;"">₪76
                                                <br>65%</p>
                  <p id=""wtp"" style=""text-align:center; margin-top: 0px; margin-bottom: 0px; font-size: 40px"";>&ensp;</p>","-","viewing","0","29","8C,19A,24B","","","","","","","","","","","","","","","","","","","",""
"","","","","","html-slider-response","35","191256","0.0-17.0-1.6","02bbfb96-af5c-4361-8c54-93ea8d3f38dc","3226","
                  <p style=""text-align: center;"">₪76
                                                <br>65%</p>
                  <p id=""wtp"" style=""text-align:center; margin-top: 0px; margin-bottom: 0px; font-size: 40px"";>מוכנים לשלם: <span id=""c_p_y""></span></p>","33","evaluation","5","29","8C,19A,24B","65","76","33","","","","","","","","","","","","","","","","",""
"","","","","","html-keyboard-response","36","192319","0.0-17.0-2.6","02bbfb96-af5c-4361-8c54-93ea8d3f38dc","null","<p style=""text-align: center;"">+</p>","null","fixation","","","","","","","","","","","","","","","","","","","","","","",""
"","","","","","html-slider-response","37","193321","0.0-17.0-0.7","02bbfb96-af5c-4361-8c54-93ea8d3f38dc","1000","
                  <p style=""text-align: center;"">₪61
                                                <br>45%</p>
                  <p id=""wtp"" style=""text-align:center; margin-top: 0px; margin-bottom: 0px; font-size: 40px"";>&ensp;</p>","-","viewing","0","22","10A,11A","","","","","","","","","","","","","","","","","","","",""
"","","","","","html-slider-response","38","196264","0.0-17.0-1.7","02bbfb96-af5c-4361-8c54-93ea8d3f38dc","2942","
                  <p style=""text-align: center;"">₪61
                                                <br>45%</p>
                  <p id=""wtp"" style=""text-align:center; margin-top: 0px; margin-bottom: 0px; font-size: 40px"";>מוכנים לשלם: <span id=""c_p_y""></span></p>","28","evaluation","63","22","10A,11A","45","61","28","","","","","","","","","","","","","","","","",""
"","","","","","html-keyboard-response","39","197687","0.0-17.0-2.7","02bbfb96-af5c-4361-8c54-93ea8d3f38dc","null","<p style=""text-align: center;"">+</p>","null","fixation","","","","","","","","","","","","","","","","","","","","","","",""
"","","","","","html-slider-response","40","198703","0.0-17.0-0.8","02bbfb96-af5c-4361-8c54-93ea8d3f38dc","1000","
                  <p style=""text-align: center;"">₪16
                                                <br>20%</p>
                  <p id=""wtp"" style=""text-align:center; margin-top: 0px; margin-bottom: 0px; font-size: 40px"";>&ensp;</p>","-","viewing","0","8","14C,17A,20C,27A","","","","","","","","","","","","","","","","","","","",""
"","","","","","html-slider-response","41","200968","0.0-17.0-1.8","02bbfb96-af5c-4361-8c54-93ea8d3f38dc","2264","
                  <p style=""text-align: center;"">₪16
                                                <br>20%</p>
                  <p id=""wtp"" style=""text-align:center; margin-top: 0px; margin-bottom: 0px; font-size: 40px"";>מוכנים לשלם: <span id=""c_p_y""></span></p>","5","evaluation","49","8","14C,17A,20C,27A","20","16","5","","","","","","","","","","","","","","","","",""
"","","","","","html-keyboard-response","42","201975","0.0-17.0-2.8","02bbfb96-af5c-4361-8c54-93ea8d3f38dc","null","<p style=""text-align: center;"">+</p>","null","fixation","","","","","","","","","","","","","","","","","","","","","","",""
"","","","","","html-slider-response","43","202988","0.0-17.0-0.9","02bbfb96-af5c-4361-8c54-93ea8d3f38dc","1000","
                  <p style=""text-align: center;"">₪71
                                                <br>75%</p>
                  <p id=""wtp"" style=""text-align:center; margin-top: 0px; margin-bottom: 0px; font-size: 40px"";>&ensp;</p>","-","viewing","0","28","8B","","","","","","","","","","","","","","","","","","","",""
"","","","","","html-slider-response","44","206990","0.0-17.0-1.9","02bbfb96-af5c-4361-8c54-93ea8d3f38dc","null","
                  <p style=""text-align: center;"">₪71
                                                <br>75%</p>
                  <p id=""wtp"" style=""text-align:center; margin-top: 0px; margin-bottom: 0px; font-size: 40px"";>מוכנים לשלם: <span id=""c_p_y""></span></p>","null","evaluation","31","28","8B","75","71","46","","","","","","","","","","","","","","","","",""
"","","","","","html-keyboard-response","45","208416","0.0-17.0-2.9","02bbfb96-af5c-4361-8c54-93ea8d3f38dc","null","<p style=""text-align: center;"">+</p>","null","fixation","","","","","","","","","","","","","","","","","","","","","","",""
"","","","","","html-slider-response","46","209419","0.0-17.0-0.10","02bbfb96-af5c-4361-8c54-93ea8d3f38dc","1000","
                  <p style=""text-align: center;"">₪11
                                                <br>25%</p>
                  <p id=""wtp"" style=""text-align:center; margin-top: 0px; margin-bottom: 0px; font-size: 40px"";>&ensp;</p>","-","viewing","0","5","12A,27B,28B,30B","","","","","","","","","","","","","","","","","","","",""
"","","","","","html-slider-response","47","211568","0.0-17.0-1.10","02bbfb96-af5c-4361-8c54-93ea8d3f38dc","2148","
                  <p style=""text-align: center;"">₪11
                                                <br>25%</p>
                  <p id=""wtp"" style=""text-align:center; margin-top: 0px; margin-bottom: 0px; font-size: 40px"";>מוכנים לשלם: <span id=""c_p_y""></span></p>","2","evaluation","60","5","12A,27B,28B,30B","25","11","2","","","","","","","","","","","","","","","","",""
"","","","","","html-keyboard-response","48","212477","0.0-17.0-2.10","02bbfb96-af5c-4361-8c54-93ea8d3f38dc","null","<p style=""text-align: center;"">+</p>","null","fixation","","","","","","","","","","","","","","","","","","","","","","",""
"","","","","","html-slider-response","49","213478","0.0-17.0-0.11","02bbfb96-af5c-4361-8c54-93ea8d3f38dc","1000","
                  <p style=""text-align: center;"">₪71
                                                <br>45%</p>
                  <p id=""wtp"" style=""text-align:center; margin-top: 0px; margin-bottom: 0px; font-size: 40px"";>&ensp;</p>","-","viewing","0","26","2B,16A","","","","","","","","","","","","","","","","","","","",""
"","","","","","html-slider-response","50","215392","0.0-17.0-1.11","02bbfb96-af5c-4361-8c54-93ea8d3f38dc","1912","
                  <p style=""text-align: center;"">₪71
                                                <br>45%</p>
                  <p id=""wtp"" style=""text-align:center; margin-top: 0px; margin-bottom: 0px; font-size: 40px"";>מוכנים לשלם: <span id=""c_p_y""></span></p>","35","evaluation","6","26","2B,16A","45","71","35","","","","","","","","","","","","","","","","",""
"","","","","","html-keyboard-response","51","216065","0.0-17.0-2.11","02bbfb96-af5c-4361-8c54-93ea8d3f38dc","null","<p style=""text-align: center;"">+</p>","null","fixation","","","","","","","","","","","","","","","","","","","","","","",""
"","","","","","html-slider-response","52","217079","0.0-17.0-0.12","02bbfb96-af5c-4361-8c54-93ea8d3f38dc","1000","
                  <p style=""text-align: center;"">₪4
                                                <br>50%</p>
                  <p id=""wtp"" style=""text-align:center; margin-top: 0px; margin-bottom: 0px; font-size: 40px"";>&ensp;</p>","-","viewing","0","2","4C,17B","","","","","","","","","","","","","","","","","","","",""
"","","","","","html-slider-response","53","219904","0.0-17.0-1.12","02bbfb96-af5c-4361-8c54-93ea8d3f38dc","2824","
                  <p style=""text-align: center;"">₪4
                                                <br>50%</p>
                  <p id=""wtp"" style=""text-align:center; margin-top: 0px; margin-bottom: 0px; font-size: 40px"";>מוכנים לשלם: <span id=""c_p_y""></span></p>","1","evaluation","61","2","4C,17B","50","4","1","","","","","","","","","","","","","","","","",""
"","","","","","html-keyboard-response","54","220632","0.0-17.0-2.12","02bbfb96-af5c-4361-8c54-93ea8d3f38dc","null","<p style=""text-align: center;"">+</p>","null","fixation","","","","","","","","","","","","","","","","","","","","","","",""
"","","","","","html-slider-response","55","221634","0.0-17.0-0.13","02bbfb96-af5c-4361-8c54-93ea8d3f38dc","1000","
                  <p style=""text-align: center;"">₪43
                                                <br>60%</p>
                  <p id=""wtp"" style=""text-align:center; margin-top: 0px; margin-bottom: 0px; font-size: 40px"";>&ensp;</p>","-","viewing","0","17","2A,7A,9A,15B","","","","","","","","","","","","","","","","","","","",""
"","","","","","html-slider-response","56","225360","0.0-17.0-1.13","02bbfb96-af5c-4361-8c54-93ea8d3f38dc","3725","
                  <p style=""text-align: center;"">₪43
                                                <br>60%</p>
                  <p id=""wtp"" style=""text-align:center; margin-top: 0px; margin-bottom: 0px; font-size: 40px"";>מוכנים לשלם: <span id=""c_p_y""></span></p>","19","evaluation","73","17","2A,7A,9A,15B","60","43","19","","","","","","","","","","","","","","","","",""
"","","","","","html-keyboard-response","57","226524","0.0-17.0-2.13","02bbfb96-af5c-4361-8c54-93ea8d3f38dc","null","<p style=""text-align: center;"">+</p>","null","fixation","","","","","","","","","","","","","","","","","","","","","","",""
"","","","","","html-slider-response","58","227527","0.0-17.0-0.14","02bbfb96-af5c-4361-8c54-93ea8d3f38dc","1000","
                  <p style=""text-align: center;"">₪11
                                                <br>75%</p>
                  <p id=""wtp"" style=""text-align:center; margin-top: 0px; margin-bottom: 0px; font-size: 40px"";>&ensp;</p>","-","viewing","0","7","6B,18B,22C,24C,29A","","","","","","","","","","","","","","","","","","","",""
"","","","","","html-slider-response","59","229400","0.0-17.0-1.14","02bbfb96-af5c-4361-8c54-93ea8d3f38dc","1871","
                  <p style=""text-align: center;"">₪11
                                                <br>75%</p>
                  <p id=""wtp"" style=""text-align:center; margin-top: 0px; margin-bottom: 0px; font-size: 40px"";>מוכנים לשלם: <span id=""c_p_y""></span></p>","6","evaluation","78","7","6B,18B,22C,24C,29A","75","11","6","","","","","","","","","","","","","","","","",""
"","","","","","html-keyboard-response","60","230390","0.0-17.0-2.14","02bbfb96-af5c-4361-8c54-93ea8d3f38dc","null","<p style=""text-align: center;"">+</p>","null","fixation","","","","","","","","","","","","","","","","","","","","","","",""
"","","","","","html-slider-response","61","231391","0.0-17.0-0.15","02bbfb96-af5c-4361-8c54-93ea8d3f38dc","1000","
                  <p style=""text-align: center;"">₪61
                                                <br>55%</p>
                  <p id=""wtp"" style=""text-align:center; margin-top: 0px; margin-bottom: 0px; font-size: 40px"";>&ensp;</p>","-","viewing","0","23","7B,26B","","","","","","","","","","","","","","","","","","","",""
"","","","","","html-slider-response","62","234360","0.0-17.0-1.15","02bbfb96-af5c-4361-8c54-93ea8d3f38dc","2967","
                  <p style=""text-align: center;"">₪61
                                                <br>55%</p>
                  <p id=""wtp"" style=""text-align:center; margin-top: 0px; margin-bottom: 0px; font-size: 40px"";>מוכנים לשלם: <span id=""c_p_y""></span></p>","29","evaluation","37","23","7B,26B","55","61","29","","","","","","","","","","","","","","","","",""
"","","","","","html-keyboard-response","63","235460","0.0-17.0-2.15","02bbfb96-af5c-4361-8c54-93ea8d3f38dc","null","<p style=""text-align: center;"">+</p>","null","fixation","","","","","","","","","","","","","","","","","","","","","","",""
"","","","","","html-slider-response","64","236467","0.0-17.0-0.16","02bbfb96-af5c-4361-8c54-93ea8d3f38dc","1000","
                  <p style=""text-align: center;"">₪4
                                                <br>75%</p>
                  <p id=""wtp"" style=""text-align:center; margin-top: 0px; margin-bottom: 0px; font-size: 40px"";>&ensp;</p>","-","viewing","0","3","12B,20B,23B,27C,29C","","","","","","","","","","","","","","","","","","","",""
"","","","","","html-slider-response","65","238528","0.0-17.0-1.16","02bbfb96-af5c-4361-8c54-93ea8d3f38dc","2060","
                  <p style=""text-align: center;"">₪4
                                                <br>75%</p>
                  <p id=""wtp"" style=""text-align:center; margin-top: 0px; margin-bottom: 0px; font-size: 40px"";>מוכנים לשלם: <span id=""c_p_y""></span></p>","1","evaluation","48","3","12B,20B,23B,27C,29C","75","4","2","","","","","","","","","","","","","","","","",""
"","","","","","html-keyboard-response","66","239721","0.0-17.0-2.16","02bbfb96-af5c-4361-8c54-93ea8d3f38dc","null","<p style=""text-align: center;"">+</p>","null","fixation","","","","","","","","","","","","","","","","","","","","","","",""
"","","","","","html-slider-response","67","240726","0.0-17.0-0.17","02bbfb96-af5c-4361-8c54-93ea8d3f38dc","1000","
                  <p style=""text-align: center;"">₪58
                                                <br>30%</p>
                  <p id=""wtp"" style=""text-align:center; margin-top: 0px; margin-bottom: 0px; font-size: 40px"";>&ensp;</p>","-","viewing","0","19","13C,30A","","","","","","","","","","","","","","","","","","","",""
"","","","","","html-slider-response","68","244032","0.0-17.0-1.17","02bbfb96-af5c-4361-8c54-93ea8d3f38dc","3305","
                  <p style=""text-align: center;"">₪58
                                                <br>30%</p>
                  <p id=""wtp"" style=""text-align:center; margin-top: 0px; margin-bottom: 0px; font-size: 40px"";>מוכנים לשלם: <span id=""c_p_y""></span></p>","17","evaluation","5","19","13C,30A","30","58","17","","","","","","","","","","","","","","","","",""
"","","","","","html-keyboard-response","69","244805","0.0-17.0-2.17","02bbfb96-af5c-4361-8c54-93ea8d3f38dc","null","<p style=""text-align: center;"">+</p>","null","fixation","","","","","","","","","","","","","","","","","","","","","","",""
"","","","","","html-slider-response","70","245807","0.0-17.0-0.18","02bbfb96-af5c-4361-8c54-93ea8d3f38dc","1000","
                  <p style=""text-align: center;"">₪58
                                                <br>45%</p>
                  <p id=""wtp"" style=""text-align:center; margin-top: 0px; margin-bottom: 0px; font-size: 40px"";>&ensp;</p>","-","viewing","0","21","11C,18C,25A","","","","","","","","","","","","","","","","","","","",""
"","","","","","html-slider-response","71","248921","0.0-17.0-1.18","02bbfb96-af5c-4361-8c54-93ea8d3f38dc","3112","
                  <p style=""text-align: center;"">₪58
                                                <br>45%</p>
                  <p id=""wtp"" style=""text-align:center; margin-top: 0px; margin-bottom: 0px; font-size: 40px"";>מוכנים לשלם: <span id=""c_p_y""></span></p>","20","evaluation","48","21","11C,18C,25A","45","58","20","","","","","","","","","","","","","","","","",""
"","","","","","html-keyboard-response","72","250361","0.0-17.0-2.18","02bbfb96-af5c-4361-8c54-93ea8d3f38dc","null","<p style=""text-align: center;"">+</p>","null","fixation","","","","","","","","","","","","","","","","","","","","","","",""
"","","","","","html-slider-response","73","251378","0.0-17.0-0.19","02bbfb96-af5c-4361-8c54-93ea8d3f38dc","1000","
                  <p style=""text-align: center;"">₪64
                                                <br>50%</p>
                  <p id=""wtp"" style=""text-align:center; margin-top: 0px; margin-bottom: 0px; font-size: 40px"";>&ensp;</p>","-","viewing","0","25","1B,3B,4A","","","","","","","","","","","","","","","","","","","",""
"","","","","","html-slider-response","74","253993","0.0-17.0-1.19","02bbfb96-af5c-4361-8c54-93ea8d3f38dc","2613","
                  <p style=""text-align: center;"">₪64
                                                <br>50%</p>
                  <p id=""wtp"" style=""text-align:center; margin-top: 0px; margin-bottom: 0px; font-size: 40px"";>מוכנים לשלם: <span id=""c_p_y""></span></p>","29","evaluation","4","25","1B,3B,4A","50","64","29","","","","","","","","","","","","","","","","",""
"","","","","","html-keyboard-response","75","254585","0.0-17.0-2.19","02bbfb96-af5c-4361-8c54-93ea8d3f38dc","null","<p style=""text-align: center;"">+</p>","null","fixation","","","","","","","","","","","","","","","","","","","","","","",""
"","","","","","html-slider-response","76","255601","0.0-17.0-0.20","02bbfb96-af5c-4361-8c54-93ea8d3f38dc","1000","
                  <p style=""text-align: center;"">₪43
                                                <br>75%</p>
                  <p id=""wtp"" style=""text-align:center; margin-top: 0px; margin-bottom: 0px; font-size: 40px"";>&ensp;</p>","-","viewing","0","18","11B,19B,24A,26A","","","","","","","","","","","","","","","","","","","",""
"","","","","","html-slider-response","77","259257","0.0-17.0-1.20","02bbfb96-af5c-4361-8c54-93ea8d3f38dc","3654","
                  <p style=""text-align: center;"">₪43
                                                <br>75%</p>
                  <p id=""wtp"" style=""text-align:center; margin-top: 0px; margin-bottom: 0px; font-size: 40px"";>מוכנים לשלם: <span id=""c_p_y""></span></p>","46","evaluation","25","18","11B,19B,24A,26A","75","43","46","","","","","","","","","","","","","","","","",""
"","","","","","html-keyboard-response","78","260068","0.0-17.0-2.20","02bbfb96-af5c-4361-8c54-93ea8d3f38dc","null","<p style=""text-align: center;"">+</p>","null","fixation","","","","","","","","","","","","","","","","","","","","","","",""
"","","","","","html-slider-response","79","261076","0.0-17.0-0.21","02bbfb96-af5c-4361-8c54-93ea8d3f38dc","1000","
                  <p style=""text-align: center;"">₪71
                                                <br>55%</p>
                  <p id=""wtp"" style=""text-align:center; margin-top: 0px; margin-bottom: 0px; font-size: 40px"";>&ensp;</p>","-","viewing","0","27","5B,18A","","","","","","","","","","","","","","","","","","","",""
"","","","","","html-slider-response","80","264713","0.0-17.0-1.21","02bbfb96-af5c-4361-8c54-93ea8d3f38dc","3636","
                  <p style=""text-align: center;"">₪71
                                                <br>55%</p>
                  <p id=""wtp"" style=""text-align:center; margin-top: 0px; margin-bottom: 0px; font-size: 40px"";>מוכנים לשלם: <span id=""c_p_y""></span></p>","30","evaluation","48","27","5B,18A","55","71","30","","","","","","","","","","","","","","","","",""
"","","","","","html-keyboard-response","81","265438","0.0-17.0-2.21","02bbfb96-af5c-4361-8c54-93ea8d3f38dc","null","<p style=""text-align: center;"">+</p>","null","fixation","","","","","","","","","","","","","","","","","","","","","","",""
"","","","","","html-slider-response","82","266454","0.0-17.0-0.22","02bbfb96-af5c-4361-8c54-93ea8d3f38dc","1000","
                  <p style=""text-align: center;"">₪79
                                                <br>65%</p>
                  <p id=""wtp"" style=""text-align:center; margin-top: 0px; margin-bottom: 0px; font-size: 40px"";>&ensp;</p>","-","viewing","0","31","8A","","","","","","","","","","","","","","","","","","","",""
"","","","","","html-slider-response","83","270456","0.0-17.0-1.22","02bbfb96-af5c-4361-8c54-93ea8d3f38dc","null","
                  <p style=""text-align: center;"">₪79
                                                <br>65%</p>
                  <p id=""wtp"" style=""text-align:center; margin-top: 0px; margin-bottom: 0px; font-size: 40px"";>מוכנים לשלם: <span id=""c_p_y""></span></p>","null","evaluation","6","31","8A","65","79","29","","","","","","","","","","","","","","","","",""
"","","","","","html-keyboard-response","84","271194","0.0-17.0-2.22","02bbfb96-af5c-4361-8c54-93ea8d3f38dc","null","<p style=""text-align: center;"">+</p>","null","fixation","","","","","","","","","","","","","","","","","","","","","","",""
"","","","","","html-slider-response","85","272199","0.0-17.0-0.23","02bbfb96-af5c-4361-8c54-93ea8d3f38dc","1000","
                  <p style=""text-align: center;"">₪79
                                                <br>40%</p>
                  <p id=""wtp"" style=""text-align:center; margin-top: 0px; margin-bottom: 0px; font-size: 40px"";>&ensp;</p>","-","viewing","0","30","9B","","","","","","","","","","","","","","","","","","","",""
"","","","","","html-slider-response","86","274625","0.0-17.0-1.23","02bbfb96-af5c-4361-8c54-93ea8d3f38dc","2424","
                  <p style=""text-align: center;"">₪79
                                                <br>40%</p>
                  <p id=""wtp"" style=""text-align:center; margin-top: 0px; margin-bottom: 0px; font-size: 40px"";>מוכנים לשלם: <span id=""c_p_y""></span></p>","30","evaluation","33","30","9B","40","79","30","","","","","","","","","","","","","","","","",""
"","","","","","html-keyboard-response","87","275760","0.0-17.0-2.23","02bbfb96-af5c-4361-8c54-93ea8d3f38dc","null","<p style=""text-align: center;"">+</p>","null","fixation","","","","","","","","","","","","","","","","","","","","","","",""
"","","","","","html-slider-response","88","276762","0.0-17.0-0.24","02bbfb96-af5c-4361-8c54-93ea8d3f38dc","1000","
                  <p style=""text-align: center;"">₪36
                                                <br>75%</p>
                  <p id=""wtp"" style=""text-align:center; margin-top: 0px; margin-bottom: 0px; font-size: 40px"";>&ensp;</p>","-","viewing","0","14","4B,5A,13B,16B","","","","","","","","","","","","","","","","","","","",""
"","","","","","html-slider-response","89","279801","0.0-17.0-1.24","02bbfb96-af5c-4361-8c54-93ea8d3f38dc","3037","
                  <p style=""text-align: center;"">₪36
                                                <br>75%</p>
                  <p id=""wtp"" style=""text-align:center; margin-top: 0px; margin-bottom: 0px; font-size: 40px"";>מוכנים לשלם: <span id=""c_p_y""></span></p>","13","evaluation","35","14","4B,5A,13B,16B","75","36","13","","","","","","","","","","","","","","","","",""
"","","","","","html-keyboard-response","90","280676","0.0-17.0-2.24","02bbfb96-af5c-4361-8c54-93ea8d3f38dc","null","<p style=""text-align: center;"">+</p>","null","fixation","","","","","","","","","","","","","","","","","","","","","","",""
"","","","","","html-slider-response","91","281684","0.0-17.0-0.25","02bbfb96-af5c-4361-8c54-93ea8d3f38dc","1000","
                  <p style=""text-align: center;"">₪39
                                                <br>65%</p>
                  <p id=""wtp"" style=""text-align:center; margin-top: 0px; margin-bottom: 0px; font-size: 40px"";>&ensp;</p>","-","viewing","0","16","1A,15A,26C","","","","","","","","","","","","","","","","","","","",""
"","","","","","html-slider-response","92","285697","0.0-17.0-1.25","02bbfb96-af5c-4361-8c54-93ea8d3f38dc","null","
                  <p style=""text-align: center;"">₪39
                                                <br>65%</p>
                  <p id=""wtp"" style=""text-align:center; margin-top: 0px; margin-bottom: 0px; font-size: 40px"";>מוכנים לשלם: <span id=""c_p_y""></span></p>","null","evaluation","46","16","1A,15A,26C","65","39","25","","","","","","","","","","","","","","","","",""
"","","","","","html-keyboard-response","93","287086","0.0-17.0-2.25","02bbfb96-af5c-4361-8c54-93ea8d3f38dc","null","<p style=""text-align: center;"">+</p>","null","fixation","","","","","","","","","","","","","","","","","","","","","","",""
"","","","","","html-slider-response","94","288093","0.0-17.0-0.26","02bbfb96-af5c-4361-8c54-93ea8d3f38dc","1000","
                  <p style=""text-align: center;"">₪18
                                                <br>50%</p>
                  <p id=""wtp"" style=""text-align:center; margin-top: 0px; margin-bottom: 0px; font-size: 40px"";>&ensp;</p>","-","viewing","0","10","2C,16C,22B,28A","","","","","","","","","","","","","","","","","","","",""
"","","","","","html-slider-response","95","289825","0.0-17.0-1.26","02bbfb96-af5c-4361-8c54-93ea8d3f38dc","1731","
                  <p style=""text-align: center;"">₪18
                                                <br>50%</p>
                  <p id=""wtp"" style=""text-align:center; margin-top: 0px; margin-bottom: 0px; font-size: 40px"";>מוכנים לשלם: <span id=""c_p_y""></span></p>","6","evaluation","22","10","2C,16C,22B,28A","50","18","6","","","","","","","","","","","","","","","","",""
"","","","","","html-keyboard-response","96","290422","0.0-17.0-2.26","02bbfb96-af5c-4361-8c54-93ea8d3f38dc","null","<p style=""text-align: center;"">+</p>","null","fixation","","","","","","","","","","","","","","","","","","","","","","",""
"","","","","","html-slider-response","97","291424","0.0-17.0-0.27","02bbfb96-af5c-4361-8c54-93ea8d3f38dc","1000","
                  <p style=""text-align: center;"">₪11
                                                <br>20%</p>
                  <p id=""wtp"" style=""text-align:center; margin-top: 0px; margin-bottom: 0px; font-size: 40px"";>&ensp;</p>","-","viewing","0","4","12C,17C,23C,28C","","","","","","","","","","","","","","","","","","","",""
"","","","","","html-slider-response","98","293345","0.0-17.0-1.27","02bbfb96-af5c-4361-8c54-93ea8d3f38dc","1920","
                  <p style=""text-align: center;"">₪11
                                                <br>20%</p>
                  <p id=""wtp"" style=""text-align:center; margin-top: 0px; margin-bottom: 0px; font-size: 40px"";>מוכנים לשלם: <span id=""c_p_y""></span></p>","0","evaluation","12","4","12C,17C,23C,28C","20","11","1","","","","","","","","","","","","","","","","",""
"","","","","","html-keyboard-response","99","294307","0.0-17.0-2.27","02bbfb96-af5c-4361-8c54-93ea8d3f38dc","null","<p style=""text-align: center;"">+</p>","null","fixation","","","","","","","","","","","","","","","","","","","","","","",""
"","","","","","html-slider-response","100","295314","0.0-17.0-0.28","02bbfb96-af5c-4361-8c54-93ea8d3f38dc","1000","
                  <p style=""text-align: center;"">₪36
                                                <br>30%</p>
                  <p id=""wtp"" style=""text-align:center; margin-top: 0px; margin-bottom: 0px; font-size: 40px"";>&ensp;</p>","-","viewing","0","11","3C,20A,22A","","","","","","","","","","","","","","","","","","","",""
"","","","","","html-slider-response","101","299321","0.0-17.0-1.28","02bbfb96-af5c-4361-8c54-93ea8d3f38dc","null","
                  <p style=""text-align: center;"">₪36
                                                <br>30%</p>
                  <p id=""wtp"" style=""text-align:center; margin-top: 0px; margin-bottom: 0px; font-size: 40px"";>מוכנים לשלם: <span id=""c_p_y""></span></p>","null","evaluation","67","11","3C,20A,22A","30","36","18","","","","","","","","","","","","","","","","",""
"","","","","","html-keyboard-response","102","299951","0.0-17.0-2.28","02bbfb96-af5c-4361-8c54-93ea8d3f38dc","null","<p style=""text-align: center;"">+</p>","null","fixation","","","","","","","","","","","","","","","","","","","","","","",""
"","","","","","html-slider-response","103","300953","0.0-17.0-0.29","02bbfb96-af5c-4361-8c54-93ea8d3f38dc","1000","
                  <p style=""text-align: center;"">₪64
                                                <br>25%</p>
                  <p id=""wtp"" style=""text-align:center; margin-top: 0px; margin-bottom: 0px; font-size: 40px"";>&ensp;</p>","-","viewing","0","24","6A,21A","","","","","","","","","","","","","","","","","","","",""
"","","","","","html-slider-response","104","302521","0.0-17.0-1.29","02bbfb96-af5c-4361-8c54-93ea8d3f38dc","1567","
                  <p style=""text-align: center;"">₪64
                                                <br>25%</p>
                  <p id=""wtp"" style=""text-align:center; margin-top: 0px; margin-bottom: 0px; font-size: 40px"";>מוכנים לשלם: <span id=""c_p_y""></span></p>","26","evaluation","28","24","6A,21A","25","64","26","","","","","","","","","","","","","","","","",""
"","","","","","html-keyboard-response","105","303191","0.0-17.0-2.29","02bbfb96-af5c-4361-8c54-93ea8d3f38dc","null","<p style=""text-align: center;"">+</p>","null","fixation","","","","","","","","","","","","","","","","","","","","","","",""
"","","","","","html-slider-response","106","304202","0.0-17.0-0.30","02bbfb96-af5c-4361-8c54-93ea8d3f38dc","1000","
                  <p style=""text-align: center;"">₪4
                                                <br>25%</p>
                  <p id=""wtp"" style=""text-align:center; margin-top: 0px; margin-bottom: 0px; font-size: 40px"";>&ensp;</p>","-","viewing","0","1","6C,29B,30C","","","","","","","","","","","","","","","","","","","",""
"","","","","","html-slider-response","107","305417","0.0-17.0-1.30","02bbfb96-af5c-4361-8c54-93ea8d3f38dc","1214","
                  <p style=""text-align: center;"">₪4
                                                <br>25%</p>
                  <p id=""wtp"" style=""text-align:center; margin-top: 0px; margin-bottom: 0px; font-size: 40px"";>מוכנים לשלם: <span id=""c_p_y""></span></p>","0","evaluation","70","1","6C,29B,30C","25","4","0","","","","","","","","","","","","","","","","",""
"","","","","","html-keyboard-response","108","305923","0.0-17.0-2.30","02bbfb96-af5c-4361-8c54-93ea8d3f38dc","null","<p style=""text-align: center;"">+</p>","null","fixation","","","","","","","","","","","","","","","","","","","","","","",""
"","","","","","html-keyboard-response","109","306939","0.0-18.0","02bbfb96-af5c-4361-8c54-93ea8d3f38dc","null","<p style=""text-align: center;"">+</p>","null","fixation","","","","","","","","","","","","","","","","","","","","","","",""
"","","","","","html-keyboard-response","110","320497","0.0-19.0","02bbfb96-af5c-4361-8c54-93ea8d3f38dc","null","<p>הפסקה.
          <br>לחצו כדי להמשיך.</p>","1","scan_wait","","","","","","","","","","","","","","","","","","","","","","",""
"","","","","","html-keyboard-response","111","321500","0.0-20.0","02bbfb96-af5c-4361-8c54-93ea8d3f38dc","null","<p style=""text-align: center;"">+</p>","null","fixation","","","","","","","","","","","","","","","","","","","","","","",""
"","","","","","html-slider-response","112","322514","0.0-21.0-0.0","02bbfb96-af5c-4361-8c54-93ea8d3f38dc","1000","
                  <p style=""text-align: center;"">₪4
                                                <br>25%</p>
                  <p id=""wtp"" style=""text-align:center; margin-top: 0px; margin-bottom: 0px; font-size: 40px"";>&ensp;</p>","-","viewing","0","1","6C,29B,30C","","","","","","","","","","","","","","","","","","","",""
"","","","","","html-slider-response","113","324129","0.0-21.0-1.0","02bbfb96-af5c-4361-8c54-93ea8d3f38dc","1614","
                  <p style=""text-align: center;"">₪4
                                                <br>25%</p>
                  <p id=""wtp"" style=""text-align:center; margin-top: 0px; margin-bottom: 0px; font-size: 40px"";>מוכנים לשלם: <span id=""c_p_y""></span></p>","0","evaluation","44","1","6C,29B,30C","25","4","0","","","","","","","","","","","","","","","","",""
"","","","","","html-keyboard-response","114","324797","0.0-21.0-2.0","02bbfb96-af5c-4361-8c54-93ea8d3f38dc","null","<p style=""text-align: center;"">+</p>","null","fixation","","","","","","","","","","","","","","","","","","","","","","",""
"","","","","","html-slider-response","115","325800","0.0-21.0-0.1","02bbfb96-af5c-4361-8c54-93ea8d3f38dc","1000","
                  <p style=""text-align: center;"">₪43
                                                <br>60%</p>
                  <p id=""wtp"" style=""text-align:center; margin-top: 0px; margin-bottom: 0px; font-size: 40px"";>&ensp;</p>","-","viewing","0","17","2A,7A,9A,15B","","","","","","","","","","","","","","","","","","","",""
"","","","","","html-slider-response","116","329801","0.0-21.0-1.1","02bbfb96-af5c-4361-8c54-93ea8d3f38dc","null","
                  <p style=""text-align: center;"">₪43
                                                <br>60%</p>
                  <p id=""wtp"" style=""text-align:center; margin-top: 0px; margin-bottom: 0px; font-size: 40px"";>מוכנים לשלם: <span id=""c_p_y""></span></p>","null","evaluation","34","17","2A,7A,9A,15B","60","43","21","","","","","","","","","","","","","","","","",""
"","","","","","html-keyboard-response","117","330469","0.0-21.0-2.1","02bbfb96-af5c-4361-8c54-93ea8d3f38dc","null","<p style=""text-align: center;"">+</p>","null","fixation","","","","","","","","","","","","","","","","","","","","","","",""
"","","","","","html-slider-response","118","331472","0.0-21.0-0.2","02bbfb96-af5c-4361-8c54-93ea8d3f38dc","1000","
                  <p style=""text-align: center;"">₪11
                                                <br>20%</p>
                  <p id=""wtp"" style=""text-align:center; margin-top: 0px; margin-bottom: 0px; font-size: 40px"";>&ensp;</p>","-","viewing","0","4","12C,17C,23C,28C","","","","","","","","","","","","","","","","","","","",""
"","","","","","html-slider-response","119","332745","0.0-21.0-1.2","02bbfb96-af5c-4361-8c54-93ea8d3f38dc","1272","
                  <p style=""text-align: center;"">₪11
                                                <br>20%</p>
                  <p id=""wtp"" style=""text-align:center; margin-top: 0px; margin-bottom: 0px; font-size: 40px"";>מוכנים לשלם: <span id=""c_p_y""></span></p>","2","evaluation","38","4","12C,17C,23C,28C","20","11","2","","","","","","","","","","","","","","","","",""
"","","","","","html-keyboard-response","120","333319","0.0-21.0-2.2","02bbfb96-af5c-4361-8c54-93ea8d3f38dc","null","<p style=""text-align: center;"">+</p>","null","fixation","","","","","","","","","","","","","","","","","","","","","","",""
"","","","","","html-slider-response","121","334321","0.0-21.0-0.3","02bbfb96-af5c-4361-8c54-93ea8d3f38dc","1000","
                  <p style=""text-align: center;"">₪18
                                                <br>25%</p>
                  <p id=""wtp"" style=""text-align:center; margin-top: 0px; margin-bottom: 0px; font-size: 40px"";>&ensp;</p>","-","viewing","0","9","14A,23A","","","","","","","","","","","","","","","","","","","",""
"","","","","","html-slider-response","122","336937","0.0-21.0-1.3","02bbfb96-af5c-4361-8c54-93ea8d3f38dc","2614","
                  <p style=""text-align: center;"">₪18
                                                <br>25%</p>
                  <p id=""wtp"" style=""text-align:center; margin-top: 0px; margin-bottom: 0px; font-size: 40px"";>מוכנים לשלם: <span id=""c_p_y""></span></p>","5","evaluation","6","9","14A,23A","25","18","5","","","","","","","","","","","","","","","","",""
"","","","","","html-keyboard-response","123","337913","0.0-21.0-2.3","02bbfb96-af5c-4361-8c54-93ea8d3f38dc","null","<p style=""text-align: center;"">+</p>","null","fixation","","","","","","","","","","","","","","","","","","","","","","",""
"","","","","","html-slider-response","124","338929","0.0-21.0-0.4","02bbfb96-af5c-4361-8c54-93ea8d3f38dc","1000","
                  <p style=""text-align: center;"">₪79
                                                <br>40%</p>
                  <p id=""wtp"" style=""text-align:center; margin-top: 0px; margin-bottom: 0px; font-size: 40px"";>&ensp;</p>","-","viewing","0","30","9B","","","","","","","","","","","","","","","","","","","",""
"","","","","","html-slider-response","125","342937","0.0-21.0-1.4","02bbfb96-af5c-4361-8c54-93ea8d3f38dc","null","
                  <p style=""text-align: center;"">₪79
                                                <br>40%</p>
                  <p id=""wtp"" style=""text-align:center; margin-top: 0px; margin-bottom: 0px; font-size: 40px"";>מוכנים לשלם: <span id=""c_p_y""></span></p>","null","evaluation","56","30","9B","40","79","40","","","","","","","","","","","","","","","","",""
"","","","","","html-keyboard-response","126","343990","0.0-21.0-2.4","02bbfb96-af5c-4361-8c54-93ea8d3f38dc","null","<p style=""text-align: center;"">+</p>","null","fixation","","","","","","","","","","","","","","","","","","","","","","",""
"","","","","","html-slider-response","127","344993","0.0-21.0-0.5","02bbfb96-af5c-4361-8c54-93ea8d3f38dc","1000","
                  <p style=""text-align: center;"">₪36
                                                <br>60%</p>
                  <p id=""wtp"" style=""text-align:center; margin-top: 0px; margin-bottom: 0px; font-size: 40px"";>&ensp;</p>","-","viewing","0","12","1C,7C,15C","","","","","","","","","","","","","","","","","","","",""
"","","","","","html-slider-response","128","347025","0.0-21.0-1.5","02bbfb96-af5c-4361-8c54-93ea8d3f38dc","2031","
                  <p style=""text-align: center;"">₪36
                                                <br>60%</p>
                  <p id=""wtp"" style=""text-align:center; margin-top: 0px; margin-bottom: 0px; font-size: 40px"";>מוכנים לשלם: <span id=""c_p_y""></span></p>","25","evaluation","57","12","1C,7C,15C","60","36","25","","","","","","","","","","","","","","","","",""
"","","","","","html-keyboard-response","129","348456","0.0-21.0-2.5","02bbfb96-af5c-4361-8c54-93ea8d3f38dc","null","<p style=""text-align: center;"">+</p>","null","fixation","","","","","","","","","","","","","","","","","","","","","","",""
"","","","","","html-slider-response","130","349471","0.0-21.0-0.6","02bbfb96-af5c-4361-8c54-93ea8d3f38dc","1000","
                  <p style=""text-align: center;"">₪71
                                                <br>55%</p>
                  <p id=""wtp"" style=""text-align:center; margin-top: 0px; margin-bottom: 0px; font-size: 40px"";>&ensp;</p>","-","viewing","0","27","5B,18A","","","","","","","","","","","","","","","","","","","",""
"","","","","","html-slider-response","131","352169","0.0-21.0-1.6","02bbfb96-af5c-4361-8c54-93ea8d3f38dc","2696","
                  <p style=""text-align: center;"">₪71
                                                <br>55%</p>
                  <p id=""wtp"" style=""text-align:center; margin-top: 0px; margin-bottom: 0px; font-size: 40px"";>מוכנים לשלם: <span id=""c_p_y""></span></p>","30","evaluation","36","27","5B,18A","55","71","30","","","","","","","","","","","","","","","","",""
"","","","","","html-keyboard-response","132","352987","0.0-21.0-2.6","02bbfb96-af5c-4361-8c54-93ea8d3f38dc","null","<p style=""text-align: center;"">+</p>","null","fixation","","","","","","","","","","","","","","","","","","","","","","",""
"","","","","","html-slider-response","133","353989","0.0-21.0-0.7","02bbfb96-af5c-4361-8c54-93ea8d3f38dc","1000","
                  <p style=""text-align: center;"">₪64
                                                <br>50%</p>
                  <p id=""wtp"" style=""text-align:center; margin-top: 0px; margin-bottom: 0px; font-size: 40px"";>&ensp;</p>","-","viewing","0","25","1B,3B,4A","","","","","","","","","","","","","","","","","","","",""
"","","","","","html-slider-response","134","356457","0.0-21.0-1.7","02bbfb96-af5c-4361-8c54-93ea8d3f38dc","2466","
                  <p style=""text-align: center;"">₪64
                                                <br>50%</p>
                  <p id=""wtp"" style=""text-align:center; margin-top: 0px; margin-bottom: 0px; font-size: 40px"";>מוכנים לשלם: <span id=""c_p_y""></span></p>","28","evaluation","33","25","1B,3B,4A","50","64","28","","","","","","","","","","","","","","","","",""
"","","","","","html-keyboard-response","135","357513","0.0-21.0-2.7","02bbfb96-af5c-4361-8c54-93ea8d3f38dc","null","<p style=""text-align: center;"">+</p>","null","fixation","","","","","","","","","","","","","","","","","","","","","","",""
"","","","","","html-slider-response","136","358515","0.0-21.0-0.8","02bbfb96-af5c-4361-8c54-93ea8d3f38dc","1000","
                  <p style=""text-align: center;"">₪76
                                                <br>65%</p>
                  <p id=""wtp"" style=""text-align:center; margin-top: 0px; margin-bottom: 0px; font-size: 40px"";>&ensp;</p>","-","viewing","0","29","8C,19A,24B","","","","","","","","","","","","","","","","","","","",""
"","","","","","html-slider-response","137","361881","0.0-21.0-1.8","02bbfb96-af5c-4361-8c54-93ea8d3f38dc","3366","
                  <p style=""text-align: center;"">₪76
                                                <br>65%</p>
                  <p id=""wtp"" style=""text-align:center; margin-top: 0px; margin-bottom: 0px; font-size: 40px"";>מוכנים לשלם: <span id=""c_p_y""></span></p>","35","evaluation","25","29","8C,19A,24B","65","76","35","","","","","","","","","","","","","","","","",""
"","","","","","html-keyboard-response","138","363133","0.0-21.0-2.8","02bbfb96-af5c-4361-8c54-93ea8d3f38dc","null","<p style=""text-align: center;"">+</p>","null","fixation","","","","","","","","","","","","","","","","","","","","","","",""
"","","","","","html-slider-response","139","364150","0.0-21.0-0.9","02bbfb96-af5c-4361-8c54-93ea8d3f38dc","1000","
                  <p style=""text-align: center;"">₪16
                                                <br>20%</p>
                  <p id=""wtp"" style=""text-align:center; margin-top: 0px; margin-bottom: 0px; font-size: 40px"";>&ensp;</p>","-","viewing","0","8","14C,17A,20C,27A","","","","","","","","","","","","","","","","","","","",""
"","","","","","html-slider-response","140","365969","0.0-21.0-1.9","02bbfb96-af5c-4361-8c54-93ea8d3f38dc","1817","
                  <p style=""text-align: center;"">₪16
                                                <br>20%</p>
                  <p id=""wtp"" style=""text-align:center; margin-top: 0px; margin-bottom: 0px; font-size: 40px"";>מוכנים לשלם: <span id=""c_p_y""></span></p>","2","evaluation","54","8","14C,17A,20C,27A","20","16","2","","","","","","","","","","","","","","","","",""
"","","","","","html-keyboard-response","141","367022","0.0-21.0-2.9","02bbfb96-af5c-4361-8c54-93ea8d3f38dc","null","<p style=""text-align: center;"">+</p>","null","fixation","","","","","","","","","","","","","","","","","","","","","","",""
"","","","","","html-slider-response","142","368036","0.0-21.0-0.10","02bbfb96-af5c-4361-8c54-93ea8d3f38dc","1000","
                  <p style=""text-align: center;"">₪58
                                                <br>40%</p>
                  <p id=""wtp"" style=""text-align:center; margin-top: 0px; margin-bottom: 0px; font-size: 40px"";>&ensp;</p>","-","viewing","0","20","10C,13A,19C,21B","","","","","","","","","","","","","","","","","","","",""
"","","","","","html-slider-response","143","371209","0.0-21.0-1.10","02bbfb96-af5c-4361-8c54-93ea8d3f38dc","3172","
                  <p style=""text-align: center;"">₪58
                                                <br>40%</p>
                  <p id=""wtp"" style=""text-align:center; margin-top: 0px; margin-bottom: 0px; font-size: 40px"";>מוכנים לשלם: <span id=""c_p_y""></span></p>","23","evaluation","55","20","10C,13A,19C,21B","40","58","23","","","","","","","","","","","","","","","","",""
"","","","","","html-keyboard-response","144","372511","0.0-21.0-2.10","02bbfb96-af5c-4361-8c54-93ea8d3f38dc","null","<p style=""text-align: center;"">+</p>","null","fixation","","","","","","","","","","","","","","","","","","","","","","",""
"","","","","","html-slider-response","145","373527","0.0-21.0-0.11","02bbfb96-af5c-4361-8c54-93ea8d3f38dc","1000","
                  <p style=""text-align: center;"">₪11
                                                <br>75%</p>
                  <p id=""wtp"" style=""text-align:center; margin-top: 0px; margin-bottom: 0px; font-size: 40px"";>&ensp;</p>","-","viewing","0","7","6B,18B,22C,24C,29A","","","","","","","","","","","","","","","","","","","",""
"","","","","","html-slider-response","146","375761","0.0-21.0-1.11","02bbfb96-af5c-4361-8c54-93ea8d3f38dc","2231","
                  <p style=""text-align: center;"">₪11
                                                <br>75%</p>
                  <p id=""wtp"" style=""text-align:center; margin-top: 0px; margin-bottom: 0px; font-size: 40px"";>מוכנים לשלם: <span id=""c_p_y""></span></p>","7","evaluation","11","7","6B,18B,22C,24C,29A","75","11","7","","","","","","","","","","","","","","","","",""
"","","","","","html-keyboard-response","147","376639","0.0-21.0-2.11","02bbfb96-af5c-4361-8c54-93ea8d3f38dc","null","<p style=""text-align: center;"">+</p>","null","fixation","","","","","","","","","","","","","","","","","","","","","","",""
"","","","","","html-slider-response","148","377641","0.0-21.0-0.12","02bbfb96-af5c-4361-8c54-93ea8d3f38dc","1000","
                  <p style=""text-align: center;"">₪58
                                                <br>45%</p>
                  <p id=""wtp"" style=""text-align:center; margin-top: 0px; margin-bottom: 0px; font-size: 40px"";>&ensp;</p>","-","viewing","0","21","11C,18C,25A","","","","","","","","","","","","","","","","","","","",""
"","","","","","html-slider-response","149","381369","0.0-21.0-1.12","02bbfb96-af5c-4361-8c54-93ea8d3f38dc","3727","
                  <p style=""text-align: center;"">₪58
                                                <br>45%</p>
                  <p id=""wtp"" style=""text-align:center; margin-top: 0px; margin-bottom: 0px; font-size: 40px"";>מוכנים לשלם: <span id=""c_p_y""></span></p>","28","evaluation","18","21","11C,18C,25A","45","58","28","","","","","","","","","","","","","","","","",""
"","","","","","html-keyboard-response","150","382380","0.0-21.0-2.12","02bbfb96-af5c-4361-8c54-93ea8d3f38dc","null","<p style=""text-align: center;"">+</p>","null","fixation","","","","","","","","","","","","","","","","","","","","","","",""
"","","","","","html-slider-response","151","383383","0.0-21.0-0.13","02bbfb96-af5c-4361-8c54-93ea8d3f38dc","1000","
                  <p style=""text-align: center;"">₪11
                                                <br>25%</p>
                  <p id=""wtp"" style=""text-align:center; margin-top: 0px; margin-bottom: 0px; font-size: 40px"";>&ensp;</p>","-","viewing","0","5","12A,27B,28B,30B","","","","","","","","","","","","","","","","","","","",""
"","","","","","html-slider-response","152","386713","0.0-21.0-1.13","02bbfb96-af5c-4361-8c54-93ea8d3f38dc","3328","
                  <p style=""text-align: center;"">₪11
                                                <br>25%</p>
                  <p id=""wtp"" style=""text-align:center; margin-top: 0px; margin-bottom: 0px; font-size: 40px"";>מוכנים לשלם: <span id=""c_p_y""></span></p>","2","evaluation","65","5","12A,27B,28B,30B","25","11","3","","","","","","","","","","","","","","","","",""
"","","","","","html-keyboard-response","153","387851","0.0-21.0-2.13","02bbfb96-af5c-4361-8c54-93ea8d3f38dc","null","<p style=""text-align: center;"">+</p>","null","fixation","","","","","","","","","","","","","","","","","","","","","","",""
"","","","","","html-slider-response","154","388862","0.0-21.0-0.14","02bbfb96-af5c-4361-8c54-93ea8d3f38dc","1000","
                  <p style=""text-align: center;"">₪43
                                                <br>75%</p>
                  <p id=""wtp"" style=""text-align:center; margin-top: 0px; margin-bottom: 0px; font-size: 40px"";>&ensp;</p>","-","viewing","0","18","11B,19B,24A,26A","","","","","","","","","","","","","","","","","","","",""
"","","","","","html-slider-response","155","392864","0.0-21.0-1.14","02bbfb96-af5c-4361-8c54-93ea8d3f38dc","null","
                  <p style=""text-align: center;"">₪43
                                                <br>75%</p>
                  <p id=""wtp"" style=""text-align:center; margin-top: 0px; margin-bottom: 0px; font-size: 40px"";>מוכנים לשלם: <span id=""c_p_y""></span></p>","null","evaluation","72","18","11B,19B,24A,26A","75","43","26","","","","","","","","","","","","","","","","",""
"","","","","","html-keyboard-response","156","393643","0.0-21.0-2.14","02bbfb96-af5c-4361-8c54-93ea8d3f38dc","null","<p style=""text-align: center;"">+</p>","null","fixation","","","","","","","","","","","","","","","","","","","","","","",""
"","","","","","html-slider-response","157","394646","0.0-21.0-0.15","02bbfb96-af5c-4361-8c54-93ea8d3f38dc","1000","
                  <p style=""text-align: center;"">₪61
                                                <br>55%</p>
                  <p id=""wtp"" style=""text-align:center; margin-top: 0px; margin-bottom: 0px; font-size: 40px"";>&ensp;</p>","-","viewing","0","23","7B,26B","","","","","","","","","","","","","","","","","","","",""
"","","","","","html-slider-response","158","397017","0.0-21.0-1.15","02bbfb96-af5c-4361-8c54-93ea8d3f38dc","2369","
                  <p style=""text-align: center;"">₪61
                                                <br>55%</p>
                  <p id=""wtp"" style=""text-align:center; margin-top: 0px; margin-bottom: 0px; font-size: 40px"";>מוכנים לשלם: <span id=""c_p_y""></span></p>","24","evaluation","52","23","7B,26B","55","61","24","","","","","","","","","","","","","","","","",""
"","","","","","html-keyboard-response","159","397573","0.0-21.0-2.15","02bbfb96-af5c-4361-8c54-93ea8d3f38dc","null","<p style=""text-align: center;"">+</p>","null","fixation","","","","","","","","","","","","","","","","","","","","","","",""
"","","","","","html-slider-response","160","398583","0.0-21.0-0.16","02bbfb96-af5c-4361-8c54-93ea8d3f38dc","1000","
                  <p style=""text-align: center;"">₪79
                                                <br>65%</p>
                  <p id=""wtp"" style=""text-align:center; margin-top: 0px; margin-bottom: 0px; font-size: 40px"";>&ensp;</p>","-","viewing","0","31","8A","","","","","","","","","","","","","","","","","","","",""
"","","","","","html-slider-response","161","401417","0.0-21.0-1.16","02bbfb96-af5c-4361-8c54-93ea8d3f38dc","2832","
                  <p style=""text-align: center;"">₪79
                                                <br>65%</p>
                  <p id=""wtp"" style=""text-align:center; margin-top: 0px; margin-bottom: 0px; font-size: 40px"";>מוכנים לשלם: <span id=""c_p_y""></span></p>","35","evaluation","66","31","8A","65","79","35","","","","","","","","","","","","","","","","",""
"","","","","","html-keyboard-response","162","402281","0.0-21.0-2.16","02bbfb96-af5c-4361-8c54-93ea8d3f38dc","null","<p style=""text-align: center;"">+</p>","null","fixation","","","","","","","","","","","","","","","","","","","","","","",""
"","","","","","html-slider-response","163","403293","0.0-21.0-0.17","02bbfb96-af5c-4361-8c54-93ea8d3f38dc","1000","
                  <p style=""text-align: center;"">₪4
                                                <br>50%</p>
                  <p id=""wtp"" style=""text-align:center; margin-top: 0px; margin-bottom: 0px; font-size: 40px"";>&ensp;</p>","-","viewing","0","2","4C,17B","","","","","","","","","","","","","","","","","","","",""
"","","","","","html-slider-response","164","404793","0.0-21.0-1.17","02bbfb96-af5c-4361-8c54-93ea8d3f38dc","1498","
                  <p style=""text-align: center;"">₪4
                                                <br>50%</p>
                  <p id=""wtp"" style=""text-align:center; margin-top: 0px; margin-bottom: 0px; font-size: 40px"";>מוכנים לשלם: <span id=""c_p_y""></span></p>","0","evaluation","40","2","4C,17B","50","4","1","","","","","","","","","","","","","","","","",""
"","","","","","html-keyboard-response","165","405334","0.0-21.0-2.17","02bbfb96-af5c-4361-8c54-93ea8d3f38dc","null","<p style=""text-align: center;"">+</p>","null","fixation","","","","","","","","","","","","","","","","","","","","","","",""
"","","","","","html-slider-response","166","406351","0.0-21.0-0.18","02bbfb96-af5c-4361-8c54-93ea8d3f38dc","1000","
                  <p style=""text-align: center;"">₪4
                                                <br>75%</p>
                  <p id=""wtp"" style=""text-align:center; margin-top: 0px; margin-bottom: 0px; font-size: 40px"";>&ensp;</p>","-","viewing","0","3","12B,20B,23B,27C,29C","","","","","","","","","","","","","","","","","","","",""
"","","","","","html-slider-response","167","408097","0.0-21.0-1.18","02bbfb96-af5c-4361-8c54-93ea8d3f38dc","1745","
                  <p style=""text-align: center;"">₪4
                                                <br>75%</p>
                  <p id=""wtp"" style=""text-align:center; margin-top: 0px; margin-bottom: 0px; font-size: 40px"";>מוכנים לשלם: <span id=""c_p_y""></span></p>","1","evaluation","72","3","12B,20B,23B,27C,29C","75","4","2","","","","","","","","","","","","","","","","",""
"","","","","","html-keyboard-response","168","408680","0.0-21.0-2.18","02bbfb96-af5c-4361-8c54-93ea8d3f38dc","null","<p style=""text-align: center;"">+</p>","null","fixation","","","","","","","","","","","","","","","","","","","","","","",""
"","","","","","html-slider-response","169","409690","0.0-21.0-0.19","02bbfb96-af5c-4361-8c54-93ea8d3f38dc","1000","
                  <p style=""text-align: center;"">₪64
                                                <br>25%</p>
                  <p id=""wtp"" style=""text-align:center; margin-top: 0px; margin-bottom: 0px; font-size: 40px"";>&ensp;</p>","-","viewing","0","24","6A,21A","","","","","","","","","","","","","","","","","","","",""
"","","","","","html-slider-response","170","413702","0.0-21.0-1.19","02bbfb96-af5c-4361-8c54-93ea8d3f38dc","null","
                  <p style=""text-align: center;"">₪64
                                                <br>25%</p>
                  <p id=""wtp"" style=""text-align:center; margin-top: 0px; margin-bottom: 0px; font-size: 40px"";>מוכנים לשלם: <span id=""c_p_y""></span></p>","null","evaluation","35","24","6A,21A","25","64","24","","","","","","","","","","","","","","","","",""
"","","","","","html-keyboard-response","171","414421","0.0-21.0-2.19","02bbfb96-af5c-4361-8c54-93ea8d3f38dc","null","<p style=""text-align: center;"">+</p>","null","fixation","","","","","","","","","","","","","","","","","","","","","","",""
"","","","","","html-slider-response","172","415423","0.0-21.0-0.20","02bbfb96-af5c-4361-8c54-93ea8d3f38dc","1000","
                  <p style=""text-align: center;"">₪11
                                                <br>45%</p>
                  <p id=""wtp"" style=""text-align:center; margin-top: 0px; margin-bottom: 0px; font-size: 40px"";>&ensp;</p>","-","viewing","0","6","14B,21C,25C","","","","","","","","","","","","","","","","","","","",""
"","","","","","html-slider-response","173","417625","0.0-21.0-1.20","02bbfb96-af5c-4361-8c54-93ea8d3f38dc","2200","
                  <p style=""text-align: center;"">₪11
                                                <br>45%</p>
                  <p id=""wtp"" style=""text-align:center; margin-top: 0px; margin-bottom: 0px; font-size: 40px"";>מוכנים לשלם: <span id=""c_p_y""></span></p>","2","evaluation","19","6","14B,21C,25C","45","11","2","","","","","","","","","","","","","","","","",""
"","","","","","html-keyboard-response","174","418613","0.0-21.0-2.20","02bbfb96-af5c-4361-8c54-93ea8d3f38dc","null","<p style=""text-align: center;"">+</p>","null","fixation","","","","","","","","","","","","","","","","","","","","","","",""
"","","","","","html-slider-response","175","419624","0.0-21.0-0.21","02bbfb96-af5c-4361-8c54-93ea8d3f38dc","1000","
                  <p style=""text-align: center;"">₪71
                                                <br>45%</p>
                  <p id=""wtp"" style=""text-align:center; margin-top: 0px; margin-bottom: 0px; font-size: 40px"";>&ensp;</p>","-","viewing","0","26","2B,16A","","","","","","","","","","","","","","","","","","","",""
"","","","","","html-slider-response","176","422520","0.0-21.0-1.21","02bbfb96-af5c-4361-8c54-93ea8d3f38dc","2894","
                  <p style=""text-align: center;"">₪71
                                                <br>45%</p>
                  <p id=""wtp"" style=""text-align:center; margin-top: 0px; margin-bottom: 0px; font-size: 40px"";>מוכנים לשלם: <span id=""c_p_y""></span></p>","35","evaluation","1","26","2B,16A","45","71","35","","","","","","","","","","","","","","","","",""
"","","","","","html-keyboard-response","177","423404","0.0-21.0-2.21","02bbfb96-af5c-4361-8c54-93ea8d3f38dc","null","<p style=""text-align: center;"">+</p>","null","fixation","","","","","","","","","","","","","","","","","","","","","","",""
"","","","","","html-slider-response","178","424406","0.0-21.0-0.22","02bbfb96-af5c-4361-8c54-93ea8d3f38dc","1000","
                  <p style=""text-align: center;"">₪39
                                                <br>65%</p>
                  <p id=""wtp"" style=""text-align:center; margin-top: 0px; margin-bottom: 0px; font-size: 40px"";>&ensp;</p>","-","viewing","0","16","1A,15A,26C","","","","","","","","","","","","","","","","","","","",""
"","","","","","html-slider-response","179","426553","0.0-21.0-1.22","02bbfb96-af5c-4361-8c54-93ea8d3f38dc","2145","
                  <p style=""text-align: center;"">₪39
                                                <br>65%</p>
                  <p id=""wtp"" style=""text-align:center; margin-top: 0px; margin-bottom: 0px; font-size: 40px"";>מוכנים לשלם: <span id=""c_p_y""></span></p>","16","evaluation","69","16","1A,15A,26C","65","39","17","","","","","","","","","","","","","","","","",""
"","","","","","html-keyboard-response","180","427134","0.0-21.0-2.22","02bbfb96-af5c-4361-8c54-93ea8d3f38dc","null","<p style=""text-align: center;"">+</p>","null","fixation","","","","","","","","","","","","","","","","","","","","","","",""
"","","","","","html-slider-response","181","428151","0.0-21.0-0.23","02bbfb96-af5c-4361-8c54-93ea8d3f38dc","1000","
                  <p style=""text-align: center;"">₪18
                                                <br>50%</p>
                  <p id=""wtp"" style=""text-align:center; margin-top: 0px; margin-bottom: 0px; font-size: 40px"";>&ensp;</p>","-","viewing","0","10","2C,16C,22B,28A","","","","","","","","","","","","","","","","","","","",""
"","","","","","html-slider-response","182","431113","0.0-21.0-1.23","02bbfb96-af5c-4361-8c54-93ea8d3f38dc","2961","
                  <p style=""text-align: center;"">₪18
                                                <br>50%</p>
                  <p id=""wtp"" style=""text-align:center; margin-top: 0px; margin-bottom: 0px; font-size: 40px"";>מוכנים לשלם: <span id=""c_p_y""></span></p>","3","evaluation","8","10","2C,16C,22B,28A","50","18","3","","","","","","","","","","","","","","","","",""
"","","","","","html-keyboard-response","183","432055","0.0-21.0-2.23","02bbfb96-af5c-4361-8c54-93ea8d3f38dc","null","<p style=""text-align: center;"">+</p>","null","fixation","","","","","","","","","","","","","","","","","","","","","","",""
"","","","","","html-slider-response","184","433068","0.0-21.0-0.24","02bbfb96-af5c-4361-8c54-93ea8d3f38dc","1000","
                  <p style=""text-align: center;"">₪36
                                                <br>75%</p>
                  <p id=""wtp"" style=""text-align:center; margin-top: 0px; margin-bottom: 0px; font-size: 40px"";>&ensp;</p>","-","viewing","0","14","4B,5A,13B,16B","","","","","","","","","","","","","","","","","","","",""
"","","","","","html-slider-response","185","436841","0.0-21.0-1.24","02bbfb96-af5c-4361-8c54-93ea8d3f38dc","3771","
                  <p style=""text-align: center;"">₪36
                                                <br>75%</p>
                  <p id=""wtp"" style=""text-align:center; margin-top: 0px; margin-bottom: 0px; font-size: 40px"";>מוכנים לשלם: <span id=""c_p_y""></span></p>","18","evaluation","52","14","4B,5A,13B,16B","75","36","18","","","","","","","","","","","","","","","","",""
"","","","","","html-keyboard-response","186","437807","0.0-21.0-2.24","02bbfb96-af5c-4361-8c54-93ea8d3f38dc","null","<p style=""text-align: center;"">+</p>","null","fixation","","","","","","","","","","","","","","","","","","","","","","",""
"","","","","","html-slider-response","187","438818","0.0-21.0-0.25","02bbfb96-af5c-4361-8c54-93ea8d3f38dc","1000","
                  <p style=""text-align: center;"">₪71
                                                <br>75%</p>
                  <p id=""wtp"" style=""text-align:center; margin-top: 0px; margin-bottom: 0px; font-size: 40px"";>&ensp;</p>","-","viewing","0","28","8B","","","","","","","","","","","","","","","","","","","",""
"","","","","","html-slider-response","188","441457","0.0-21.0-1.25","02bbfb96-af5c-4361-8c54-93ea8d3f38dc","2637","
                  <p style=""text-align: center;"">₪71
                                                <br>75%</p>
                  <p id=""wtp"" style=""text-align:center; margin-top: 0px; margin-bottom: 0px; font-size: 40px"";>מוכנים לשלם: <span id=""c_p_y""></span></p>","34","evaluation","8","28","8B","75","71","34","","","","","","","","","","","","","","","","",""
"","","","","","html-keyboard-response","189","442730","0.0-21.0-2.25","02bbfb96-af5c-4361-8c54-93ea8d3f38dc","null","<p style=""text-align: center;"">+</p>","null","fixation","","","","","","","","","","","","","","","","","","","","","","",""
"","","","","","html-slider-response","190","443732","0.0-21.0-0.26","02bbfb96-af5c-4361-8c54-93ea8d3f38dc","1000","
                  <p style=""text-align: center;"">₪61
                                                <br>45%</p>
                  <p id=""wtp"" style=""text-align:center; margin-top: 0px; margin-bottom: 0px; font-size: 40px"";>&ensp;</p>","-","viewing","0","22","10A,11A","","","","","","","","","","","","","","","","","","","",""
"","","","","","html-slider-response","191","446833","0.0-21.0-1.26","02bbfb96-af5c-4361-8c54-93ea8d3f38dc","3099","
                  <p style=""text-align: center;"">₪61
                                                <br>45%</p>
                  <p id=""wtp"" style=""text-align:center; margin-top: 0px; margin-bottom: 0px; font-size: 40px"";>מוכנים לשלם: <span id=""c_p_y""></span></p>","30","evaluation","4","22","10A,11A","45","61","30","","","","","","","","","","","","","","","","",""
"","","","","","html-keyboard-response","192","447982","0.0-21.0-2.26","02bbfb96-af5c-4361-8c54-93ea8d3f38dc","null","<p style=""text-align: center;"">+</p>","null","fixation","","","","","","","","","","","","","","","","","","","","","","",""
"","","","","","html-slider-response","193","448997","0.0-21.0-0.27","02bbfb96-af5c-4361-8c54-93ea8d3f38dc","1000","
                  <p style=""text-align: center;"">₪36
                                                <br>70%</p>
                  <p id=""wtp"" style=""text-align:center; margin-top: 0px; margin-bottom: 0px; font-size: 40px"";>&ensp;</p>","-","viewing","0","13","3A,5C,10B","","","","","","","","","","","","","","","","","","","",""
"","","","","","html-slider-response","194","451465","0.0-21.0-1.27","02bbfb96-af5c-4361-8c54-93ea8d3f38dc","2466","
                  <p style=""text-align: center;"">₪36
                                                <br>70%</p>
                  <p id=""wtp"" style=""text-align:center; margin-top: 0px; margin-bottom: 0px; font-size: 40px"";>מוכנים לשלם: <span id=""c_p_y""></span></p>","14","evaluation","27","13","3A,5C,10B","70","36","15","","","","","","","","","","","","","","","","",""
"","","","","","html-keyboard-response","195","452041","0.0-21.0-2.27","02bbfb96-af5c-4361-8c54-93ea8d3f38dc","null","<p style=""text-align: center;"">+</p>","null","fixation","","","","","","","","","","","","","","","","","","","","","","",""
"","","","","","html-slider-response","196","453052","0.0-21.0-0.28","02bbfb96-af5c-4361-8c54-93ea8d3f38dc","1000","
                  <p style=""text-align: center;"">₪36
                                                <br>30%</p>
                  <p id=""wtp"" style=""text-align:center; margin-top: 0px; margin-bottom: 0px; font-size: 40px"";>&ensp;</p>","-","viewing","0","11","3C,20A,22A","","","","","","","","","","","","","","","","","","","",""
"","","","","","html-slider-response","197","455592","0.0-21.0-1.28","02bbfb96-af5c-4361-8c54-93ea8d3f38dc","2539","
                  <p style=""text-align: center;"">₪36
                                                <br>30%</p>
                  <p id=""wtp"" style=""text-align:center; margin-top: 0px; margin-bottom: 0px; font-size: 40px"";>מוכנים לשלם: <span id=""c_p_y""></span></p>","9","evaluation","38","11","3C,20A,22A","30","36","9","","","","","","","","","","","","","","","","",""
"","","","","","html-keyboard-response","198","456186","0.0-21.0-2.28","02bbfb96-af5c-4361-8c54-93ea8d3f38dc","null","<p style=""text-align: center;"">+</p>","null","fixation","","","","","","","","","","","","","","","","","","","","","","",""
"","","","","","html-slider-response","199","457188","0.0-21.0-0.29","02bbfb96-af5c-4361-8c54-93ea8d3f38dc","1000","
                  <p style=""text-align: center;"">₪39
                                                <br>60%</p>
                  <p id=""wtp"" style=""text-align:center; margin-top: 0px; margin-bottom: 0px; font-size: 40px"";>&ensp;</p>","-","viewing","0","15","9C,25B","","","","","","","","","","","","","","","","","","","",""
"","","","","","html-slider-response","200","459849","0.0-21.0-1.29","02bbfb96-af5c-4361-8c54-93ea8d3f38dc","2659","
                  <p style=""text-align: center;"">₪39
                                                <br>60%</p>
                  <p id=""wtp"" style=""text-align:center; margin-top: 0px; margin-bottom: 0px; font-size: 40px"";>מוכנים לשלם: <span id=""c_p_y""></span></p>","13","evaluation","2","15","9C,25B","60","39","13","","","","","","","","","","","","","","","","",""
"","","","","","html-keyboard-response","201","461103","0.0-21.0-2.29","02bbfb96-af5c-4361-8c54-93ea8d3f38dc","null","<p style=""text-align: center;"">+</p>","null","fixation","","","","","","","","","","","","","","","","","","","","","","",""
"","","","","","html-slider-response","202","462105","0.0-21.0-0.30","02bbfb96-af5c-4361-8c54-93ea8d3f38dc","1000","
                  <p style=""text-align: center;"">₪58
                                                <br>30%</p>
                  <p id=""wtp"" style=""text-align:center; margin-top: 0px; margin-bottom: 0px; font-size: 40px"";>&ensp;</p>","-","viewing","0","19","13C,30A","","","","","","","","","","","","","","","","","","","",""
"","","","","","html-slider-response","203","464025","0.0-21.0-1.30","02bbfb96-af5c-4361-8c54-93ea8d3f38dc","1919","
                  <p style=""text-align: center;"">₪58
                                                <br>30%</p>
                  <p id=""wtp"" style=""text-align:center; margin-top: 0px; margin-bottom: 0px; font-size: 40px"";>מוכנים לשלם: <span id=""c_p_y""></span></p>","16","evaluation","11","19","13C,30A","30","58","16","","","","","","","","","","","","","","","","",""
"","","","","","html-keyboard-response","204","464888","0.0-21.0-2.30","02bbfb96-af5c-4361-8c54-93ea8d3f38dc","null","<p style=""text-align: center;"">+</p>","null","fixation","","","","","","","","","","","","","","","","","","","","","","",""
"","","","","","html-keyboard-response","205","465897","0.0-22.0","02bbfb96-af5c-4361-8c54-93ea8d3f38dc","null","<p style=""text-align: center;"">+</p>","null","fixation","","","","","","","","","","","","","","","","","","","","","","",""
"","","","","","html-keyboard-response","206","499640","0.0-23.0","02bbfb96-af5c-4361-8c54-93ea8d3f38dc","null","<p>הפסקה.
          <br>לחצו כדי להמשיך.</p>","1","scan_wait","","","","","","","","","","","","","","","","","","","","","","",""
"","","","","","html-keyboard-response","207","500641","0.0-24.0","02bbfb96-af5c-4361-8c54-93ea8d3f38dc","null","<p style=""text-align: center;"">+</p>","null","fixation","","","","","","","","","","","","","","","","","","","","","","",""
"","","","","","html-slider-response","208","501644","0.0-25.0-0.0","02bbfb96-af5c-4361-8c54-93ea8d3f38dc","1000","
                  <p style=""text-align: center;"">₪11
                                                <br>25%</p>
                  <p id=""wtp"" style=""text-align:center; margin-top: 0px; margin-bottom: 0px; font-size: 40px"";>&ensp;</p>","-","viewing","0","5","12A,27B,28B,30B","","","","","","","","","","","","","","","","","","","",""
"","","","","","html-slider-response","209","504561","0.0-25.0-1.0","02bbfb96-af5c-4361-8c54-93ea8d3f38dc","2915","
                  <p style=""text-align: center;"">₪11
                                                <br>25%</p>
                  <p id=""wtp"" style=""text-align:center; margin-top: 0px; margin-bottom: 0px; font-size: 40px"";>מוכנים לשלם: <span id=""c_p_y""></span></p>","2","evaluation","55","5","12A,27B,28B,30B","25","11","2","","","","","","","","","","","","","","","","",""
"","","","","","html-keyboard-response","210","505414","0.0-25.0-2.0","02bbfb96-af5c-4361-8c54-93ea8d3f38dc","null","<p style=""text-align: center;"">+</p>","null","fixation","","","","","","","","","","","","","","","","","","","","","","",""
"","","","","","html-slider-response","211","506416","0.0-25.0-0.1","02bbfb96-af5c-4361-8c54-93ea8d3f38dc","1000","
                  <p style=""text-align: center;"">₪43
                                                <br>75%</p>
                  <p id=""wtp"" style=""text-align:center; margin-top: 0px; margin-bottom: 0px; font-size: 40px"";>&ensp;</p>","-","viewing","0","18","11B,19B,24A,26A","","","","","","","","","","","","","","","","","","","",""
"","","","","","html-slider-response","212","507993","0.0-25.0-1.1","02bbfb96-af5c-4361-8c54-93ea8d3f38dc","1575","
                  <p style=""text-align: center;"">₪43
                                                <br>75%</p>
                  <p id=""wtp"" style=""text-align:center; margin-top: 0px; margin-bottom: 0px; font-size: 40px"";>מוכנים לשלם: <span id=""c_p_y""></span></p>","17","evaluation","59","18","11B,19B,24A,26A","75","43","17","","","","","","","","","","","","","","","","",""
"","","","","","html-keyboard-response","213","509291","0.0-25.0-2.1","02bbfb96-af5c-4361-8c54-93ea8d3f38dc","null","<p style=""text-align: center;"">+</p>","null","fixation","","","","","","","","","","","","","","","","","","","","","","",""
"","","","","","html-slider-response","214","510294","0.0-25.0-0.2","02bbfb96-af5c-4361-8c54-93ea8d3f38dc","1000","
                  <p style=""text-align: center;"">₪11
                                                <br>45%</p>
                  <p id=""wtp"" style=""text-align:center; margin-top: 0px; margin-bottom: 0px; font-size: 40px"";>&ensp;</p>","-","viewing","0","6","14B,21C,25C","","","","","","","","","","","","","","","","","","","",""
"","","","","","html-slider-response","215","513105","0.0-25.0-1.2","02bbfb96-af5c-4361-8c54-93ea8d3f38dc","2809","
                  <p style=""text-align: center;"">₪11
                                                <br>45%</p>
                  <p id=""wtp"" style=""text-align:center; margin-top: 0px; margin-bottom: 0px; font-size: 40px"";>מוכנים לשלם: <span id=""c_p_y""></span></p>","2","evaluation","23","6","14B,21C,25C","45","11","3","","","","","","","","","","","","","","","","",""
"","","","","","html-keyboard-response","216","514182","0.0-25.0-2.2","02bbfb96-af5c-4361-8c54-93ea8d3f38dc","null","<p style=""text-align: center;"">+</p>","null","fixation","","","","","","","","","","","","","","","","","","","","","","",""
"","","","","","html-slider-response","217","515184","0.0-25.0-0.3","02bbfb96-af5c-4361-8c54-93ea8d3f38dc","1000","
                  <p style=""text-align: center;"">₪76
                                                <br>65%</p>
                  <p id=""wtp"" style=""text-align:center; margin-top: 0px; margin-bottom: 0px; font-size: 40px"";>&ensp;</p>","-","viewing","0","29","8C,19A,24B","","","","","","","","","","","","","","","","","","","",""
"","","","","","html-slider-response","218","518369","0.0-25.0-1.3","02bbfb96-af5c-4361-8c54-93ea8d3f38dc","3183","
                  <p style=""text-align: center;"">₪76
                                                <br>65%</p>
                  <p id=""wtp"" style=""text-align:center; margin-top: 0px; margin-bottom: 0px; font-size: 40px"";>מוכנים לשלם: <span id=""c_p_y""></span></p>","29","evaluation","67","29","8C,19A,24B","65","76","29","","","","","","","","","","","","","","","","",""
"","","","","","html-keyboard-response","219","519539","0.0-25.0-2.3","02bbfb96-af5c-4361-8c54-93ea8d3f38dc","null","<p style=""text-align: center;"">+</p>","null","fixation","","","","","","","","","","","","","","","","","","","","","","",""
"","","","","","html-slider-response","220","520542","0.0-25.0-0.4","02bbfb96-af5c-4361-8c54-93ea8d3f38dc","1000","
                  <p style=""text-align: center;"">₪36
                                                <br>60%</p>
                  <p id=""wtp"" style=""text-align:center; margin-top: 0px; margin-bottom: 0px; font-size: 40px"";>&ensp;</p>","-","viewing","0","12","1C,7C,15C","","","","","","","","","","","","","","","","","","","",""
"","","","","","html-slider-response","221","522265","0.0-25.0-1.4","02bbfb96-af5c-4361-8c54-93ea8d3f38dc","1721","
                  <p style=""text-align: center;"">₪36
                                                <br>60%</p>
                  <p id=""wtp"" style=""text-align:center; margin-top: 0px; margin-bottom: 0px; font-size: 40px"";>מוכנים לשלם: <span id=""c_p_y""></span></p>","15","evaluation","33","12","1C,7C,15C","60","36","15","","","","","","","","","","","","","","","","",""
"","","","","","html-keyboard-response","222","523390","0.0-25.0-2.4","02bbfb96-af5c-4361-8c54-93ea8d3f38dc","null","<p style=""text-align: center;"">+</p>","null","fixation","","","","","","","","","","","","","","","","","","","","","","",""
"","","","","","html-slider-response","223","524398","0.0-25.0-0.5","02bbfb96-af5c-4361-8c54-93ea8d3f38dc","1000","
                  <p style=""text-align: center;"">₪16
                                                <br>20%</p>
                  <p id=""wtp"" style=""text-align:center; margin-top: 0px; margin-bottom: 0px; font-size: 40px"";>&ensp;</p>","-","viewing","0","8","14C,17A,20C,27A","","","","","","","","","","","","","","","","","","","",""
"","","","","","html-slider-response","224","527281","0.0-25.0-1.5","02bbfb96-af5c-4361-8c54-93ea8d3f38dc","2882","
                  <p style=""text-align: center;"">₪16
                                                <br>20%</p>
                  <p id=""wtp"" style=""text-align:center; margin-top: 0px; margin-bottom: 0px; font-size: 40px"";>מוכנים לשלם: <span id=""c_p_y""></span></p>","4","evaluation","70","8","14C,17A,20C,27A","20","16","5","","","","","","","","","","","","","","","","",""
"","","","","","html-keyboard-response","225","528187","0.0-25.0-2.5","02bbfb96-af5c-4361-8c54-93ea8d3f38dc","null","<p style=""text-align: center;"">+</p>","null","fixation","","","","","","","","","","","","","","","","","","","","","","",""
"","","","","","html-slider-response","226","529189","0.0-25.0-0.6","02bbfb96-af5c-4361-8c54-93ea8d3f38dc","1000","
                  <p style=""text-align: center;"">₪79
                                                <br>65%</p>
                  <p id=""wtp"" style=""text-align:center; margin-top: 0px; margin-bottom: 0px; font-size: 40px"";>&ensp;</p>","-","viewing","0","31","8A","","","","","","","","","","","","","","","","","","","",""
"","","","","","html-slider-response","227","532553","0.0-25.0-1.6","02bbfb96-af5c-4361-8c54-93ea8d3f38dc","3362","
                  <p style=""text-align: center;"">₪79
                                                <br>65%</p>
                  <p id=""wtp"" style=""text-align:center; margin-top: 0px; margin-bottom: 0px; font-size: 40px"";>מוכנים לשלם: <span id=""c_p_y""></span></p>","50","evaluation","66","31","8A","65","79","50","","","","","","","","","","","","","","","","",""
"","","","","","html-keyboard-response","228","533443","0.0-25.0-2.6","02bbfb96-af5c-4361-8c54-93ea8d3f38dc","null","<p style=""text-align: center;"">+</p>","null","fixation","","","","","","","","","","","","","","","","","","","","","","",""
"","","","","","html-slider-response","229","534450","0.0-25.0-0.7","02bbfb96-af5c-4361-8c54-93ea8d3f38dc","1000","
                  <p style=""text-align: center;"">₪11
                                                <br>20%</p>
                  <p id=""wtp"" style=""text-align:center; margin-top: 0px; margin-bottom: 0px; font-size: 40px"";>&ensp;</p>","-","viewing","0","4","12C,17C,23C,28C","","","","","","","","","","","","","","","","","","","",""
"","","","","","html-slider-response","230","537929","0.0-25.0-1.7","02bbfb96-af5c-4361-8c54-93ea8d3f38dc","3477","
                  <p style=""text-align: center;"">₪11
                                                <br>20%</p>
                  <p id=""wtp"" style=""text-align:center; margin-top: 0px; margin-bottom: 0px; font-size: 40px"";>מוכנים לשלם: <span id=""c_p_y""></span></p>","1","evaluation","61","4","12C,17C,23C,28C","20","11","1","","","","","","","","","","","","","","","","",""
"","","","","","html-keyboard-response","231","538991","0.0-25.0-2.7","02bbfb96-af5c-4361-8c54-93ea8d3f38dc","null","<p style=""text-align: center;"">+</p>","null","fixation","","","","","","","","","","","","","","","","","","","","","","",""
"","","","","","html-slider-response","232","539998","0.0-25.0-0.8","02bbfb96-af5c-4361-8c54-93ea8d3f38dc","1000","
                  <p style=""text-align: center;"">₪4
                                                <br>75%</p>
                  <p id=""wtp"" style=""text-align:center; margin-top: 0px; margin-bottom: 0px; font-size: 40px"";>&ensp;</p>","-","viewing","0","3","12B,20B,23B,27C,29C","","","","","","","","","","","","","","","","","","","",""
"","","","","","html-slider-response","233","542817","0.0-25.0-1.8","02bbfb96-af5c-4361-8c54-93ea8d3f38dc","2818","
                  <p style=""text-align: center;"">₪4
                                                <br>75%</p>
                  <p id=""wtp"" style=""text-align:center; margin-top: 0px; margin-bottom: 0px; font-size: 40px"";>מוכנים לשלם: <span id=""c_p_y""></span></p>","1","evaluation","72","3","12B,20B,23B,27C,29C","75","4","2","","","","","","","","","","","","","","","","",""
"","","","","","html-keyboard-response","234","544265","0.0-25.0-2.8","02bbfb96-af5c-4361-8c54-93ea8d3f38dc","null","<p style=""text-align: center;"">+</p>","null","fixation","","","","","","","","","","","","","","","","","","","","","","",""
"","","","","","html-slider-response","235","545280","0.0-25.0-0.9","02bbfb96-af5c-4361-8c54-93ea8d3f38dc","1000","
                  <p style=""text-align: center;"">₪43
                                                <br>60%</p>
                  <p id=""wtp"" style=""text-align:center; margin-top: 0px; margin-bottom: 0px; font-size: 40px"";>&ensp;</p>","-","viewing","0","17","2A,7A,9A,15B","","","","","","","","","","","","","","","","","","","",""
"","","","","","html-slider-response","236","547809","0.0-25.0-1.9","02bbfb96-af5c-4361-8c54-93ea8d3f38dc","2528","
                  <p style=""text-align: center;"">₪43
                                                <br>60%</p>
                  <p id=""wtp"" style=""text-align:center; margin-top: 0px; margin-bottom: 0px; font-size: 40px"";>מוכנים לשלם: <span id=""c_p_y""></span></p>","24","evaluation","44","17","2A,7A,9A,15B","60","43","24","","","","","","","","","","","","","","","","",""
"","","","","","html-keyboard-response","237","548507","0.0-25.0-2.9","02bbfb96-af5c-4361-8c54-93ea8d3f38dc","null","<p style=""text-align: center;"">+</p>","null","fixation","","","","","","","","","","","","","","","","","","","","","","",""
"","","","","","html-slider-response","238","549523","0.0-25.0-0.10","02bbfb96-af5c-4361-8c54-93ea8d3f38dc","1000","
                  <p style=""text-align: center;"">₪61
                                                <br>55%</p>
                  <p id=""wtp"" style=""text-align:center; margin-top: 0px; margin-bottom: 0px; font-size: 40px"";>&ensp;</p>","-","viewing","0","23","7B,26B","","","","","","","","","","","","","","","","","","","",""
"","","","","","html-slider-response","239","551649","0.0-25.0-1.10","02bbfb96-af5c-4361-8c54-93ea8d3f38dc","2124","
                  <p style=""text-align: center;"">₪61
                                                <br>55%</p>
                  <p id=""wtp"" style=""text-align:center; margin-top: 0px; margin-bottom: 0px; font-size: 40px"";>מוכנים לשלם: <span id=""c_p_y""></span></p>","28","evaluation","6","23","7B,26B","55","61","28","","","","","","","","","","","","","","","","",""
"","","","","","html-keyboard-response","240","552528","0.0-25.0-2.10","02bbfb96-af5c-4361-8c54-93ea8d3f38dc","null","<p style=""text-align: center;"">+</p>","null","fixation","","","","","","","","","","","","","","","","","","","","","","",""
"","","","","","html-slider-response","241","553540","0.0-25.0-0.11","02bbfb96-af5c-4361-8c54-93ea8d3f38dc","1000","
                  <p style=""text-align: center;"">₪64
                                                <br>25%</p>
                  <p id=""wtp"" style=""text-align:center; margin-top: 0px; margin-bottom: 0px; font-size: 40px"";>&ensp;</p>","-","viewing","0","24","6A,21A","","","","","","","","","","","","","","","","","","","",""
"","","","","","html-slider-response","242","556713","0.0-25.0-1.11","02bbfb96-af5c-4361-8c54-93ea8d3f38dc","3172","
                  <p style=""text-align: center;"">₪64
                                                <br>25%</p>
                  <p id=""wtp"" style=""text-align:center; margin-top: 0px; margin-bottom: 0px; font-size: 40px"";>מוכנים לשלם: <span id=""c_p_y""></span></p>","24","evaluation","3","24","6A,21A","25","64","24","","","","","","","","","","","","","","","","",""
"","","","","","html-keyboard-response","243","557710","0.0-25.0-2.11","02bbfb96-af5c-4361-8c54-93ea8d3f38dc","null","<p style=""text-align: center;"">+</p>","null","fixation","","","","","","","","","","","","","","","","","","","","","","",""
"","","","","","html-slider-response","244","558725","0.0-25.0-0.12","02bbfb96-af5c-4361-8c54-93ea8d3f38dc","1000","
                  <p style=""text-align: center;"">₪61
                                                <br>45%</p>
                  <p id=""wtp"" style=""text-align:center; margin-top: 0px; margin-bottom: 0px; font-size: 40px"";>&ensp;</p>","-","viewing","0","22","10A,11A","","","","","","","","","","","","","","","","","","","",""
"","","","","","html-slider-response","245","561233","0.0-25.0-1.12","02bbfb96-af5c-4361-8c54-93ea8d3f38dc","2506","
                  <p style=""text-align: center;"">₪61
                                                <br>45%</p>
                  <p id=""wtp"" style=""text-align:center; margin-top: 0px; margin-bottom: 0px; font-size: 40px"";>מוכנים לשלם: <span id=""c_p_y""></span></p>","30","evaluation","56","22","10A,11A","45","61","30","","","","","","","","","","","","","","","","",""
"","","","","","html-keyboard-response","246","562352","0.0-25.0-2.12","02bbfb96-af5c-4361-8c54-93ea8d3f38dc","null","<p style=""text-align: center;"">+</p>","null","fixation","","","","","","","","","","","","","","","","","","","","","","",""
"","","","","","html-slider-response","247","563369","0.0-25.0-0.13","02bbfb96-af5c-4361-8c54-93ea8d3f38dc","1000","
                  <p style=""text-align: center;"">₪71
                                                <br>45%</p>
                  <p id=""wtp"" style=""text-align:center; margin-top: 0px; margin-bottom: 0px; font-size: 40px"";>&ensp;</p>","-","viewing","0","26","2B,16A","","","","","","","","","","","","","","","","","","","",""
"","","","","","html-slider-response","248","565577","0.0-25.0-1.13","02bbfb96-af5c-4361-8c54-93ea8d3f38dc","2206","
                  <p style=""text-align: center;"">₪71
                                                <br>45%</p>
