"success","timeout","failed_images","failed_audio","failed_video","trial_type","trial_index","time_elapsed","internal_node_id","subject_id","rt","stimulus","response","part","slider_start","ID","set_ID","prob","amount","last_location","actual_choice","actual_EV","binary_id","trinary_id","catch","A_key","D_key","choice_prob","choice_amount","potential_prize_prob","potential_prize_amount","won_prize","total_prize","remaining_budget","accuracy"
"true","false","[]","[]","[]","preload","0","4","0.0-0.0","86117b72-b50c-4fb3-ba28-64a3ade786ac","","","","","","","","","","","","","","","","","","","","","","","","",""
"","","","","","html-keyboard-response","1","32622","0.0-1.0","86117b72-b50c-4fb3-ba28-64a3ade786ac","null","
          <h1>שלום וברוכים הבאים!</h1>
          <p>לפניכם ניסוי בקבלת החלטות עם שני חלקים.
          <br><br>לחצו על העכבר כדי להמשיך.</p>","0","example","","","","","","","","","","","","","","","","","","","","",""
"","","","","","html-keyboard-response","2","39670","0.0-2.0","86117b72-b50c-4fb3-ba28-64a3ade786ac","null","
        <h1>חלק 1</h1>
        <p>בקרוב יוצגו בפניכם הגרלות.
        <br>עליכם לבחור את המחיר המירבי שתהיו מוכנים לשלם כדי להשתתף בהגרלה שתוצג.
        <br>יש לכם תקציב של ₪80 לכל הגרלה. 
        <br>נסו להעריך כל הגרלה בנפרד ולחשוב כמה היא שווה עבורכם, ₪80 זמינים לכל הגרלה בנפרד.
        <br><br>לחצו על העכבר כדי להמשיך.</p>","1","instructions","","","","","","","","","","","","","","","","","","","","",""
"","","","","","html-keyboard-response","3","46558","0.0-3.0","86117b72-b50c-4fb3-ba28-64a3ade786ac","null","
        <p>בסוף הניסוי, המחשב יבחר את אחת ההגרלות ויקבע מחיר לכרטיס עבורה. 
        <br>במידה והמחיר שבחרתם נמוך מהמחיר שנבחר על ידי המחשב, לא תשתתפו בהגרלה ותשארו עם מלוא התקציב.
        <br>במידה והמחיר שבחרתם גבוה מהמחיר שנבחר על ידי המחשב, תשלמו את המחיר שנקבע ותשתתפו בהגרלה.
        <br><br>לחצו על העכבר כדי להמשיך.</p>","1","instructions","","","","","","","","","","","","","","","","","","","","",""
"","","","","","html-slider-response","4","79199","0.0-4.0","86117b72-b50c-4fb3-ba28-64a3ade786ac","32521","
        <p style=""font-size: 42px;"">נתחיל עם דוגמא: 
        <br>ההגרלה מטה מציעה 65% סיכוי לזכות ב-₪40 
        <br>&emsp;&emsp;&emsp;&emsp;&emsp;&emsp;&emsp;&emsp;&ensp;35% סיכוי לזכות ב-₪0.
        <br><br>מה המחיר המירבי שתהיו מוכנים לשלם על כרטיס להגרלה זו בין 0 ל-₪80?
        <br>הזיזו את העכבר על פני המלבן ולחצו כדי לבצע בחירה.</p>
        
        <p style=""text-align: center;"">₪40<br>65%</p>

        <p id=""wtp"" style=""text-align:center; margin-top: 0px; margin-bottom: 0px; font-size: 40px"";>מוכנים לשלם: <span id=""c_p_y""></span></p>","15","example","22","","","","","","","","","","","","","","","","","","","",""
"","","","","","html-keyboard-response","5","86007","0.0-5.0","86117b72-b50c-4fb3-ba28-64a3ade786ac","null","<p>יפה מאוד!
                <br> בחרתם שתהיו מוכנים לשלם ₪15 כדי להשתתף בהגרלה:
                <br><p style=""text-align: center;"">₪40<br>65%</p>
                <p>נשמע נכון?
                <br>נניח שהגרלה זו נבחרה בסוף הניסוי.
                <br>כעת המחשב יקבע מחיר עבורה באקראי.
                <br>לחצו על העכבר להמשך.</p>","1","example","","","","","","","","","","","","","","","","","","","","",""
"","","","","","html-keyboard-response","6","92942","0.0-6.0","86117b72-b50c-4fb3-ba28-64a3ade786ac","null","<p>המחשב קבע מחיר: ₪63
                <br>ואתם בחרתם לשלם לכל היותר: ₪15
                <br><br>מכיוון שהמחיר שבחרתם נמוך מהמחיר שנקבע, לא תתשתתפו בהגרלה.
                <br>במקרה כזה, בסוף הניסוי תקבלו את כל התקציב ההתחלתי של ₪80.
                <br><br>לחצו על העכבר להמשך.</p>","1","example","","","","","","","","","","","","","","","","","","","","",""
"","","","","","html-slider-response","7","104662","0.0-7.0","86117b72-b50c-4fb3-ba28-64a3ade786ac","11462","<p style=""font-size: 42px;"">הנה עוד דוגמא:
                <br>ההגרלה מטה מציעה 35% סיכוי לזכות ב-₪18 
                <br>&emsp;&emsp;&emsp;&emsp;&emsp;&emsp;&emsp;&emsp;&ensp;65% סיכוי לזכות ב-₪0.</p>
        
                <p style=""text-align: center;"">₪18<br>35%</p>
                <p id=""wtp"" style=""text-align:center; margin-top: 0px; margin-bottom: 0px; font-size: 40px"";>מוכנים לשלם: <span id=""c_p_y""></span></p>","30","example","63","","","","","","","","","","","","","","","","","","","",""
"","","","","","html-keyboard-response","8","106422","0.0-8.0","86117b72-b50c-4fb3-ba28-64a3ade786ac","null","<p>הייתם מוכנים לשלם  ₪30 כדי להשתתף בהגרלה:
                <p style=""text-align: center;"">₪18<br>35%</p>
                <p>כעת נניח שהמחשב בחר את ההגרלה הזו בסוף הניסוי, וקבע עבורה מחיר.
                <br><br>לחצו על העכבר כדי להמשיך.</p>","1","instructions","","","","","","","","","","","","","","","","","","","","",""
"","","","","","html-keyboard-response","9","117614","0.0-9.0","86117b72-b50c-4fb3-ba28-64a3ade786ac","null","<p>המחשב קבע מחיר להגרלה: ₪30
                <br>ואתם בחרתם לשלם לכל היותר: ₪30
                <br><br>כעת המחיר שנקבע זהה לזה שבחרתם, אז תשלמו את המחיר שקבע המחשב (₪30) ותשתתפו בהגרלה.
                <br>במקרה כזה, תסיימו את הניסוי עם תקציב של ₪50 ועם סיכוי לזכות ב-₪18 נוספים מההגרלה.
                <br>כלומר, תוכלו לקבל ₪50 אם לא תזכו בהגרלה, או ₪68 אם תזכו בהגרלה.
                <br><br>לחצו על העכבר להמשך.</p>","1","example","","","","","","","","","","","","","","","","","","","","",""
"","","","","","html-keyboard-response","10","121350","0.0-10.0","86117b72-b50c-4fb3-ba28-64a3ade786ac","null","<p>במהלך הניסוי, קודם תראו את ההגרלה ורק לאחר מכן תוכלו לבחור.
                <p>כמו כן, יהיו לכם מספר שניות מוגבל להגיב.
                <p>בואו ננסה זאת עם ההגרלה הקודמת.
                <br>לחצו על העכבר כדי להמשיך.</p>","1","instructions","","","","","","","","","","","","","","","","","","","","",""
"","","","","","html-slider-response","11","122617","0.0-11.0","86117b72-b50c-4fb3-ba28-64a3ade786ac","1000","
                    <p style=""text-align: center;"">₪18<br>35%</p>
                    <p id=""wtp"" style=""text-align:center; margin-top: 0px; margin-bottom: 0px; font-size: 40px"";>&ensp;</p>","34","instructions","0","","","","","","","","","","","","","","","","","","","",""
"","","","","","html-slider-response","12","126880","0.0-12.0","86117b72-b50c-4fb3-ba28-64a3ade786ac","null","
                    <p style=""text-align: center;"">₪18<br>35%</p>
                    <p id=""wtp"" style=""text-align:center; margin-top: 0px; margin-bottom: 0px; font-size: 40px"";>מוכנים לשלם: <span id=""c_p_y""></span></p>","null","instructions","12","","","","","","","","","","","","","","","","","","","",""
"","","","","","html-keyboard-response","13","130038","0.0-13.0","86117b72-b50c-4fb3-ba28-64a3ade786ac","null","<p>לא הגבתם בזמן המוקצב לתגובה. 
                <br>נסו להגיב מהר יותר בפעם הבאה.
                <br><br>לחצו על העכבר כדי להמשיך.</p>","1","instructions","","","","","","","","","","","","","","","","","","","","",""
"","","","","","html-slider-response","14","132574","0.0-14.0-0.0","86117b72-b50c-4fb3-ba28-64a3ade786ac","2275","
                    <p style=""text-align: center;"">₪40<br>65%</p>
                    <p id=""wtp"" style=""text-align:center; margin-top: 0px; margin-bottom: 0px; font-size: 40px"";>מוכנים לשלם: <span id=""c_p_y""></span></p>","30","instructions","2","","","","","","","","","","","","","","","","","","","",""
"","","","","","html-keyboard-response","15","135038","0.0-14.0-1.0","86117b72-b50c-4fb3-ba28-64a3ade786ac","null","<p>יפה. הפעם בחרתם לשלם לכל היותר ₪30.
                <br><br>לחצו על העכבר כדי להמשיך.</p>","1","instructions","","","","","","","","","","","","","","","","","","","","",""
"","","","","","html-keyboard-response","16","144254","0.0-15.0","86117b72-b50c-4fb3-ba28-64a3ade786ac","null","<p>כעת נתחיל את הניסוי.
                <br><br>אתם תראו הגרלות ותתבקשו לבחור כמה תהיו מוכנים לשלם כדי להשתתף בהן.
                <br>יש לכם תקציב של ₪80 עבור כל הגרלה.
                <br>בסוף הניסוי הגרלה אחת תבחר באקראי ותשוחק.
                <br><br>לחצו על העכבר כדי להתחיל את הניסוי.</p>","1","instructions","","","","","","","","","","","","","","","","","","","","",""
"","","","","","html-keyboard-response","17","145516","0.0-16.0","86117b72-b50c-4fb3-ba28-64a3ade786ac","null","<p style=""text-align: center;"">+</p>","null","fixation","","","","","","","","","","","","","","","","","","","","",""
"","","","","","html-slider-response","18","146518","0.0-17.0-0.0","86117b72-b50c-4fb3-ba28-64a3ade786ac","1000","
                  <p style=""text-align: center;"">₪61
                                                <br>45%</p>
                  <p id=""wtp"" style=""text-align:center; margin-top: 0px; margin-bottom: 0px; font-size: 40px"";>&ensp;</p>","-","viewing","0","22","10A,11A","","","","","","","","","","","","","","","","","",""
"","","","","","html-slider-response","19","147894","0.0-17.0-1.0","86117b72-b50c-4fb3-ba28-64a3ade786ac","1375","
                  <p style=""text-align: center;"">₪61
                                                <br>45%</p>
                  <p id=""wtp"" style=""text-align:center; margin-top: 0px; margin-bottom: 0px; font-size: 40px"";>מוכנים לשלם: <span id=""c_p_y""></span></p>","38","evaluation","71","22","10A,11A","45","61","38","","","","","","","","","","","","","","",""
"","","","","","html-keyboard-response","20","148710","0.0-17.0-2.0","86117b72-b50c-4fb3-ba28-64a3ade786ac","null","<p style=""text-align: center;"">+</p>","null","fixation","","","","","","","","","","","","","","","","","","","","",""
"","","","","","html-slider-response","21","149712","0.0-17.0-0.1","86117b72-b50c-4fb3-ba28-64a3ade786ac","1000","
                  <p style=""text-align: center;"">₪4
                                                <br>50%</p>
                  <p id=""wtp"" style=""text-align:center; margin-top: 0px; margin-bottom: 0px; font-size: 40px"";>&ensp;</p>","-","viewing","0","2","4C,17B","","","","","","","","","","","","","","","","","",""
"","","","","","html-slider-response","22","151870","0.0-17.0-1.1","86117b72-b50c-4fb3-ba28-64a3ade786ac","2157","
                  <p style=""text-align: center;"">₪4
                                                <br>50%</p>
                  <p id=""wtp"" style=""text-align:center; margin-top: 0px; margin-bottom: 0px; font-size: 40px"";>מוכנים לשלם: <span id=""c_p_y""></span></p>","25","evaluation","13","2","4C,17B","50","4","25","","","","","","","","","","","","","","",""
"","","","","","html-keyboard-response","23","152915","0.0-17.0-2.1","86117b72-b50c-4fb3-ba28-64a3ade786ac","null","<p style=""text-align: center;"">+</p>","null","fixation","","","","","","","","","","","","","","","","","","","","",""
"","","","","","html-slider-response","24","153917","0.0-17.0-0.2","86117b72-b50c-4fb3-ba28-64a3ade786ac","1000","
                  <p style=""text-align: center;"">₪11
                                                <br>20%</p>
                  <p id=""wtp"" style=""text-align:center; margin-top: 0px; margin-bottom: 0px; font-size: 40px"";>&ensp;</p>","-","viewing","0","4","12C,17C,23C,28C","","","","","","","","","","","","","","","","","",""
"","","","","","html-slider-response","25","157934","0.0-17.0-1.2","86117b72-b50c-4fb3-ba28-64a3ade786ac","null","
                  <p style=""text-align: center;"">₪11
                                                <br>20%</p>
                  <p id=""wtp"" style=""text-align:center; margin-top: 0px; margin-bottom: 0px; font-size: 40px"";>מוכנים לשלם: <span id=""c_p_y""></span></p>","null","evaluation","66","4","12C,17C,23C,28C","20","11","9","","","","","","","","","","","","","","",""
"","","","","","html-keyboard-response","26","159115","0.0-17.0-2.2","86117b72-b50c-4fb3-ba28-64a3ade786ac","null","<p style=""text-align: center;"">+</p>","null","fixation","","","","","","","","","","","","","","","","","","","","",""
"","","","","","html-slider-response","27","160127","0.0-17.0-0.3","86117b72-b50c-4fb3-ba28-64a3ade786ac","1000","
                  <p style=""text-align: center;"">₪58
                                                <br>40%</p>
                  <p id=""wtp"" style=""text-align:center; margin-top: 0px; margin-bottom: 0px; font-size: 40px"";>&ensp;</p>","-","viewing","0","20","10C,13A,19C,21B","","","","","","","","","","","","","","","","","",""
"","","","","","html-slider-response","28","163886","0.0-17.0-1.3","86117b72-b50c-4fb3-ba28-64a3ade786ac","3758","
                  <p style=""text-align: center;"">₪58
                                                <br>40%</p>
                  <p id=""wtp"" style=""text-align:center; margin-top: 0px; margin-bottom: 0px; font-size: 40px"";>מוכנים לשלם: <span id=""c_p_y""></span></p>","31","evaluation","63","20","10C,13A,19C,21B","40","58","31","","","","","","","","","","","","","","",""
"","","","","","html-keyboard-response","29","165069","0.0-17.0-2.3","86117b72-b50c-4fb3-ba28-64a3ade786ac","null","<p style=""text-align: center;"">+</p>","null","fixation","","","","","","","","","","","","","","","","","","","","",""
"","","","","","html-slider-response","30","166084","0.0-17.0-0.4","86117b72-b50c-4fb3-ba28-64a3ade786ac","1000","
                  <p style=""text-align: center;"">₪71
                                                <br>45%</p>
                  <p id=""wtp"" style=""text-align:center; margin-top: 0px; margin-bottom: 0px; font-size: 40px"";>&ensp;</p>","-","viewing","0","26","2B,16A","","","","","","","","","","","","","","","","","",""
"","","","","","html-slider-response","31","168086","0.0-17.0-1.4","86117b72-b50c-4fb3-ba28-64a3ade786ac","2001","
                  <p style=""text-align: center;"">₪71
                                                <br>45%</p>
                  <p id=""wtp"" style=""text-align:center; margin-top: 0px; margin-bottom: 0px; font-size: 40px"";>מוכנים לשלם: <span id=""c_p_y""></span></p>","40","evaluation","60","26","2B,16A","45","71","40","","","","","","","","","","","","","","",""
"","","","","","html-keyboard-response","32","169101","0.0-17.0-2.4","86117b72-b50c-4fb3-ba28-64a3ade786ac","null","<p style=""text-align: center;"">+</p>","null","fixation","","","","","","","","","","","","","","","","","","","","",""
"","","","","","html-slider-response","33","170109","0.0-17.0-0.5","86117b72-b50c-4fb3-ba28-64a3ade786ac","1000","
                  <p style=""text-align: center;"">₪36
                                                <br>75%</p>
                  <p id=""wtp"" style=""text-align:center; margin-top: 0px; margin-bottom: 0px; font-size: 40px"";>&ensp;</p>","-","viewing","0","14","4B,5A,13B,16B","","","","","","","","","","","","","","","","","",""
"","","","","","html-slider-response","34","174125","0.0-17.0-1.5","86117b72-b50c-4fb3-ba28-64a3ade786ac","null","
                  <p style=""text-align: center;"">₪36
                                                <br>75%</p>
                  <p id=""wtp"" style=""text-align:center; margin-top: 0px; margin-bottom: 0px; font-size: 40px"";>מוכנים לשלם: <span id=""c_p_y""></span></p>","null","evaluation","56","14","4B,5A,13B,16B","75","36","33","","","","","","","","","","","","","","",""
"","","","","","html-keyboard-response","35","174920","0.0-17.0-2.5","86117b72-b50c-4fb3-ba28-64a3ade786ac","null","<p style=""text-align: center;"">+</p>","null","fixation","","","","","","","","","","","","","","","","","","","","",""
"","","","","","html-slider-response","36","175928","0.0-17.0-0.6","86117b72-b50c-4fb3-ba28-64a3ade786ac","1000","
                  <p style=""text-align: center;"">₪39
                                                <br>60%</p>
                  <p id=""wtp"" style=""text-align:center; margin-top: 0px; margin-bottom: 0px; font-size: 40px"";>&ensp;</p>","-","viewing","0","15","9C,25B","","","","","","","","","","","","","","","","","",""
"","","","","","html-slider-response","37","178503","0.0-17.0-1.6","86117b72-b50c-4fb3-ba28-64a3ade786ac","2573","
                  <p style=""text-align: center;"">₪39
                                                <br>60%</p>
                  <p id=""wtp"" style=""text-align:center; margin-top: 0px; margin-bottom: 0px; font-size: 40px"";>מוכנים לשלם: <span id=""c_p_y""></span></p>","21","evaluation","5","15","9C,25B","60","39","21","","","","","","","","","","","","","","",""
"","","","","","html-keyboard-response","38","179413","0.0-17.0-2.6","86117b72-b50c-4fb3-ba28-64a3ade786ac","null","<p style=""text-align: center;"">+</p>","null","fixation","","","","","","","","","","","","","","","","","","","","",""
"","","","","","html-slider-response","39","180429","0.0-17.0-0.7","86117b72-b50c-4fb3-ba28-64a3ade786ac","1000","
                  <p style=""text-align: center;"">₪43
                                                <br>75%</p>
                  <p id=""wtp"" style=""text-align:center; margin-top: 0px; margin-bottom: 0px; font-size: 40px"";>&ensp;</p>","-","viewing","0","18","11B,19B,24A,26A","","","","","","","","","","","","","","","","","",""
"","","","","","html-slider-response","40","183439","0.0-17.0-1.7","86117b72-b50c-4fb3-ba28-64a3ade786ac","3009","
                  <p style=""text-align: center;"">₪43
                                                <br>75%</p>
                  <p id=""wtp"" style=""text-align:center; margin-top: 0px; margin-bottom: 0px; font-size: 40px"";>מוכנים לשלם: <span id=""c_p_y""></span></p>","33","evaluation","34","18","11B,19B,24A,26A","75","43","33","","","","","","","","","","","","","","",""
"","","","","","html-keyboard-response","41","184128","0.0-17.0-2.7","86117b72-b50c-4fb3-ba28-64a3ade786ac","null","<p style=""text-align: center;"">+</p>","null","fixation","","","","","","","","","","","","","","","","","","","","",""
"","","","","","html-slider-response","42","185135","0.0-17.0-0.8","86117b72-b50c-4fb3-ba28-64a3ade786ac","1000","
                  <p style=""text-align: center;"">₪39
                                                <br>65%</p>
                  <p id=""wtp"" style=""text-align:center; margin-top: 0px; margin-bottom: 0px; font-size: 40px"";>&ensp;</p>","-","viewing","0","16","1A,15A,26C","","","","","","","","","","","","","","","","","",""
"","","","","","html-slider-response","43","187758","0.0-17.0-1.8","86117b72-b50c-4fb3-ba28-64a3ade786ac","2622","
                  <p style=""text-align: center;"">₪39
                                                <br>65%</p>
                  <p id=""wtp"" style=""text-align:center; margin-top: 0px; margin-bottom: 0px; font-size: 40px"";>מוכנים לשלם: <span id=""c_p_y""></span></p>","25","evaluation","67","16","1A,15A,26C","65","39","25","","","","","","","","","","","","","","",""
"","","","","","html-keyboard-response","44","188924","0.0-17.0-2.8","86117b72-b50c-4fb3-ba28-64a3ade786ac","null","<p style=""text-align: center;"">+</p>","null","fixation","","","","","","","","","","","","","","","","","","","","",""
"","","","","","html-slider-response","45","189926","0.0-17.0-0.9","86117b72-b50c-4fb3-ba28-64a3ade786ac","1000","
                  <p style=""text-align: center;"">₪4
                                                <br>25%</p>
                  <p id=""wtp"" style=""text-align:center; margin-top: 0px; margin-bottom: 0px; font-size: 40px"";>&ensp;</p>","-","viewing","0","1","6C,29B,30C","","","","","","","","","","","","","","","","","",""
"","","","","","html-slider-response","46","192039","0.0-17.0-1.9","86117b72-b50c-4fb3-ba28-64a3ade786ac","2111","
                  <p style=""text-align: center;"">₪4
                                                <br>25%</p>
                  <p id=""wtp"" style=""text-align:center; margin-top: 0px; margin-bottom: 0px; font-size: 40px"";>מוכנים לשלם: <span id=""c_p_y""></span></p>","13","evaluation","70","1","6C,29B,30C","25","4","13","","","","","","","","","","","","","","",""
"","","","","","html-keyboard-response","47","193488","0.0-17.0-2.9","86117b72-b50c-4fb3-ba28-64a3ade786ac","null","<p style=""text-align: center;"">+</p>","null","fixation","","","","","","","","","","","","","","","","","","","","",""
"","","","","","html-slider-response","48","194505","0.0-17.0-0.10","86117b72-b50c-4fb3-ba28-64a3ade786ac","1000","
                  <p style=""text-align: center;"">₪79
                                                <br>40%</p>
                  <p id=""wtp"" style=""text-align:center; margin-top: 0px; margin-bottom: 0px; font-size: 40px"";>&ensp;</p>","-","viewing","0","30","9B","","","","","","","","","","","","","","","","","",""
"","","","","","html-slider-response","49","198158","0.0-17.0-1.10","86117b72-b50c-4fb3-ba28-64a3ade786ac","3652","
                  <p style=""text-align: center;"">₪79
                                                <br>40%</p>
                  <p id=""wtp"" style=""text-align:center; margin-top: 0px; margin-bottom: 0px; font-size: 40px"";>מוכנים לשלם: <span id=""c_p_y""></span></p>","33","evaluation","4","30","9B","40","79","33","","","","","","","","","","","","","","",""
"","","","","","html-keyboard-response","50","199594","0.0-17.0-2.10","86117b72-b50c-4fb3-ba28-64a3ade786ac","null","<p style=""text-align: center;"">+</p>","null","fixation","","","","","","","","","","","","","","","","","","","","",""
"","","","","","html-slider-response","51","200596","0.0-17.0-0.11","86117b72-b50c-4fb3-ba28-64a3ade786ac","1000","
                  <p style=""text-align: center;"">₪11
                                                <br>25%</p>
                  <p id=""wtp"" style=""text-align:center; margin-top: 0px; margin-bottom: 0px; font-size: 40px"";>&ensp;</p>","-","viewing","0","5","12A,27B,28B,30B","","","","","","","","","","","","","","","","","",""
"","","","","","html-slider-response","52","203414","0.0-17.0-1.11","86117b72-b50c-4fb3-ba28-64a3ade786ac","2817","
                  <p style=""text-align: center;"">₪11
                                                <br>25%</p>
                  <p id=""wtp"" style=""text-align:center; margin-top: 0px; margin-bottom: 0px; font-size: 40px"";>מוכנים לשלם: <span id=""c_p_y""></span></p>","9","evaluation","55","5","12A,27B,28B,30B","25","11","9","","","","","","","","","","","","","","",""
"","","","","","html-keyboard-response","53","204518","0.0-17.0-2.11","86117b72-b50c-4fb3-ba28-64a3ade786ac","null","<p style=""text-align: center;"">+</p>","null","fixation","","","","","","","","","","","","","","","","","","","","",""
"","","","","","html-slider-response","54","205527","0.0-17.0-0.12","86117b72-b50c-4fb3-ba28-64a3ade786ac","1000","
                  <p style=""text-align: center;"">₪79
                                                <br>65%</p>
                  <p id=""wtp"" style=""text-align:center; margin-top: 0px; margin-bottom: 0px; font-size: 40px"";>&ensp;</p>","-","viewing","0","31","8A","","","","","","","","","","","","","","","","","",""
"","","","","","html-slider-response","55","208151","0.0-17.0-1.12","86117b72-b50c-4fb3-ba28-64a3ade786ac","2622","
                  <p style=""text-align: center;"">₪79
                                                <br>65%</p>
                  <p id=""wtp"" style=""text-align:center; margin-top: 0px; margin-bottom: 0px; font-size: 40px"";>מוכנים לשלם: <span id=""c_p_y""></span></p>","40","evaluation","59","31","8A","65","79","40","","","","","","","","","","","","","","",""
"","","","","","html-keyboard-response","56","208937","0.0-17.0-2.12","86117b72-b50c-4fb3-ba28-64a3ade786ac","null","<p style=""text-align: center;"">+</p>","null","fixation","","","","","","","","","","","","","","","","","","","","",""
"","","","","","html-slider-response","57","209948","0.0-17.0-0.13","86117b72-b50c-4fb3-ba28-64a3ade786ac","1000","
                  <p style=""text-align: center;"">₪58
                                                <br>30%</p>
                  <p id=""wtp"" style=""text-align:center; margin-top: 0px; margin-bottom: 0px; font-size: 40px"";>&ensp;</p>","-","viewing","0","19","13C,30A","","","","","","","","","","","","","","","","","",""
"","","","","","html-slider-response","58","213503","0.0-17.0-1.13","86117b72-b50c-4fb3-ba28-64a3ade786ac","3553","
                  <p style=""text-align: center;"">₪58
                                                <br>30%</p>
                  <p id=""wtp"" style=""text-align:center; margin-top: 0px; margin-bottom: 0px; font-size: 40px"";>מוכנים לשלם: <span id=""c_p_y""></span></p>","30","evaluation","80","19","13C,30A","30","58","30","","","","","","","","","","","","","","",""
"","","","","","html-keyboard-response","59","214872","0.0-17.0-2.13","86117b72-b50c-4fb3-ba28-64a3ade786ac","null","<p style=""text-align: center;"">+</p>","null","fixation","","","","","","","","","","","","","","","","","","","","",""
"","","","","","html-slider-response","60","215874","0.0-17.0-0.14","86117b72-b50c-4fb3-ba28-64a3ade786ac","1000","
                  <p style=""text-align: center;"">₪36
                                                <br>70%</p>
                  <p id=""wtp"" style=""text-align:center; margin-top: 0px; margin-bottom: 0px; font-size: 40px"";>&ensp;</p>","-","viewing","0","13","3A,5C,10B","","","","","","","","","","","","","","","","","",""
"","","","","","html-slider-response","61","218190","0.0-17.0-1.14","86117b72-b50c-4fb3-ba28-64a3ade786ac","2315","
                  <p style=""text-align: center;"">₪36
                                                <br>70%</p>
                  <p id=""wtp"" style=""text-align:center; margin-top: 0px; margin-bottom: 0px; font-size: 40px"";>מוכנים לשלם: <span id=""c_p_y""></span></p>","20","evaluation","52","13","3A,5C,10B","70","36","20","","","","","","","","","","","","","","",""
"","","","","","html-keyboard-response","62","219293","0.0-17.0-2.14","86117b72-b50c-4fb3-ba28-64a3ade786ac","null","<p style=""text-align: center;"">+</p>","null","fixation","","","","","","","","","","","","","","","","","","","","",""
"","","","","","html-slider-response","63","220304","0.0-17.0-0.15","86117b72-b50c-4fb3-ba28-64a3ade786ac","1000","
                  <p style=""text-align: center;"">₪11
                                                <br>45%</p>
                  <p id=""wtp"" style=""text-align:center; margin-top: 0px; margin-bottom: 0px; font-size: 40px"";>&ensp;</p>","-","viewing","0","6","14B,21C,25C","","","","","","","","","","","","","","","","","",""
"","","","","","html-slider-response","64","223839","0.0-17.0-1.15","86117b72-b50c-4fb3-ba28-64a3ade786ac","3534","
                  <p style=""text-align: center;"">₪11
                                                <br>45%</p>
                  <p id=""wtp"" style=""text-align:center; margin-top: 0px; margin-bottom: 0px; font-size: 40px"";>מוכנים לשלם: <span id=""c_p_y""></span></p>","8","evaluation","27","6","14B,21C,25C","45","11","8","","","","","","","","","","","","","","",""
"","","","","","html-keyboard-response","65","225019","0.0-17.0-2.15","86117b72-b50c-4fb3-ba28-64a3ade786ac","null","<p style=""text-align: center;"">+</p>","null","fixation","","","","","","","","","","","","","","","","","","","","",""
"","","","","","html-slider-response","66","226022","0.0-17.0-0.16","86117b72-b50c-4fb3-ba28-64a3ade786ac","1000","
                  <p style=""text-align: center;"">₪71
                                                <br>55%</p>
                  <p id=""wtp"" style=""text-align:center; margin-top: 0px; margin-bottom: 0px; font-size: 40px"";>&ensp;</p>","-","viewing","0","27","5B,18A","","","","","","","","","","","","","","","","","",""
"","","","","","html-slider-response","67","228358","0.0-17.0-1.16","86117b72-b50c-4fb3-ba28-64a3ade786ac","2335","
                  <p style=""text-align: center;"">₪71
                                                <br>55%</p>
                  <p id=""wtp"" style=""text-align:center; margin-top: 0px; margin-bottom: 0px; font-size: 40px"";>מוכנים לשלם: <span id=""c_p_y""></span></p>","41","evaluation","29","27","5B,18A","55","71","41","","","","","","","","","","","","","","",""
"","","","","","html-keyboard-response","68","229444","0.0-17.0-2.16","86117b72-b50c-4fb3-ba28-64a3ade786ac","null","<p style=""text-align: center;"">+</p>","null","fixation","","","","","","","","","","","","","","","","","","","","",""
"","","","","","html-slider-response","69","230445","0.0-17.0-0.17","86117b72-b50c-4fb3-ba28-64a3ade786ac","1000","
                  <p style=""text-align: center;"">₪61
                                                <br>55%</p>
                  <p id=""wtp"" style=""text-align:center; margin-top: 0px; margin-bottom: 0px; font-size: 40px"";>&ensp;</p>","-","viewing","0","23","7B,26B","","","","","","","","","","","","","","","","","",""
"","","","","","html-slider-response","70","234459","0.0-17.0-1.17","86117b72-b50c-4fb3-ba28-64a3ade786ac","null","
                  <p style=""text-align: center;"">₪61
                                                <br>55%</p>
                  <p id=""wtp"" style=""text-align:center; margin-top: 0px; margin-bottom: 0px; font-size: 40px"";>מוכנים לשלם: <span id=""c_p_y""></span></p>","null","evaluation","78","23","7B,26B","55","61","34","","","","","","","","","","","","","","",""
"","","","","","html-keyboard-response","71","235631","0.0-17.0-2.17","86117b72-b50c-4fb3-ba28-64a3ade786ac","null","<p style=""text-align: center;"">+</p>","null","fixation","","","","","","","","","","","","","","","","","","","","",""
"","","","","","html-slider-response","72","236633","0.0-17.0-0.18","86117b72-b50c-4fb3-ba28-64a3ade786ac","1000","
                  <p style=""text-align: center;"">₪16
                                                <br>20%</p>
                  <p id=""wtp"" style=""text-align:center; margin-top: 0px; margin-bottom: 0px; font-size: 40px"";>&ensp;</p>","-","viewing","0","8","14C,17A,20C,27A","","","","","","","","","","","","","","","","","",""
"","","","","","html-slider-response","73","238655","0.0-17.0-1.18","86117b72-b50c-4fb3-ba28-64a3ade786ac","2020","
                  <p style=""text-align: center;"">₪16
                                                <br>20%</p>
                  <p id=""wtp"" style=""text-align:center; margin-top: 0px; margin-bottom: 0px; font-size: 40px"";>מוכנים לשלם: <span id=""c_p_y""></span></p>","10","evaluation","15","8","14C,17A,20C,27A","20","16","10","","","","","","","","","","","","","","",""
"","","","","","html-keyboard-response","74","239977","0.0-17.0-2.18","86117b72-b50c-4fb3-ba28-64a3ade786ac","null","<p style=""text-align: center;"">+</p>","null","fixation","","","","","","","","","","","","","","","","","","","","",""
"","","","","","html-slider-response","75","240983","0.0-17.0-0.19","86117b72-b50c-4fb3-ba28-64a3ade786ac","1000","
                  <p style=""text-align: center;"">₪4
                                                <br>75%</p>
                  <p id=""wtp"" style=""text-align:center; margin-top: 0px; margin-bottom: 0px; font-size: 40px"";>&ensp;</p>","-","viewing","0","3","12B,20B,23B,27C,29C","","","","","","","","","","","","","","","","","",""
"","","","","","html-slider-response","76","244995","0.0-17.0-1.19","86117b72-b50c-4fb3-ba28-64a3ade786ac","null","
                  <p style=""text-align: center;"">₪4
                                                <br>75%</p>
                  <p id=""wtp"" style=""text-align:center; margin-top: 0px; margin-bottom: 0px; font-size: 40px"";>מוכנים לשלם: <span id=""c_p_y""></span></p>","null","evaluation","39","3","12B,20B,23B,27C,29C","75","4","6","","","","","","","","","","","","","","",""
"","","","","","html-keyboard-response","77","246247","0.0-17.0-2.19","86117b72-b50c-4fb3-ba28-64a3ade786ac","null","<p style=""text-align: center;"">+</p>","null","fixation","","","","","","","","","","","","","","","","","","","","",""
"","","","","","html-slider-response","78","247249","0.0-17.0-0.20","86117b72-b50c-4fb3-ba28-64a3ade786ac","1000","
                  <p style=""text-align: center;"">₪18
                                                <br>25%</p>
                  <p id=""wtp"" style=""text-align:center; margin-top: 0px; margin-bottom: 0px; font-size: 40px"";>&ensp;</p>","-","viewing","0","9","14A,23A","","","","","","","","","","","","","","","","","",""
"","","","","","html-slider-response","79","249951","0.0-17.0-1.20","86117b72-b50c-4fb3-ba28-64a3ade786ac","2700","
                  <p style=""text-align: center;"">₪18
                                                <br>25%</p>
                  <p id=""wtp"" style=""text-align:center; margin-top: 0px; margin-bottom: 0px; font-size: 40px"";>מוכנים לשלם: <span id=""c_p_y""></span></p>","5","evaluation","43","9","14A,23A","25","18","5","","","","","","","","","","","","","","",""
"","","","","","html-keyboard-response","80","250668","0.0-17.0-2.20","86117b72-b50c-4fb3-ba28-64a3ade786ac","null","<p style=""text-align: center;"">+</p>","null","fixation","","","","","","","","","","","","","","","","","","","","",""
"","","","","","html-slider-response","81","251684","0.0-17.0-0.21","86117b72-b50c-4fb3-ba28-64a3ade786ac","1000","
                  <p style=""text-align: center;"">₪11
                                                <br>75%</p>
                  <p id=""wtp"" style=""text-align:center; margin-top: 0px; margin-bottom: 0px; font-size: 40px"";>&ensp;</p>","-","viewing","0","7","6B,18B,22C,24C,29A","","","","","","","","","","","","","","","","","",""
"","","","","","html-slider-response","82","254326","0.0-17.0-1.21","86117b72-b50c-4fb3-ba28-64a3ade786ac","2641","
                  <p style=""text-align: center;"">₪11
                                                <br>75%</p>
                  <p id=""wtp"" style=""text-align:center; margin-top: 0px; margin-bottom: 0px; font-size: 40px"";>מוכנים לשלם: <span id=""c_p_y""></span></p>","6","evaluation","78","7","6B,18B,22C,24C,29A","75","11","6","","","","","","","","","","","","","","",""
"","","","","","html-keyboard-response","83","255244","0.0-17.0-2.21","86117b72-b50c-4fb3-ba28-64a3ade786ac","null","<p style=""text-align: center;"">+</p>","null","fixation","","","","","","","","","","","","","","","","","","","","",""
"","","","","","html-slider-response","84","256251","0.0-17.0-0.22","86117b72-b50c-4fb3-ba28-64a3ade786ac","1000","
                  <p style=""text-align: center;"">₪36
                                                <br>60%</p>
                  <p id=""wtp"" style=""text-align:center; margin-top: 0px; margin-bottom: 0px; font-size: 40px"";>&ensp;</p>","-","viewing","0","12","1C,7C,15C","","","","","","","","","","","","","","","","","",""
"","","","","","html-slider-response","85","260191","0.0-17.0-1.22","86117b72-b50c-4fb3-ba28-64a3ade786ac","3938","
                  <p style=""text-align: center;"">₪36
                                                <br>60%</p>
                  <p id=""wtp"" style=""text-align:center; margin-top: 0px; margin-bottom: 0px; font-size: 40px"";>מוכנים לשלם: <span id=""c_p_y""></span></p>","19","evaluation","26","12","1C,7C,15C","60","36","19","","","","","","","","","","","","","","",""
"","","","","","html-keyboard-response","86","261423","0.0-17.0-2.22","86117b72-b50c-4fb3-ba28-64a3ade786ac","null","<p style=""text-align: center;"">+</p>","null","fixation","","","","","","","","","","","","","","","","","","","","",""
"","","","","","html-slider-response","87","262430","0.0-17.0-0.23","86117b72-b50c-4fb3-ba28-64a3ade786ac","1000","
                  <p style=""text-align: center;"">₪36
                                                <br>30%</p>
                  <p id=""wtp"" style=""text-align:center; margin-top: 0px; margin-bottom: 0px; font-size: 40px"";>&ensp;</p>","-","viewing","0","11","3C,20A,22A","","","","","","","","","","","","","","","","","",""
"","","","","","html-slider-response","88","265399","0.0-17.0-1.23","86117b72-b50c-4fb3-ba28-64a3ade786ac","2967","
                  <p style=""text-align: center;"">₪36
                                                <br>30%</p>
                  <p id=""wtp"" style=""text-align:center; margin-top: 0px; margin-bottom: 0px; font-size: 40px"";>מוכנים לשלם: <span id=""c_p_y""></span></p>","20","evaluation","28","11","3C,20A,22A","30","36","20","","","","","","","","","","","","","","",""
"","","","","","html-keyboard-response","89","266543","0.0-17.0-2.23","86117b72-b50c-4fb3-ba28-64a3ade786ac","null","<p style=""text-align: center;"">+</p>","null","fixation","","","","","","","","","","","","","","","","","","","","",""
"","","","","","html-slider-response","90","267550","0.0-17.0-0.24","86117b72-b50c-4fb3-ba28-64a3ade786ac","1000","
                  <p style=""text-align: center;"">₪71
                                                <br>75%</p>
                  <p id=""wtp"" style=""text-align:center; margin-top: 0px; margin-bottom: 0px; font-size: 40px"";>&ensp;</p>","-","viewing","0","28","8B","","","","","","","","","","","","","","","","","",""
"","","","","","html-slider-response","91","270607","0.0-17.0-1.24","86117b72-b50c-4fb3-ba28-64a3ade786ac","3056","
                  <p style=""text-align: center;"">₪71
                                                <br>75%</p>
                  <p id=""wtp"" style=""text-align:center; margin-top: 0px; margin-bottom: 0px; font-size: 40px"";>מוכנים לשלם: <span id=""c_p_y""></span></p>","45","evaluation","5","28","8B","75","71","45","","","","","","","","","","","","","","",""
"","","","","","html-keyboard-response","92","271977","0.0-17.0-2.24","86117b72-b50c-4fb3-ba28-64a3ade786ac","null","<p style=""text-align: center;"">+</p>","null","fixation","","","","","","","","","","","","","","","","","","","","",""
"","","","","","html-slider-response","93","272995","0.0-17.0-0.25","86117b72-b50c-4fb3-ba28-64a3ade786ac","1000","
                  <p style=""text-align: center;"">₪58
                                                <br>45%</p>
                  <p id=""wtp"" style=""text-align:center; margin-top: 0px; margin-bottom: 0px; font-size: 40px"";>&ensp;</p>","-","viewing","0","21","11C,18C,25A","","","","","","","","","","","","","","","","","",""
"","","","","","html-slider-response","94","275726","0.0-17.0-1.25","86117b72-b50c-4fb3-ba28-64a3ade786ac","2730","
                  <p style=""text-align: center;"">₪58
                                                <br>45%</p>
                  <p id=""wtp"" style=""text-align:center; margin-top: 0px; margin-bottom: 0px; font-size: 40px"";>מוכנים לשלם: <span id=""c_p_y""></span></p>","40","evaluation","0","21","11C,18C,25A","45","58","40","","","","","","","","","","","","","","",""
"","","","","","html-keyboard-response","95","276644","0.0-17.0-2.25","86117b72-b50c-4fb3-ba28-64a3ade786ac","null","<p style=""text-align: center;"">+</p>","null","fixation","","","","","","","","","","","","","","","","","","","","",""
"","","","","","html-slider-response","96","277652","0.0-17.0-0.26","86117b72-b50c-4fb3-ba28-64a3ade786ac","1000","
                  <p style=""text-align: center;"">₪76
                                                <br>65%</p>
                  <p id=""wtp"" style=""text-align:center; margin-top: 0px; margin-bottom: 0px; font-size: 40px"";>&ensp;</p>","-","viewing","0","29","8C,19A,24B","","","","","","","","","","","","","","","","","",""
"","","","","","html-slider-response","97","281660","0.0-17.0-1.26","86117b72-b50c-4fb3-ba28-64a3ade786ac","null","
                  <p style=""text-align: center;"">₪76
                                                <br>65%</p>
                  <p id=""wtp"" style=""text-align:center; margin-top: 0px; margin-bottom: 0px; font-size: 40px"";>מוכנים לשלם: <span id=""c_p_y""></span></p>","null","evaluation","53","29","8C,19A,24B","65","76","45","","","","","","","","","","","","","","",""
"","","","","","html-keyboard-response","98","282697","0.0-17.0-2.26","86117b72-b50c-4fb3-ba28-64a3ade786ac","null","<p style=""text-align: center;"">+</p>","null","fixation","","","","","","","","","","","","","","","","","","","","",""
"","","","","","html-slider-response","99","283703","0.0-17.0-0.27","86117b72-b50c-4fb3-ba28-64a3ade786ac","1000","
                  <p style=""text-align: center;"">₪43
                                                <br>60%</p>
                  <p id=""wtp"" style=""text-align:center; margin-top: 0px; margin-bottom: 0px; font-size: 40px"";>&ensp;</p>","-","viewing","0","17","2A,7A,9A,15B","","","","","","","","","","","","","","","","","",""
"","","","","","html-slider-response","100","287214","0.0-17.0-1.27","86117b72-b50c-4fb3-ba28-64a3ade786ac","3510","
                  <p style=""text-align: center;"">₪43
                                                <br>60%</p>
                  <p id=""wtp"" style=""text-align:center; margin-top: 0px; margin-bottom: 0px; font-size: 40px"";>מוכנים לשלם: <span id=""c_p_y""></span></p>","25","evaluation","80","17","2A,7A,9A,15B","60","43","25","","","","","","","","","","","","","","",""
"","","","","","html-keyboard-response","101","287950","0.0-17.0-2.27","86117b72-b50c-4fb3-ba28-64a3ade786ac","null","<p style=""text-align: center;"">+</p>","null","fixation","","","","","","","","","","","","","","","","","","","","",""
"","","","","","html-slider-response","102","288968","0.0-17.0-0.28","86117b72-b50c-4fb3-ba28-64a3ade786ac","1000","
                  <p style=""text-align: center;"">₪18
                                                <br>50%</p>
                  <p id=""wtp"" style=""text-align:center; margin-top: 0px; margin-bottom: 0px; font-size: 40px"";>&ensp;</p>","-","viewing","0","10","2C,16C,22B,28A","","","","","","","","","","","","","","","","","",""
"","","","","","html-slider-response","103","292970","0.0-17.0-1.28","86117b72-b50c-4fb3-ba28-64a3ade786ac","null","
                  <p style=""text-align: center;"">₪18
                                                <br>50%</p>
                  <p id=""wtp"" style=""text-align:center; margin-top: 0px; margin-bottom: 0px; font-size: 40px"";>מוכנים לשלם: <span id=""c_p_y""></span></p>","null","evaluation","18","10","2C,16C,22B,28A","50","18","15","","","","","","","","","","","","","","",""
"","","","","","html-keyboard-response","104","293792","0.0-17.0-2.28","86117b72-b50c-4fb3-ba28-64a3ade786ac","null","<p style=""text-align: center;"">+</p>","null","fixation","","","","","","","","","","","","","","","","","","","","",""
"","","","","","html-slider-response","105","294794","0.0-17.0-0.29","86117b72-b50c-4fb3-ba28-64a3ade786ac","1000","
                  <p style=""text-align: center;"">₪64
                                                <br>50%</p>
                  <p id=""wtp"" style=""text-align:center; margin-top: 0px; margin-bottom: 0px; font-size: 40px"";>&ensp;</p>","-","viewing","0","25","1B,3B,4A","","","","","","","","","","","","","","","","","",""
"","","","","","html-slider-response","106","297318","0.0-17.0-1.29","86117b72-b50c-4fb3-ba28-64a3ade786ac","2523","
                  <p style=""text-align: center;"">₪64
                                                <br>50%</p>
                  <p id=""wtp"" style=""text-align:center; margin-top: 0px; margin-bottom: 0px; font-size: 40px"";>מוכנים לשלם: <span id=""c_p_y""></span></p>","30","evaluation","43","25","1B,3B,4A","50","64","30","","","","","","","","","","","","","","",""
"","","","","","html-keyboard-response","107","298251","0.0-17.0-2.29","86117b72-b50c-4fb3-ba28-64a3ade786ac","null","<p style=""text-align: center;"">+</p>","null","fixation","","","","","","","","","","","","","","","","","","","","",""
"","","","","","html-slider-response","108","299267","0.0-17.0-0.30","86117b72-b50c-4fb3-ba28-64a3ade786ac","1000","
                  <p style=""text-align: center;"">₪64
                                                <br>25%</p>
                  <p id=""wtp"" style=""text-align:center; margin-top: 0px; margin-bottom: 0px; font-size: 40px"";>&ensp;</p>","-","viewing","0","24","6A,21A","","","","","","","","","","","","","","","","","",""
"","","","","","html-slider-response","109","300982","0.0-17.0-1.30","86117b72-b50c-4fb3-ba28-64a3ade786ac","1713","
                  <p style=""text-align: center;"">₪64
                                                <br>25%</p>
                  <p id=""wtp"" style=""text-align:center; margin-top: 0px; margin-bottom: 0px; font-size: 40px"";>מוכנים לשלם: <span id=""c_p_y""></span></p>","20","evaluation","65","24","6A,21A","25","64","20","","","","","","","","","","","","","","",""
"","","","","","html-keyboard-response","110","302471","0.0-17.0-2.30","86117b72-b50c-4fb3-ba28-64a3ade786ac","null","<p style=""text-align: center;"">+</p>","null","fixation","","","","","","","","","","","","","","","","","","","","",""
"","","","","","html-keyboard-response","111","303481","0.0-18.0","86117b72-b50c-4fb3-ba28-64a3ade786ac","null","<p style=""text-align: center;"">+</p>","null","fixation","","","","","","","","","","","","","","","","","","","","",""
"","","","","","html-keyboard-response","112","305197","0.0-19.0","86117b72-b50c-4fb3-ba28-64a3ade786ac","null","<p>הפסקה.
          <br>לחצו כדי להמשיך.</p>","1","scan_wait","","","","","","","","","","","","","","","","","","","","",""
"","","","","","html-keyboard-response","113","306209","0.0-20.0","86117b72-b50c-4fb3-ba28-64a3ade786ac","null","<p style=""text-align: center;"">+</p>","null","fixation","","","","","","","","","","","","","","","","","","","","",""
"","","","","","html-slider-response","114","307213","0.0-21.0-0.0","86117b72-b50c-4fb3-ba28-64a3ade786ac","1000","
                  <p style=""text-align: center;"">₪79
                                                <br>40%</p>
                  <p id=""wtp"" style=""text-align:center; margin-top: 0px; margin-bottom: 0px; font-size: 40px"";>&ensp;</p>","-","viewing","0","30","9B","","","","","","","","","","","","","","","","","",""
"","","","","","html-slider-response","115","311094","0.0-21.0-1.0","86117b72-b50c-4fb3-ba28-64a3ade786ac","3879","
                  <p style=""text-align: center;"">₪79
                                                <br>40%</p>
                  <p id=""wtp"" style=""text-align:center; margin-top: 0px; margin-bottom: 0px; font-size: 40px"";>מוכנים לשלם: <span id=""c_p_y""></span></p>","26","evaluation","59","30","9B","40","79","26","","","","","","","","","","","","","","",""
"","","","","","html-keyboard-response","116","312524","0.0-21.0-2.0","86117b72-b50c-4fb3-ba28-64a3ade786ac","null","<p style=""text-align: center;"">+</p>","null","fixation","","","","","","","","","","","","","","","","","","","","",""
"","","","","","html-slider-response","117","313535","0.0-21.0-0.1","86117b72-b50c-4fb3-ba28-64a3ade786ac","1000","
                  <p style=""text-align: center;"">₪11
                                                <br>75%</p>
                  <p id=""wtp"" style=""text-align:center; margin-top: 0px; margin-bottom: 0px; font-size: 40px"";>&ensp;</p>","-","viewing","0","7","6B,18B,22C,24C,29A","","","","","","","","","","","","","","","","","",""
"","","","","","html-slider-response","118","315526","0.0-21.0-1.1","86117b72-b50c-4fb3-ba28-64a3ade786ac","1990","
                  <p style=""text-align: center;"">₪11
                                                <br>75%</p>
                  <p id=""wtp"" style=""text-align:center; margin-top: 0px; margin-bottom: 0px; font-size: 40px"";>מוכנים לשלם: <span id=""c_p_y""></span></p>","10","evaluation","55","7","6B,18B,22C,24C,29A","75","11","10","","","","","","","","","","","","","","",""
"","","","","","html-keyboard-response","119","316301","0.0-21.0-2.1","86117b72-b50c-4fb3-ba28-64a3ade786ac","null","<p style=""text-align: center;"">+</p>","null","fixation","","","","","","","","","","","","","","","","","","","","",""
"","","","","","html-slider-response","120","317314","0.0-21.0-0.2","86117b72-b50c-4fb3-ba28-64a3ade786ac","1000","
                  <p style=""text-align: center;"">₪11
                                                <br>45%</p>
                  <p id=""wtp"" style=""text-align:center; margin-top: 0px; margin-bottom: 0px; font-size: 40px"";>&ensp;</p>","-","viewing","0","6","14B,21C,25C","","","","","","","","","","","","","","","","","",""
"","","","","","html-slider-response","121","319774","0.0-21.0-1.2","86117b72-b50c-4fb3-ba28-64a3ade786ac","2459","
                  <p style=""text-align: center;"">₪11
                                                <br>45%</p>
                  <p id=""wtp"" style=""text-align:center; margin-top: 0px; margin-bottom: 0px; font-size: 40px"";>מוכנים לשלם: <span id=""c_p_y""></span></p>","10","evaluation","53","6","14B,21C,25C","45","11","10","","","","","","","","","","","","","","",""
"","","","","","html-keyboard-response","122","320362","0.0-21.0-2.2","86117b72-b50c-4fb3-ba28-64a3ade786ac","null","<p style=""text-align: center;"">+</p>","null","fixation","","","","","","","","","","","","","","","","","","","","",""
"","","","","","html-slider-response","123","321369","0.0-21.0-0.3","86117b72-b50c-4fb3-ba28-64a3ade786ac","1000","
                  <p style=""text-align: center;"">₪79
                                                <br>65%</p>
                  <p id=""wtp"" style=""text-align:center; margin-top: 0px; margin-bottom: 0px; font-size: 40px"";>&ensp;</p>","-","viewing","0","31","8A","","","","","","","","","","","","","","","","","",""
"","","","","","html-slider-response","124","325371","0.0-21.0-1.3","86117b72-b50c-4fb3-ba28-64a3ade786ac","null","
                  <p style=""text-align: center;"">₪79
                                                <br>65%</p>
                  <p id=""wtp"" style=""text-align:center; margin-top: 0px; margin-bottom: 0px; font-size: 40px"";>מוכנים לשלם: <span id=""c_p_y""></span></p>","null","evaluation","59","31","8A","65","79","38","","","","","","","","","","","","","","",""
"","","","","","html-keyboard-response","125","326454","0.0-21.0-2.3","86117b72-b50c-4fb3-ba28-64a3ade786ac","null","<p style=""text-align: center;"">+</p>","null","fixation","","","","","","","","","","","","","","","","","","","","",""
"","","","","","html-slider-response","126","327459","0.0-21.0-0.4","86117b72-b50c-4fb3-ba28-64a3ade786ac","1000","
                  <p style=""text-align: center;"">₪36
                                                <br>60%</p>
                  <p id=""wtp"" style=""text-align:center; margin-top: 0px; margin-bottom: 0px; font-size: 40px"";>&ensp;</p>","-","viewing","0","12","1C,7C,15C","","","","","","","","","","","","","","","","","",""
"","","","","","html-slider-response","127","329118","0.0-21.0-1.4","86117b72-b50c-4fb3-ba28-64a3ade786ac","1657","
                  <p style=""text-align: center;"">₪36
                                                <br>60%</p>
                  <p id=""wtp"" style=""text-align:center; margin-top: 0px; margin-bottom: 0px; font-size: 40px"";>מוכנים לשלם: <span id=""c_p_y""></span></p>","17","evaluation","38","12","1C,7C,15C","60","36","17","","","","","","","","","","","","","","",""
"","","","","","html-keyboard-response","128","329713","0.0-21.0-2.4","86117b72-b50c-4fb3-ba28-64a3ade786ac","null","<p style=""text-align: center;"">+</p>","null","fixation","","","","","","","","","","","","","","","","","","","","",""
"","","","","","html-slider-response","129","330726","0.0-21.0-0.5","86117b72-b50c-4fb3-ba28-64a3ade786ac","1000","
                  <p style=""text-align: center;"">₪39
                                                <br>65%</p>
                  <p id=""wtp"" style=""text-align:center; margin-top: 0px; margin-bottom: 0px; font-size: 40px"";>&ensp;</p>","-","viewing","0","16","1A,15A,26C","","","","","","","","","","","","","","","","","",""
"","","","","","html-slider-response","130","332254","0.0-21.0-1.5","86117b72-b50c-4fb3-ba28-64a3ade786ac","1526","
                  <p style=""text-align: center;"">₪39
                                                <br>65%</p>
                  <p id=""wtp"" style=""text-align:center; margin-top: 0px; margin-bottom: 0px; font-size: 40px"";>מוכנים לשלם: <span id=""c_p_y""></span></p>","25","evaluation","68","16","1A,15A,26C","65","39","25","","","","","","","","","","","","","","",""
"","","","","","html-keyboard-response","131","333261","0.0-21.0-2.5","86117b72-b50c-4fb3-ba28-64a3ade786ac","null","<p style=""text-align: center;"">+</p>","null","fixation","","","","","","","","","","","","","","","","","","","","",""
"","","","","","html-slider-response","132","334264","0.0-21.0-0.6","86117b72-b50c-4fb3-ba28-64a3ade786ac","1000","
                  <p style=""text-align: center;"">₪18
                                                <br>50%</p>
                  <p id=""wtp"" style=""text-align:center; margin-top: 0px; margin-bottom: 0px; font-size: 40px"";>&ensp;</p>","-","viewing","0","10","2C,16C,22B,28A","","","","","","","","","","","","","","","","","",""
"","","","","","html-slider-response","133","336654","0.0-21.0-1.6","86117b72-b50c-4fb3-ba28-64a3ade786ac","2389","
                  <p style=""text-align: center;"">₪18
                                                <br>50%</p>
                  <p id=""wtp"" style=""text-align:center; margin-top: 0px; margin-bottom: 0px; font-size: 40px"";>מוכנים לשלם: <span id=""c_p_y""></span></p>","9","evaluation","6","10","2C,16C,22B,28A","50","18","9","","","","","","","","","","","","","","",""
"","","","","","html-keyboard-response","134","337727","0.0-21.0-2.6","86117b72-b50c-4fb3-ba28-64a3ade786ac","null","<p style=""text-align: center;"">+</p>","null","fixation","","","","","","","","","","","","","","","","","","","","",""
"","","","","","html-slider-response","135","338740","0.0-21.0-0.7","86117b72-b50c-4fb3-ba28-64a3ade786ac","1000","
                  <p style=""text-align: center;"">₪58
                                                <br>45%</p>
                  <p id=""wtp"" style=""text-align:center; margin-top: 0px; margin-bottom: 0px; font-size: 40px"";>&ensp;</p>","-","viewing","0","21","11C,18C,25A","","","","","","","","","","","","","","","","","",""
"","","","","","html-slider-response","136","342190","0.0-21.0-1.7","86117b72-b50c-4fb3-ba28-64a3ade786ac","3448","
                  <p style=""text-align: center;"">₪58
                                                <br>45%</p>
                  <p id=""wtp"" style=""text-align:center; margin-top: 0px; margin-bottom: 0px; font-size: 40px"";>מוכנים לשלם: <span id=""c_p_y""></span></p>","20","evaluation","15","21","11C,18C,25A","45","58","20","","","","","","","","","","","","","","",""
"","","","","","html-keyboard-response","137","343372","0.0-21.0-2.7","86117b72-b50c-4fb3-ba28-64a3ade786ac","null","<p style=""text-align: center;"">+</p>","null","fixation","","","","","","","","","","","","","","","","","","","","",""
"","","","","","html-slider-response","138","344386","0.0-21.0-0.8","86117b72-b50c-4fb3-ba28-64a3ade786ac","1000","
                  <p style=""text-align: center;"">₪43
                                                <br>75%</p>
                  <p id=""wtp"" style=""text-align:center; margin-top: 0px; margin-bottom: 0px; font-size: 40px"";>&ensp;</p>","-","viewing","0","18","11B,19B,24A,26A","","","","","","","","","","","","","","","","","",""
"","","","","","html-slider-response","139","347862","0.0-21.0-1.8","86117b72-b50c-4fb3-ba28-64a3ade786ac","3474","
                  <p style=""text-align: center;"">₪43
                                                <br>75%</p>
                  <p id=""wtp"" style=""text-align:center; margin-top: 0px; margin-bottom: 0px; font-size: 40px"";>מוכנים לשלם: <span id=""c_p_y""></span></p>","27","evaluation","33","18","11B,19B,24A,26A","75","43","27","","","","","","","","","","","","","","",""
"","","","","","html-keyboard-response","140","349215","0.0-21.0-2.8","86117b72-b50c-4fb3-ba28-64a3ade786ac","null","<p style=""text-align: center;"">+</p>","null","fixation","","","","","","","","","","","","","","","","","","","","",""
"","","","","","html-slider-response","141","350224","0.0-21.0-0.9","86117b72-b50c-4fb3-ba28-64a3ade786ac","1000","
                  <p style=""text-align: center;"">₪4
                                                <br>25%</p>
                  <p id=""wtp"" style=""text-align:center; margin-top: 0px; margin-bottom: 0px; font-size: 40px"";>&ensp;</p>","-","viewing","0","1","6C,29B,30C","","","","","","","","","","","","","","","","","",""
"","","","","","html-slider-response","142","351910","0.0-21.0-1.9","86117b72-b50c-4fb3-ba28-64a3ade786ac","1684","
                  <p style=""text-align: center;"">₪4
                                                <br>25%</p>
                  <p id=""wtp"" style=""text-align:center; margin-top: 0px; margin-bottom: 0px; font-size: 40px"";>מוכנים לשלם: <span id=""c_p_y""></span></p>","1","evaluation","75","1","6C,29B,30C","25","4","2","","","","","","","","","","","","","","",""
"","","","","","html-keyboard-response","143","352638","0.0-21.0-2.9","86117b72-b50c-4fb3-ba28-64a3ade786ac","null","<p style=""text-align: center;"">+</p>","null","fixation","","","","","","","","","","","","","","","","","","","","",""
"","","","","","html-slider-response","144","353640","0.0-21.0-0.10","86117b72-b50c-4fb3-ba28-64a3ade786ac","1000","
                  <p style=""text-align: center;"">₪11
                                                <br>25%</p>
                  <p id=""wtp"" style=""text-align:center; margin-top: 0px; margin-bottom: 0px; font-size: 40px"";>&ensp;</p>","-","viewing","0","5","12A,27B,28B,30B","","","","","","","","","","","","","","","","","",""
"","","","","","html-slider-response","145","355478","0.0-21.0-1.10","86117b72-b50c-4fb3-ba28-64a3ade786ac","1837","
                  <p style=""text-align: center;"">₪11
                                                <br>25%</p>
                  <p id=""wtp"" style=""text-align:center; margin-top: 0px; margin-bottom: 0px; font-size: 40px"";>מוכנים לשלם: <span id=""c_p_y""></span></p>","6","evaluation","63","5","12A,27B,28B,30B","25","11","7","","","","","","","","","","","","","","",""
"","","","","","html-keyboard-response","146","356928","0.0-21.0-2.10","86117b72-b50c-4fb3-ba28-64a3ade786ac","null","<p style=""text-align: center;"">+</p>","null","fixation","","","","","","","","","","","","","","","","","","","","",""
"","","","","","html-slider-response","147","357938","0.0-21.0-0.11","86117b72-b50c-4fb3-ba28-64a3ade786ac","1000","
                  <p style=""text-align: center;"">₪43
                                                <br>60%</p>
                  <p id=""wtp"" style=""text-align:center; margin-top: 0px; margin-bottom: 0px; font-size: 40px"";>&ensp;</p>","-","viewing","0","17","2A,7A,9A,15B","","","","","","","","","","","","","","","","","",""
"","","","","","html-slider-response","148","361599","0.0-21.0-1.11","86117b72-b50c-4fb3-ba28-64a3ade786ac","3659","
                  <p style=""text-align: center;"">₪43
                                                <br>60%</p>
                  <p id=""wtp"" style=""text-align:center; margin-top: 0px; margin-bottom: 0px; font-size: 40px"";>מוכנים לשלם: <span id=""c_p_y""></span></p>","19","evaluation","77","17","2A,7A,9A,15B","60","43","19","","","","","","","","","","","","","","",""
"","","","","","html-keyboard-response","149","362390","0.0-21.0-2.11","86117b72-b50c-4fb3-ba28-64a3ade786ac","null","<p style=""text-align: center;"">+</p>","null","fixation","","","","","","","","","","","","","","","","","","","","",""
"","","","","","html-slider-response","150","363399","0.0-21.0-0.12","86117b72-b50c-4fb3-ba28-64a3ade786ac","1000","
                  <p style=""text-align: center;"">₪71
                                                <br>45%</p>
                  <p id=""wtp"" style=""text-align:center; margin-top: 0px; margin-bottom: 0px; font-size: 40px"";>&ensp;</p>","-","viewing","0","26","2B,16A","","","","","","","","","","","","","","","","","",""
"","","","","","html-slider-response","151","365975","0.0-21.0-1.12","86117b72-b50c-4fb3-ba28-64a3ade786ac","2575","
                  <p style=""text-align: center;"">₪71
                                                <br>45%</p>
                  <p id=""wtp"" style=""text-align:center; margin-top: 0px; margin-bottom: 0px; font-size: 40px"";>מוכנים לשלם: <span id=""c_p_y""></span></p>","40","evaluation","17","26","2B,16A","45","71","40","","","","","","","","","","","","","","",""
"","","","","","html-keyboard-response","152","367203","0.0-21.0-2.12","86117b72-b50c-4fb3-ba28-64a3ade786ac","null","<p style=""text-align: center;"">+</p>","null","fixation","","","","","","","","","","","","","","","","","","","","",""
"","","","","","html-slider-response","153","368215","0.0-21.0-0.13","86117b72-b50c-4fb3-ba28-64a3ade786ac","1000","
                  <p style=""text-align: center;"">₪18
                                                <br>25%</p>
                  <p id=""wtp"" style=""text-align:center; margin-top: 0px; margin-bottom: 0px; font-size: 40px"";>&ensp;</p>","-","viewing","0","9","14A,23A","","","","","","","","","","","","","","","","","",""
"","","","","","html-slider-response","154","370847","0.0-21.0-1.13","86117b72-b50c-4fb3-ba28-64a3ade786ac","2630","
                  <p style=""text-align: center;"">₪18
                                                <br>25%</p>
                  <p id=""wtp"" style=""text-align:center; margin-top: 0px; margin-bottom: 0px; font-size: 40px"";>מוכנים לשלם: <span id=""c_p_y""></span></p>","7","evaluation","33","9","14A,23A","25","18","8","","","","","","","","","","","","","","",""
"","","","","","html-keyboard-response","155","372227","0.0-21.0-2.13","86117b72-b50c-4fb3-ba28-64a3ade786ac","null","<p style=""text-align: center;"">+</p>","null","fixation","","","","","","","","","","","","","","","","","","","","",""
"","","","","","html-slider-response","156","373231","0.0-21.0-0.14","86117b72-b50c-4fb3-ba28-64a3ade786ac","1000","
                  <p style=""text-align: center;"">₪16
                                                <br>20%</p>
                  <p id=""wtp"" style=""text-align:center; margin-top: 0px; margin-bottom: 0px; font-size: 40px"";>&ensp;</p>","-","viewing","0","8","14C,17A,20C,27A","","","","","","","","","","","","","","","","","",""
"","","","","","html-slider-response","157","374166","0.0-21.0-1.14","86117b72-b50c-4fb3-ba28-64a3ade786ac","934","
                  <p style=""text-align: center;"">₪16
                                                <br>20%</p>
                  <p id=""wtp"" style=""text-align:center; margin-top: 0px; margin-bottom: 0px; font-size: 40px"";>מוכנים לשלם: <span id=""c_p_y""></span></p>","10","evaluation","11","8","14C,17A,20C,27A","20","16","10","","","","","","","","","","","","","","",""
"","","","","","html-keyboard-response","158","375394","0.0-21.0-2.14","86117b72-b50c-4fb3-ba28-64a3ade786ac","null","<p style=""text-align: center;"">+</p>","null","fixation","","","","","","","","","","","","","","","","","","","","",""
"","","","","","html-slider-response","159","376409","0.0-21.0-0.15","86117b72-b50c-4fb3-ba28-64a3ade786ac","1000","
                  <p style=""text-align: center;"">₪36
                                                <br>30%</p>
                  <p id=""wtp"" style=""text-align:center; margin-top: 0px; margin-bottom: 0px; font-size: 40px"";>&ensp;</p>","-","viewing","0","11","3C,20A,22A","","","","","","","","","","","","","","","","","",""
"","","","","","html-slider-response","160","380270","0.0-21.0-1.15","86117b72-b50c-4fb3-ba28-64a3ade786ac","3860","
                  <p style=""text-align: center;"">₪36
                                                <br>30%</p>
                  <p id=""wtp"" style=""text-align:center; margin-top: 0px; margin-bottom: 0px; font-size: 40px"";>מוכנים לשלם: <span id=""c_p_y""></span></p>","15","evaluation","7","11","3C,20A,22A","30","36","15","","","","","","","","","","","","","","",""
"","","","","","html-keyboard-response","161","380833","0.0-21.0-2.15","86117b72-b50c-4fb3-ba28-64a3ade786ac","null","<p style=""text-align: center;"">+</p>","null","fixation","","","","","","","","","","","","","","","","","","","","",""
"","","","","","html-slider-response","162","381841","0.0-21.0-0.16","86117b72-b50c-4fb3-ba28-64a3ade786ac","1000","
                  <p style=""text-align: center;"">₪58
                                                <br>40%</p>
                  <p id=""wtp"" style=""text-align:center; margin-top: 0px; margin-bottom: 0px; font-size: 40px"";>&ensp;</p>","-","viewing","0","20","10C,13A,19C,21B","","","","","","","","","","","","","","","","","",""
"","","","","","html-slider-response","163","383990","0.0-21.0-1.16","86117b72-b50c-4fb3-ba28-64a3ade786ac","2148","
                  <p style=""text-align: center;"">₪58
                                                <br>40%</p>
                  <p id=""wtp"" style=""text-align:center; margin-top: 0px; margin-bottom: 0px; font-size: 40px"";>מוכנים לשלם: <span id=""c_p_y""></span></p>","26","evaluation","18","20","10C,13A,19C,21B","40","58","26","","","","","","","","","","","","","","",""
"","","","","","html-keyboard-response","164","384767","0.0-21.0-2.16","86117b72-b50c-4fb3-ba28-64a3ade786ac","null","<p style=""text-align: center;"">+</p>","null","fixation","","","","","","","","","","","","","","","","","","","","",""
"","","","","","html-slider-response","165","385782","0.0-21.0-0.17","86117b72-b50c-4fb3-ba28-64a3ade786ac","1000","
                  <p style=""text-align: center;"">₪36
                                                <br>70%</p>
                  <p id=""wtp"" style=""text-align:center; margin-top: 0px; margin-bottom: 0px; font-size: 40px"";>&ensp;</p>","-","viewing","0","13","3A,5C,10B","","","","","","","","","","","","","","","","","",""
"","","","","","html-slider-response","166","388367","0.0-21.0-1.17","86117b72-b50c-4fb3-ba28-64a3ade786ac","2584","
                  <p style=""text-align: center;"">₪36
                                                <br>70%</p>
                  <p id=""wtp"" style=""text-align:center; margin-top: 0px; margin-bottom: 0px; font-size: 40px"";>מוכנים לשלם: <span id=""c_p_y""></span></p>","20","evaluation","39","13","3A,5C,10B","70","36","20","","","","","","","","","","","","","","",""
"","","","","","html-keyboard-response","167","389427","0.0-21.0-2.17","86117b72-b50c-4fb3-ba28-64a3ade786ac","null","<p style=""text-align: center;"">+</p>","null","fixation","","","","","","","","","","","","","","","","","","","","",""
"","","","","","html-slider-response","168","390438","0.0-21.0-0.18","86117b72-b50c-4fb3-ba28-64a3ade786ac","1000","
                  <p style=""text-align: center;"">₪61
                                                <br>45%</p>
                  <p id=""wtp"" style=""text-align:center; margin-top: 0px; margin-bottom: 0px; font-size: 40px"";>&ensp;</p>","-","viewing","0","22","10A,11A","","","","","","","","","","","","","","","","","",""
"","","","","","html-slider-response","169","393951","0.0-21.0-1.18","86117b72-b50c-4fb3-ba28-64a3ade786ac","3511","
                  <p style=""text-align: center;"">₪61
                                                <br>45%</p>
                  <p id=""wtp"" style=""text-align:center; margin-top: 0px; margin-bottom: 0px; font-size: 40px"";>מוכנים לשלם: <span id=""c_p_y""></span></p>","30","evaluation","44","22","10A,11A","45","61","30","","","","","","","","","","","","","","",""
"","","","","","html-keyboard-response","170","395010","0.0-21.0-2.18","86117b72-b50c-4fb3-ba28-64a3ade786ac","null","<p style=""text-align: center;"">+</p>","null","fixation","","","","","","","","","","","","","","","","","","","","",""
"","","","","","html-slider-response","171","396023","0.0-21.0-0.19","86117b72-b50c-4fb3-ba28-64a3ade786ac","1000","
                  <p style=""text-align: center;"">₪4
                                                <br>75%</p>
                  <p id=""wtp"" style=""text-align:center; margin-top: 0px; margin-bottom: 0px; font-size: 40px"";>&ensp;</p>","-","viewing","0","3","12B,20B,23B,27C,29C","","","","","","","","","","","","","","","","","",""
"","","","","","html-slider-response","172","398734","0.0-21.0-1.19","86117b72-b50c-4fb3-ba28-64a3ade786ac","2711","
                  <p style=""text-align: center;"">₪4
                                                <br>75%</p>
                  <p id=""wtp"" style=""text-align:center; margin-top: 0px; margin-bottom: 0px; font-size: 40px"";>מוכנים לשלם: <span id=""c_p_y""></span></p>","1","evaluation","49","3","12B,20B,23B,27C,29C","75","4","2","","","","","","","","","","","","","","",""
"","","","","","html-keyboard-response","173","399675","0.0-21.0-2.19","86117b72-b50c-4fb3-ba28-64a3ade786ac","null","<p style=""text-align: center;"">+</p>","null","fixation","","","","","","","","","","","","","","","","","","","","",""
"","","","","","html-slider-response","174","400681","0.0-21.0-0.20","86117b72-b50c-4fb3-ba28-64a3ade786ac","1000","
                  <p style=""text-align: center;"">₪58
                                                <br>30%</p>
                  <p id=""wtp"" style=""text-align:center; margin-top: 0px; margin-bottom: 0px; font-size: 40px"";>&ensp;</p>","-","viewing","0","19","13C,30A","","","","","","","","","","","","","","","","","",""
"","","","","","html-slider-response","175","403142","0.0-21.0-1.20","86117b72-b50c-4fb3-ba28-64a3ade786ac","2460","
                  <p style=""text-align: center;"">₪58
                                                <br>30%</p>
                  <p id=""wtp"" style=""text-align:center; margin-top: 0px; margin-bottom: 0px; font-size: 40px"";>מוכנים לשלם: <span id=""c_p_y""></span></p>","25","evaluation","0","19","13C,30A","30","58","25","","","","","","","","","","","","","","",""
"","","","","","html-keyboard-response","176","404087","0.0-21.0-2.20","86117b72-b50c-4fb3-ba28-64a3ade786ac","null","<p style=""text-align: center;"">+</p>","null","fixation","","","","","","","","","","","","","","","","","","","","",""
"","","","","","html-slider-response","177","405103","0.0-21.0-0.21","86117b72-b50c-4fb3-ba28-64a3ade786ac","1000","
                  <p style=""text-align: center;"">₪71
                                                <br>75%</p>
                  <p id=""wtp"" style=""text-align:center; margin-top: 0px; margin-bottom: 0px; font-size: 40px"";>&ensp;</p>","-","viewing","0","28","8B","","","","","","","","","","","","","","","","","",""
"","","","","","html-slider-response","178","407598","0.0-21.0-1.21","86117b72-b50c-4fb3-ba28-64a3ade786ac","2494","
                  <p style=""text-align: center;"">₪71
                                                <br>75%</p>
                  <p id=""wtp"" style=""text-align:center; margin-top: 0px; margin-bottom: 0px; font-size: 40px"";>מוכנים לשלם: <span id=""c_p_y""></span></p>","40","evaluation","47","28","8B","75","71","40","","","","","","","","","","","","","","",""
"","","","","","html-keyboard-response","179","408499","0.0-21.0-2.21","86117b72-b50c-4fb3-ba28-64a3ade786ac","null","<p style=""text-align: center;"">+</p>","null","fixation","","","","","","","","","","","","","","","","","","","","",""
"","","","","","html-slider-response","180","409515","0.0-21.0-0.22","86117b72-b50c-4fb3-ba28-64a3ade786ac","1000","
                  <p style=""text-align: center;"">₪71
                                                <br>55%</p>
                  <p id=""wtp"" style=""text-align:center; margin-top: 0px; margin-bottom: 0px; font-size: 40px"";>&ensp;</p>","-","viewing","0","27","5B,18A","","","","","","","","","","","","","","","","","",""
"","","","","","html-slider-response","181","413531","0.0-21.0-1.22","86117b72-b50c-4fb3-ba28-64a3ade786ac","null","
                  <p style=""text-align: center;"">₪71
                                                <br>55%</p>
                  <p id=""wtp"" style=""text-align:center; margin-top: 0px; margin-bottom: 0px; font-size: 40px"";>מוכנים לשלם: <span id=""c_p_y""></span></p>","null","evaluation","13","27","5B,18A","55","71","28","","","","","","","","","","","","","","",""
"","","","","","html-keyboard-response","182","414263","0.0-21.0-2.22","86117b72-b50c-4fb3-ba28-64a3ade786ac","null","<p style=""text-align: center;"">+</p>","null","fixation","","","","","","","","","","","","","","","","","","","","",""
"","","","","","html-slider-response","183","415279","0.0-21.0-0.23","86117b72-b50c-4fb3-ba28-64a3ade786ac","1000","
                  <p style=""text-align: center;"">₪64
                                                <br>25%</p>
                  <p id=""wtp"" style=""text-align:center; margin-top: 0px; margin-bottom: 0px; font-size: 40px"";>&ensp;</p>","-","viewing","0","24","6A,21A","","","","","","","","","","","","","","","","","",""
"","","","","","html-slider-response","184","417686","0.0-21.0-1.23","86117b72-b50c-4fb3-ba28-64a3ade786ac","2407","
                  <p style=""text-align: center;"">₪64
                                                <br>25%</p>
                  <p id=""wtp"" style=""text-align:center; margin-top: 0px; margin-bottom: 0px; font-size: 40px"";>מוכנים לשלם: <span id=""c_p_y""></span></p>","4","evaluation","16","24","6A,21A","25","64","5","","","","","","","","","","","","","","",""
"","","","","","html-keyboard-response","185","418410","0.0-21.0-2.23","86117b72-b50c-4fb3-ba28-64a3ade786ac","null","<p style=""text-align: center;"">+</p>","null","fixation","","","","","","","","","","","","","","","","","","","","",""
"","","","","","html-slider-response","186","419411","0.0-21.0-0.24","86117b72-b50c-4fb3-ba28-64a3ade786ac","1000","
                  <p style=""text-align: center;"">₪76
                                                <br>65%</p>
                  <p id=""wtp"" style=""text-align:center; margin-top: 0px; margin-bottom: 0px; font-size: 40px"";>&ensp;</p>","-","viewing","0","29","8C,19A,24B","","","","","","","","","","","","","","","","","",""
"","","","","","html-slider-response","187","421238","0.0-21.0-1.24","86117b72-b50c-4fb3-ba28-64a3ade786ac","1826","
                  <p style=""text-align: center;"">₪76
                                                <br>65%</p>
                  <p id=""wtp"" style=""text-align:center; margin-top: 0px; margin-bottom: 0px; font-size: 40px"";>מוכנים לשלם: <span id=""c_p_y""></span></p>","35","evaluation","59","29","8C,19A,24B","65","76","35","","","","","","","","","","","","","","",""
"","","","","","html-keyboard-response","188","421873","0.0-21.0-2.24","86117b72-b50c-4fb3-ba28-64a3ade786ac","null","<p style=""text-align: center;"">+</p>","null","fixation","","","","","","","","","","","","","","","","","","","","",""
"","","","","","html-slider-response","189","422879","0.0-21.0-0.25","86117b72-b50c-4fb3-ba28-64a3ade786ac","1000","
                  <p style=""text-align: center;"">₪64
                                                <br>50%</p>
                  <p id=""wtp"" style=""text-align:center; margin-top: 0px; margin-bottom: 0px; font-size: 40px"";>&ensp;</p>","-","viewing","0","25","1B,3B,4A","","","","","","","","","","","","","","","","","",""
"","","","","","html-slider-response","190","425086","0.0-21.0-1.25","86117b72-b50c-4fb3-ba28-64a3ade786ac","2206","
                  <p style=""text-align: center;"">₪64
                                                <br>50%</p>
                  <p id=""wtp"" style=""text-align:center; margin-top: 0px; margin-bottom: 0px; font-size: 40px"";>מוכנים לשלם: <span id=""c_p_y""></span></p>","30","evaluation","52","25","1B,3B,4A","50","64","30","","","","","","","","","","","","","","",""
"","","","","","html-keyboard-response","191","425746","0.0-21.0-2.25","86117b72-b50c-4fb3-ba28-64a3ade786ac","null","<p style=""text-align: center;"">+</p>","null","fixation","","","","","","","","","","","","","","","","","","","","",""
"","","","","","html-slider-response","192","426759","0.0-21.0-0.26","86117b72-b50c-4fb3-ba28-64a3ade786ac","1000","
                  <p style=""text-align: center;"">₪4
                                                <br>50%</p>
                  <p id=""wtp"" style=""text-align:center; margin-top: 0px; margin-bottom: 0px; font-size: 40px"";>&ensp;</p>","-","viewing","0","2","4C,17B","","","","","","","","","","","","","","","","","",""
"","","","","","html-slider-response","193","429886","0.0-21.0-1.26","86117b72-b50c-4fb3-ba28-64a3ade786ac","3126","
                  <p style=""text-align: center;"">₪4
                                                <br>50%</p>
                  <p id=""wtp"" style=""text-align:center; margin-top: 0px; margin-bottom: 0px; font-size: 40px"";>מוכנים לשלם: <span id=""c_p_y""></span></p>","2","evaluation","57","2","4C,17B","50","4","3","","","","","","","","","","","","","","",""
"","","","","","html-keyboard-response","194","431328","0.0-21.0-2.26","86117b72-b50c-4fb3-ba28-64a3ade786ac","null","<p style=""text-align: center;"">+</p>","null","fixation","","","","","","","","","","","","","","","","","","","","",""
"","","","","","html-slider-response","195","432331","0.0-21.0-0.27","86117b72-b50c-4fb3-ba28-64a3ade786ac","1000","
                  <p style=""text-align: center;"">₪11
                                                <br>20%</p>
                  <p id=""wtp"" style=""text-align:center; margin-top: 0px; margin-bottom: 0px; font-size: 40px"";>&ensp;</p>","-","viewing","0","4","12C,17C,23C,28C","","","","","","","","","","","","","","","","","",""
"","","","","","html-slider-response","196","436345","0.0-21.0-1.27","86117b72-b50c-4fb3-ba28-64a3ade786ac","null","
                  <p style=""text-align: center;"">₪11
                                                <br>20%</p>
                  <p id=""wtp"" style=""text-align:center; margin-top: 0px; margin-bottom: 0px; font-size: 40px"";>מוכנים לשלם: <span id=""c_p_y""></span></p>","null","evaluation","23","4","12C,17C,23C,28C","20","11","4","","","","","","","","","","","","","","",""
"","","","","","html-keyboard-response","197","437005","0.0-21.0-2.27","86117b72-b50c-4fb3-ba28-64a3ade786ac","null","<p style=""text-align: center;"">+</p>","null","fixation","","","","","","","","","","","","","","","","","","","","",""
"","","","","","html-slider-response","198","438015","0.0-21.0-0.28","86117b72-b50c-4fb3-ba28-64a3ade786ac","1000","
                  <p style=""text-align: center;"">₪39
                                                <br>60%</p>
                  <p id=""wtp"" style=""text-align:center; margin-top: 0px; margin-bottom: 0px; font-size: 40px"";>&ensp;</p>","-","viewing","0","15","9C,25B","","","","","","","","","","","","","","","","","",""
"","","","","","html-slider-response","199","440718","0.0-21.0-1.28","86117b72-b50c-4fb3-ba28-64a3ade786ac","2702","
                  <p style=""text-align: center;"">₪39
                                                <br>60%</p>
                  <p id=""wtp"" style=""text-align:center; margin-top: 0px; margin-bottom: 0px; font-size: 40px"";>מוכנים לשלם: <span id=""c_p_y""></span></p>","35","evaluation","31","15","9C,25B","60","39","35","","","","","","","","","","","","","","",""
"","","","","","html-keyboard-response","200","441594","0.0-21.0-2.28","86117b72-b50c-4fb3-ba28-64a3ade786ac","null","<p style=""text-align: center;"">+</p>","null","fixation","","","","","","","","","","","","","","","","","","","","",""
"","","","","","html-slider-response","201","442596","0.0-21.0-0.29","86117b72-b50c-4fb3-ba28-64a3ade786ac","1000","
                  <p style=""text-align: center;"">₪61
                                                <br>55%</p>
                  <p id=""wtp"" style=""text-align:center; margin-top: 0px; margin-bottom: 0px; font-size: 40px"";>&ensp;</p>","-","viewing","0","23","7B,26B","","","","","","","","","","","","","","","","","",""
"","","","","","html-slider-response","202","445302","0.0-21.0-1.29","86117b72-b50c-4fb3-ba28-64a3ade786ac","2705","
                  <p style=""text-align: center;"">₪61
                                                <br>55%</p>
                  <p id=""wtp"" style=""text-align:center; margin-top: 0px; margin-bottom: 0px; font-size: 40px"";>מוכנים לשלם: <span id=""c_p_y""></span></p>","29","evaluation","44","23","7B,26B","55","61","29","","","","","","","","","","","","","","",""
"","","","","","html-keyboard-response","203","446615","0.0-21.0-2.29","86117b72-b50c-4fb3-ba28-64a3ade786ac","null","<p style=""text-align: center;"">+</p>","null","fixation","","","","","","","","","","","","","","","","","","","","",""
"","","","","","html-slider-response","204","447630","0.0-21.0-0.30","86117b72-b50c-4fb3-ba28-64a3ade786ac","1000","
                  <p style=""text-align: center;"">₪36
                                                <br>75%</p>
                  <p id=""wtp"" style=""text-align:center; margin-top: 0px; margin-bottom: 0px; font-size: 40px"";>&ensp;</p>","-","viewing","0","14","4B,5A,13B,16B","","","","","","","","","","","","","","","","","",""
"","","","","","html-slider-response","205","450862","0.0-21.0-1.30","86117b72-b50c-4fb3-ba28-64a3ade786ac","3231","
                  <p style=""text-align: center;"">₪36
                                                <br>75%</p>
                  <p id=""wtp"" style=""text-align:center; margin-top: 0px; margin-bottom: 0px; font-size: 40px"";>מוכנים לשלם: <span id=""c_p_y""></span></p>","21","evaluation","20","14","4B,5A,13B,16B","75","36","21","","","","","","","","","","","","","","",""
"","","","","","html-keyboard-response","206","452156","0.0-21.0-2.30","86117b72-b50c-4fb3-ba28-64a3ade786ac","null","<p style=""text-align: center;"">+</p>","null","fixation","","","","","","","","","","","","","","","","","","","","",""
"","","","","","html-keyboard-response","207","453167","0.0-22.0","86117b72-b50c-4fb3-ba28-64a3ade786ac","null","<p style=""text-align: center;"">+</p>","null","fixation","","","","","","","","","","","","","","","","","","","","",""
"","","","","","html-keyboard-response","208","454166","0.0-23.0","86117b72-b50c-4fb3-ba28-64a3ade786ac","null","<p>הפסקה.
          <br>לחצו כדי להמשיך.</p>","1","scan_wait","","","","","","","","","","","","","","","","","","","","",""
"","","","","","html-keyboard-response","209","455171","0.0-24.0","86117b72-b50c-4fb3-ba28-64a3ade786ac","null","<p style=""text-align: center;"">+</p>","null","fixation","","","","","","","","","","","","","","","","","","","","",""
"","","","","","html-slider-response","210","456172","0.0-25.0-0.0","86117b72-b50c-4fb3-ba28-64a3ade786ac","1000","
                  <p style=""text-align: center;"">₪36
                                                <br>60%</p>
                  <p id=""wtp"" style=""text-align:center; margin-top: 0px; margin-bottom: 0px; font-size: 40px"";>&ensp;</p>","-","viewing","0","12","1C,7C,15C","","","","","","","","","","","","","","","","","",""
"","","","","","html-slider-response","211","459046","0.0-25.0-1.0","86117b72-b50c-4fb3-ba28-64a3ade786ac","2872","
                  <p style=""text-align: center;"">₪36
                                                <br>60%</p>
                  <p id=""wtp"" style=""text-align:center; margin-top: 0px; margin-bottom: 0px; font-size: 40px"";>מוכנים לשלם: <span id=""c_p_y""></span></p>","20","evaluation","44","12","1C,7C,15C","60","36","20","","","","","","","","","","","","","","",""
"","","","","","html-keyboard-response","212","460102","0.0-25.0-2.0","86117b72-b50c-4fb3-ba28-64a3ade786ac","null","<p style=""text-align: center;"">+</p>","null","fixation","","","","","","","","","","","","","","","","","","","","",""
"","","","","","html-slider-response","213","461104","0.0-25.0-0.1","86117b72-b50c-4fb3-ba28-64a3ade786ac","1000","
                  <p style=""text-align: center;"">₪16
                                                <br>20%</p>
                  <p id=""wtp"" style=""text-align:center; margin-top: 0px; margin-bottom: 0px; font-size: 40px"";>&ensp;</p>","-","viewing","0","8","14C,17A,20C,27A","","","","","","","","","","","","","","","","","",""
"","","","","","html-slider-response","214","463430","0.0-25.0-1.1","86117b72-b50c-4fb3-ba28-64a3ade786ac","2325","
                  <p style=""text-align: center;"">₪16
                                                <br>20%</p>
                  <p id=""wtp"" style=""text-align:center; margin-top: 0px; margin-bottom: 0px; font-size: 40px"";>מוכנים לשלם: <span id=""c_p_y""></span></p>","3","evaluation","74","8","14C,17A,20C,27A","20","16","4","","","","","","","","","","","","","","",""
"","","","","","html-keyboard-response","215","464903","0.0-25.0-2.1","86117b72-b50c-4fb3-ba28-64a3ade786ac","null","<p style=""text-align: center;"">+</p>","null","fixation","","","","","","","","","","","","","","","","","","","","",""
"","","","","","html-slider-response","216","465904","0.0-25.0-0.2","86117b72-b50c-4fb3-ba28-64a3ade786ac","1000","
                  <p style=""text-align: center;"">₪36
                                                <br>30%</p>
                  <p id=""wtp"" style=""text-align:center; margin-top: 0px; margin-bottom: 0px; font-size: 40px"";>&ensp;</p>","-","viewing","0","11","3C,20A,22A","","","","","","","","","","","","","","","","","",""
"","","","","","html-slider-response","217","469908","0.0-25.0-1.2","86117b72-b50c-4fb3-ba28-64a3ade786ac","null","
                  <p style=""text-align: center;"">₪36
                                                <br>30%</p>
                  <p id=""wtp"" style=""text-align:center; margin-top: 0px; margin-bottom: 0px; font-size: 40px"";>מוכנים לשלם: <span id=""c_p_y""></span></p>","null","evaluation","68","11","3C,20A,22A","30","36","10","","","","","","","","","","","","","","",""
"","","","","","html-keyboard-response","218","470678","0.0-25.0-2.2","86117b72-b50c-4fb3-ba28-64a3ade786ac","null","<p style=""text-align: center;"">+</p>","null","fixation","","","","","","","","","","","","","","","","","","","","",""
"","","","","","html-slider-response","219","471687","0.0-25.0-0.3","86117b72-b50c-4fb3-ba28-64a3ade786ac","1000","
                  <p style=""text-align: center;"">₪64
                                                <br>25%</p>
                  <p id=""wtp"" style=""text-align:center; margin-top: 0px; margin-bottom: 0px; font-size: 40px"";>&ensp;</p>","-","viewing","0","24","6A,21A","","","","","","","","","","","","","","","","","",""
"","","","","","html-slider-response","220","474950","0.0-25.0-1.3","86117b72-b50c-4fb3-ba28-64a3ade786ac","3262","
                  <p style=""text-align: center;"">₪64
                                                <br>25%</p>
                  <p id=""wtp"" style=""text-align:center; margin-top: 0px; margin-bottom: 0px; font-size: 40px"";>מוכנים לשלם: <span id=""c_p_y""></span></p>","9","evaluation","67","24","6A,21A","25","64","10","","","","","","","","","","","","","","",""
"","","","","","html-keyboard-response","221","476406","0.0-25.0-2.3","86117b72-b50c-4fb3-ba28-64a3ade786ac","null","<p style=""text-align: center;"">+</p>","null","fixation","","","","","","","","","","","","","","","","","","","","",""
"","","","","","html-slider-response","222","477419","0.0-25.0-0.4","86117b72-b50c-4fb3-ba28-64a3ade786ac","1000","
                  <p style=""text-align: center;"">₪18
                                                <br>50%</p>
                  <p id=""wtp"" style=""text-align:center; margin-top: 0px; margin-bottom: 0px; font-size: 40px"";>&ensp;</p>","-","viewing","0","10","2C,16C,22B,28A","","","","","","","","","","","","","","","","","",""
"","","","","","html-slider-response","223","481426","0.0-25.0-1.4","86117b72-b50c-4fb3-ba28-64a3ade786ac","null","
                  <p style=""text-align: center;"">₪18
                                                <br>50%</p>
                  <p id=""wtp"" style=""text-align:center; margin-top: 0px; margin-bottom: 0px; font-size: 40px"";>מוכנים לשלם: <span id=""c_p_y""></span></p>","null","evaluation","70","10","2C,16C,22B,28A","50","18","5","","","","","","","","","","","","","","",""
"","","","","","html-keyboard-response","224","482573","0.0-25.0-2.4","86117b72-b50c-4fb3-ba28-64a3ade786ac","null","<p style=""text-align: center;"">+</p>","null","fixation","","","","","","","","","","","","","","","","","","","","",""
"","","","","","html-slider-response","225","483588","0.0-25.0-0.5","86117b72-b50c-4fb3-ba28-64a3ade786ac","1000","
                  <p style=""text-align: center;"">₪43
                                                <br>75%</p>
                  <p id=""wtp"" style=""text-align:center; margin-top: 0px; margin-bottom: 0px; font-size: 40px"";>&ensp;</p>","-","viewing","0","18","11B,19B,24A,26A","","","","","","","","","","","","","","","","","",""
"","","","","","html-slider-response","226","486206","0.0-25.0-1.5","86117b72-b50c-4fb3-ba28-64a3ade786ac","2618","
                  <p style=""text-align: center;"">₪43
                                                <br>75%</p>
                  <p id=""wtp"" style=""text-align:center; margin-top: 0px; margin-bottom: 0px; font-size: 40px"";>מוכנים לשלם: <span id=""c_p_y""></span></p>","10","evaluation","43","18","11B,19B,24A,26A","75","43","10","","","","","","","","","","","","","","",""
"","","","","","html-keyboard-response","227","486793","0.0-25.0-2.5","86117b72-b50c-4fb3-ba28-64a3ade786ac","null","<p style=""text-align: center;"">+</p>","null","fixation","","","","","","","","","","","","","","","","","","","","",""
"","","","","","html-slider-response","228","487796","0.0-25.0-0.6","86117b72-b50c-4fb3-ba28-64a3ade786ac","1000","
                  <p style=""text-align: center;"">₪4
                                                <br>50%</p>
                  <p id=""wtp"" style=""text-align:center; margin-top: 0px; margin-bottom: 0px; font-size: 40px"";>&ensp;</p>","-","viewing","0","2","4C,17B","","","","","","","","","","","","","","","","","",""
"","","","","","html-slider-response","229","489102","0.0-25.0-1.6","86117b72-b50c-4fb3-ba28-64a3ade786ac","1305","
                  <p style=""text-align: center;"">₪4
                                                <br>50%</p>
                  <p id=""wtp"" style=""text-align:center; margin-top: 0px; margin-bottom: 0px; font-size: 40px"";>מוכנים לשלם: <span id=""c_p_y""></span></p>","0","evaluation","33","2","4C,17B","50","4","0","","","","","","","","","","","","","","",""
"","","","","","html-keyboard-response","230","490357","0.0-25.0-2.6","86117b72-b50c-4fb3-ba28-64a3ade786ac","null","<p style=""text-align: center;"">+</p>","null","fixation","","","","","","","","","","","","","","","","","","","","",""
"","","","","","html-slider-response","231","491359","0.0-25.0-0.7","86117b72-b50c-4fb3-ba28-64a3ade786ac","1000","
                  <p style=""text-align: center;"">₪64
                                                <br>50%</p>
                  <p id=""wtp"" style=""text-align:center; margin-top: 0px; margin-bottom: 0px; font-size: 40px"";>&ensp;</p>","-","viewing","0","25","1B,3B,4A","","","","","","","","","","","","","","","","","",""
"","","","","","html-slider-response","232","493814","0.0-25.0-1.7","86117b72-b50c-4fb3-ba28-64a3ade786ac","2454","
                  <p style=""text-align: center;"">₪64
                                                <br>50%</p>
                  <p id=""wtp"" style=""text-align:center; margin-top: 0px; margin-bottom: 0px; font-size: 40px"";>מוכנים לשלם: <span id=""c_p_y""></span></p>","15","evaluation","22","25","1B,3B,4A","50","64","15","","","","","","","","","","","","","","",""
"","","","","","html-keyboard-response","233","495169","0.0-25.0-2.7","86117b72-b50c-4fb3-ba28-64a3ade786ac","null","<p style=""text-align: center;"">+</p>","null","fixation","","","","","","","","","","","","","","","","","","","","",""
"","","","","","html-slider-response","234","496176","0.0-25.0-0.8","86117b72-b50c-4fb3-ba28-64a3ade786ac","1000","
                  <p style=""text-align: center;"">₪39
                                                <br>65%</p>
                  <p id=""wtp"" style=""text-align:center; margin-top: 0px; margin-bottom: 0px; font-size: 40px"";>&ensp;</p>","-","viewing","0","16","1A,15A,26C","","","","","","","","","","","","","","","","","",""
"","","","","","html-slider-response","235","499886","0.0-25.0-1.8","86117b72-b50c-4fb3-ba28-64a3ade786ac","3708","
                  <p style=""text-align: center;"">₪39
                                                <br>65%</p>
                  <p id=""wtp"" style=""text-align:center; margin-top: 0px; margin-bottom: 0px; font-size: 40px"";>מוכנים לשלם: <span id=""c_p_y""></span></p>","9","evaluation","34","16","1A,15A,26C","65","39","10","","","","","","","","","","","","","","",""
"","","","","","html-keyboard-response","236","501050","0.0-25.0-2.8","86117b72-b50c-4fb3-ba28-64a3ade786ac","null","<p style=""text-align: center;"">+</p>","null","fixation","","","","","","","","","","","","","","","","","","","","",""
"","","","","","html-slider-response","237","502059","0.0-25.0-0.9","86117b72-b50c-4fb3-ba28-64a3ade786ac","1000","
                  <p style=""text-align: center;"">₪36
                                                <br>70%</p>
                  <p id=""wtp"" style=""text-align:center; margin-top: 0px; margin-bottom: 0px; font-size: 40px"";>&ensp;</p>","-","viewing","0","13","3A,5C,10B","","","","","","","","","","","","","","","","","",""
"","","","","","html-slider-response","238","504766","0.0-25.0-1.9","86117b72-b50c-4fb3-ba28-64a3ade786ac","2706","
                  <p style=""text-align: center;"">₪36
                                                <br>70%</p>
                  <p id=""wtp"" style=""text-align:center; margin-top: 0px; margin-bottom: 0px; font-size: 40px"";>מוכנים לשלם: <span id=""c_p_y""></span></p>","14","evaluation","51","13","3A,5C,10B","70","36","15","","","","","","","","","","","","","","",""
"","","","","","html-keyboard-response","239","506248","0.0-25.0-2.9","86117b72-b50c-4fb3-ba28-64a3ade786ac","null","<p style=""text-align: center;"">+</p>","null","fixation","","","","","","","","","","","","","","","","","","","","",""
"","","","","","html-slider-response","240","507265","0.0-25.0-0.10","86117b72-b50c-4fb3-ba28-64a3ade786ac","1000","
                  <p style=""text-align: center;"">₪43
                                                <br>60%</p>
                  <p id=""wtp"" style=""text-align:center; margin-top: 0px; margin-bottom: 0px; font-size: 40px"";>&ensp;</p>","-","viewing","0","17","2A,7A,9A,15B","","","","","","","","","","","","","","","","","",""
"","","","","","html-slider-response","241","509694","0.0-25.0-1.10","86117b72-b50c-4fb3-ba28-64a3ade786ac","2428","
                  <p style=""text-align: center;"">₪43
                                                <br>60%</p>
                  <p id=""wtp"" style=""text-align:center; margin-top: 0px; margin-bottom: 0px; font-size: 40px"";>מוכנים לשלם: <span id=""c_p_y""></span></p>","15","evaluation","66","17","2A,7A,9A,15B","60","43","15","","","","","","","","","","","","","","",""
"","","","","","html-keyboard-response","242","510809","0.0-25.0-2.10","86117b72-b50c-4fb3-ba28-64a3ade786ac","null","<p style=""text-align: center;"">+</p>","null","fixation","","","","","","","","","","","","","","","","","","","","",""
"","","","","","html-slider-response","243","511813","0.0-25.0-0.11","86117b72-b50c-4fb3-ba28-64a3ade786ac","1000","
                  <p style=""text-align: center;"">₪71
                                                <br>55%</p>
                  <p id=""wtp"" style=""text-align:center; margin-top: 0px; margin-bottom: 0px; font-size: 40px"";>&ensp;</p>","-","viewing","0","27","5B,18A","","","","","","","","","","","","","","","","","",""
"","","","","","html-slider-response","244","515817","0.0-25.0-1.11","86117b72-b50c-4fb3-ba28-64a3ade786ac","null","
                  <p style=""text-align: center;"">₪71
                                                <br>55%</p>
                  <p id=""wtp"" style=""text-align:center; margin-top: 0px; margin-bottom: 0px; font-size: 40px"";>מוכנים לשלם: <span id=""c_p_y""></span></p>","null","evaluation","74","27","5B,18A","55","71","19","","","","","","","","","","","","","","",""
"","","","","","html-keyboard-response","245","516662","0.0-25.0-2.11","86117b72-b50c-4fb3-ba28-64a3ade786ac","null","<p style=""text-align: center;"">+</p>","null","fixation","","","","","","","","","","","","","","","","","","","","",""
"","","","","","html-slider-response","246","517673","0.0-25.0-0.12","86117b72-b50c-4fb3-ba28-64a3ade786ac","1000","
                  <p style=""text-align: center;"">₪4
                                                <br>75%</p>
                  <p id=""wtp"" style=""text-align:center; margin-top: 0px; margin-bottom: 0px; font-size: 40px"";>&ensp;</p>","-","viewing","0","3","12B,20B,23B,27C,29C","","","","","","","","","","","","","","","","","",""
"","","","","","html-slider-response","247","518422","0.0-25.0-1.12","86117b72-b50c-4fb3-ba28-64a3ade786ac","748","
                  <p style=""text-align: center;"">₪4
                                                <br>75%</p>
                  <p id=""wtp"" style=""text-align:center; margin-top: 0px; margin-bottom: 0px; font-size: 40px"";>מוכנים לשלם: <span id=""c_p_y""></span></p>","0","evaluation","69","3","12B,20B,23B,27C,29C","75","4","0","","","","","","","","","","","","","","",""
"","","","","","html-keyboard-response","248","519322","0.0-25.0-2.12","86117b72-b50c-4fb3-ba28-64a3ade786ac","null","<p style=""text-align: center;"">+</p>","null","fixation","","","","","","","","","","","","","","","","","","","","",""
"","","","","","html-slider-response","249","520324","0.0-25.0-0.13","86117b72-b50c-4fb3-ba28-64a3ade786ac","1000","
                  <p style=""text-align: center;"">₪36
                                                <br>75%</p>
                  <p id=""wtp"" style=""text-align:center; margin-top: 0px; margin-bottom: 0px; font-size: 40px"";>&ensp;</p>","-","viewing","0","14","4B,5A,13B,16B","","","","","","","","","","","","","","","","","",""
"","","","","","html-slider-response","250","522366","0.0-25.0-1.13","86117b72-b50c-4fb3-ba28-64a3ade786ac","2041","
                  <p style=""text-align: center;"">₪36
                                                <br>75%</p>
                  <p id=""wtp"" style=""text-align:center; margin-top: 0px; margin-bottom: 0px; font-size: 40px"";>מוכנים לשלם: <span id=""c_p_y""></span></p>","15","evaluation","61","14","4B,5A,13B,16B","75","36","15","","","","","","","","","","","","","","",""
"","","","","","html-keyboard-response","251","523217","0.0-25.0-2.13","86117b72-b50c-4fb3-ba28-64a3ade786ac","null","<p style=""text-align: center;"">+</p>","null","fixation","","","","","","","","","","","","","","","","","","","","",""
"","","","","","html-slider-response","252","524234","0.0-25.0-0.14","86117b72-b50c-4fb3-ba28-64a3ade786ac","1000","
                  <p style=""text-align: center;"">₪61
                                                <br>55%</p>
