"success","timeout","failed_images","failed_audio","failed_video","trial_type","trial_index","time_elapsed","internal_node_id","subject_id","rt","stimulus","response","part","slider_start","ID","set_ID","prob","amount","last_location","actual_choice","actual_EV","binary_id","trinary_id","catch","A_key","D_key","choice_prob","choice_amount","potential_prize_prob","potential_prize_amount","won_prize","total_prize","remaining_budget","accuracy"
"true","false","[]","[]","[]","preload","0","18","0.0-0.0","4b866b4b-b1c9-4174-b5ba-396d8e114625","","","","","","","","","","","","","","","","","","","","","","","","",""
"","","","","","html-keyboard-response","1","9393","0.0-1.0","4b866b4b-b1c9-4174-b5ba-396d8e114625","null","
          <h1>שלום וברוכים הבאים!</h1>
          <p>לפניכם ניסוי בקבלת החלטות עם שני חלקים.
          <br><br>לחצו על העכבר כדי להמשיך.</p>","0","example","","","","","","","","","","","","","","","","","","","","",""
"","","","","","html-keyboard-response","2","16128","0.0-2.0","4b866b4b-b1c9-4174-b5ba-396d8e114625","null","
        <h1>חלק 1</h1>
        <p>בקרוב יוצגו בפניכם הגרלות.
        <br>עליכם לבחור את המחיר המירבי שתהיו מוכנים לשלם כדי להשתתף בהגרלה שתוצג.
        <br>יש לכם תקציב של ₪80 לכל הגרלה. 
        <br>נסו להעריך כל הגרלה בנפרד ולחשוב כמה היא שווה עבורכם, ₪80 זמינים לכל הגרלה בנפרד.
        <br><br>לחצו על העכבר כדי להמשיך.</p>","1","instructions","","","","","","","","","","","","","","","","","","","","",""
"","","","","","html-keyboard-response","3","21801","0.0-3.0","4b866b4b-b1c9-4174-b5ba-396d8e114625","null","
        <p>בסוף הניסוי, המחשב יבחר את אחת ההגרלות ויקבע מחיר לכרטיס עבורה. 
        <br>במידה והמחיר שבחרתם נמוך מהמחיר שנבחר על ידי המחשב, לא תשתתפו בהגרלה ותשארו עם מלוא התקציב.
        <br>במידה והמחיר שבחרתם גבוה מהמחיר שנבחר על ידי המחשב, תשלמו את המחיר שנקבע ותשתתפו בהגרלה.
        <br><br>לחצו על העכבר כדי להמשיך.</p>","1","instructions","","","","","","","","","","","","","","","","","","","","",""
"","","","","","html-slider-response","4","34657","0.0-4.0","4b866b4b-b1c9-4174-b5ba-396d8e114625","12748","
        <p style=""font-size: 42px;"">נתחיל עם דוגמא: 
        <br>ההגרלה מטה מציעה 65% סיכוי לזכות ב-₪40 
        <br>&emsp;&emsp;&emsp;&emsp;&emsp;&emsp;&emsp;&emsp;&ensp;35% סיכוי לזכות ב-₪0.
        <br><br>מה המחיר המירבי שתהיו מוכנים לשלם על כרטיס להגרלה זו בין 0 ל-₪80?
        <br>הזיזו את העכבר על פני המלבן ולחצו כדי לבצע בחירה.</p>
        
        <p style=""text-align: center;"">₪40<br>65%</p>

        <p id=""wtp"" style=""text-align:center; margin-top: 0px; margin-bottom: 0px; font-size: 40px"";>מוכנים לשלם: <span id=""c_p_y""></span></p>","17","example","55","","","","","","","","","","","","","","","","","","","",""
"","","","","","html-keyboard-response","5","42545","0.0-5.0","4b866b4b-b1c9-4174-b5ba-396d8e114625","null","<p>יפה מאוד!
                <br> בחרתם שתהיו מוכנים לשלם ₪17 כדי להשתתף בהגרלה:
                <br><p style=""text-align: center;"">₪40<br>65%</p>
                <p>נשמע נכון?
                <br>נניח שהגרלה זו נבחרה בסוף הניסוי.
                <br>כעת המחשב יקבע מחיר עבורה באקראי.
                <br>לחצו על העכבר להמשך.</p>","1","example","","","","","","","","","","","","","","","","","","","","",""
"","","","","","html-keyboard-response","6","48496","0.0-6.0","4b866b4b-b1c9-4174-b5ba-396d8e114625","null","<p>המחשב קבע מחיר: ₪37
                <br>ואתם בחרתם לשלם לכל היותר: ₪17
                <br><br>מכיוון שהמחיר שבחרתם נמוך מהמחיר שנקבע, לא תתשתתפו בהגרלה.
                <br>במקרה כזה, בסוף הניסוי תקבלו את כל התקציב ההתחלתי של ₪80.
                <br><br>לחצו על העכבר להמשך.</p>","1","example","","","","","","","","","","","","","","","","","","","","",""
"","","","","","html-slider-response","7","54913","0.0-7.0","4b866b4b-b1c9-4174-b5ba-396d8e114625","6161","<p style=""font-size: 42px;"">הנה עוד דוגמא:
                <br>ההגרלה מטה מציעה 35% סיכוי לזכות ב-₪18 
                <br>&emsp;&emsp;&emsp;&emsp;&emsp;&emsp;&emsp;&emsp;&ensp;65% סיכוי לזכות ב-₪0.</p>
        
                <p style=""text-align: center;"">₪18<br>35%</p>
                <p id=""wtp"" style=""text-align:center; margin-top: 0px; margin-bottom: 0px; font-size: 40px"";>מוכנים לשלם: <span id=""c_p_y""></span></p>","1","example","25","","","","","","","","","","","","","","","","","","","",""
"","","","","","html-keyboard-response","8","62673","0.0-8.0","4b866b4b-b1c9-4174-b5ba-396d8e114625","null","<p>הייתם מוכנים לשלם  ₪1 כדי להשתתף בהגרלה:
                <p style=""text-align: center;"">₪18<br>35%</p>
                <p>כעת נניח שהמחשב בחר את ההגרלה הזו בסוף הניסוי, וקבע עבורה מחיר.
                <br><br>לחצו על העכבר כדי להמשיך.</p>","1","instructions","","","","","","","","","","","","","","","","","","","","",""
"","","","","","html-keyboard-response","9","71417","0.0-9.0","4b866b4b-b1c9-4174-b5ba-396d8e114625","null","<p>המחשב קבע מחיר להגרלה: ₪1
                <br>ואתם בחרתם לשלם לכל היותר: ₪1
                <br><br>כעת המחיר שנקבע זהה לזה שבחרתם, אז תשלמו את המחיר שקבע המחשב (₪1) ותשתתפו בהגרלה.
                <br>במקרה כזה, תסיימו את הניסוי עם תקציב של ₪79 ועם סיכוי לזכות ב-₪18 נוספים מההגרלה.
                <br>כלומר, תוכלו לקבל ₪79 אם לא תזכו בהגרלה, או ₪97 אם תזכו בהגרלה.
                <br><br>לחצו על העכבר להמשך.</p>","1","example","","","","","","","","","","","","","","","","","","","","",""
"","","","","","html-keyboard-response","10","78913","0.0-10.0","4b866b4b-b1c9-4174-b5ba-396d8e114625","null","<p>במהלך הניסוי, קודם תראו את ההגרלה ורק לאחר מכן תוכלו לבחור.
                <p>כמו כן, יהיו לכם מספר שניות מוגבל להגיב.
                <p>בואו ננסה זאת עם ההגרלה הקודמת.
                <br>לחצו על העכבר כדי להמשיך.</p>","1","instructions","","","","","","","","","","","","","","","","","","","","",""
"","","","","","html-slider-response","11","80180","0.0-11.0","4b866b4b-b1c9-4174-b5ba-396d8e114625","1000","
                    <p style=""text-align: center;"">₪18<br>35%</p>
                    <p id=""wtp"" style=""text-align:center; margin-top: 0px; margin-bottom: 0px; font-size: 40px"";>&ensp;</p>","37","instructions","0","","","","","","","","","","","","","","","","","","","",""
"","","","","","html-slider-response","12","83593","0.0-12.0","4b866b4b-b1c9-4174-b5ba-396d8e114625","3159","
                    <p style=""text-align: center;"">₪18<br>35%</p>
                    <p id=""wtp"" style=""text-align:center; margin-top: 0px; margin-bottom: 0px; font-size: 40px"";>מוכנים לשלם: <span id=""c_p_y""></span></p>","0","instructions","13","","","","","","","","","","","","","","","","","","","",""
"","","","","","html-keyboard-response","13","87465","0.0-13.0","4b866b4b-b1c9-4174-b5ba-396d8e114625","null","<p>יפה. הפעם בחרתם לשלם לכל היותר ₪0.
                <br><br>לחצו על העכבר כדי להמשיך.</p>","1","instructions","","","","","","","","","","","","","","","","","","","","",""
"","","","","","html-keyboard-response","14","93329","0.0-15.0","4b866b4b-b1c9-4174-b5ba-396d8e114625","null","<p>כעת נתחיל את הניסוי.
                <br><br>אתם תראו הגרלות ותתבקשו לבחור כמה תהיו מוכנים לשלם כדי להשתתף בהן.
                <br>יש לכם תקציב של ₪80 עבור כל הגרלה.
                <br>בסוף הניסוי הגרלה אחת תבחר באקראי ותשוחק.
                <br><br>לחצו על העכבר כדי להתחיל את הניסוי.</p>","1","instructions","","","","","","","","","","","","","","","","","","","","",""
"","","","","","html-keyboard-response","15","94582","0.0-16.0","4b866b4b-b1c9-4174-b5ba-396d8e114625","null","<p style=""text-align: center;"">+</p>","null","fixation","","","","","","","","","","","","","","","","","","","","",""
"","","","","","html-slider-response","16","95587","0.0-17.0-0.0","4b866b4b-b1c9-4174-b5ba-396d8e114625","1000","
                  <p style=""text-align: center;"">₪11
                                                <br>25%</p>
                  <p id=""wtp"" style=""text-align:center; margin-top: 0px; margin-bottom: 0px; font-size: 40px"";>&ensp;</p>","-","viewing","0","5","12A,27B,28B,30B","","","","","","","","","","","","","","","","","",""
"","","","","","html-slider-response","17","98305","0.0-17.0-1.0","4b866b4b-b1c9-4174-b5ba-396d8e114625","2716","
                  <p style=""text-align: center;"">₪11
                                                <br>25%</p>
                  <p id=""wtp"" style=""text-align:center; margin-top: 0px; margin-bottom: 0px; font-size: 40px"";>מוכנים לשלם: <span id=""c_p_y""></span></p>","1","evaluation","60","5","12A,27B,28B,30B","25","11","1","","","","","","","","","","","","","","",""
"","","","","","html-keyboard-response","18","99595","0.0-17.0-2.0","4b866b4b-b1c9-4174-b5ba-396d8e114625","null","<p style=""text-align: center;"">+</p>","null","fixation","","","","","","","","","","","","","","","","","","","","",""
"","","","","","html-slider-response","19","100599","0.0-17.0-0.1","4b866b4b-b1c9-4174-b5ba-396d8e114625","1000","
                  <p style=""text-align: center;"">₪71
                                                <br>75%</p>
                  <p id=""wtp"" style=""text-align:center; margin-top: 0px; margin-bottom: 0px; font-size: 40px"";>&ensp;</p>","-","viewing","0","28","8B","","","","","","","","","","","","","","","","","",""
"","","","","","html-slider-response","20","104209","0.0-17.0-1.1","4b866b4b-b1c9-4174-b5ba-396d8e114625","3609","
                  <p style=""text-align: center;"">₪71
                                                <br>75%</p>
                  <p id=""wtp"" style=""text-align:center; margin-top: 0px; margin-bottom: 0px; font-size: 40px"";>מוכנים לשלם: <span id=""c_p_y""></span></p>","22","evaluation","44","28","8B","75","71","23","","","","","","","","","","","","","","",""
"","","","","","html-keyboard-response","21","104851","0.0-17.0-2.1","4b866b4b-b1c9-4174-b5ba-396d8e114625","null","<p style=""text-align: center;"">+</p>","null","fixation","","","","","","","","","","","","","","","","","","","","",""
"","","","","","html-slider-response","22","105861","0.0-17.0-0.2","4b866b4b-b1c9-4174-b5ba-396d8e114625","1000","
                  <p style=""text-align: center;"">₪11
                                                <br>75%</p>
                  <p id=""wtp"" style=""text-align:center; margin-top: 0px; margin-bottom: 0px; font-size: 40px"";>&ensp;</p>","-","viewing","0","7","6B,18B,22C,24C,29A","","","","","","","","","","","","","","","","","",""
"","","","","","html-slider-response","23","108401","0.0-17.0-1.2","4b866b4b-b1c9-4174-b5ba-396d8e114625","2539","
                  <p style=""text-align: center;"">₪11
                                                <br>75%</p>
                  <p id=""wtp"" style=""text-align:center; margin-top: 0px; margin-bottom: 0px; font-size: 40px"";>מוכנים לשלם: <span id=""c_p_y""></span></p>","0","evaluation","56","7","6B,18B,22C,24C,29A","75","11","0","","","","","","","","","","","","","","",""
"","","","","","html-keyboard-response","24","109861","0.0-17.0-2.2","4b866b4b-b1c9-4174-b5ba-396d8e114625","null","<p style=""text-align: center;"">+</p>","null","fixation","","","","","","","","","","","","","","","","","","","","",""
"","","","","","html-slider-response","25","110872","0.0-17.0-0.3","4b866b4b-b1c9-4174-b5ba-396d8e114625","1000","
                  <p style=""text-align: center;"">₪4
                                                <br>50%</p>
                  <p id=""wtp"" style=""text-align:center; margin-top: 0px; margin-bottom: 0px; font-size: 40px"";>&ensp;</p>","-","viewing","0","2","4C,17B","","","","","","","","","","","","","","","","","",""
"","","","","","html-slider-response","26","112649","0.0-17.0-1.3","4b866b4b-b1c9-4174-b5ba-396d8e114625","1775","
                  <p style=""text-align: center;"">₪4
                                                <br>50%</p>
                  <p id=""wtp"" style=""text-align:center; margin-top: 0px; margin-bottom: 0px; font-size: 40px"";>מוכנים לשלם: <span id=""c_p_y""></span></p>","0","evaluation","63","2","4C,17B","50","4","0","","","","","","","","","","","","","","",""
"","","","","","html-keyboard-response","27","113593","0.0-17.0-2.3","4b866b4b-b1c9-4174-b5ba-396d8e114625","null","<p style=""text-align: center;"">+</p>","null","fixation","","","","","","","","","","","","","","","","","","","","",""
"","","","","","html-slider-response","28","114602","0.0-17.0-0.4","4b866b4b-b1c9-4174-b5ba-396d8e114625","1000","
                  <p style=""text-align: center;"">₪71
                                                <br>55%</p>
                  <p id=""wtp"" style=""text-align:center; margin-top: 0px; margin-bottom: 0px; font-size: 40px"";>&ensp;</p>","-","viewing","0","27","5B,18A","","","","","","","","","","","","","","","","","",""
"","","","","","html-slider-response","29","117313","0.0-17.0-1.4","4b866b4b-b1c9-4174-b5ba-396d8e114625","2709","
                  <p style=""text-align: center;"">₪71
                                                <br>55%</p>
                  <p id=""wtp"" style=""text-align:center; margin-top: 0px; margin-bottom: 0px; font-size: 40px"";>מוכנים לשלם: <span id=""c_p_y""></span></p>","11","evaluation","64","27","5B,18A","55","71","11","","","","","","","","","","","","","","",""
"","","","","","html-keyboard-response","30","118144","0.0-17.0-2.4","4b866b4b-b1c9-4174-b5ba-396d8e114625","null","<p style=""text-align: center;"">+</p>","null","fixation","","","","","","","","","","","","","","","","","","","","",""
"","","","","","html-slider-response","31","119157","0.0-17.0-0.5","4b866b4b-b1c9-4174-b5ba-396d8e114625","1000","
                  <p style=""text-align: center;"">₪64
                                                <br>50%</p>
                  <p id=""wtp"" style=""text-align:center; margin-top: 0px; margin-bottom: 0px; font-size: 40px"";>&ensp;</p>","-","viewing","0","25","1B,3B,4A","","","","","","","","","","","","","","","","","",""
"","","","","","html-slider-response","32","121673","0.0-17.0-1.5","4b866b4b-b1c9-4174-b5ba-396d8e114625","2515","
                  <p style=""text-align: center;"">₪64
                                                <br>50%</p>
                  <p id=""wtp"" style=""text-align:center; margin-top: 0px; margin-bottom: 0px; font-size: 40px"";>מוכנים לשלם: <span id=""c_p_y""></span></p>","27","evaluation","29","25","1B,3B,4A","50","64","28","","","","","","","","","","","","","","",""
"","","","","","html-keyboard-response","33","122863","0.0-17.0-2.5","4b866b4b-b1c9-4174-b5ba-396d8e114625","null","<p style=""text-align: center;"">+</p>","null","fixation","","","","","","","","","","","","","","","","","","","","",""
"","","","","","html-slider-response","34","123866","0.0-17.0-0.6","4b866b4b-b1c9-4174-b5ba-396d8e114625","1000","
                  <p style=""text-align: center;"">₪39
                                                <br>60%</p>
                  <p id=""wtp"" style=""text-align:center; margin-top: 0px; margin-bottom: 0px; font-size: 40px"";>&ensp;</p>","-","viewing","0","15","9C,25B","","","","","","","","","","","","","","","","","",""
"","","","","","html-slider-response","35","127257","0.0-17.0-1.6","4b866b4b-b1c9-4174-b5ba-396d8e114625","3389","
                  <p style=""text-align: center;"">₪39
                                                <br>60%</p>
                  <p id=""wtp"" style=""text-align:center; margin-top: 0px; margin-bottom: 0px; font-size: 40px"";>מוכנים לשלם: <span id=""c_p_y""></span></p>","13","evaluation","75","15","9C,25B","60","39","13","","","","","","","","","","","","","","",""
"","","","","","html-keyboard-response","36","127827","0.0-17.0-2.6","4b866b4b-b1c9-4174-b5ba-396d8e114625","null","<p style=""text-align: center;"">+</p>","null","fixation","","","","","","","","","","","","","","","","","","","","",""
"","","","","","html-slider-response","37","128836","0.0-17.0-0.7","4b866b4b-b1c9-4174-b5ba-396d8e114625","1000","
                  <p style=""text-align: center;"">₪58
                                                <br>45%</p>
                  <p id=""wtp"" style=""text-align:center; margin-top: 0px; margin-bottom: 0px; font-size: 40px"";>&ensp;</p>","-","viewing","0","21","11C,18C,25A","","","","","","","","","","","","","","","","","",""
"","","","","","html-slider-response","38","131913","0.0-17.0-1.7","4b866b4b-b1c9-4174-b5ba-396d8e114625","3076","
                  <p style=""text-align: center;"">₪58
                                                <br>45%</p>
                  <p id=""wtp"" style=""text-align:center; margin-top: 0px; margin-bottom: 0px; font-size: 40px"";>מוכנים לשלם: <span id=""c_p_y""></span></p>","9","evaluation","59","21","11C,18C,25A","45","58","10","","","","","","","","","","","","","","",""
"","","","","","html-keyboard-response","39","132529","0.0-17.0-2.7","4b866b4b-b1c9-4174-b5ba-396d8e114625","null","<p style=""text-align: center;"">+</p>","null","fixation","","","","","","","","","","","","","","","","","","","","",""
"","","","","","html-slider-response","40","133546","0.0-17.0-0.8","4b866b4b-b1c9-4174-b5ba-396d8e114625","1000","
                  <p style=""text-align: center;"">₪43
                                                <br>60%</p>
                  <p id=""wtp"" style=""text-align:center; margin-top: 0px; margin-bottom: 0px; font-size: 40px"";>&ensp;</p>","-","viewing","0","17","2A,7A,9A,15B","","","","","","","","","","","","","","","","","",""
"","","","","","html-slider-response","41","136929","0.0-17.0-1.8","4b866b4b-b1c9-4174-b5ba-396d8e114625","3383","
                  <p style=""text-align: center;"">₪43
                                                <br>60%</p>
                  <p id=""wtp"" style=""text-align:center; margin-top: 0px; margin-bottom: 0px; font-size: 40px"";>מוכנים לשלם: <span id=""c_p_y""></span></p>","8","evaluation","50","17","2A,7A,9A,15B","60","43","9","","","","","","","","","","","","","","",""
"","","","","","html-keyboard-response","42","137734","0.0-17.0-2.8","4b866b4b-b1c9-4174-b5ba-396d8e114625","null","<p style=""text-align: center;"">+</p>","null","fixation","","","","","","","","","","","","","","","","","","","","",""
"","","","","","html-slider-response","43","138737","0.0-17.0-0.9","4b866b4b-b1c9-4174-b5ba-396d8e114625","1000","
                  <p style=""text-align: center;"">₪4
                                                <br>75%</p>
                  <p id=""wtp"" style=""text-align:center; margin-top: 0px; margin-bottom: 0px; font-size: 40px"";>&ensp;</p>","-","viewing","0","3","12B,20B,23B,27C,29C","","","","","","","","","","","","","","","","","",""
"","","","","","html-slider-response","44","140593","0.0-17.0-1.9","4b866b4b-b1c9-4174-b5ba-396d8e114625","1854","
                  <p style=""text-align: center;"">₪4
                                                <br>75%</p>
                  <p id=""wtp"" style=""text-align:center; margin-top: 0px; margin-bottom: 0px; font-size: 40px"";>מוכנים לשלם: <span id=""c_p_y""></span></p>","0","evaluation","42","3","12B,20B,23B,27C,29C","75","4","0","","","","","","","","","","","","","","",""
"","","","","","html-keyboard-response","45","141650","0.0-17.0-2.9","4b866b4b-b1c9-4174-b5ba-396d8e114625","null","<p style=""text-align: center;"">+</p>","null","fixation","","","","","","","","","","","","","","","","","","","","",""
"","","","","","html-slider-response","46","142665","0.0-17.0-0.10","4b866b4b-b1c9-4174-b5ba-396d8e114625","1000","
                  <p style=""text-align: center;"">₪79
                                                <br>65%</p>
                  <p id=""wtp"" style=""text-align:center; margin-top: 0px; margin-bottom: 0px; font-size: 40px"";>&ensp;</p>","-","viewing","0","31","8A","","","","","","","","","","","","","","","","","",""
"","","","","","html-slider-response","47","144553","0.0-17.0-1.10","4b866b4b-b1c9-4174-b5ba-396d8e114625","1887","
                  <p style=""text-align: center;"">₪79
                                                <br>65%</p>
                  <p id=""wtp"" style=""text-align:center; margin-top: 0px; margin-bottom: 0px; font-size: 40px"";>מוכנים לשלם: <span id=""c_p_y""></span></p>","20","evaluation","4","31","8A","65","79","20","","","","","","","","","","","","","","",""
"","","","","","html-keyboard-response","48","145223","0.0-17.0-2.10","4b866b4b-b1c9-4174-b5ba-396d8e114625","null","<p style=""text-align: center;"">+</p>","null","fixation","","","","","","","","","","","","","","","","","","","","",""
"","","","","","html-slider-response","49","146230","0.0-17.0-0.11","4b866b4b-b1c9-4174-b5ba-396d8e114625","1000","
                  <p style=""text-align: center;"">₪71
                                                <br>45%</p>
                  <p id=""wtp"" style=""text-align:center; margin-top: 0px; margin-bottom: 0px; font-size: 40px"";>&ensp;</p>","-","viewing","0","26","2B,16A","","","","","","","","","","","","","","","","","",""
"","","","","","html-slider-response","50","150242","0.0-17.0-1.11","4b866b4b-b1c9-4174-b5ba-396d8e114625","null","
                  <p style=""text-align: center;"">₪71
                                                <br>45%</p>
                  <p id=""wtp"" style=""text-align:center; margin-top: 0px; margin-bottom: 0px; font-size: 40px"";>מוכנים לשלם: <span id=""c_p_y""></span></p>","null","evaluation","47","26","2B,16A","45","71","14","","","","","","","","","","","","","","",""
"","","","","","html-keyboard-response","51","151413","0.0-17.0-2.11","4b866b4b-b1c9-4174-b5ba-396d8e114625","null","<p style=""text-align: center;"">+</p>","null","fixation","","","","","","","","","","","","","","","","","","","","",""
"","","","","","html-slider-response","52","152423","0.0-17.0-0.12","4b866b4b-b1c9-4174-b5ba-396d8e114625","1000","
                  <p style=""text-align: center;"">₪11
                                                <br>20%</p>
                  <p id=""wtp"" style=""text-align:center; margin-top: 0px; margin-bottom: 0px; font-size: 40px"";>&ensp;</p>","-","viewing","0","4","12C,17C,23C,28C","","","","","","","","","","","","","","","","","",""
"","","","","","html-slider-response","53","153641","0.0-17.0-1.12","4b866b4b-b1c9-4174-b5ba-396d8e114625","1216","
                  <p style=""text-align: center;"">₪11
                                                <br>20%</p>
                  <p id=""wtp"" style=""text-align:center; margin-top: 0px; margin-bottom: 0px; font-size: 40px"";>מוכנים לשלם: <span id=""c_p_y""></span></p>","0","evaluation","42","4","12C,17C,23C,28C","20","11","0","","","","","","","","","","","","","","",""
"","","","","","html-keyboard-response","54","154266","0.0-17.0-2.12","4b866b4b-b1c9-4174-b5ba-396d8e114625","null","<p style=""text-align: center;"">+</p>","null","fixation","","","","","","","","","","","","","","","","","","","","",""
"","","","","","html-slider-response","55","155281","0.0-17.0-0.13","4b866b4b-b1c9-4174-b5ba-396d8e114625","1000","
                  <p style=""text-align: center;"">₪16
                                                <br>20%</p>
                  <p id=""wtp"" style=""text-align:center; margin-top: 0px; margin-bottom: 0px; font-size: 40px"";>&ensp;</p>","-","viewing","0","8","14C,17A,20C,27A","","","","","","","","","","","","","","","","","",""
"","","","","","html-slider-response","56","157153","0.0-17.0-1.13","4b866b4b-b1c9-4174-b5ba-396d8e114625","1871","
                  <p style=""text-align: center;"">₪16
                                                <br>20%</p>
                  <p id=""wtp"" style=""text-align:center; margin-top: 0px; margin-bottom: 0px; font-size: 40px"";>מוכנים לשלם: <span id=""c_p_y""></span></p>","0","evaluation","18","8","14C,17A,20C,27A","20","16","1","","","","","","","","","","","","","","",""
"","","","","","html-keyboard-response","57","158295","0.0-17.0-2.13","4b866b4b-b1c9-4174-b5ba-396d8e114625","null","<p style=""text-align: center;"">+</p>","null","fixation","","","","","","","","","","","","","","","","","","","","",""
"","","","","","html-slider-response","58","159301","0.0-17.0-0.14","4b866b4b-b1c9-4174-b5ba-396d8e114625","1000","
                  <p style=""text-align: center;"">₪36
                                                <br>60%</p>
                  <p id=""wtp"" style=""text-align:center; margin-top: 0px; margin-bottom: 0px; font-size: 40px"";>&ensp;</p>","-","viewing","0","12","1C,7C,15C","","","","","","","","","","","","","","","","","",""
"","","","","","html-slider-response","59","161545","0.0-17.0-1.14","4b866b4b-b1c9-4174-b5ba-396d8e114625","2243","
                  <p style=""text-align: center;"">₪36
                                                <br>60%</p>
                  <p id=""wtp"" style=""text-align:center; margin-top: 0px; margin-bottom: 0px; font-size: 40px"";>מוכנים לשלם: <span id=""c_p_y""></span></p>","3","evaluation","52","12","1C,7C,15C","60","36","4","","","","","","","","","","","","","","",""
"","","","","","html-keyboard-response","60","162892","0.0-17.0-2.14","4b866b4b-b1c9-4174-b5ba-396d8e114625","null","<p style=""text-align: center;"">+</p>","null","fixation","","","","","","","","","","","","","","","","","","","","",""
"","","","","","html-slider-response","61","163898","0.0-17.0-0.15","4b866b4b-b1c9-4174-b5ba-396d8e114625","1000","
                  <p style=""text-align: center;"">₪36
                                                <br>70%</p>
                  <p id=""wtp"" style=""text-align:center; margin-top: 0px; margin-bottom: 0px; font-size: 40px"";>&ensp;</p>","-","viewing","0","13","3A,5C,10B","","","","","","","","","","","","","","","","","",""
"","","","","","html-slider-response","62","166993","0.0-17.0-1.15","4b866b4b-b1c9-4174-b5ba-396d8e114625","3094","
                  <p style=""text-align: center;"">₪36
                                                <br>70%</p>
                  <p id=""wtp"" style=""text-align:center; margin-top: 0px; margin-bottom: 0px; font-size: 40px"";>מוכנים לשלם: <span id=""c_p_y""></span></p>","5","evaluation","80","13","3A,5C,10B","70","36","6","","","","","","","","","","","","","","",""
"","","","","","html-keyboard-response","63","168181","0.0-17.0-2.15","4b866b4b-b1c9-4174-b5ba-396d8e114625","null","<p style=""text-align: center;"">+</p>","null","fixation","","","","","","","","","","","","","","","","","","","","",""
"","","","","","html-slider-response","64","169183","0.0-17.0-0.16","4b866b4b-b1c9-4174-b5ba-396d8e114625","1000","
                  <p style=""text-align: center;"">₪58
                                                <br>40%</p>
                  <p id=""wtp"" style=""text-align:center; margin-top: 0px; margin-bottom: 0px; font-size: 40px"";>&ensp;</p>","-","viewing","0","20","10C,13A,19C,21B","","","","","","","","","","","","","","","","","",""
"","","","","","html-slider-response","65","172233","0.0-17.0-1.16","4b866b4b-b1c9-4174-b5ba-396d8e114625","3048","
                  <p style=""text-align: center;"">₪58
                                                <br>40%</p>
                  <p id=""wtp"" style=""text-align:center; margin-top: 0px; margin-bottom: 0px; font-size: 40px"";>מוכנים לשלם: <span id=""c_p_y""></span></p>","5","evaluation","44","20","10C,13A,19C,21B","40","58","5","","","","","","","","","","","","","","",""
"","","","","","html-keyboard-response","66","172764","0.0-17.0-2.16","4b866b4b-b1c9-4174-b5ba-396d8e114625","null","<p style=""text-align: center;"">+</p>","null","fixation","","","","","","","","","","","","","","","","","","","","",""
"","","","","","html-slider-response","67","173766","0.0-17.0-0.17","4b866b4b-b1c9-4174-b5ba-396d8e114625","1000","
                  <p style=""text-align: center;"">₪4
                                                <br>25%</p>
                  <p id=""wtp"" style=""text-align:center; margin-top: 0px; margin-bottom: 0px; font-size: 40px"";>&ensp;</p>","-","viewing","0","1","6C,29B,30C","","","","","","","","","","","","","","","","","",""
"","","","","","html-slider-response","68","174713","0.0-17.0-1.17","4b866b4b-b1c9-4174-b5ba-396d8e114625","945","
                  <p style=""text-align: center;"">₪4
                                                <br>25%</p>
                  <p id=""wtp"" style=""text-align:center; margin-top: 0px; margin-bottom: 0px; font-size: 40px"";>מוכנים לשלם: <span id=""c_p_y""></span></p>","0","evaluation","46","1","6C,29B,30C","25","4","0","","","","","","","","","","","","","","",""
"","","","","","html-keyboard-response","69","175454","0.0-17.0-2.17","4b866b4b-b1c9-4174-b5ba-396d8e114625","null","<p style=""text-align: center;"">+</p>","null","fixation","","","","","","","","","","","","","","","","","","","","",""
"","","","","","html-slider-response","70","176457","0.0-17.0-0.18","4b866b4b-b1c9-4174-b5ba-396d8e114625","1000","
                  <p style=""text-align: center;"">₪76
                                                <br>65%</p>
                  <p id=""wtp"" style=""text-align:center; margin-top: 0px; margin-bottom: 0px; font-size: 40px"";>&ensp;</p>","-","viewing","0","29","8C,19A,24B","","","","","","","","","","","","","","","","","",""
"","","","","","html-slider-response","71","179065","0.0-17.0-1.18","4b866b4b-b1c9-4174-b5ba-396d8e114625","2607","
                  <p style=""text-align: center;"">₪76
                                                <br>65%</p>
                  <p id=""wtp"" style=""text-align:center; margin-top: 0px; margin-bottom: 0px; font-size: 40px"";>מוכנים לשלם: <span id=""c_p_y""></span></p>","15","evaluation","57","29","8C,19A,24B","65","76","15","","","","","","","","","","","","","","",""
"","","","","","html-keyboard-response","72","180557","0.0-17.0-2.18","4b866b4b-b1c9-4174-b5ba-396d8e114625","null","<p style=""text-align: center;"">+</p>","null","fixation","","","","","","","","","","","","","","","","","","","","",""
"","","","","","html-slider-response","73","181573","0.0-17.0-0.19","4b866b4b-b1c9-4174-b5ba-396d8e114625","1000","
                  <p style=""text-align: center;"">₪43
                                                <br>75%</p>
                  <p id=""wtp"" style=""text-align:center; margin-top: 0px; margin-bottom: 0px; font-size: 40px"";>&ensp;</p>","-","viewing","0","18","11B,19B,24A,26A","","","","","","","","","","","","","","","","","",""
"","","","","","html-slider-response","74","184209","0.0-17.0-1.19","4b866b4b-b1c9-4174-b5ba-396d8e114625","2634","
                  <p style=""text-align: center;"">₪43
                                                <br>75%</p>
                  <p id=""wtp"" style=""text-align:center; margin-top: 0px; margin-bottom: 0px; font-size: 40px"";>מוכנים לשלם: <span id=""c_p_y""></span></p>","10","evaluation","30","18","11B,19B,24A,26A","75","43","10","","","","","","","","","","","","","","",""
"","","","","","html-keyboard-response","75","185640","0.0-17.0-2.19","4b866b4b-b1c9-4174-b5ba-396d8e114625","null","<p style=""text-align: center;"">+</p>","null","fixation","","","","","","","","","","","","","","","","","","","","",""
"","","","","","html-slider-response","76","186652","0.0-17.0-0.20","4b866b4b-b1c9-4174-b5ba-396d8e114625","1000","
                  <p style=""text-align: center;"">₪39
                                                <br>65%</p>
                  <p id=""wtp"" style=""text-align:center; margin-top: 0px; margin-bottom: 0px; font-size: 40px"";>&ensp;</p>","-","viewing","0","16","1A,15A,26C","","","","","","","","","","","","","","","","","",""
"","","","","","html-slider-response","77","188209","0.0-17.0-1.20","4b866b4b-b1c9-4174-b5ba-396d8e114625","1556","
                  <p style=""text-align: center;"">₪39
                                                <br>65%</p>
                  <p id=""wtp"" style=""text-align:center; margin-top: 0px; margin-bottom: 0px; font-size: 40px"";>מוכנים לשלם: <span id=""c_p_y""></span></p>","5","evaluation","63","16","1A,15A,26C","65","39","5","","","","","","","","","","","","","","",""
"","","","","","html-keyboard-response","78","188857","0.0-17.0-2.20","4b866b4b-b1c9-4174-b5ba-396d8e114625","null","<p style=""text-align: center;"">+</p>","null","fixation","","","","","","","","","","","","","","","","","","","","",""
"","","","","","html-slider-response","79","189860","0.0-17.0-0.21","4b866b4b-b1c9-4174-b5ba-396d8e114625","1000","
                  <p style=""text-align: center;"">₪64
                                                <br>25%</p>
                  <p id=""wtp"" style=""text-align:center; margin-top: 0px; margin-bottom: 0px; font-size: 40px"";>&ensp;</p>","-","viewing","0","24","6A,21A","","","","","","","","","","","","","","","","","",""
"","","","","","html-slider-response","80","191937","0.0-17.0-1.21","4b866b4b-b1c9-4174-b5ba-396d8e114625","2076","
                  <p style=""text-align: center;"">₪64
                                                <br>25%</p>
                  <p id=""wtp"" style=""text-align:center; margin-top: 0px; margin-bottom: 0px; font-size: 40px"";>מוכנים לשלם: <span id=""c_p_y""></span></p>","7","evaluation","13","24","6A,21A","25","64","7","","","","","","","","","","","","","","",""
"","","","","","html-keyboard-response","81","193103","0.0-17.0-2.21","4b866b4b-b1c9-4174-b5ba-396d8e114625","null","<p style=""text-align: center;"">+</p>","null","fixation","","","","","","","","","","","","","","","","","","","","",""
"","","","","","html-slider-response","82","194115","0.0-17.0-0.22","4b866b4b-b1c9-4174-b5ba-396d8e114625","1000","
                  <p style=""text-align: center;"">₪11
                                                <br>45%</p>
                  <p id=""wtp"" style=""text-align:center; margin-top: 0px; margin-bottom: 0px; font-size: 40px"";>&ensp;</p>","-","viewing","0","6","14B,21C,25C","","","","","","","","","","","","","","","","","",""
"","","","","","html-slider-response","83","195361","0.0-17.0-1.22","4b866b4b-b1c9-4174-b5ba-396d8e114625","1244","
                  <p style=""text-align: center;"">₪11
                                                <br>45%</p>
                  <p id=""wtp"" style=""text-align:center; margin-top: 0px; margin-bottom: 0px; font-size: 40px"";>מוכנים לשלם: <span id=""c_p_y""></span></p>","1","evaluation","29","6","14B,21C,25C","45","11","1","","","","","","","","","","","","","","",""
"","","","","","html-keyboard-response","84","195900","0.0-17.0-2.22","4b866b4b-b1c9-4174-b5ba-396d8e114625","null","<p style=""text-align: center;"">+</p>","null","fixation","","","","","","","","","","","","","","","","","","","","",""
"","","","","","html-slider-response","85","196904","0.0-17.0-0.23","4b866b4b-b1c9-4174-b5ba-396d8e114625","1000","
                  <p style=""text-align: center;"">₪61
                                                <br>55%</p>
                  <p id=""wtp"" style=""text-align:center; margin-top: 0px; margin-bottom: 0px; font-size: 40px"";>&ensp;</p>","-","viewing","0","23","7B,26B","","","","","","","","","","","","","","","","","",""
"","","","","","html-slider-response","86","200241","0.0-17.0-1.23","4b866b4b-b1c9-4174-b5ba-396d8e114625","3336","
                  <p style=""text-align: center;"">₪61
                                                <br>55%</p>
                  <p id=""wtp"" style=""text-align:center; margin-top: 0px; margin-bottom: 0px; font-size: 40px"";>מוכנים לשלם: <span id=""c_p_y""></span></p>","19","evaluation","36","23","7B,26B","55","61","20","","","","","","","","","","","","","","",""
"","","","","","html-keyboard-response","87","201263","0.0-17.0-2.23","4b866b4b-b1c9-4174-b5ba-396d8e114625","null","<p style=""text-align: center;"">+</p>","null","fixation","","","","","","","","","","","","","","","","","","","","",""
"","","","","","html-slider-response","88","202266","0.0-17.0-0.24","4b866b4b-b1c9-4174-b5ba-396d8e114625","1000","
                  <p style=""text-align: center;"">₪36
                                                <br>30%</p>
                  <p id=""wtp"" style=""text-align:center; margin-top: 0px; margin-bottom: 0px; font-size: 40px"";>&ensp;</p>","-","viewing","0","11","3C,20A,22A","","","","","","","","","","","","","","","","","",""
"","","","","","html-slider-response","89","204393","0.0-17.0-1.24","4b866b4b-b1c9-4174-b5ba-396d8e114625","2127","
                  <p style=""text-align: center;"">₪36
                                                <br>30%</p>
                  <p id=""wtp"" style=""text-align:center; margin-top: 0px; margin-bottom: 0px; font-size: 40px"";>מוכנים לשלם: <span id=""c_p_y""></span></p>","4","evaluation","2","11","3C,20A,22A","30","36","5","","","","","","","","","","","","","","",""
"","","","","","html-keyboard-response","90","205117","0.0-17.0-2.24","4b866b4b-b1c9-4174-b5ba-396d8e114625","null","<p style=""text-align: center;"">+</p>","null","fixation","","","","","","","","","","","","","","","","","","","","",""
"","","","","","html-slider-response","91","206123","0.0-17.0-0.25","4b866b4b-b1c9-4174-b5ba-396d8e114625","1000","
                  <p style=""text-align: center;"">₪18
                                                <br>25%</p>
                  <p id=""wtp"" style=""text-align:center; margin-top: 0px; margin-bottom: 0px; font-size: 40px"";>&ensp;</p>","-","viewing","0","9","14A,23A","","","","","","","","","","","","","","","","","",""
"","","","","","html-slider-response","92","208873","0.0-17.0-1.25","4b866b4b-b1c9-4174-b5ba-396d8e114625","2749","
                  <p style=""text-align: center;"">₪18
                                                <br>25%</p>
                  <p id=""wtp"" style=""text-align:center; margin-top: 0px; margin-bottom: 0px; font-size: 40px"";>מוכנים לשלם: <span id=""c_p_y""></span></p>","0","evaluation","1","9","14A,23A","25","18","0","","","","","","","","","","","","","","",""
"","","","","","html-keyboard-response","93","209556","0.0-17.0-2.25","4b866b4b-b1c9-4174-b5ba-396d8e114625","null","<p style=""text-align: center;"">+</p>","null","fixation","","","","","","","","","","","","","","","","","","","","",""
"","","","","","html-slider-response","94","210564","0.0-17.0-0.26","4b866b4b-b1c9-4174-b5ba-396d8e114625","1000","
                  <p style=""text-align: center;"">₪61
                                                <br>45%</p>
                  <p id=""wtp"" style=""text-align:center; margin-top: 0px; margin-bottom: 0px; font-size: 40px"";>&ensp;</p>","-","viewing","0","22","10A,11A","","","","","","","","","","","","","","","","","",""
"","","","","","html-slider-response","95","213297","0.0-17.0-1.26","4b866b4b-b1c9-4174-b5ba-396d8e114625","2732","
                  <p style=""text-align: center;"">₪61
                                                <br>45%</p>
                  <p id=""wtp"" style=""text-align:center; margin-top: 0px; margin-bottom: 0px; font-size: 40px"";>מוכנים לשלם: <span id=""c_p_y""></span></p>","10","evaluation","19","22","10A,11A","45","61","11","","","","","","","","","","","","","","",""
"","","","","","html-keyboard-response","96","214056","0.0-17.0-2.26","4b866b4b-b1c9-4174-b5ba-396d8e114625","null","<p style=""text-align: center;"">+</p>","null","fixation","","","","","","","","","","","","","","","","","","","","",""
"","","","","","html-slider-response","97","215061","0.0-17.0-0.27","4b866b4b-b1c9-4174-b5ba-396d8e114625","1000","
                  <p style=""text-align: center;"">₪79
                                                <br>40%</p>
                  <p id=""wtp"" style=""text-align:center; margin-top: 0px; margin-bottom: 0px; font-size: 40px"";>&ensp;</p>","-","viewing","0","30","9B","","","","","","","","","","","","","","","","","",""
"","","","","","html-slider-response","98","218529","0.0-17.0-1.27","4b866b4b-b1c9-4174-b5ba-396d8e114625","3467","
                  <p style=""text-align: center;"">₪79
                                                <br>40%</p>
                  <p id=""wtp"" style=""text-align:center; margin-top: 0px; margin-bottom: 0px; font-size: 40px"";>מוכנים לשלם: <span id=""c_p_y""></span></p>","12","evaluation","68","30","9B","40","79","13","","","","","","","","","","","","","","",""
"","","","","","html-keyboard-response","99","219486","0.0-17.0-2.27","4b866b4b-b1c9-4174-b5ba-396d8e114625","null","<p style=""text-align: center;"">+</p>","null","fixation","","","","","","","","","","","","","","","","","","","","",""
"","","","","","html-slider-response","100","220496","0.0-17.0-0.28","4b866b4b-b1c9-4174-b5ba-396d8e114625","1000","
                  <p style=""text-align: center;"">₪58
                                                <br>30%</p>
                  <p id=""wtp"" style=""text-align:center; margin-top: 0px; margin-bottom: 0px; font-size: 40px"";>&ensp;</p>","-","viewing","0","19","13C,30A","","","","","","","","","","","","","","","","","",""
"","","","","","html-slider-response","101","223385","0.0-17.0-1.28","4b866b4b-b1c9-4174-b5ba-396d8e114625","2888","
                  <p style=""text-align: center;"">₪58
                                                <br>30%</p>
                  <p id=""wtp"" style=""text-align:center; margin-top: 0px; margin-bottom: 0px; font-size: 40px"";>מוכנים לשלם: <span id=""c_p_y""></span></p>","4","evaluation","64","19","13C,30A","30","58","5","","","","","","","","","","","","","","",""
"","","","","","html-keyboard-response","102","224773","0.0-17.0-2.28","4b866b4b-b1c9-4174-b5ba-396d8e114625","null","<p style=""text-align: center;"">+</p>","null","fixation","","","","","","","","","","","","","","","","","","","","",""
"","","","","","html-slider-response","103","225790","0.0-17.0-0.29","4b866b4b-b1c9-4174-b5ba-396d8e114625","1000","
                  <p style=""text-align: center;"">₪36
                                                <br>75%</p>
                  <p id=""wtp"" style=""text-align:center; margin-top: 0px; margin-bottom: 0px; font-size: 40px"";>&ensp;</p>","-","viewing","0","14","4B,5A,13B,16B","","","","","","","","","","","","","","","","","",""
"","","","","","html-slider-response","104","228321","0.0-17.0-1.29","4b866b4b-b1c9-4174-b5ba-396d8e114625","2530","
                  <p style=""text-align: center;"">₪36
                                                <br>75%</p>
                  <p id=""wtp"" style=""text-align:center; margin-top: 0px; margin-bottom: 0px; font-size: 40px"";>מוכנים לשלם: <span id=""c_p_y""></span></p>","5","evaluation","40","14","4B,5A,13B,16B","75","36","5","","","","","","","","","","","","","","",""
"","","","","","html-keyboard-response","105","229553","0.0-17.0-2.29","4b866b4b-b1c9-4174-b5ba-396d8e114625","null","<p style=""text-align: center;"">+</p>","null","fixation","","","","","","","","","","","","","","","","","","","","",""
"","","","","","html-slider-response","106","230565","0.0-17.0-0.30","4b866b4b-b1c9-4174-b5ba-396d8e114625","1000","
                  <p style=""text-align: center;"">₪18
                                                <br>50%</p>
                  <p id=""wtp"" style=""text-align:center; margin-top: 0px; margin-bottom: 0px; font-size: 40px"";>&ensp;</p>","-","viewing","0","10","2C,16C,22B,28A","","","","","","","","","","","","","","","","","",""
"","","","","","html-slider-response","107","232801","0.0-17.0-1.30","4b866b4b-b1c9-4174-b5ba-396d8e114625","2235","
                  <p style=""text-align: center;"">₪18
                                                <br>50%</p>
                  <p id=""wtp"" style=""text-align:center; margin-top: 0px; margin-bottom: 0px; font-size: 40px"";>מוכנים לשלם: <span id=""c_p_y""></span></p>","0","evaluation","46","10","2C,16C,22B,28A","50","18","1","","","","","","","","","","","","","","",""
"","","","","","html-keyboard-response","108","234253","0.0-17.0-2.30","4b866b4b-b1c9-4174-b5ba-396d8e114625","null","<p style=""text-align: center;"">+</p>","null","fixation","","","","","","","","","","","","","","","","","","","","",""
"","","","","","html-keyboard-response","109","235261","0.0-18.0","4b866b4b-b1c9-4174-b5ba-396d8e114625","null","<p style=""text-align: center;"">+</p>","null","fixation","","","","","","","","","","","","","","","","","","","","",""
"","","","","","html-keyboard-response","110","237553","0.0-19.0","4b866b4b-b1c9-4174-b5ba-396d8e114625","null","<p>הפסקה.
          <br>לחצו כדי להמשיך.</p>","1","scan_wait","","","","","","","","","","","","","","","","","","","","",""
"","","","","","html-keyboard-response","111","238568","0.0-20.0","4b866b4b-b1c9-4174-b5ba-396d8e114625","null","<p style=""text-align: center;"">+</p>","null","fixation","","","","","","","","","","","","","","","","","","","","",""
"","","","","","html-slider-response","112","239573","0.0-21.0-0.0","4b866b4b-b1c9-4174-b5ba-396d8e114625","1000","
                  <p style=""text-align: center;"">₪61
                                                <br>55%</p>
                  <p id=""wtp"" style=""text-align:center; margin-top: 0px; margin-bottom: 0px; font-size: 40px"";>&ensp;</p>","-","viewing","0","23","7B,26B","","","","","","","","","","","","","","","","","",""
"","","","","","html-slider-response","113","242657","0.0-21.0-1.0","4b866b4b-b1c9-4174-b5ba-396d8e114625","3082","
                  <p style=""text-align: center;"">₪61
                                                <br>55%</p>
                  <p id=""wtp"" style=""text-align:center; margin-top: 0px; margin-bottom: 0px; font-size: 40px"";>מוכנים לשלם: <span id=""c_p_y""></span></p>","14","evaluation","17","23","7B,26B","55","61","15","","","","","","","","","","","","","","",""
"","","","","","html-keyboard-response","114","243839","0.0-21.0-2.0","4b866b4b-b1c9-4174-b5ba-396d8e114625","null","<p style=""text-align: center;"">+</p>","null","fixation","","","","","","","","","","","","","","","","","","","","",""
"","","","","","html-slider-response","115","244856","0.0-21.0-0.1","4b866b4b-b1c9-4174-b5ba-396d8e114625","1000","
                  <p style=""text-align: center;"">₪18
                                                <br>50%</p>
                  <p id=""wtp"" style=""text-align:center; margin-top: 0px; margin-bottom: 0px; font-size: 40px"";>&ensp;</p>","-","viewing","0","10","2C,16C,22B,28A","","","","","","","","","","","","","","","","","",""
"","","","","","html-slider-response","116","248859","0.0-21.0-1.1","4b866b4b-b1c9-4174-b5ba-396d8e114625","null","
                  <p style=""text-align: center;"">₪18
                                                <br>50%</p>
                  <p id=""wtp"" style=""text-align:center; margin-top: 0px; margin-bottom: 0px; font-size: 40px"";>מוכנים לשלם: <span id=""c_p_y""></span></p>","null","evaluation","58","10","2C,16C,22B,28A","50","18","5","","","","","","","","","","","","","","",""
"","","","","","html-keyboard-response","117","249703","0.0-21.0-2.1","4b866b4b-b1c9-4174-b5ba-396d8e114625","null","<p style=""text-align: center;"">+</p>","null","fixation","","","","","","","","","","","","","","","","","","","","",""
"","","","","","html-slider-response","118","250717","0.0-21.0-0.2","4b866b4b-b1c9-4174-b5ba-396d8e114625","1000","
                  <p style=""text-align: center;"">₪64
                                                <br>50%</p>
                  <p id=""wtp"" style=""text-align:center; margin-top: 0px; margin-bottom: 0px; font-size: 40px"";>&ensp;</p>","-","viewing","0","25","1B,3B,4A","","","","","","","","","","","","","","","","","",""
"","","","","","html-slider-response","119","254001","0.0-21.0-1.2","4b866b4b-b1c9-4174-b5ba-396d8e114625","3282","
                  <p style=""text-align: center;"">₪64
                                                <br>50%</p>
                  <p id=""wtp"" style=""text-align:center; margin-top: 0px; margin-bottom: 0px; font-size: 40px"";>מוכנים לשלם: <span id=""c_p_y""></span></p>","14","evaluation","61","25","1B,3B,4A","50","64","15","","","","","","","","","","","","","","",""
"","","","","","html-keyboard-response","120","254593","0.0-21.0-2.2","4b866b4b-b1c9-4174-b5ba-396d8e114625","null","<p style=""text-align: center;"">+</p>","null","fixation","","","","","","","","","","","","","","","","","","","","",""
"","","","","","html-slider-response","121","255599","0.0-21.0-0.3","4b866b4b-b1c9-4174-b5ba-396d8e114625","1000","
                  <p style=""text-align: center;"">₪79
                                                <br>65%</p>
                  <p id=""wtp"" style=""text-align:center; margin-top: 0px; margin-bottom: 0px; font-size: 40px"";>&ensp;</p>","-","viewing","0","31","8A","","","","","","","","","","","","","","","","","",""
"","","","","","html-slider-response","122","257321","0.0-21.0-1.3","4b866b4b-b1c9-4174-b5ba-396d8e114625","1721","
                  <p style=""text-align: center;"">₪79
                                                <br>65%</p>
                  <p id=""wtp"" style=""text-align:center; margin-top: 0px; margin-bottom: 0px; font-size: 40px"";>מוכנים לשלם: <span id=""c_p_y""></span></p>","21","evaluation","66","31","8A","65","79","22","","","","","","","","","","","","","","",""
"","","","","","html-keyboard-response","123","258066","0.0-21.0-2.3","4b866b4b-b1c9-4174-b5ba-396d8e114625","null","<p style=""text-align: center;"">+</p>","null","fixation","","","","","","","","","","","","","","","","","","","","",""
"","","","","","html-slider-response","124","259082","0.0-21.0-0.4","4b866b4b-b1c9-4174-b5ba-396d8e114625","1000","
                  <p style=""text-align: center;"">₪4
                                                <br>75%</p>
                  <p id=""wtp"" style=""text-align:center; margin-top: 0px; margin-bottom: 0px; font-size: 40px"";>&ensp;</p>","-","viewing","0","3","12B,20B,23B,27C,29C","","","","","","","","","","","","","","","","","",""
"","","","","","html-slider-response","125","261577","0.0-21.0-1.4","4b866b4b-b1c9-4174-b5ba-396d8e114625","2494","
                  <p style=""text-align: center;"">₪4
                                                <br>75%</p>
                  <p id=""wtp"" style=""text-align:center; margin-top: 0px; margin-bottom: 0px; font-size: 40px"";>מוכנים לשלם: <span id=""c_p_y""></span></p>","0","evaluation","60","3","12B,20B,23B,27C,29C","75","4","0","","","","","","","","","","","","","","",""
"","","","","","html-keyboard-response","126","263067","0.0-21.0-2.4","4b866b4b-b1c9-4174-b5ba-396d8e114625","null","<p style=""text-align: center;"">+</p>","null","fixation","","","","","","","","","","","","","","","","","","","","",""
"","","","","","html-slider-response","127","264084","0.0-21.0-0.5","4b866b4b-b1c9-4174-b5ba-396d8e114625","1000","
                  <p style=""text-align: center;"">₪36
                                                <br>30%</p>
                  <p id=""wtp"" style=""text-align:center; margin-top: 0px; margin-bottom: 0px; font-size: 40px"";>&ensp;</p>","-","viewing","0","11","3C,20A,22A","","","","","","","","","","","","","","","","","",""
"","","","","","html-slider-response","128","265617","0.0-21.0-1.5","4b866b4b-b1c9-4174-b5ba-396d8e114625","1532","
                  <p style=""text-align: center;"">₪36
                                                <br>30%</p>
                  <p id=""wtp"" style=""text-align:center; margin-top: 0px; margin-bottom: 0px; font-size: 40px"";>מוכנים לשלם: <span id=""c_p_y""></span></p>","0","evaluation","60","11","3C,20A,22A","30","36","1","","","","","","","","","","","","","","",""
"","","","","","html-keyboard-response","129","266484","0.0-21.0-2.5","4b866b4b-b1c9-4174-b5ba-396d8e114625","null","<p style=""text-align: center;"">+</p>","null","fixation","","","","","","","","","","","","","","","","","","","","",""
"","","","","","html-slider-response","130","267489","0.0-21.0-0.6","4b866b4b-b1c9-4174-b5ba-396d8e114625","1000","
                  <p style=""text-align: center;"">₪36
                                                <br>75%</p>
                  <p id=""wtp"" style=""text-align:center; margin-top: 0px; margin-bottom: 0px; font-size: 40px"";>&ensp;</p>","-","viewing","0","14","4B,5A,13B,16B","","","","","","","","","","","","","","","","","",""
"","","","","","html-slider-response","131","269313","0.0-21.0-1.6","4b866b4b-b1c9-4174-b5ba-396d8e114625","1822","
                  <p style=""text-align: center;"">₪36
                                                <br>75%</p>
                  <p id=""wtp"" style=""text-align:center; margin-top: 0px; margin-bottom: 0px; font-size: 40px"";>מוכנים לשלם: <span id=""c_p_y""></span></p>","1","evaluation","27","14","4B,5A,13B,16B","75","36","2","","","","","","","","","","","","","","",""
"","","","","","html-keyboard-response","132","270636","0.0-21.0-2.6","4b866b4b-b1c9-4174-b5ba-396d8e114625","null","<p style=""text-align: center;"">+</p>","null","fixation","","","","","","","","","","","","","","","","","","","","",""
"","","","","","html-slider-response","133","271644","0.0-21.0-0.7","4b866b4b-b1c9-4174-b5ba-396d8e114625","1000","
                  <p style=""text-align: center;"">₪11
                                                <br>20%</p>
                  <p id=""wtp"" style=""text-align:center; margin-top: 0px; margin-bottom: 0px; font-size: 40px"";>&ensp;</p>","-","viewing","0","4","12C,17C,23C,28C","","","","","","","","","","","","","","","","","",""
"","","","","","html-slider-response","134","272433","0.0-21.0-1.7","4b866b4b-b1c9-4174-b5ba-396d8e114625","788","
                  <p style=""text-align: center;"">₪11
                                                <br>20%</p>
                  <p id=""wtp"" style=""text-align:center; margin-top: 0px; margin-bottom: 0px; font-size: 40px"";>מוכנים לשלם: <span id=""c_p_y""></span></p>","0","evaluation","59","4","12C,17C,23C,28C","20","11","0","","","","","","","","","","","","","","",""
"","","","","","html-keyboard-response","135","273786","0.0-21.0-2.7","4b866b4b-b1c9-4174-b5ba-396d8e114625","null","<p style=""text-align: center;"">+</p>","null","fixation","","","","","","","","","","","","","","","","","","","","",""
"","","","","","html-slider-response","136","274787","0.0-21.0-0.8","4b866b4b-b1c9-4174-b5ba-396d8e114625","1000","
                  <p style=""text-align: center;"">₪4
                                                <br>50%</p>
                  <p id=""wtp"" style=""text-align:center; margin-top: 0px; margin-bottom: 0px; font-size: 40px"";>&ensp;</p>","-","viewing","0","2","4C,17B","","","","","","","","","","","","","","","","","",""
"","","","","","html-slider-response","137","275977","0.0-21.0-1.8","4b866b4b-b1c9-4174-b5ba-396d8e114625","1188","
                  <p style=""text-align: center;"">₪4
                                                <br>50%</p>
                  <p id=""wtp"" style=""text-align:center; margin-top: 0px; margin-bottom: 0px; font-size: 40px"";>מוכנים לשלם: <span id=""c_p_y""></span></p>","0","evaluation","53","2","4C,17B","50","4","0","","","","","","","","","","","","","","",""
"","","","","","html-keyboard-response","138","276483","0.0-21.0-2.8","4b866b4b-b1c9-4174-b5ba-396d8e114625","null","<p style=""text-align: center;"">+</p>","null","fixation","","","","","","","","","","","","","","","","","","","","",""
"","","","","","html-slider-response","139","277485","0.0-21.0-0.9","4b866b4b-b1c9-4174-b5ba-396d8e114625","1000","
                  <p style=""text-align: center;"">₪61
                                                <br>45%</p>
                  <p id=""wtp"" style=""text-align:center; margin-top: 0px; margin-bottom: 0px; font-size: 40px"";>&ensp;</p>","-","viewing","0","22","10A,11A","","","","","","","","","","","","","","","","","",""
"","","","","","html-slider-response","140","279889","0.0-21.0-1.9","4b866b4b-b1c9-4174-b5ba-396d8e114625","2402","
                  <p style=""text-align: center;"">₪61
                                                <br>45%</p>
                  <p id=""wtp"" style=""text-align:center; margin-top: 0px; margin-bottom: 0px; font-size: 40px"";>מוכנים לשלם: <span id=""c_p_y""></span></p>","12","evaluation","68","22","10A,11A","45","61","13","","","","","","","","","","","","","","",""
"","","","","","html-keyboard-response","141","281242","0.0-21.0-2.9","4b866b4b-b1c9-4174-b5ba-396d8e114625","null","<p style=""text-align: center;"">+</p>","null","fixation","","","","","","","","","","","","","","","","","","","","",""
"","","","","","html-slider-response","142","282244","0.0-21.0-0.10","4b866b4b-b1c9-4174-b5ba-396d8e114625","1000","
                  <p style=""text-align: center;"">₪36
                                                <br>70%</p>
                  <p id=""wtp"" style=""text-align:center; margin-top: 0px; margin-bottom: 0px; font-size: 40px"";>&ensp;</p>","-","viewing","0","13","3A,5C,10B","","","","","","","","","","","","","","","","","",""
"","","","","","html-slider-response","143","283737","0.0-21.0-1.10","4b866b4b-b1c9-4174-b5ba-396d8e114625","1492","
                  <p style=""text-align: center;"">₪36
                                                <br>70%</p>
                  <p id=""wtp"" style=""text-align:center; margin-top: 0px; margin-bottom: 0px; font-size: 40px"";>מוכנים לשלם: <span id=""c_p_y""></span></p>","3","evaluation","67","13","3A,5C,10B","70","36","4","","","","","","","","","","","","","","",""
"","","","","","html-keyboard-response","144","284971","0.0-21.0-2.10","4b866b4b-b1c9-4174-b5ba-396d8e114625","null","<p style=""text-align: center;"">+</p>","null","fixation","","","","","","","","","","","","","","","","","","","","",""
"","","","","","html-slider-response","145","285988","0.0-21.0-0.11","4b866b4b-b1c9-4174-b5ba-396d8e114625","1000","
                  <p style=""text-align: center;"">₪11
                                                <br>45%</p>
                  <p id=""wtp"" style=""text-align:center; margin-top: 0px; margin-bottom: 0px; font-size: 40px"";>&ensp;</p>","-","viewing","0","6","14B,21C,25C","","","","","","","","","","","","","","","","","",""
"","","","","","html-slider-response","146","288025","0.0-21.0-1.11","4b866b4b-b1c9-4174-b5ba-396d8e114625","2035","
                  <p style=""text-align: center;"">₪11
                                                <br>45%</p>
                  <p id=""wtp"" style=""text-align:center; margin-top: 0px; margin-bottom: 0px; font-size: 40px"";>מוכנים לשלם: <span id=""c_p_y""></span></p>","0","evaluation","56","6","14B,21C,25C","45","11","1","","","","","","","","","","","","","","",""
"","","","","","html-keyboard-response","147","289485","0.0-21.0-2.11","4b866b4b-b1c9-4174-b5ba-396d8e114625","null","<p style=""text-align: center;"">+</p>","null","fixation","","","","","","","","","","","","","","","","","","","","",""
"","","","","","html-slider-response","148","290501","0.0-21.0-0.12","4b866b4b-b1c9-4174-b5ba-396d8e114625","1000","
                  <p style=""text-align: center;"">₪18
                                                <br>25%</p>
                  <p id=""wtp"" style=""text-align:center; margin-top: 0px; margin-bottom: 0px; font-size: 40px"";>&ensp;</p>","-","viewing","0","9","14A,23A","","","","","","","","","","","","","","","","","",""
"","","","","","html-slider-response","149","291745","0.0-21.0-1.12","4b866b4b-b1c9-4174-b5ba-396d8e114625","1243","
                  <p style=""text-align: center;"">₪18
                                                <br>25%</p>
                  <p id=""wtp"" style=""text-align:center; margin-top: 0px; margin-bottom: 0px; font-size: 40px"";>מוכנים לשלם: <span id=""c_p_y""></span></p>","0","evaluation","59","9","14A,23A","25","18","0","","","","","","","","","","","","","","",""
"","","","","","html-keyboard-response","150","292853","0.0-21.0-2.12","4b866b4b-b1c9-4174-b5ba-396d8e114625","null","<p style=""text-align: center;"">+</p>","null","fixation","","","","","","","","","","","","","","","","","","","","",""
"","","","","","html-slider-response","151","293856","0.0-21.0-0.13","4b866b4b-b1c9-4174-b5ba-396d8e114625","1000","
                  <p style=""text-align: center;"">₪39
                                                <br>60%</p>
                  <p id=""wtp"" style=""text-align:center; margin-top: 0px; margin-bottom: 0px; font-size: 40px"";>&ensp;</p>","-","viewing","0","15","9C,25B","","","","","","","","","","","","","","","","","",""
"","","","","","html-slider-response","152","296041","0.0-21.0-1.13","4b866b4b-b1c9-4174-b5ba-396d8e114625","2183","
                  <p style=""text-align: center;"">₪39
                                                <br>60%</p>
                  <p id=""wtp"" style=""text-align:center; margin-top: 0px; margin-bottom: 0px; font-size: 40px"";>מוכנים לשלם: <span id=""c_p_y""></span></p>","5","evaluation","28","15","9C,25B","60","39","5","","","","","","","","","","","","","","",""
"","","","","","html-keyboard-response","153","296642","0.0-21.0-2.13","4b866b4b-b1c9-4174-b5ba-396d8e114625","null","<p style=""text-align: center;"">+</p>","null","fixation","","","","","","","","","","","","","","","","","","","","",""
"","","","","","html-slider-response","154","297658","0.0-21.0-0.14","4b866b4b-b1c9-4174-b5ba-396d8e114625","1000","
                  <p style=""text-align: center;"">₪39
                                                <br>65%</p>
                  <p id=""wtp"" style=""text-align:center; margin-top: 0px; margin-bottom: 0px; font-size: 40px"";>&ensp;</p>","-","viewing","0","16","1A,15A,26C","","","","","","","","","","","","","","","","","",""
"","","","","","html-slider-response","155","299145","0.0-21.0-1.14","4b866b4b-b1c9-4174-b5ba-396d8e114625","1486","
                  <p style=""text-align: center;"">₪39
                                                <br>65%</p>
                  <p id=""wtp"" style=""text-align:center; margin-top: 0px; margin-bottom: 0px; font-size: 40px"";>מוכנים לשלם: <span id=""c_p_y""></span></p>","4","evaluation","45","16","1A,15A,26C","65","39","5","","","","","","","","","","","","","","",""
"","","","","","html-keyboard-response","156","299825","0.0-21.0-2.14","4b866b4b-b1c9-4174-b5ba-396d8e114625","null","<p style=""text-align: center;"">+</p>","null","fixation","","","","","","","","","","","","","","","","","","","","",""
"","","","","","html-slider-response","157","300827","0.0-21.0-0.15","4b866b4b-b1c9-4174-b5ba-396d8e114625","1000","
                  <p style=""text-align: center;"">₪58
                                                <br>30%</p>
                  <p id=""wtp"" style=""text-align:center; margin-top: 0px; margin-bottom: 0px; font-size: 40px"";>&ensp;</p>","-","viewing","0","19","13C,30A","","","","","","","","","","","","","","","","","",""
"","","","","","html-slider-response","158","303993","0.0-21.0-1.15","4b866b4b-b1c9-4174-b5ba-396d8e114625","3164","
                  <p style=""text-align: center;"">₪58
                                                <br>30%</p>
                  <p id=""wtp"" style=""text-align:center; margin-top: 0px; margin-bottom: 0px; font-size: 40px"";>מוכנים לשלם: <span id=""c_p_y""></span></p>","6","evaluation","51","19","13C,30A","30","58","7","","","","","","","","","","","","","","",""
"","","","","","html-keyboard-response","159","305032","0.0-21.0-2.15","4b866b4b-b1c9-4174-b5ba-396d8e114625","null","<p style=""text-align: center;"">+</p>","null","fixation","","","","","","","","","","","","","","","","","","","","",""
"","","","","","html-slider-response","160","306046","0.0-21.0-0.16","4b866b4b-b1c9-4174-b5ba-396d8e114625","1000","
                  <p style=""text-align: center;"">₪43
                                                <br>75%</p>
                  <p id=""wtp"" style=""text-align:center; margin-top: 0px; margin-bottom: 0px; font-size: 40px"";>&ensp;</p>","-","viewing","0","18","11B,19B,24A,26A","","","","","","","","","","","","","","","","","",""
"","","","","","html-slider-response","161","309089","0.0-21.0-1.16","4b866b4b-b1c9-4174-b5ba-396d8e114625","3042","
                  <p style=""text-align: center;"">₪43
                                                <br>75%</p>
                  <p id=""wtp"" style=""text-align:center; margin-top: 0px; margin-bottom: 0px; font-size: 40px"";>מוכנים לשלם: <span id=""c_p_y""></span></p>","7","evaluation","13","18","11B,19B,24A,26A","75","43","7","","","","","","","","","","","","","","",""
"","","","","","html-keyboard-response","162","310372","0.0-21.0-2.16","4b866b4b-b1c9-4174-b5ba-396d8e114625","null","<p style=""text-align: center;"">+</p>","null","fixation","","","","","","","","","","","","","","","","","","","","",""
"","","","","","html-slider-response","163","311382","0.0-21.0-0.17","4b866b4b-b1c9-4174-b5ba-396d8e114625","1000","
                  <p style=""text-align: center;"">₪64
                                                <br>25%</p>
                  <p id=""wtp"" style=""text-align:center; margin-top: 0px; margin-bottom: 0px; font-size: 40px"";>&ensp;</p>","-","viewing","0","24","6A,21A","","","","","","","","","","","","","","","","","",""
"","","","","","html-slider-response","164","313785","0.0-21.0-1.17","4b866b4b-b1c9-4174-b5ba-396d8e114625","2402","
                  <p style=""text-align: center;"">₪64
                                                <br>25%</p>
                  <p id=""wtp"" style=""text-align:center; margin-top: 0px; margin-bottom: 0px; font-size: 40px"";>מוכנים לשלם: <span id=""c_p_y""></span></p>","11","evaluation","54","24","6A,21A","25","64","11","","","","","","","","","","","","","","",""
"","","","","","html-keyboard-response","165","315141","0.0-21.0-2.17","4b866b4b-b1c9-4174-b5ba-396d8e114625","null","<p style=""text-align: center;"">+</p>","null","fixation","","","","","","","","","","","","","","","","","","","","",""
"","","","","","html-slider-response","166","316149","0.0-21.0-0.18","4b866b4b-b1c9-4174-b5ba-396d8e114625","1000","
                  <p style=""text-align: center;"">₪76
                                                <br>65%</p>
                  <p id=""wtp"" style=""text-align:center; margin-top: 0px; margin-bottom: 0px; font-size: 40px"";>&ensp;</p>","-","viewing","0","29","8C,19A,24B","","","","","","","","","","","","","","","","","",""
"","","","","","html-slider-response","167","318673","0.0-21.0-1.18","4b866b4b-b1c9-4174-b5ba-396d8e114625","2522","
                  <p style=""text-align: center;"">₪76
                                                <br>65%</p>
                  <p id=""wtp"" style=""text-align:center; margin-top: 0px; margin-bottom: 0px; font-size: 40px"";>מוכנים לשלם: <span id=""c_p_y""></span></p>","30","evaluation","62","29","8C,19A,24B","65","76","30","","","","","","","","","","","","","","",""
"","","","","","html-keyboard-response","168","319338","0.0-21.0-2.18","4b866b4b-b1c9-4174-b5ba-396d8e114625","null","<p style=""text-align: center;"">+</p>","null","fixation","","","","","","","","","","","","","","","","","","","","",""
"","","","","","html-slider-response","169","320344","0.0-21.0-0.19","4b866b4b-b1c9-4174-b5ba-396d8e114625","1000","
                  <p style=""text-align: center;"">₪71
                                                <br>75%</p>
                  <p id=""wtp"" style=""text-align:center; margin-top: 0px; margin-bottom: 0px; font-size: 40px"";>&ensp;</p>","-","viewing","0","28","8B","","","","","","","","","","","","","","","","","",""
"","","","","","html-slider-response","170","323057","0.0-21.0-1.19","4b866b4b-b1c9-4174-b5ba-396d8e114625","2713","
                  <p style=""text-align: center;"">₪71
                                                <br>75%</p>
                  <p id=""wtp"" style=""text-align:center; margin-top: 0px; margin-bottom: 0px; font-size: 40px"";>מוכנים לשלם: <span id=""c_p_y""></span></p>","34","evaluation","64","28","8B","75","71","35","","","","","","","","","","","","","","",""
"","","","","","html-keyboard-response","171","323783","0.0-21.0-2.19","4b866b4b-b1c9-4174-b5ba-396d8e114625","null","<p style=""text-align: center;"">+</p>","null","fixation","","","","","","","","","","","","","","","","","","","","",""
"","","","","","html-slider-response","172","324787","0.0-21.0-0.20","4b866b4b-b1c9-4174-b5ba-396d8e114625","1000","
                  <p style=""text-align: center;"">₪71
                                                <br>45%</p>
                  <p id=""wtp"" style=""text-align:center; margin-top: 0px; margin-bottom: 0px; font-size: 40px"";>&ensp;</p>","-","viewing","0","26","2B,16A","","","","","","","","","","","","","","","","","",""
"","","","","","html-slider-response","173","328025","0.0-21.0-1.20","4b866b4b-b1c9-4174-b5ba-396d8e114625","3236","
                  <p style=""text-align: center;"">₪71
                                                <br>45%</p>
                  <p id=""wtp"" style=""text-align:center; margin-top: 0px; margin-bottom: 0px; font-size: 40px"";>מוכנים לשלם: <span id=""c_p_y""></span></p>","24","evaluation","67","26","2B,16A","45","71","24","","","","","","","","","","","","","","",""
"","","","","","html-keyboard-response","174","329008","0.0-21.0-2.20","4b866b4b-b1c9-4174-b5ba-396d8e114625","null","<p style=""text-align: center;"">+</p>","null","fixation","","","","","","","","","","","","","","","","","","","","",""
"","","","","","html-slider-response","175","330024","0.0-21.0-0.21","4b866b4b-b1c9-4174-b5ba-396d8e114625","1000","
                  <p style=""text-align: center;"">₪43
                                                <br>60%</p>
                  <p id=""wtp"" style=""text-align:center; margin-top: 0px; margin-bottom: 0px; font-size: 40px"";>&ensp;</p>","-","viewing","0","17","2A,7A,9A,15B","","","","","","","","","","","","","","","","","",""
"","","","","","html-slider-response","176","333025","0.0-21.0-1.21","4b866b4b-b1c9-4174-b5ba-396d8e114625","3000","
                  <p style=""text-align: center;"">₪43
                                                <br>60%</p>
                  <p id=""wtp"" style=""text-align:center; margin-top: 0px; margin-bottom: 0px; font-size: 40px"";>מוכנים לשלם: <span id=""c_p_y""></span></p>","15","evaluation","73","17","2A,7A,9A,15B","60","43","16","","","","","","","","","","","","","","",""
"","","","","","html-keyboard-response","177","334507","0.0-21.0-2.21","4b866b4b-b1c9-4174-b5ba-396d8e114625","null","<p style=""text-align: center;"">+</p>","null","fixation","","","","","","","","","","","","","","","","","","","","",""
"","","","","","html-slider-response","178","335516","0.0-21.0-0.22","4b866b4b-b1c9-4174-b5ba-396d8e114625","1000","
                  <p style=""text-align: center;"">₪58
                                                <br>40%</p>
                  <p id=""wtp"" style=""text-align:center; margin-top: 0px; margin-bottom: 0px; font-size: 40px"";>&ensp;</p>","-","viewing","0","20","10C,13A,19C,21B","","","","","","","","","","","","","","","","","",""
"","","","","","html-slider-response","179","338017","0.0-21.0-1.22","4b866b4b-b1c9-4174-b5ba-396d8e114625","2500","
                  <p style=""text-align: center;"">₪58
                                                <br>40%</p>
                  <p id=""wtp"" style=""text-align:center; margin-top: 0px; margin-bottom: 0px; font-size: 40px"";>מוכנים לשלם: <span id=""c_p_y""></span></p>","10","evaluation","80","20","10C,13A,19C,21B","40","58","11","","","","","","","","","","","","","","",""
"","","","","","html-keyboard-response","180","339157","0.0-21.0-2.22","4b866b4b-b1c9-4174-b5ba-396d8e114625","null","<p style=""text-align: center;"">+</p>","null","fixation","","","","","","","","","","","","","","","","","","","","",""
"","","","","","html-slider-response","181","340166","0.0-21.0-0.23","4b866b4b-b1c9-4174-b5ba-396d8e114625","1000","
                  <p style=""text-align: center;"">₪58
                                                <br>45%</p>
                  <p id=""wtp"" style=""text-align:center; margin-top: 0px; margin-bottom: 0px; font-size: 40px"";>&ensp;</p>","-","viewing","0","21","11C,18C,25A","","","","","","","","","","","","","","","","","",""
"","","","","","html-slider-response","182","342537","0.0-21.0-1.23","4b866b4b-b1c9-4174-b5ba-396d8e114625","2370","
                  <p style=""text-align: center;"">₪58
                                                <br>45%</p>
                  <p id=""wtp"" style=""text-align:center; margin-top: 0px; margin-bottom: 0px; font-size: 40px"";>מוכנים לשלם: <span id=""c_p_y""></span></p>","11","evaluation","17","21","11C,18C,25A","45","58","11","","","","","","","","","","","","","","",""
"","","","","","html-keyboard-response","183","343939","0.0-21.0-2.23","4b866b4b-b1c9-4174-b5ba-396d8e114625","null","<p style=""text-align: center;"">+</p>","null","fixation","","","","","","","","","","","","","","","","","","","","",""
"","","","","","html-slider-response","184","344944","0.0-21.0-0.24","4b866b4b-b1c9-4174-b5ba-396d8e114625","1000","
                  <p style=""text-align: center;"">₪71
                                                <br>55%</p>
                  <p id=""wtp"" style=""text-align:center; margin-top: 0px; margin-bottom: 0px; font-size: 40px"";>&ensp;</p>","-","viewing","0","27","5B,18A","","","","","","","","","","","","","","","","","",""
"","","","","","html-slider-response","185","346889","0.0-21.0-1.24","4b866b4b-b1c9-4174-b5ba-396d8e114625","1944","
                  <p style=""text-align: center;"">₪71
                                                <br>55%</p>
                  <p id=""wtp"" style=""text-align:center; margin-top: 0px; margin-bottom: 0px; font-size: 40px"";>מוכנים לשלם: <span id=""c_p_y""></span></p>","20","evaluation","61","27","5B,18A","55","71","20","","","","","","","","","","","","","","",""
"","","","","","html-keyboard-response","186","348350","0.0-21.0-2.24","4b866b4b-b1c9-4174-b5ba-396d8e114625","null","<p style=""text-align: center;"">+</p>","null","fixation","","","","","","","","","","","","","","","","","","","","",""
"","","","","","html-slider-response","187","349353","0.0-21.0-0.25","4b866b4b-b1c9-4174-b5ba-396d8e114625","1000","
                  <p style=""text-align: center;"">₪79
                                                <br>40%</p>
                  <p id=""wtp"" style=""text-align:center; margin-top: 0px; margin-bottom: 0px; font-size: 40px"";>&ensp;</p>","-","viewing","0","30","9B","","","","","","","","","","","","","","","","","",""
"","","","","","html-slider-response","188","351393","0.0-21.0-1.25","4b866b4b-b1c9-4174-b5ba-396d8e114625","2039","
                  <p style=""text-align: center;"">₪79
                                                <br>40%</p>
                  <p id=""wtp"" style=""text-align:center; margin-top: 0px; margin-bottom: 0px; font-size: 40px"";>מוכנים לשלם: <span id=""c_p_y""></span></p>","25","evaluation","71","30","9B","40","79","25","","","","","","","","","","","","","","",""
"","","","","","html-keyboard-response","189","352030","0.0-21.0-2.25","4b866b4b-b1c9-4174-b5ba-396d8e114625","null","<p style=""text-align: center;"">+</p>","null","fixation","","","","","","","","","","","","","","","","","","","","",""
"","","","","","html-slider-response","190","353042","0.0-21.0-0.26","4b866b4b-b1c9-4174-b5ba-396d8e114625","1000","
                  <p style=""text-align: center;"">₪11
                                                <br>25%</p>
                  <p id=""wtp"" style=""text-align:center; margin-top: 0px; margin-bottom: 0px; font-size: 40px"";>&ensp;</p>","-","viewing","0","5","12A,27B,28B,30B","","","","","","","","","","","","","","","","","",""
"","","","","","html-slider-response","191","355841","0.0-21.0-1.26","4b866b4b-b1c9-4174-b5ba-396d8e114625","2798","
                  <p style=""text-align: center;"">₪11
                                                <br>25%</p>
                  <p id=""wtp"" style=""text-align:center; margin-top: 0px; margin-bottom: 0px; font-size: 40px"";>מוכנים לשלם: <span id=""c_p_y""></span></p>","2","evaluation","66","5","12A,27B,28B,30B","25","11","2","","","","","","","","","","","","","","",""
"","","","","","html-keyboard-response","192","356384","0.0-21.0-2.26","4b866b4b-b1c9-4174-b5ba-396d8e114625","null","<p style=""text-align: center;"">+</p>","null","fixation","","","","","","","","","","","","","","","","","","","","",""
"","","","","","html-slider-response","193","357386","0.0-21.0-0.27","4b866b4b-b1c9-4174-b5ba-396d8e114625","1000","
                  <p style=""text-align: center;"">₪11
                                                <br>75%</p>
                  <p id=""wtp"" style=""text-align:center; margin-top: 0px; margin-bottom: 0px; font-size: 40px"";>&ensp;</p>","-","viewing","0","7","6B,18B,22C,24C,29A","","","","","","","","","","","","","","","","","",""
"","","","","","html-slider-response","194","359641","0.0-21.0-1.27","4b866b4b-b1c9-4174-b5ba-396d8e114625","2254","
                  <p style=""text-align: center;"">₪11
                                                <br>75%</p>
                  <p id=""wtp"" style=""text-align:center; margin-top: 0px; margin-bottom: 0px; font-size: 40px"";>מוכנים לשלם: <span id=""c_p_y""></span></p>","2","evaluation","71","7","6B,18B,22C,24C,29A","75","11","3","","","","","","","","","","","","","","",""
"","","","","","html-keyboard-response","195","360296","0.0-21.0-2.27","4b866b4b-b1c9-4174-b5ba-396d8e114625","null","<p style=""text-align: center;"">+</p>","null","fixation","","","","","","","","","","","","","","","","","","","","",""
"","","","","","html-slider-response","196","361302","0.0-21.0-0.28","4b866b4b-b1c9-4174-b5ba-396d8e114625","1000","
                  <p style=""text-align: center;"">₪4
                                                <br>25%</p>
                  <p id=""wtp"" style=""text-align:center; margin-top: 0px; margin-bottom: 0px; font-size: 40px"";>&ensp;</p>","-","viewing","0","1","6C,29B,30C","","","","","","","","","","","","","","","","","",""
"","","","","","html-slider-response","197","362073","0.0-21.0-1.28","4b866b4b-b1c9-4174-b5ba-396d8e114625","769","
                  <p style=""text-align: center;"">₪4
                                                <br>25%</p>
                  <p id=""wtp"" style=""text-align:center; margin-top: 0px; margin-bottom: 0px; font-size: 40px"";>מוכנים לשלם: <span id=""c_p_y""></span></p>","0","evaluation","63","1","6C,29B,30C","25","4","0","","","","","","","","","","","","","","",""
"","","","","","html-keyboard-response","198","363066","0.0-21.0-2.28","4b866b4b-b1c9-4174-b5ba-396d8e114625","null","<p style=""text-align: center;"">+</p>","null","fixation","","","","","","","","","","","","","","","","","","","","",""
"","","","","","html-slider-response","199","364068","0.0-21.0-0.29","4b866b4b-b1c9-4174-b5ba-396d8e114625","1000","
                  <p style=""text-align: center;"">₪16
                                                <br>20%</p>
                  <p id=""wtp"" style=""text-align:center; margin-top: 0px; margin-bottom: 0px; font-size: 40px"";>&ensp;</p>","-","viewing","0","8","14C,17A,20C,27A","","","","","","","","","","","","","","","","","",""
"","","","","","html-slider-response","200","365329","0.0-21.0-1.29","4b866b4b-b1c9-4174-b5ba-396d8e114625","1261","
                  <p style=""text-align: center;"">₪16
                                                <br>20%</p>
                  <p id=""wtp"" style=""text-align:center; margin-top: 0px; margin-bottom: 0px; font-size: 40px"";>מוכנים לשלם: <span id=""c_p_y""></span></p>","0","evaluation","77","8","14C,17A,20C,27A","20","16","0","","","","","","","","","","","","","","",""
"","","","","","html-keyboard-response","201","366693","0.0-21.0-2.29","4b866b4b-b1c9-4174-b5ba-396d8e114625","null","<p style=""text-align: center;"">+</p>","null","fixation","","","","","","","","","","","","","","","","","","","","",""
"","","","","","html-slider-response","202","367699","0.0-21.0-0.30","4b866b4b-b1c9-4174-b5ba-396d8e114625","1000","
                  <p style=""text-align: center;"">₪36
                                                <br>60%</p>
                  <p id=""wtp"" style=""text-align:center; margin-top: 0px; margin-bottom: 0px; font-size: 40px"";>&ensp;</p>","-","viewing","0","12","1C,7C,15C","","","","","","","","","","","","","","","","","",""
"","","","","","html-slider-response","203","370193","0.0-21.0-1.30","4b866b4b-b1c9-4174-b5ba-396d8e114625","2493","
                  <p style=""text-align: center;"">₪36
                                                <br>60%</p>
                  <p id=""wtp"" style=""text-align:center; margin-top: 0px; margin-bottom: 0px; font-size: 40px"";>מוכנים לשלם: <span id=""c_p_y""></span></p>","1","evaluation","74","12","1C,7C,15C","60","36","2","","","","","","","","","","","","","","",""
"","","","","","html-keyboard-response","204","370963","0.0-21.0-2.30","4b866b4b-b1c9-4174-b5ba-396d8e114625","null","<p style=""text-align: center;"">+</p>","null","fixation","","","","","","","","","","","","","","","","","","","","",""
"","","","","","html-keyboard-response","205","371967","0.0-22.0","4b866b4b-b1c9-4174-b5ba-396d8e114625","null","<p style=""text-align: center;"">+</p>","null","fixation","","","","","","","","","","","","","","","","","","","","",""
"","","","","","html-keyboard-response","206","373353","0.0-23.0","4b866b4b-b1c9-4174-b5ba-396d8e114625","null","<p>הפסקה.
          <br>לחצו כדי להמשיך.</p>","1","scan_wait","","","","","","","","","","","","","","","","","","","","",""
"","","","","","html-keyboard-response","207","374365","0.0-24.0","4b866b4b-b1c9-4174-b5ba-396d8e114625","null","<p style=""text-align: center;"">+</p>","null","fixation","","","","","","","","","","","","","","","","","","","","",""
"","","","","","html-slider-response","208","375382","0.0-25.0-0.0","4b866b4b-b1c9-4174-b5ba-396d8e114625","1000","
                  <p style=""text-align: center;"">₪18
                                                <br>25%</p>
                  <p id=""wtp"" style=""text-align:center; margin-top: 0px; margin-bottom: 0px; font-size: 40px"";>&ensp;</p>","-","viewing","0","9","14A,23A","","","","","","","","","","","","","","","","","",""
"","","","","","html-slider-response","209","376961","0.0-25.0-1.0","4b866b4b-b1c9-4174-b5ba-396d8e114625","1578","
                  <p style=""text-align: center;"">₪18
                                                <br>25%</p>
                  <p id=""wtp"" style=""text-align:center; margin-top: 0px; margin-bottom: 0px; font-size: 40px"";>מוכנים לשלם: <span id=""c_p_y""></span></p>","0","evaluation","46","9","14A,23A","25","18","1","","","","","","","","","","","","","","",""
"","","","","","html-keyboard-response","210","378248","0.0-25.0-2.0","4b866b4b-b1c9-4174-b5ba-396d8e114625","null","<p style=""text-align: center;"">+</p>","null","fixation","","","","","","","","","","","","","","","","","","","","",""
"","","","","","html-slider-response","211","379251","0.0-25.0-0.1","4b866b4b-b1c9-4174-b5ba-396d8e114625","1000","
                  <p style=""text-align: center;"">₪4
                                                <br>50%</p>
                  <p id=""wtp"" style=""text-align:center; margin-top: 0px; margin-bottom: 0px; font-size: 40px"";>&ensp;</p>","-","viewing","0","2","4C,17B","","","","","","","","","","","","","","","","","",""
"","","","","","html-slider-response","212","380313","0.0-25.0-1.1","4b866b4b-b1c9-4174-b5ba-396d8e114625","1061","
                  <p style=""text-align: center;"">₪4
                                                <br>50%</p>
                  <p id=""wtp"" style=""text-align:center; margin-top: 0px; margin-bottom: 0px; font-size: 40px"";>מוכנים לשלם: <span id=""c_p_y""></span></p>","1","evaluation","21","2","4C,17B","50","4","1","","","","","","","","","","","","","","",""
"","","","","","html-keyboard-response","213","381155","0.0-25.0-2.1","4b866b4b-b1c9-4174-b5ba-396d8e114625","null","<p style=""text-align: center;"">+</p>","null","fixation","","","","","","","","","","","","","","","","","","","","",""
"","","","","","html-slider-response","214","382165","0.0-25.0-0.2","4b866b4b-b1c9-4174-b5ba-396d8e114625","1000","
                  <p style=""text-align: center;"">₪58
                                                <br>40%</p>
                  <p id=""wtp"" style=""text-align:center; margin-top: 0px; margin-bottom: 0px; font-size: 40px"";>&ensp;</p>","-","viewing","0","20","10C,13A,19C,21B","","","","","","","","","","","","","","","","","",""
"","","","","","html-slider-response","215","383945","0.0-25.0-1.2","4b866b4b-b1c9-4174-b5ba-396d8e114625","1779","
                  <p style=""text-align: center;"">₪58
                                                <br>40%</p>
                  <p id=""wtp"" style=""text-align:center; margin-top: 0px; margin-bottom: 0px; font-size: 40px"";>מוכנים לשלם: <span id=""c_p_y""></span></p>","4","evaluation","15","20","10C,13A,19C,21B","40","58","5","","","","","","","","","","","","","","",""
"","","","","","html-keyboard-response","216","385263","0.0-25.0-2.2","4b866b4b-b1c9-4174-b5ba-396d8e114625","null","<p style=""text-align: center;"">+</p>","null","fixation","","","","","","","","","","","","","","","","","","","","",""
"","","","","","html-slider-response","217","386267","0.0-25.0-0.3","4b866b4b-b1c9-4174-b5ba-396d8e114625","1000","
                  <p style=""text-align: center;"">₪16
                                                <br>20%</p>
                  <p id=""wtp"" style=""text-align:center; margin-top: 0px; margin-bottom: 0px; font-size: 40px"";>&ensp;</p>","-","viewing","0","8","14C,17A,20C,27A","","","","","","","","","","","","","","","","","",""
"","","","","","html-slider-response","218","388353","0.0-25.0-1.3","4b866b4b-b1c9-4174-b5ba-396d8e114625","2085","
                  <p style=""text-align: center;"">₪16
                                                <br>20%</p>
                  <p id=""wtp"" style=""text-align:center; margin-top: 0px; margin-bottom: 0px; font-size: 40px"";>מוכנים לשלם: <span id=""c_p_y""></span></p>","0","evaluation","52","8","14C,17A,20C,27A","20","16","1","","","","","","","","","","","","","","",""
"","","","","","html-keyboard-response","219","389615","0.0-25.0-2.3","4b866b4b-b1c9-4174-b5ba-396d8e114625","null","<p style=""text-align: center;"">+</p>","null","fixation","","","","","","","","","","","","","","","","","","","","",""
"","","","","","html-slider-response","220","390618","0.0-25.0-0.4","4b866b4b-b1c9-4174-b5ba-396d8e114625","1000","
                  <p style=""text-align: center;"">₪61
                                                <br>45%</p>
                  <p id=""wtp"" style=""text-align:center; margin-top: 0px; margin-bottom: 0px; font-size: 40px"";>&ensp;</p>","-","viewing","0","22","10A,11A","","","","","","","","","","","","","","","","","",""
"","","","","","html-slider-response","221","392601","0.0-25.0-1.4","4b866b4b-b1c9-4174-b5ba-396d8e114625","1982","
                  <p style=""text-align: center;"">₪61
                                                <br>45%</p>
                  <p id=""wtp"" style=""text-align:center; margin-top: 0px; margin-bottom: 0px; font-size: 40px"";>מוכנים לשלם: <span id=""c_p_y""></span></p>","14","evaluation","71","22","10A,11A","45","61","14","","","","","","","","","","","","","","",""
"","","","","","html-keyboard-response","222","393495","0.0-25.0-2.4","4b866b4b-b1c9-4174-b5ba-396d8e114625","null","<p style=""text-align: center;"">+</p>","null","fixation","","","","","","","","","","","","","","","","","","","","",""
"","","","","","html-slider-response","223","394505","0.0-25.0-0.5","4b866b4b-b1c9-4174-b5ba-396d8e114625","1000","
                  <p style=""text-align: center;"">₪4
                                                <br>25%</p>
                  <p id=""wtp"" style=""text-align:center; margin-top: 0px; margin-bottom: 0px; font-size: 40px"";>&ensp;</p>","-","viewing","0","1","6C,29B,30C","","","","","","","","","","","","","","","","","",""
"","","","","","html-slider-response","224","396568","0.0-25.0-1.5","4b866b4b-b1c9-4174-b5ba-396d8e114625","2063","
                  <p style=""text-align: center;"">₪4
                                                <br>25%</p>
                  <p id=""wtp"" style=""text-align:center; margin-top: 0px; margin-bottom: 0px; font-size: 40px"";>מוכנים לשלם: <span id=""c_p_y""></span></p>","1","evaluation","79","1","6C,29B,30C","25","4","1","","","","","","","","","","","","","","",""
"","","","","","html-keyboard-response","225","397324","0.0-25.0-2.5","4b866b4b-b1c9-4174-b5ba-396d8e114625","null","<p style=""text-align: center;"">+</p>","null","fixation","","","","","","","","","","","","","","","","","","","","",""
"","","","","","html-slider-response","226","398339","0.0-25.0-0.6","4b866b4b-b1c9-4174-b5ba-396d8e114625","1000","
                  <p style=""text-align: center;"">₪79
                                                <br>40%</p>
                  <p id=""wtp"" style=""text-align:center; margin-top: 0px; margin-bottom: 0px; font-size: 40px"";>&ensp;</p>","-","viewing","0","30","9B","","","","","","","","","","","","","","","","","",""
"","","","","","html-slider-response","227","400689","0.0-25.0-1.6","4b866b4b-b1c9-4174-b5ba-396d8e114625","2348","
                  <p style=""text-align: center;"">₪79
                                                <br>40%</p>
                  <p id=""wtp"" style=""text-align:center; margin-top: 0px; margin-bottom: 0px; font-size: 40px"";>מוכנים לשלם: <span id=""c_p_y""></span></p>","20","evaluation","5","30","9B","40","79","20","","","","","","","","","","","","","","",""
"","","","","","html-keyboard-response","228","401986","0.0-25.0-2.6","4b866b4b-b1c9-4174-b5ba-396d8e114625","null","<p style=""text-align: center;"">+</p>","null","fixation","","","","","","","","","","","","","","","","","","","","",""
"","","","","","html-slider-response","229","403001","0.0-25.0-0.7","4b866b4b-b1c9-4174-b5ba-396d8e114625","1000","
                  <p style=""text-align: center;"">₪39
                                                <br>60%</p>
                  <p id=""wtp"" style=""text-align:center; margin-top: 0px; margin-bottom: 0px; font-size: 40px"";>&ensp;</p>","-","viewing","0","15","9C,25B","","","","","","","","","","","","","","","","","",""
"","","","","","html-slider-response","230","406025","0.0-25.0-1.7","4b866b4b-b1c9-4174-b5ba-396d8e114625","3022","
                  <p style=""text-align: center;"">₪39
                                                <br>60%</p>
                  <p id=""wtp"" style=""text-align:center; margin-top: 0px; margin-bottom: 0px; font-size: 40px"";>מוכנים לשלם: <span id=""c_p_y""></span></p>","14","evaluation","76","15","9C,25B","60","39","15","","","","","","","","","","","","","","",""
"","","","","","html-keyboard-response","231","407493","0.0-25.0-2.7","4b866b4b-b1c9-4174-b5ba-396d8e114625","null","<p style=""text-align: center;"">+</p>","null","fixation","","","","","","","","","","","","","","","","","","","","",""
"","","","","","html-slider-response","232","408509","0.0-25.0-0.8","4b866b4b-b1c9-4174-b5ba-396d8e114625","1000","
                  <p style=""text-align: center;"">₪11
                                                <br>45%</p>
                  <p id=""wtp"" style=""text-align:center; margin-top: 0px; margin-bottom: 0px; font-size: 40px"";>&ensp;</p>","-","viewing","0","6","14B,21C,25C","","","","","","","","","","","","","","","","","",""
"","","","","","html-slider-response","233","410297","0.0-25.0-1.8","4b866b4b-b1c9-4174-b5ba-396d8e114625","1787","
                  <p style=""text-align: center;"">₪11
                                                <br>45%</p>
                  <p id=""wtp"" style=""text-align:center; margin-top: 0px; margin-bottom: 0px; font-size: 40px"";>מוכנים לשלם: <span id=""c_p_y""></span></p>","1","evaluation","54","6","14B,21C,25C","45","11","1","","","","","","","","","","","","","","",""
"","","","","","html-keyboard-response","234","411317","0.0-25.0-2.8","4b866b4b-b1c9-4174-b5ba-396d8e114625","null","<p style=""text-align: center;"">+</p>","null","fixation","","","","","","","","","","","","","","","","","","","","",""
"","","","","","html-slider-response","235","412329","0.0-25.0-0.9","4b866b4b-b1c9-4174-b5ba-396d8e114625","1000","
                  <p style=""text-align: center;"">₪58
                                                <br>30%</p>
                  <p id=""wtp"" style=""text-align:center; margin-top: 0px; margin-bottom: 0px; font-size: 40px"";>&ensp;</p>","-","viewing","0","19","13C,30A","","","","","","","","","","","","","","","","","",""
"","","","","","html-slider-response","236","414569","0.0-25.0-1.9","4b866b4b-b1c9-4174-b5ba-396d8e114625","2240","
                  <p style=""text-align: center;"">₪58
                                                <br>30%</p>
                  <p id=""wtp"" style=""text-align:center; margin-top: 0px; margin-bottom: 0px; font-size: 40px"";>מוכנים לשלם: <span id=""c_p_y""></span></p>","7","evaluation","60","19","13C,30A","30","58","7","","","","","","","","","","","","","","",""
"","","","","","html-keyboard-response","237","415828","0.0-25.0-2.9","4b866b4b-b1c9-4174-b5ba-396d8e114625","null","<p style=""text-align: center;"">+</p>","null","fixation","","","","","","","","","","","","","","","","","","","","",""
"","","","","","html-slider-response","238","416838","0.0-25.0-0.10","4b866b4b-b1c9-4174-b5ba-396d8e114625","1000","
                  <p style=""text-align: center;"">₪43
                                                <br>75%</p>
                  <p id=""wtp"" style=""text-align:center; margin-top: 0px; margin-bottom: 0px; font-size: 40px"";>&ensp;</p>","-","viewing","0","18","11B,19B,24A,26A","","","","","","","","","","","","","","","","","",""
"","","","","","html-slider-response","239","419153","0.0-25.0-1.10","4b866b4b-b1c9-4174-b5ba-396d8e114625","2314","
                  <p style=""text-align: center;"">₪43
                                                <br>75%</p>
                  <p id=""wtp"" style=""text-align:center; margin-top: 0px; margin-bottom: 0px; font-size: 40px"";>מוכנים לשלם: <span id=""c_p_y""></span></p>","15","evaluation","70","18","11B,19B,24A,26A","75","43","16","","","","","","","","","","","","","","",""
"","","","","","html-keyboard-response","240","419856","0.0-25.0-2.10","4b866b4b-b1c9-4174-b5ba-396d8e114625","null","<p style=""text-align: center;"">+</p>","null","fixation","","","","","","","","","","","","","","","","","","","","",""
"","","","","","html-slider-response","241","420864","0.0-25.0-0.11","4b866b4b-b1c9-4174-b5ba-396d8e114625","1000","
                  <p style=""text-align: center;"">₪64
                                                <br>25%</p>
                  <p id=""wtp"" style=""text-align:center; margin-top: 0px; margin-bottom: 0px; font-size: 40px"";>&ensp;</p>","-","viewing","0","24","6A,21A","","","","","","","","","","","","","","","","","",""
"","","","","","html-slider-response","242","422745","0.0-25.0-1.11","4b866b4b-b1c9-4174-b5ba-396d8e114625","1880","
                  <p style=""text-align: center;"">₪64
                                                <br>25%</p>
                  <p id=""wtp"" style=""text-align:center; margin-top: 0px; margin-bottom: 0px; font-size: 40px"";>מוכנים לשלם: <span id=""c_p_y""></span></p>","17","evaluation","55","24","6A,21A","25","64","17","","","","","","","","","","","","","","",""
"","","","","","html-keyboard-response","243","424056","0.0-25.0-2.11","4b866b4b-b1c9-4174-b5ba-396d8e114625","null","<p style=""text-align: center;"">+</p>","null","fixation","","","","","","","","","","","","","","","","","","","","",""
"","","","","","html-slider-response","244","425073","0.0-25.0-0.12","4b866b4b-b1c9-4174-b5ba-396d8e114625","1000","
                  <p style=""text-align: center;"">₪18
                                                <br>50%</p>
                  <p id=""wtp"" style=""text-align:center; margin-top: 0px; margin-bottom: 0px; font-size: 40px"";>&ensp;</p>","-","viewing","0","10","2C,16C,22B,28A","","","","","","","","","","","","","","","","","",""
"","","","","","html-slider-response","245","426553","0.0-25.0-1.12","4b866b4b-b1c9-4174-b5ba-396d8e114625","1478","
                  <p style=""text-align: center;"">₪18
                                                <br>50%</p>
                  <p id=""wtp"" style=""text-align:center; margin-top: 0px; margin-bottom: 0px; font-size: 40px"";>מוכנים לשלם: <span id=""c_p_y""></span></p>","1","evaluation","49","10","2C,16C,22B,28A","50","18","2","","","","","","","","","","","","","","",""
"","","","","","html-keyboard-response","246","427505","0.0-25.0-2.12","4b866b4b-b1c9-4174-b5ba-396d8e114625","null","<p style=""text-align: center;"">+</p>","null","fixation","","","","","","","","","","","","","","","","","","","","",""
"","","","","","html-slider-response","247","428517","0.0-25.0-0.13","4b866b4b-b1c9-4174-b5ba-396d8e114625","1000","
                  <p style=""text-align: center;"">₪61
                                                <br>55%</p>
                  <p id=""wtp"" style=""text-align:center; margin-top: 0px; margin-bottom: 0px; font-size: 40px"";>&ensp;</p>","-","viewing","0","23","7B,26B","","","","","","","","","","","","","","","","","",""
"","","","","","html-slider-response","248","431369","0.0-25.0-1.13","4b866b4b-b1c9-4174-b5ba-396d8e114625","2850","
                  <p style=""text-align: center;"">₪61
                                                <br>55%</p>
                  <p id=""wtp"" style=""text-align:center; margin-top: 0px; margin-bottom: 0px; font-size: 40px"";>מוכנים לשלם: <span id=""c_p_y""></span></p>","19","evaluation","22","23","7B,26B","55","61","20","","","","","","","","","","","","","","",""
"","","","","","html-keyboard-response","249","432723","0.0-25.0-2.13","4b866b4b-b1c9-4174-b5ba-396d8e114625","null","<p style=""text-align: center;"">+</p>","null","fixation","","","","","","","","","","","","","","","","","","","","",""
"","","","","","html-slider-response","250","433732","0.0-25.0-0.14","4b866b4b-b1c9-4174-b5ba-396d8e114625","1000","
                  <p style=""text-align: center;"">₪71
                                                <br>75%</p>
                  <p id=""wtp"" style=""text-align:center; margin-top: 0px; margin-bottom: 0px; font-size: 40px"";>&ensp;</p>","-","viewing","0","28","8B","","","","","","","","","","","","","","","","","",""
"","","","","","html-slider-response","251","436073","0.0-25.0-1.14","4b866b4b-b1c9-4174-b5ba-396d8e114625","2339","
                  <p style=""text-align: center;"">₪71
                                                <br>75%</p>
                  <p id=""wtp"" style=""text-align:center; margin-top: 0px; margin-bottom: 0px; font-size: 40px"";>מוכנים לשלם: <span id=""c_p_y""></span></p>","37","evaluation","72","28","8B","75","71","37","","","","","","","","","","","","","","",""
"","","","","","html-keyboard-response","252","436941","0.0-25.0-2.14","4b866b4b-b1c9-4174-b5ba-396d8e114625","null","<p style=""text-align: center;"">+</p>","null","fixation","","","","","","","","","","","","","","","","","","","","",""
"","","","","","html-slider-response","253","437945","0.0-25.0-0.15","4b866b4b-b1c9-4174-b5ba-396d8e114625","1000","
                  <p style=""text-align: center;"">₪4
