"success","timeout","failed_images","failed_audio","failed_video","trial_type","trial_index","time_elapsed","internal_node_id","subject_id","rt","stimulus","response","part","slider_start","ID","set_ID","prob","amount","last_location","actual_choice","actual_EV","binary_id","trinary_id","catch","A_key","D_key","choice_prob","choice_amount","won_prize","potential_prize_amount","potential_prize_prob","total_prize","accuracy"
"true","false","[]","[]","[]","preload","0","11","0.0-0.0","8a13dda4-6463-4320-baa2-a54090512a31","","","","","","","","","","","","","","","","","","","","","","","",""
"","","","","","html-keyboard-response","1","11749","0.0-1.0","8a13dda4-6463-4320-baa2-a54090512a31","null","
          <h1>שלום וברוכים הבאים!</h1>
          <p>לפניכם ניסוי בקבלת החלטות עם שני חלקים.
          <br><br>לחצו על העכבר כדי להמשיך.</p>","0","example","","","","","","","","","","","","","","","","","","","",""
"","","","","","html-keyboard-response","2","22685","0.0-2.0","8a13dda4-6463-4320-baa2-a54090512a31","null","
        <h1>חלק 1</h1>
        <p>בקרוב יוצגו בפניכם הגרלות.
        <br>עליכם לבחור את המחיר המירבי שתהיו מוכנים לשלם כדי להשתתף בהגרלה שתוצג.
        <br>יש לכם תקציב של ₪80 לכל הגרלה. 
        <br>נסו להעריך כל הגרלה בנפרד ולחשוב כמה היא שווה עבורכם, ₪80 זמינים לכל הגרלה בנפרד.
        <br><br>לחצו על העכבר כדי להמשיך.</p>","1","instructions","","","","","","","","","","","","","","","","","","","",""
"","","","","","html-keyboard-response","3","32813","0.0-3.0","8a13dda4-6463-4320-baa2-a54090512a31","null","
        <p>בסוף הניסוי, המחשב יבחר את אחת ההגרלות ויקבע מחיר לכרטיס עבורה. 
        <br>במידה והמחיר שבחרתם נמוך מהמחיר שנבחר על ידי המחשב, לא תשתתפו בהגרלה ותשארו עם מלוא התקציב.
        <br>במידה והמחיר שבחרתם גבוה מהמחיר שנבחר על ידי המחשב, תשלמו את המחיר שנקבע ותשתתפו בהגרלה.
        <br><br>לחצו על העכבר כדי להמשיך.</p>","1","instructions","","","","","","","","","","","","","","","","","","","",""
"","","","","","html-slider-response","4","57654","0.0-4.0","8a13dda4-6463-4320-baa2-a54090512a31","24734","
        <p style=""font-size: 42px;"">נתחיל עם דוגמא: 
        <br>ההגרלה מטה מציעה 65% סיכוי לזכות ב-₪40 
        <br>&emsp;&emsp;&emsp;&emsp;&emsp;&emsp;&emsp;&emsp;&ensp;35% סיכוי לזכות ב-₪0.
        <br><br>מה המחיר המירבי שתהיו מוכנים לשלם על כרטיס להגרלה זו בין 0 ל-₪80?
        <br>הזיזו את העכבר על פני המלבן ולחצו כדי לבצע בחירה.</p>
        
        <p style=""text-align: center;"">₪40<br>65%</p>

        <p id=""wtp"" style=""text-align:center; margin-top: 0px; margin-bottom: 0px; font-size: 40px"";>מוכנים לשלם: <span id=""c_p_y""></span></p>","25","example","72","","","","","","","","","","","","","","","","","","",""
"","","","","","html-keyboard-response","5","64149","0.0-5.0","8a13dda4-6463-4320-baa2-a54090512a31","null","<p>יפה מאוד!
                <br> בחרתם שתהיו מוכנים לשלם ₪25 כדי להשתתף בהגרלה:
                <br><p style=""text-align: center;"">₪40<br>65%</p>
                <p>נשמע נכון?
                <br>נניח שהגרלה זו נבחרה בסוף הניסוי.
                <br>כעת המחשב יקבע מחיר עבורה באקראי.
                <br>לחצו על העכבר להמשך.</p>","1","example","","","","","","","","","","","","","","","","","","","",""
"","","","","","html-keyboard-response","6","75509","0.0-6.0","8a13dda4-6463-4320-baa2-a54090512a31","null","<p>המחשב קבע מחיר: ₪73
                <br>ואתם בחרתם לשלם לכל היותר: ₪25
                <br><br>מכיוון שהמחיר שבחרתם נמוך מהמחיר שנקבע, לא תתשתתפו בהגרלה.
                <br>במקרה כזה, בסוף הניסוי תקבלו את כל התקציב ההתחלתי של ₪80.
                <br><br>לחצו על העכבר להמשך.</p>","1","example","","","","","","","","","","","","","","","","","","","",""
"","","","","","html-slider-response","7","97854","0.0-7.0","8a13dda4-6463-4320-baa2-a54090512a31","22079","<p style=""font-size: 42px;"">הנה עוד דוגמא:
                <br>ההגרלה מטה מציעה 35% סיכוי לזכות ב-₪18 
                <br>&emsp;&emsp;&emsp;&emsp;&emsp;&emsp;&emsp;&emsp;&ensp;65% סיכוי לזכות ב-₪0.</p>
        
                <p style=""text-align: center;"">₪18<br>35%</p>
                <p id=""wtp"" style=""text-align:center; margin-top: 0px; margin-bottom: 0px; font-size: 40px"";>מוכנים לשלם: <span id=""c_p_y""></span></p>","7","example","27","","","","","","","","","","","","","","","","","","",""
"","","","","","html-keyboard-response","8","100517","0.0-8.0","8a13dda4-6463-4320-baa2-a54090512a31","null","<p>הייתם מוכנים לשלם  ₪7 כדי להשתתף בהגרלה:
                <p style=""text-align: center;"">₪18<br>35%</p>
                <p>כעת נניח שהמחשב בחר את ההגרלה הזו בסוף הניסוי, וקבע עבורה מחיר.
                <br><br>לחצו על העכבר כדי להמשיך.</p>","1","instructions","","","","","","","","","","","","","","","","","","","",""
"","","","","","html-keyboard-response","9","116741","0.0-9.0","8a13dda4-6463-4320-baa2-a54090512a31","null","<p>המחשב קבע מחיר להגרלה: ₪5<br>ואתם בחרתם לשלם לכל היותר: ₪7
                <br><br>כעת המחיר שנקבע נמוך מזה שבחרתם, אז תשלמו את המחיר שקבע המחשב (₪5) ותשתתפו בהגרלה.
                <br>במקרה כזה, תסיימו את הניסוי עם תקציב של ₪75 ועם סיכוי לזכות ב-₪18 נוספים מההגרלה.
                <br>כלומר, תוכלו לקבל ₪75 אם לא תזכו בהגרלה, או ₪93 אם תזכו בהגרלה.
                <br><br>לחצו על העכבר להמשך.</p>","1","example","","","","","","","","","","","","","","","","","","","",""
"","","","","","html-keyboard-response","10","126613","0.0-10.0","8a13dda4-6463-4320-baa2-a54090512a31","null","<p>במהלך הניסוי, קודם תראו את ההגרלה ורק לאחר מכן תוכלו לבחור.
                <p>כמו כן, יהיו לכם מספר שניות מוגבל להגיב.
                <p>בואו ננסה זאת עם ההגרלה הקודמת.
                <br>לחצו על העכבר כדי להמשיך.</p>","1","instructions","","","","","","","","","","","","","","","","","","","",""
"","","","","","html-slider-response","11","127877","0.0-11.0","8a13dda4-6463-4320-baa2-a54090512a31","1000","
                    <p style=""text-align: center;"">₪18<br>35%</p>
                    <p id=""wtp"" style=""text-align:center; margin-top: 0px; margin-bottom: 0px; font-size: 40px"";>&ensp;</p>","45","instructions","0","","","","","","","","","","","","","","","","","","",""
"","","","","","html-slider-response","12","132142","0.0-12.0","8a13dda4-6463-4320-baa2-a54090512a31","null","
                    <p style=""text-align: center;"">₪18<br>35%</p>
                    <p id=""wtp"" style=""text-align:center; margin-top: 0px; margin-bottom: 0px; font-size: 40px"";>מוכנים לשלם: <span id=""c_p_y""></span></p>","null","instructions","40","","","","","","","","","","","","","","","","","","",""
"","","","","","html-keyboard-response","13","136038","0.0-13.0","8a13dda4-6463-4320-baa2-a54090512a31","null","<p>לא הגבתם בזמן המוקצב לתגובה. 
                <br>נסו להגיב מהר יותר בפעם הבאה.
                <br><br>לחצו על העכבר כדי להמשיך.</p>","1","instructions","","","","","","","","","","","","","","","","","","","",""
"","","","","","html-slider-response","14","139862","0.0-14.0-0.0","8a13dda4-6463-4320-baa2-a54090512a31","3571","
                    <p style=""text-align: center;"">₪40<br>65%</p>
                    <p id=""wtp"" style=""text-align:center; margin-top: 0px; margin-bottom: 0px; font-size: 40px"";>מוכנים לשלם: <span id=""c_p_y""></span></p>","25","instructions","77","","","","","","","","","","","","","","","","","","",""
"","","","","","html-keyboard-response","15","143557","0.0-14.0-1.0","8a13dda4-6463-4320-baa2-a54090512a31","null","<p>יפה. הפעם בחרתם לשלם לכל היותר ₪25.
                <br><br>לחצו על העכבר כדי להמשיך.</p>","1","instructions","","","","","","","","","","","","","","","","","","","",""
"","","","","","html-keyboard-response","16","152677","0.0-15.0","8a13dda4-6463-4320-baa2-a54090512a31","null","<p>כעת נתחיל את הניסוי.
                <br><br>אתם תראו הגרלות ותתבקשו לבחור כמה תהיו מוכנים לשלם כדי להשתתף בהן.
                <br>יש לכם תקציב של ₪80 עבור כל הגרלה.
                <br>בסוף הניסוי הגרלה אחת תבחר באקראי ותשוחק.
                <br><br>לחצו על העכבר כדי להתחיל את הניסוי.</p>","1","instructions","","","","","","","","","","","","","","","","","","","",""
"","","","","","html-keyboard-response","17","153951","0.0-16.0","8a13dda4-6463-4320-baa2-a54090512a31","null","<p style=""text-align: center;"">+</p>","null","fixation","","","","","","","","","","","","","","","","","","","",""
"","","","","","html-slider-response","18","154966","0.0-17.0-0.0","8a13dda4-6463-4320-baa2-a54090512a31","1000","
                  <p style=""text-align: center;"">₪36
                                                <br>30%</p>
                  <p id=""wtp"" style=""text-align:center; margin-top: 0px; margin-bottom: 0px; font-size: 40px"";>&ensp;</p>","-","viewing","0","11","3C,20A,22A","","","","","","","","","","","","","","","","",""
"","","","","","html-slider-response","19","158102","0.0-17.0-1.0","8a13dda4-6463-4320-baa2-a54090512a31","3134","
                  <p style=""text-align: center;"">₪36
                                                <br>30%</p>
                  <p id=""wtp"" style=""text-align:center; margin-top: 0px; margin-bottom: 0px; font-size: 40px"";>מוכנים לשלם: <span id=""c_p_y""></span></p>","11","evaluation","77","11","3C,20A,22A","30","36","11","","","","","","","","","","","","","",""
"","","","","","html-keyboard-response","20","159271","0.0-17.0-2.0","8a13dda4-6463-4320-baa2-a54090512a31","null","<p style=""text-align: center;"">+</p>","null","fixation","","","","","","","","","","","","","","","","","","","",""
"","","","","","html-slider-response","21","160273","0.0-17.0-0.1","8a13dda4-6463-4320-baa2-a54090512a31","1000","
                  <p style=""text-align: center;"">₪16
                                                <br>20%</p>
                  <p id=""wtp"" style=""text-align:center; margin-top: 0px; margin-bottom: 0px; font-size: 40px"";>&ensp;</p>","-","viewing","0","8","14C,17A,20C,27A","","","","","","","","","","","","","","","","",""
"","","","","","html-slider-response","22","162950","0.0-17.0-1.1","8a13dda4-6463-4320-baa2-a54090512a31","2675","
                  <p style=""text-align: center;"">₪16
                                                <br>20%</p>
                  <p id=""wtp"" style=""text-align:center; margin-top: 0px; margin-bottom: 0px; font-size: 40px"";>מוכנים לשלם: <span id=""c_p_y""></span></p>","5","evaluation","40","8","14C,17A,20C,27A","20","16","5","","","","","","","","","","","","","",""
"","","","","","html-keyboard-response","23","163868","0.0-17.0-2.1","8a13dda4-6463-4320-baa2-a54090512a31","null","<p style=""text-align: center;"">+</p>","null","fixation","","","","","","","","","","","","","","","","","","","",""
"","","","","","html-slider-response","24","164872","0.0-17.0-0.2","8a13dda4-6463-4320-baa2-a54090512a31","1000","
                  <p style=""text-align: center;"">₪36
                                                <br>75%</p>
                  <p id=""wtp"" style=""text-align:center; margin-top: 0px; margin-bottom: 0px; font-size: 40px"";>&ensp;</p>","-","viewing","0","14","4B,5A,13B,16B","","","","","","","","","","","","","","","","",""
"","","","","","html-slider-response","25","168294","0.0-17.0-1.2","8a13dda4-6463-4320-baa2-a54090512a31","3419","
                  <p style=""text-align: center;"">₪36
                                                <br>75%</p>
                  <p id=""wtp"" style=""text-align:center; margin-top: 0px; margin-bottom: 0px; font-size: 40px"";>מוכנים לשלם: <span id=""c_p_y""></span></p>","23","evaluation","69","14","4B,5A,13B,16B","75","36","24","","","","","","","","","","","","","",""
"","","","","","html-keyboard-response","26","169009","0.0-17.0-2.2","8a13dda4-6463-4320-baa2-a54090512a31","null","<p style=""text-align: center;"">+</p>","null","fixation","","","","","","","","","","","","","","","","","","","",""
"","","","","","html-slider-response","27","170015","0.0-17.0-0.3","8a13dda4-6463-4320-baa2-a54090512a31","1000","
                  <p style=""text-align: center;"">₪11
                                                <br>20%</p>
                  <p id=""wtp"" style=""text-align:center; margin-top: 0px; margin-bottom: 0px; font-size: 40px"";>&ensp;</p>","-","viewing","0","4","12C,17C,23C,28C","","","","","","","","","","","","","","","","",""
"","","","","","html-slider-response","28","173069","0.0-17.0-1.3","8a13dda4-6463-4320-baa2-a54090512a31","3053","
                  <p style=""text-align: center;"">₪11
                                                <br>20%</p>
                  <p id=""wtp"" style=""text-align:center; margin-top: 0px; margin-bottom: 0px; font-size: 40px"";>מוכנים לשלם: <span id=""c_p_y""></span></p>","3","evaluation","4","4","12C,17C,23C,28C","20","11","4","","","","","","","","","","","","","",""
"","","","","","html-keyboard-response","29","174491","0.0-17.0-2.3","8a13dda4-6463-4320-baa2-a54090512a31","null","<p style=""text-align: center;"">+</p>","null","fixation","","","","","","","","","","","","","","","","","","","",""
"","","","","","html-slider-response","30","175505","0.0-17.0-0.4","8a13dda4-6463-4320-baa2-a54090512a31","1000","
                  <p style=""text-align: center;"">₪71
                                                <br>75%</p>
                  <p id=""wtp"" style=""text-align:center; margin-top: 0px; margin-bottom: 0px; font-size: 40px"";>&ensp;</p>","-","viewing","0","28","8B","","","","","","","","","","","","","","","","",""
"","","","","","html-slider-response","31","179512","0.0-17.0-1.4","8a13dda4-6463-4320-baa2-a54090512a31","null","
                  <p style=""text-align: center;"">₪71
                                                <br>75%</p>
                  <p id=""wtp"" style=""text-align:center; margin-top: 0px; margin-bottom: 0px; font-size: 40px"";>מוכנים לשלם: <span id=""c_p_y""></span></p>","null","evaluation","22","28","8B","75","71","47","","","","","","","","","","","","","",""
"","","","","","html-keyboard-response","32","180541","0.0-17.0-2.4","8a13dda4-6463-4320-baa2-a54090512a31","null","<p style=""text-align: center;"">+</p>","null","fixation","","","","","","","","","","","","","","","","","","","",""
"","","","","","html-slider-response","33","181549","0.0-17.0-0.5","8a13dda4-6463-4320-baa2-a54090512a31","1000","
                  <p style=""text-align: center;"">₪61
                                                <br>45%</p>
                  <p id=""wtp"" style=""text-align:center; margin-top: 0px; margin-bottom: 0px; font-size: 40px"";>&ensp;</p>","-","viewing","0","22","10A,11A","","","","","","","","","","","","","","","","",""
"","","","","","html-slider-response","34","184238","0.0-17.0-1.5","8a13dda4-6463-4320-baa2-a54090512a31","2688","
                  <p style=""text-align: center;"">₪61
                                                <br>45%</p>
                  <p id=""wtp"" style=""text-align:center; margin-top: 0px; margin-bottom: 0px; font-size: 40px"";>מוכנים לשלם: <span id=""c_p_y""></span></p>","24","evaluation","60","22","10A,11A","45","61","25","","","","","","","","","","","","","",""
"","","","","","html-keyboard-response","35","184855","0.0-17.0-2.5","8a13dda4-6463-4320-baa2-a54090512a31","null","<p style=""text-align: center;"">+</p>","null","fixation","","","","","","","","","","","","","","","","","","","",""
"","","","","","html-slider-response","36","185861","0.0-17.0-0.6","8a13dda4-6463-4320-baa2-a54090512a31","1000","
                  <p style=""text-align: center;"">₪36
                                                <br>60%</p>
                  <p id=""wtp"" style=""text-align:center; margin-top: 0px; margin-bottom: 0px; font-size: 40px"";>&ensp;</p>","-","viewing","0","12","1C,7C,15C","","","","","","","","","","","","","","","","",""
"","","","","","html-slider-response","37","189558","0.0-17.0-1.6","8a13dda4-6463-4320-baa2-a54090512a31","3695","
                  <p style=""text-align: center;"">₪36
                                                <br>60%</p>
                  <p id=""wtp"" style=""text-align:center; margin-top: 0px; margin-bottom: 0px; font-size: 40px"";>מוכנים לשלם: <span id=""c_p_y""></span></p>","17","evaluation","61","12","1C,7C,15C","60","36","17","","","","","","","","","","","","","",""
"","","","","","html-keyboard-response","38","190539","0.0-17.0-2.6","8a13dda4-6463-4320-baa2-a54090512a31","null","<p style=""text-align: center;"">+</p>","null","fixation","","","","","","","","","","","","","","","","","","","",""
"","","","","","html-slider-response","39","191553","0.0-17.0-0.7","8a13dda4-6463-4320-baa2-a54090512a31","1000","
                  <p style=""text-align: center;"">₪11
                                                <br>75%</p>
                  <p id=""wtp"" style=""text-align:center; margin-top: 0px; margin-bottom: 0px; font-size: 40px"";>&ensp;</p>","-","viewing","0","7","6B,18B,22C,24C,29A","","","","","","","","","","","","","","","","",""
"","","","","","html-slider-response","40","194286","0.0-17.0-1.7","8a13dda4-6463-4320-baa2-a54090512a31","2732","
                  <p style=""text-align: center;"">₪11
                                                <br>75%</p>
                  <p id=""wtp"" style=""text-align:center; margin-top: 0px; margin-bottom: 0px; font-size: 40px"";>מוכנים לשלם: <span id=""c_p_y""></span></p>","5","evaluation","25","7","6B,18B,22C,24C,29A","75","11","5","","","","","","","","","","","","","",""
"","","","","","html-keyboard-response","41","195649","0.0-17.0-2.7","8a13dda4-6463-4320-baa2-a54090512a31","null","<p style=""text-align: center;"">+</p>","null","fixation","","","","","","","","","","","","","","","","","","","",""
"","","","","","html-slider-response","42","196665","0.0-17.0-0.8","8a13dda4-6463-4320-baa2-a54090512a31","1000","
                  <p style=""text-align: center;"">₪58
                                                <br>40%</p>
                  <p id=""wtp"" style=""text-align:center; margin-top: 0px; margin-bottom: 0px; font-size: 40px"";>&ensp;</p>","-","viewing","0","20","10C,13A,19C,21B","","","","","","","","","","","","","","","","",""
"","","","","","html-slider-response","43","200430","0.0-17.0-1.8","8a13dda4-6463-4320-baa2-a54090512a31","3763","
                  <p style=""text-align: center;"">₪58
                                                <br>40%</p>
                  <p id=""wtp"" style=""text-align:center; margin-top: 0px; margin-bottom: 0px; font-size: 40px"";>מוכנים לשלם: <span id=""c_p_y""></span></p>","24","evaluation","67","20","10C,13A,19C,21B","40","58","24","","","","","","","","","","","","","",""
"","","","","","html-keyboard-response","44","201495","0.0-17.0-2.8","8a13dda4-6463-4320-baa2-a54090512a31","null","<p style=""text-align: center;"">+</p>","null","fixation","","","","","","","","","","","","","","","","","","","",""
"","","","","","html-slider-response","45","202506","0.0-17.0-0.9","8a13dda4-6463-4320-baa2-a54090512a31","1000","
                  <p style=""text-align: center;"">₪39
                                                <br>60%</p>
                  <p id=""wtp"" style=""text-align:center; margin-top: 0px; margin-bottom: 0px; font-size: 40px"";>&ensp;</p>","-","viewing","0","15","9C,25B","","","","","","","","","","","","","","","","",""
"","","","","","html-slider-response","46","205734","0.0-17.0-1.9","8a13dda4-6463-4320-baa2-a54090512a31","3227","
                  <p style=""text-align: center;"">₪39
                                                <br>60%</p>
                  <p id=""wtp"" style=""text-align:center; margin-top: 0px; margin-bottom: 0px; font-size: 40px"";>מוכנים לשלם: <span id=""c_p_y""></span></p>","24","evaluation","28","15","9C,25B","60","39","24","","","","","","","","","","","","","",""
"","","","","","html-keyboard-response","47","206795","0.0-17.0-2.9","8a13dda4-6463-4320-baa2-a54090512a31","null","<p style=""text-align: center;"">+</p>","null","fixation","","","","","","","","","","","","","","","","","","","",""
"","","","","","html-slider-response","48","207798","0.0-17.0-0.10","8a13dda4-6463-4320-baa2-a54090512a31","1000","
                  <p style=""text-align: center;"">₪43
                                                <br>60%</p>
                  <p id=""wtp"" style=""text-align:center; margin-top: 0px; margin-bottom: 0px; font-size: 40px"";>&ensp;</p>","-","viewing","0","17","2A,7A,9A,15B","","","","","","","","","","","","","","","","",""
"","","","","","html-slider-response","49","210838","0.0-17.0-1.10","8a13dda4-6463-4320-baa2-a54090512a31","3038","
                  <p style=""text-align: center;"">₪43
                                                <br>60%</p>
                  <p id=""wtp"" style=""text-align:center; margin-top: 0px; margin-bottom: 0px; font-size: 40px"";>מוכנים לשלם: <span id=""c_p_y""></span></p>","26","evaluation","30","17","2A,7A,9A,15B","60","43","26","","","","","","","","","","","","","",""
"","","","","","html-keyboard-response","50","211740","0.0-17.0-2.10","8a13dda4-6463-4320-baa2-a54090512a31","null","<p style=""text-align: center;"">+</p>","null","fixation","","","","","","","","","","","","","","","","","","","",""
"","","","","","html-slider-response","51","212745","0.0-17.0-0.11","8a13dda4-6463-4320-baa2-a54090512a31","1000","
                  <p style=""text-align: center;"">₪58
                                                <br>30%</p>
                  <p id=""wtp"" style=""text-align:center; margin-top: 0px; margin-bottom: 0px; font-size: 40px"";>&ensp;</p>","-","viewing","0","19","13C,30A","","","","","","","","","","","","","","","","",""
"","","","","","html-slider-response","52","215798","0.0-17.0-1.11","8a13dda4-6463-4320-baa2-a54090512a31","3051","
                  <p style=""text-align: center;"">₪58
                                                <br>30%</p>
                  <p id=""wtp"" style=""text-align:center; margin-top: 0px; margin-bottom: 0px; font-size: 40px"";>מוכנים לשלם: <span id=""c_p_y""></span></p>","14","evaluation","65","19","13C,30A","30","58","15","","","","","","","","","","","","","",""
"","","","","","html-keyboard-response","53","216384","0.0-17.0-2.11","8a13dda4-6463-4320-baa2-a54090512a31","null","<p style=""text-align: center;"">+</p>","null","fixation","","","","","","","","","","","","","","","","","","","",""
"","","","","","html-slider-response","54","217386","0.0-17.0-0.12","8a13dda4-6463-4320-baa2-a54090512a31","1000","
                  <p style=""text-align: center;"">₪18
                                                <br>25%</p>
                  <p id=""wtp"" style=""text-align:center; margin-top: 0px; margin-bottom: 0px; font-size: 40px"";>&ensp;</p>","-","viewing","0","9","14A,23A","","","","","","","","","","","","","","","","",""
"","","","","","html-slider-response","55","220534","0.0-17.0-1.12","8a13dda4-6463-4320-baa2-a54090512a31","3146","
                  <p style=""text-align: center;"">₪18
                                                <br>25%</p>
                  <p id=""wtp"" style=""text-align:center; margin-top: 0px; margin-bottom: 0px; font-size: 40px"";>מוכנים לשלם: <span id=""c_p_y""></span></p>","5","evaluation","63","9","14A,23A","25","18","5","","","","","","","","","","","","","",""
"","","","","","html-keyboard-response","56","221966","0.0-17.0-2.12","8a13dda4-6463-4320-baa2-a54090512a31","null","<p style=""text-align: center;"">+</p>","null","fixation","","","","","","","","","","","","","","","","","","","",""
"","","","","","html-slider-response","57","222971","0.0-17.0-0.13","8a13dda4-6463-4320-baa2-a54090512a31","1000","
                  <p style=""text-align: center;"">₪4
                                                <br>75%</p>
                  <p id=""wtp"" style=""text-align:center; margin-top: 0px; margin-bottom: 0px; font-size: 40px"";>&ensp;</p>","-","viewing","0","3","12B,20B,23B,27C,29C","","","","","","","","","","","","","","","","",""
"","","","","","html-slider-response","58","225990","0.0-17.0-1.13","8a13dda4-6463-4320-baa2-a54090512a31","3018","
                  <p style=""text-align: center;"">₪4
                                                <br>75%</p>
                  <p id=""wtp"" style=""text-align:center; margin-top: 0px; margin-bottom: 0px; font-size: 40px"";>מוכנים לשלם: <span id=""c_p_y""></span></p>","1","evaluation","30","3","12B,20B,23B,27C,29C","75","4","2","","","","","","","","","","","","","",""
"","","","","","html-keyboard-response","59","226789","0.0-17.0-2.13","8a13dda4-6463-4320-baa2-a54090512a31","null","<p style=""text-align: center;"">+</p>","null","fixation","","","","","","","","","","","","","","","","","","","",""
"","","","","","html-slider-response","60","227792","0.0-17.0-0.14","8a13dda4-6463-4320-baa2-a54090512a31","1000","
                  <p style=""text-align: center;"">₪43
                                                <br>75%</p>
                  <p id=""wtp"" style=""text-align:center; margin-top: 0px; margin-bottom: 0px; font-size: 40px"";>&ensp;</p>","-","viewing","0","18","11B,19B,24A,26A","","","","","","","","","","","","","","","","",""
"","","","","","html-slider-response","61","230950","0.0-17.0-1.14","8a13dda4-6463-4320-baa2-a54090512a31","3157","
                  <p style=""text-align: center;"">₪43
                                                <br>75%</p>
                  <p id=""wtp"" style=""text-align:center; margin-top: 0px; margin-bottom: 0px; font-size: 40px"";>מוכנים לשלם: <span id=""c_p_y""></span></p>","29","evaluation","70","18","11B,19B,24A,26A","75","43","29","","","","","","","","","","","","","",""
"","","","","","html-keyboard-response","62","231684","0.0-17.0-2.14","8a13dda4-6463-4320-baa2-a54090512a31","null","<p style=""text-align: center;"">+</p>","null","fixation","","","","","","","","","","","","","","","","","","","",""
"","","","","","html-slider-response","63","232687","0.0-17.0-0.15","8a13dda4-6463-4320-baa2-a54090512a31","1000","
                  <p style=""text-align: center;"">₪4
                                                <br>50%</p>
                  <p id=""wtp"" style=""text-align:center; margin-top: 0px; margin-bottom: 0px; font-size: 40px"";>&ensp;</p>","-","viewing","0","2","4C,17B","","","","","","","","","","","","","","","","",""
"","","","","","html-slider-response","64","234750","0.0-17.0-1.15","8a13dda4-6463-4320-baa2-a54090512a31","2062","
                  <p style=""text-align: center;"">₪4
                                                <br>50%</p>
                  <p id=""wtp"" style=""text-align:center; margin-top: 0px; margin-bottom: 0px; font-size: 40px"";>מוכנים לשלם: <span id=""c_p_y""></span></p>","1","evaluation","0","2","4C,17B","50","4","2","","","","","","","","","","","","","",""
"","","","","","html-keyboard-response","65","236220","0.0-17.0-2.15","8a13dda4-6463-4320-baa2-a54090512a31","null","<p style=""text-align: center;"">+</p>","null","fixation","","","","","","","","","","","","","","","","","","","",""
"","","","","","html-slider-response","66","237229","0.0-17.0-0.16","8a13dda4-6463-4320-baa2-a54090512a31","1000","
                  <p style=""text-align: center;"">₪71
                                                <br>55%</p>
                  <p id=""wtp"" style=""text-align:center; margin-top: 0px; margin-bottom: 0px; font-size: 40px"";>&ensp;</p>","-","viewing","0","27","5B,18A","","","","","","","","","","","","","","","","",""
"","","","","","html-slider-response","67","240494","0.0-17.0-1.16","8a13dda4-6463-4320-baa2-a54090512a31","3264","
                  <p style=""text-align: center;"">₪71
                                                <br>55%</p>
                  <p id=""wtp"" style=""text-align:center; margin-top: 0px; margin-bottom: 0px; font-size: 40px"";>מוכנים לשלם: <span id=""c_p_y""></span></p>","35","evaluation","55","27","5B,18A","55","71","35","","","","","","","","","","","","","",""
"","","","","","html-keyboard-response","68","241574","0.0-17.0-2.16","8a13dda4-6463-4320-baa2-a54090512a31","null","<p style=""text-align: center;"">+</p>","null","fixation","","","","","","","","","","","","","","","","","","","",""
"","","","","","html-slider-response","69","242588","0.0-17.0-0.17","8a13dda4-6463-4320-baa2-a54090512a31","1000","
                  <p style=""text-align: center;"">₪76
                                                <br>65%</p>
                  <p id=""wtp"" style=""text-align:center; margin-top: 0px; margin-bottom: 0px; font-size: 40px"";>&ensp;</p>","-","viewing","0","29","8C,19A,24B","","","","","","","","","","","","","","","","",""
"","","","","","html-slider-response","70","245598","0.0-17.0-1.17","8a13dda4-6463-4320-baa2-a54090512a31","3008","
                  <p style=""text-align: center;"">₪76
                                                <br>65%</p>
                  <p id=""wtp"" style=""text-align:center; margin-top: 0px; margin-bottom: 0px; font-size: 40px"";>מוכנים לשלם: <span id=""c_p_y""></span></p>","38","evaluation","16","29","8C,19A,24B","65","76","38","","","","","","","","","","","","","",""
"","","","","","html-keyboard-response","71","246795","0.0-17.0-2.17","8a13dda4-6463-4320-baa2-a54090512a31","null","<p style=""text-align: center;"">+</p>","null","fixation","","","","","","","","","","","","","","","","","","","",""
"","","","","","html-slider-response","72","247807","0.0-17.0-0.18","8a13dda4-6463-4320-baa2-a54090512a31","1000","
                  <p style=""text-align: center;"">₪79
                                                <br>40%</p>
                  <p id=""wtp"" style=""text-align:center; margin-top: 0px; margin-bottom: 0px; font-size: 40px"";>&ensp;</p>","-","viewing","0","30","9B","","","","","","","","","","","","","","","","",""
"","","","","","html-slider-response","73","251237","0.0-17.0-1.18","8a13dda4-6463-4320-baa2-a54090512a31","3428","
                  <p style=""text-align: center;"">₪79
                                                <br>40%</p>
                  <p id=""wtp"" style=""text-align:center; margin-top: 0px; margin-bottom: 0px; font-size: 40px"";>מוכנים לשלם: <span id=""c_p_y""></span></p>","29","evaluation","72","30","9B","40","79","30","","","","","","","","","","","","","",""
"","","","","","html-keyboard-response","74","252067","0.0-17.0-2.18","8a13dda4-6463-4320-baa2-a54090512a31","null","<p style=""text-align: center;"">+</p>","null","fixation","","","","","","","","","","","","","","","","","","","",""
"","","","","","html-slider-response","75","253073","0.0-17.0-0.19","8a13dda4-6463-4320-baa2-a54090512a31","1000","
                  <p style=""text-align: center;"">₪39
                                                <br>65%</p>
                  <p id=""wtp"" style=""text-align:center; margin-top: 0px; margin-bottom: 0px; font-size: 40px"";>&ensp;</p>","-","viewing","0","16","1A,15A,26C","","","","","","","","","","","","","","","","",""
"","","","","","html-slider-response","76","256350","0.0-17.0-1.19","8a13dda4-6463-4320-baa2-a54090512a31","3275","
                  <p style=""text-align: center;"">₪39
                                                <br>65%</p>
                  <p id=""wtp"" style=""text-align:center; margin-top: 0px; margin-bottom: 0px; font-size: 40px"";>מוכנים לשלם: <span id=""c_p_y""></span></p>","23","evaluation","11","16","1A,15A,26C","65","39","23","","","","","","","","","","","","","",""
"","","","","","html-keyboard-response","77","257180","0.0-17.0-2.19","8a13dda4-6463-4320-baa2-a54090512a31","null","<p style=""text-align: center;"">+</p>","null","fixation","","","","","","","","","","","","","","","","","","","",""
"","","","","","html-slider-response","78","258185","0.0-17.0-0.20","8a13dda4-6463-4320-baa2-a54090512a31","1000","
                  <p style=""text-align: center;"">₪58
                                                <br>45%</p>
                  <p id=""wtp"" style=""text-align:center; margin-top: 0px; margin-bottom: 0px; font-size: 40px"";>&ensp;</p>","-","viewing","0","21","11C,18C,25A","","","","","","","","","","","","","","","","",""
"","","","","","html-slider-response","79","261813","0.0-17.0-1.20","8a13dda4-6463-4320-baa2-a54090512a31","3627","
                  <p style=""text-align: center;"">₪58
                                                <br>45%</p>
                  <p id=""wtp"" style=""text-align:center; margin-top: 0px; margin-bottom: 0px; font-size: 40px"";>מוכנים לשלם: <span id=""c_p_y""></span></p>","27","evaluation","68","21","11C,18C,25A","45","58","27","","","","","","","","","","","","","",""
"","","","","","html-keyboard-response","80","263175","0.0-17.0-2.20","8a13dda4-6463-4320-baa2-a54090512a31","null","<p style=""text-align: center;"">+</p>","null","fixation","","","","","","","","","","","","","","","","","","","",""
"","","","","","html-slider-response","81","264189","0.0-17.0-0.21","8a13dda4-6463-4320-baa2-a54090512a31","1000","
                  <p style=""text-align: center;"">₪11
                                                <br>25%</p>
                  <p id=""wtp"" style=""text-align:center; margin-top: 0px; margin-bottom: 0px; font-size: 40px"";>&ensp;</p>","-","viewing","0","5","12A,27B,28B,30B","","","","","","","","","","","","","","","","",""
"","","","","","html-slider-response","82","266797","0.0-17.0-1.21","8a13dda4-6463-4320-baa2-a54090512a31","2607","
                  <p style=""text-align: center;"">₪11
                                                <br>25%</p>
                  <p id=""wtp"" style=""text-align:center; margin-top: 0px; margin-bottom: 0px; font-size: 40px"";>מוכנים לשלם: <span id=""c_p_y""></span></p>","2","evaluation","18","5","12A,27B,28B,30B","25","11","3","","","","","","","","","","","","","",""
"","","","","","html-keyboard-response","83","267769","0.0-17.0-2.21","8a13dda4-6463-4320-baa2-a54090512a31","null","<p style=""text-align: center;"">+</p>","null","fixation","","","","","","","","","","","","","","","","","","","",""
"","","","","","html-slider-response","84","268772","0.0-17.0-0.22","8a13dda4-6463-4320-baa2-a54090512a31","1000","
                  <p style=""text-align: center;"">₪36
                                                <br>70%</p>
                  <p id=""wtp"" style=""text-align:center; margin-top: 0px; margin-bottom: 0px; font-size: 40px"";>&ensp;</p>","-","viewing","0","13","3A,5C,10B","","","","","","","","","","","","","","","","",""
"","","","","","html-slider-response","85","272341","0.0-17.0-1.22","8a13dda4-6463-4320-baa2-a54090512a31","3569","
                  <p style=""text-align: center;"">₪36
                                                <br>70%</p>
                  <p id=""wtp"" style=""text-align:center; margin-top: 0px; margin-bottom: 0px; font-size: 40px"";>מוכנים לשלם: <span id=""c_p_y""></span></p>","18","evaluation","27","13","3A,5C,10B","70","36","18","","","","","","","","","","","","","",""
"","","","","","html-keyboard-response","86","273665","0.0-17.0-2.22","8a13dda4-6463-4320-baa2-a54090512a31","null","<p style=""text-align: center;"">+</p>","null","fixation","","","","","","","","","","","","","","","","","","","",""
"","","","","","html-slider-response","87","274666","0.0-17.0-0.23","8a13dda4-6463-4320-baa2-a54090512a31","1000","
                  <p style=""text-align: center;"">₪64
                                                <br>50%</p>
                  <p id=""wtp"" style=""text-align:center; margin-top: 0px; margin-bottom: 0px; font-size: 40px"";>&ensp;</p>","-","viewing","0","25","1B,3B,4A","","","","","","","","","","","","","","","","",""
"","","","","","html-slider-response","88","277189","0.0-17.0-1.23","8a13dda4-6463-4320-baa2-a54090512a31","2521","
                  <p style=""text-align: center;"">₪64
                                                <br>50%</p>
                  <p id=""wtp"" style=""text-align:center; margin-top: 0px; margin-bottom: 0px; font-size: 40px"";>מוכנים לשלם: <span id=""c_p_y""></span></p>","32","evaluation","13","25","1B,3B,4A","50","64","32","","","","","","","","","","","","","",""
"","","","","","html-keyboard-response","89","278283","0.0-17.0-2.23","8a13dda4-6463-4320-baa2-a54090512a31","null","<p style=""text-align: center;"">+</p>","null","fixation","","","","","","","","","","","","","","","","","","","",""
"","","","","","html-slider-response","90","279284","0.0-17.0-0.24","8a13dda4-6463-4320-baa2-a54090512a31","1000","
                  <p style=""text-align: center;"">₪4
                                                <br>25%</p>
                  <p id=""wtp"" style=""text-align:center; margin-top: 0px; margin-bottom: 0px; font-size: 40px"";>&ensp;</p>","-","viewing","0","1","6C,29B,30C","","","","","","","","","","","","","","","","",""
"","","","","","html-slider-response","91","281413","0.0-17.0-1.24","8a13dda4-6463-4320-baa2-a54090512a31","2128","
                  <p style=""text-align: center;"">₪4
                                                <br>25%</p>
                  <p id=""wtp"" style=""text-align:center; margin-top: 0px; margin-bottom: 0px; font-size: 40px"";>מוכנים לשלם: <span id=""c_p_y""></span></p>","0","evaluation","7","1","6C,29B,30C","25","4","1","","","","","","","","","","","","","",""
"","","","","","html-keyboard-response","92","282728","0.0-17.0-2.24","8a13dda4-6463-4320-baa2-a54090512a31","null","<p style=""text-align: center;"">+</p>","null","fixation","","","","","","","","","","","","","","","","","","","",""
"","","","","","html-slider-response","93","283734","0.0-17.0-0.25","8a13dda4-6463-4320-baa2-a54090512a31","1000","
                  <p style=""text-align: center;"">₪11
                                                <br>45%</p>
                  <p id=""wtp"" style=""text-align:center; margin-top: 0px; margin-bottom: 0px; font-size: 40px"";>&ensp;</p>","-","viewing","0","6","14B,21C,25C","","","","","","","","","","","","","","","","",""
"","","","","","html-slider-response","94","286981","0.0-17.0-1.25","8a13dda4-6463-4320-baa2-a54090512a31","3246","
                  <p style=""text-align: center;"">₪11
                                                <br>45%</p>
                  <p id=""wtp"" style=""text-align:center; margin-top: 0px; margin-bottom: 0px; font-size: 40px"";>מוכנים לשלם: <span id=""c_p_y""></span></p>","4","evaluation","35","6","14B,21C,25C","45","11","5","","","","","","","","","","","","","",""
"","","","","","html-keyboard-response","95","287484","0.0-17.0-2.25","8a13dda4-6463-4320-baa2-a54090512a31","null","<p style=""text-align: center;"">+</p>","null","fixation","","","","","","","","","","","","","","","","","","","",""
"","","","","","html-slider-response","96","288498","0.0-17.0-0.26","8a13dda4-6463-4320-baa2-a54090512a31","1000","
                  <p style=""text-align: center;"">₪18
                                                <br>50%</p>
                  <p id=""wtp"" style=""text-align:center; margin-top: 0px; margin-bottom: 0px; font-size: 40px"";>&ensp;</p>","-","viewing","0","10","2C,16C,22B,28A","","","","","","","","","","","","","","","","",""
"","","","","","html-slider-response","97","292333","0.0-17.0-1.26","8a13dda4-6463-4320-baa2-a54090512a31","3834","
                  <p style=""text-align: center;"">₪18
                                                <br>50%</p>
                  <p id=""wtp"" style=""text-align:center; margin-top: 0px; margin-bottom: 0px; font-size: 40px"";>מוכנים לשלם: <span id=""c_p_y""></span></p>","5","evaluation","1","10","2C,16C,22B,28A","50","18","6","","","","","","","","","","","","","",""
"","","","","","html-keyboard-response","98","293101","0.0-17.0-2.26","8a13dda4-6463-4320-baa2-a54090512a31","null","<p style=""text-align: center;"">+</p>","null","fixation","","","","","","","","","","","","","","","","","","","",""
"","","","","","html-slider-response","99","294115","0.0-17.0-0.27","8a13dda4-6463-4320-baa2-a54090512a31","1000","
                  <p style=""text-align: center;"">₪71
                                                <br>45%</p>
                  <p id=""wtp"" style=""text-align:center; margin-top: 0px; margin-bottom: 0px; font-size: 40px"";>&ensp;</p>","-","viewing","0","26","2B,16A","","","","","","","","","","","","","","","","",""
"","","","","","html-slider-response","100","297885","0.0-17.0-1.27","8a13dda4-6463-4320-baa2-a54090512a31","3769","
                  <p style=""text-align: center;"">₪71
                                                <br>45%</p>
                  <p id=""wtp"" style=""text-align:center; margin-top: 0px; margin-bottom: 0px; font-size: 40px"";>מוכנים לשלם: <span id=""c_p_y""></span></p>","35","evaluation","42","26","2B,16A","45","71","35","","","","","","","","","","","","","",""
"","","","","","html-keyboard-response","101","299084","0.0-17.0-2.27","8a13dda4-6463-4320-baa2-a54090512a31","null","<p style=""text-align: center;"">+</p>","null","fixation","","","","","","","","","","","","","","","","","","","",""
"","","","","","html-slider-response","102","300087","0.0-17.0-0.28","8a13dda4-6463-4320-baa2-a54090512a31","1000","
                  <p style=""text-align: center;"">₪79
                                                <br>65%</p>
                  <p id=""wtp"" style=""text-align:center; margin-top: 0px; margin-bottom: 0px; font-size: 40px"";>&ensp;</p>","-","viewing","0","31","8A","","","","","","","","","","","","","","","","",""
"","","","","","html-slider-response","103","303422","0.0-17.0-1.28","8a13dda4-6463-4320-baa2-a54090512a31","3334","
                  <p style=""text-align: center;"">₪79
                                                <br>65%</p>
                  <p id=""wtp"" style=""text-align:center; margin-top: 0px; margin-bottom: 0px; font-size: 40px"";>מוכנים לשלם: <span id=""c_p_y""></span></p>","44","evaluation","67","31","8A","65","79","44","","","","","","","","","","","","","",""
"","","","","","html-keyboard-response","104","304384","0.0-17.0-2.28","8a13dda4-6463-4320-baa2-a54090512a31","null","<p style=""text-align: center;"">+</p>","null","fixation","","","","","","","","","","","","","","","","","","","",""
"","","","","","html-slider-response","105","305401","0.0-17.0-0.29","8a13dda4-6463-4320-baa2-a54090512a31","1000","
                  <p style=""text-align: center;"">₪61
                                                <br>55%</p>
                  <p id=""wtp"" style=""text-align:center; margin-top: 0px; margin-bottom: 0px; font-size: 40px"";>&ensp;</p>","-","viewing","0","23","7B,26B","","","","","","","","","","","","","","","","",""
"","","","","","html-slider-response","106","308014","0.0-17.0-1.29","8a13dda4-6463-4320-baa2-a54090512a31","2611","
                  <p style=""text-align: center;"">₪61
                                                <br>55%</p>
                  <p id=""wtp"" style=""text-align:center; margin-top: 0px; margin-bottom: 0px; font-size: 40px"";>מוכנים לשלם: <span id=""c_p_y""></span></p>","34","evaluation","19","23","7B,26B","55","61","34","","","","","","","","","","","","","",""
"","","","","","html-keyboard-response","107","309265","0.0-17.0-2.29","8a13dda4-6463-4320-baa2-a54090512a31","null","<p style=""text-align: center;"">+</p>","null","fixation","","","","","","","","","","","","","","","","","","","",""
"","","","","","html-slider-response","108","310268","0.0-17.0-0.30","8a13dda4-6463-4320-baa2-a54090512a31","1000","
                  <p style=""text-align: center;"">₪64
                                                <br>25%</p>
                  <p id=""wtp"" style=""text-align:center; margin-top: 0px; margin-bottom: 0px; font-size: 40px"";>&ensp;</p>","-","viewing","0","24","6A,21A","","","","","","","","","","","","","","","","",""
"","","","","","html-slider-response","109","313262","0.0-17.0-1.30","8a13dda4-6463-4320-baa2-a54090512a31","2992","
                  <p style=""text-align: center;"">₪64
                                                <br>25%</p>
                  <p id=""wtp"" style=""text-align:center; margin-top: 0px; margin-bottom: 0px; font-size: 40px"";>מוכנים לשלם: <span id=""c_p_y""></span></p>","17","evaluation","78","24","6A,21A","25","64","17","","","","","","","","","","","","","",""
"","","","","","html-keyboard-response","110","314565","0.0-17.0-2.30","8a13dda4-6463-4320-baa2-a54090512a31","null","<p style=""text-align: center;"">+</p>","null","fixation","","","","","","","","","","","","","","","","","","","",""
"","","","","","html-keyboard-response","111","315576","0.0-18.0","8a13dda4-6463-4320-baa2-a54090512a31","null","<p style=""text-align: center;"">+</p>","null","fixation","","","","","","","","","","","","","","","","","","","",""
"","","","","","html-keyboard-response","112","320830","0.0-19.0","8a13dda4-6463-4320-baa2-a54090512a31","null","<p>הפסקה.
          <br>לחצו כדי להמשיך.</p>","1","scan_wait","","","","","","","","","","","","","","","","","","","",""
"","","","","","html-keyboard-response","113","321845","0.0-20.0","8a13dda4-6463-4320-baa2-a54090512a31","null","<p style=""text-align: center;"">+</p>","null","fixation","","","","","","","","","","","","","","","","","","","",""
"","","","","","html-slider-response","114","322856","0.0-21.0-0.0","8a13dda4-6463-4320-baa2-a54090512a31","1000","
                  <p style=""text-align: center;"">₪36
                                                <br>75%</p>
                  <p id=""wtp"" style=""text-align:center; margin-top: 0px; margin-bottom: 0px; font-size: 40px"";>&ensp;</p>","-","viewing","0","14","4B,5A,13B,16B","","","","","","","","","","","","","","","","",""
"","","","","","html-slider-response","115","325294","0.0-21.0-1.0","8a13dda4-6463-4320-baa2-a54090512a31","2437","
                  <p style=""text-align: center;"">₪36
                                                <br>75%</p>
                  <p id=""wtp"" style=""text-align:center; margin-top: 0px; margin-bottom: 0px; font-size: 40px"";>מוכנים לשלם: <span id=""c_p_y""></span></p>","23","evaluation","19","14","4B,5A,13B,16B","75","36","23","","","","","","","","","","","","","",""
"","","","","","html-keyboard-response","116","326437","0.0-21.0-2.0","8a13dda4-6463-4320-baa2-a54090512a31","null","<p style=""text-align: center;"">+</p>","null","fixation","","","","","","","","","","","","","","","","","","","",""
"","","","","","html-slider-response","117","327439","0.0-21.0-0.1","8a13dda4-6463-4320-baa2-a54090512a31","1000","
                  <p style=""text-align: center;"">₪11
                                                <br>45%</p>
                  <p id=""wtp"" style=""text-align:center; margin-top: 0px; margin-bottom: 0px; font-size: 40px"";>&ensp;</p>","-","viewing","0","6","14B,21C,25C","","","","","","","","","","","","","","","","",""
"","","","","","html-slider-response","118","331350","0.0-21.0-1.1","8a13dda4-6463-4320-baa2-a54090512a31","3910","
                  <p style=""text-align: center;"">₪11
                                                <br>45%</p>
                  <p id=""wtp"" style=""text-align:center; margin-top: 0px; margin-bottom: 0px; font-size: 40px"";>מוכנים לשלם: <span id=""c_p_y""></span></p>","4","evaluation","26","6","14B,21C,25C","45","11","5","","","","","","","","","","","","","",""
"","","","","","html-keyboard-response","119","332687","0.0-21.0-2.1","8a13dda4-6463-4320-baa2-a54090512a31","null","<p style=""text-align: center;"">+</p>","null","fixation","","","","","","","","","","","","","","","","","","","",""
"","","","","","html-slider-response","120","333703","0.0-21.0-0.2","8a13dda4-6463-4320-baa2-a54090512a31","1000","
                  <p style=""text-align: center;"">₪64
                                                <br>50%</p>
                  <p id=""wtp"" style=""text-align:center; margin-top: 0px; margin-bottom: 0px; font-size: 40px"";>&ensp;</p>","-","viewing","0","25","1B,3B,4A","","","","","","","","","","","","","","","","",""
"","","","","","html-slider-response","121","335406","0.0-21.0-1.2","8a13dda4-6463-4320-baa2-a54090512a31","1701","
                  <p style=""text-align: center;"">₪64
                                                <br>50%</p>
                  <p id=""wtp"" style=""text-align:center; margin-top: 0px; margin-bottom: 0px; font-size: 40px"";>מוכנים לשלם: <span id=""c_p_y""></span></p>","32","evaluation","42","25","1B,3B,4A","50","64","32","","","","","","","","","","","","","",""
"","","","","","html-keyboard-response","122","336196","0.0-21.0-2.2","8a13dda4-6463-4320-baa2-a54090512a31","null","<p style=""text-align: center;"">+</p>","null","fixation","","","","","","","","","","","","","","","","","","","",""
"","","","","","html-slider-response","123","337203","0.0-21.0-0.3","8a13dda4-6463-4320-baa2-a54090512a31","1000","
                  <p style=""text-align: center;"">₪58
                                                <br>45%</p>
                  <p id=""wtp"" style=""text-align:center; margin-top: 0px; margin-bottom: 0px; font-size: 40px"";>&ensp;</p>","-","viewing","0","21","11C,18C,25A","","","","","","","","","","","","","","","","",""
"","","","","","html-slider-response","124","340718","0.0-21.0-1.3","8a13dda4-6463-4320-baa2-a54090512a31","3513","
                  <p style=""text-align: center;"">₪58
                                                <br>45%</p>
                  <p id=""wtp"" style=""text-align:center; margin-top: 0px; margin-bottom: 0px; font-size: 40px"";>מוכנים לשלם: <span id=""c_p_y""></span></p>","26","evaluation","17","21","11C,18C,25A","45","58","26","","","","","","","","","","","","","",""
"","","","","","html-keyboard-response","125","341314","0.0-21.0-2.3","8a13dda4-6463-4320-baa2-a54090512a31","null","<p style=""text-align: center;"">+</p>","null","fixation","","","","","","","","","","","","","","","","","","","",""
"","","","","","html-slider-response","126","342330","0.0-21.0-0.4","8a13dda4-6463-4320-baa2-a54090512a31","1000","
                  <p style=""text-align: center;"">₪36
                                                <br>30%</p>
                  <p id=""wtp"" style=""text-align:center; margin-top: 0px; margin-bottom: 0px; font-size: 40px"";>&ensp;</p>","-","viewing","0","11","3C,20A,22A","","","","","","","","","","","","","","","","",""
"","","","","","html-slider-response","127","346022","0.0-21.0-1.4","8a13dda4-6463-4320-baa2-a54090512a31","3691","
                  <p style=""text-align: center;"">₪36
                                                <br>30%</p>
                  <p id=""wtp"" style=""text-align:center; margin-top: 0px; margin-bottom: 0px; font-size: 40px"";>מוכנים לשלם: <span id=""c_p_y""></span></p>","8","evaluation","67","11","3C,20A,22A","30","36","9","","","","","","","","","","","","","",""
"","","","","","html-keyboard-response","128","346602","0.0-21.0-2.4","8a13dda4-6463-4320-baa2-a54090512a31","null","<p style=""text-align: center;"">+</p>","null","fixation","","","","","","","","","","","","","","","","","","","",""
"","","","","","html-slider-response","129","347605","0.0-21.0-0.5","8a13dda4-6463-4320-baa2-a54090512a31","1000","
                  <p style=""text-align: center;"">₪4
                                                <br>75%</p>
                  <p id=""wtp"" style=""text-align:center; margin-top: 0px; margin-bottom: 0px; font-size: 40px"";>&ensp;</p>","-","viewing","0","3","12B,20B,23B,27C,29C","","","","","","","","","","","","","","","","",""
"","","","","","html-slider-response","130","349822","0.0-21.0-1.5","8a13dda4-6463-4320-baa2-a54090512a31","2216","
                  <p style=""text-align: center;"">₪4
                                                <br>75%</p>
                  <p id=""wtp"" style=""text-align:center; margin-top: 0px; margin-bottom: 0px; font-size: 40px"";>מוכנים לשלם: <span id=""c_p_y""></span></p>","2","evaluation","43","3","12B,20B,23B,27C,29C","75","4","3","","","","","","","","","","","","","",""
"","","","","","html-keyboard-response","131","351027","0.0-21.0-2.5","8a13dda4-6463-4320-baa2-a54090512a31","null","<p style=""text-align: center;"">+</p>","null","fixation","","","","","","","","","","","","","","","","","","","",""
"","","","","","html-slider-response","132","352040","0.0-21.0-0.6","8a13dda4-6463-4320-baa2-a54090512a31","1000","
                  <p style=""text-align: center;"">₪61
                                                <br>45%</p>
                  <p id=""wtp"" style=""text-align:center; margin-top: 0px; margin-bottom: 0px; font-size: 40px"";>&ensp;</p>","-","viewing","0","22","10A,11A","","","","","","","","","","","","","","","","",""
"","","","","","html-slider-response","133","355606","0.0-21.0-1.6","8a13dda4-6463-4320-baa2-a54090512a31","3565","
                  <p style=""text-align: center;"">₪61
                                                <br>45%</p>
                  <p id=""wtp"" style=""text-align:center; margin-top: 0px; margin-bottom: 0px; font-size: 40px"";>מוכנים לשלם: <span id=""c_p_y""></span></p>","26","evaluation","44","22","10A,11A","45","61","26","","","","","","","","","","","","","",""
"","","","","","html-keyboard-response","134","357041","0.0-21.0-2.6","8a13dda4-6463-4320-baa2-a54090512a31","null","<p style=""text-align: center;"">+</p>","null","fixation","","","","","","","","","","","","","","","","","","","",""
"","","","","","html-slider-response","135","358049","0.0-21.0-0.7","8a13dda4-6463-4320-baa2-a54090512a31","1000","
                  <p style=""text-align: center;"">₪11
                                                <br>20%</p>
                  <p id=""wtp"" style=""text-align:center; margin-top: 0px; margin-bottom: 0px; font-size: 40px"";>&ensp;</p>","-","viewing","0","4","12C,17C,23C,28C","","","","","","","","","","","","","","","","",""
"","","","","","html-slider-response","136","360846","0.0-21.0-1.7","8a13dda4-6463-4320-baa2-a54090512a31","2796","
                  <p style=""text-align: center;"">₪11
                                                <br>20%</p>
                  <p id=""wtp"" style=""text-align:center; margin-top: 0px; margin-bottom: 0px; font-size: 40px"";>מוכנים לשלם: <span id=""c_p_y""></span></p>","3","evaluation","70","4","12C,17C,23C,28C","20","11","4","","","","","","","","","","","","","",""
"","","","","","html-keyboard-response","137","361940","0.0-21.0-2.7","8a13dda4-6463-4320-baa2-a54090512a31","null","<p style=""text-align: center;"">+</p>","null","fixation","","","","","","","","","","","","","","","","","","","",""
"","","","","","html-slider-response","138","362950","0.0-21.0-0.8","8a13dda4-6463-4320-baa2-a54090512a31","1000","
                  <p style=""text-align: center;"">₪36
                                                <br>60%</p>
                  <p id=""wtp"" style=""text-align:center; margin-top: 0px; margin-bottom: 0px; font-size: 40px"";>&ensp;</p>","-","viewing","0","12","1C,7C,15C","","","","","","","","","","","","","","","","",""
"","","","","","html-slider-response","139","366054","0.0-21.0-1.8","8a13dda4-6463-4320-baa2-a54090512a31","3104","
                  <p style=""text-align: center;"">₪36
                                                <br>60%</p>
                  <p id=""wtp"" style=""text-align:center; margin-top: 0px; margin-bottom: 0px; font-size: 40px"";>מוכנים לשלם: <span id=""c_p_y""></span></p>","22","evaluation","25","12","1C,7C,15C","60","36","23","","","","","","","","","","","","","",""
"","","","","","html-keyboard-response","140","366638","0.0-21.0-2.8","8a13dda4-6463-4320-baa2-a54090512a31","null","<p style=""text-align: center;"">+</p>","null","fixation","","","","","","","","","","","","","","","","","","","",""
"","","","","","html-slider-response","141","367644","0.0-21.0-0.9","8a13dda4-6463-4320-baa2-a54090512a31","1000","
                  <p style=""text-align: center;"">₪16
                                                <br>20%</p>
                  <p id=""wtp"" style=""text-align:center; margin-top: 0px; margin-bottom: 0px; font-size: 40px"";>&ensp;</p>","-","viewing","0","8","14C,17A,20C,27A","","","","","","","","","","","","","","","","",""
"","","","","","html-slider-response","142","369590","0.0-21.0-1.9","8a13dda4-6463-4320-baa2-a54090512a31","1945","
                  <p style=""text-align: center;"">₪16
                                                <br>20%</p>
                  <p id=""wtp"" style=""text-align:center; margin-top: 0px; margin-bottom: 0px; font-size: 40px"";>מוכנים לשלם: <span id=""c_p_y""></span></p>","4","evaluation","71","8","14C,17A,20C,27A","20","16","5","","","","","","","","","","","","","",""
"","","","","","html-keyboard-response","143","370966","0.0-21.0-2.9","8a13dda4-6463-4320-baa2-a54090512a31","null","<p style=""text-align: center;"">+</p>","null","fixation","","","","","","","","","","","","","","","","","","","",""
"","","","","","html-slider-response","144","371980","0.0-21.0-0.10","8a13dda4-6463-4320-baa2-a54090512a31","1000","
                  <p style=""text-align: center;"">₪39
                                                <br>65%</p>
                  <p id=""wtp"" style=""text-align:center; margin-top: 0px; margin-bottom: 0px; font-size: 40px"";>&ensp;</p>","-","viewing","0","16","1A,15A,26C","","","","","","","","","","","","","","","","",""
"","","","","","html-slider-response","145","375366","0.0-21.0-1.10","8a13dda4-6463-4320-baa2-a54090512a31","3385","
                  <p style=""text-align: center;"">₪39
                                                <br>65%</p>
                  <p id=""wtp"" style=""text-align:center; margin-top: 0px; margin-bottom: 0px; font-size: 40px"";>מוכנים לשלם: <span id=""c_p_y""></span></p>","22","evaluation","39","16","1A,15A,26C","65","39","22","","","","","","","","","","","","","",""
"","","","","","html-keyboard-response","146","376586","0.0-21.0-2.10","8a13dda4-6463-4320-baa2-a54090512a31","null","<p style=""text-align: center;"">+</p>","null","fixation","","","","","","","","","","","","","","","","","","","",""
"","","","","","html-slider-response","147","377602","0.0-21.0-0.11","8a13dda4-6463-4320-baa2-a54090512a31","1000","
                  <p style=""text-align: center;"">₪79
                                                <br>40%</p>
                  <p id=""wtp"" style=""text-align:center; margin-top: 0px; margin-bottom: 0px; font-size: 40px"";>&ensp;</p>","-","viewing","0","30","9B","","","","","","","","","","","","","","","","",""
"","","","","","html-slider-response","148","381518","0.0-21.0-1.11","8a13dda4-6463-4320-baa2-a54090512a31","3915","
                  <p style=""text-align: center;"">₪79
                                                <br>40%</p>
                  <p id=""wtp"" style=""text-align:center; margin-top: 0px; margin-bottom: 0px; font-size: 40px"";>מוכנים לשלם: <span id=""c_p_y""></span></p>","34","evaluation","20","30","9B","40","79","34","","","","","","","","","","","","","",""
"","","","","","html-keyboard-response","149","382662","0.0-21.0-2.11","8a13dda4-6463-4320-baa2-a54090512a31","null","<p style=""text-align: center;"">+</p>","null","fixation","","","","","","","","","","","","","","","","","","","",""
"","","","","","html-slider-response","150","383665","0.0-21.0-0.12","8a13dda4-6463-4320-baa2-a54090512a31","1000","
                  <p style=""text-align: center;"">₪79
                                                <br>65%</p>
                  <p id=""wtp"" style=""text-align:center; margin-top: 0px; margin-bottom: 0px; font-size: 40px"";>&ensp;</p>","-","viewing","0","31","8A","","","","","","","","","","","","","","","","",""
"","","","","","html-slider-response","151","387667","0.0-21.0-1.12","8a13dda4-6463-4320-baa2-a54090512a31","null","
                  <p style=""text-align: center;"">₪79
                                                <br>65%</p>
                  <p id=""wtp"" style=""text-align:center; margin-top: 0px; margin-bottom: 0px; font-size: 40px"";>מוכנים לשלם: <span id=""c_p_y""></span></p>","null","evaluation","53","31","8A","65","79","43","","","","","","","","","","","","","",""
"","","","","","html-keyboard-response","152","388987","0.0-21.0-2.12","8a13dda4-6463-4320-baa2-a54090512a31","null","<p style=""text-align: center;"">+</p>","null","fixation","","","","","","","","","","","","","","","","","","","",""
"","","","","","html-slider-response","153","389993","0.0-21.0-0.13","8a13dda4-6463-4320-baa2-a54090512a31","1000","
                  <p style=""text-align: center;"">₪18
                                                <br>25%</p>
                  <p id=""wtp"" style=""text-align:center; margin-top: 0px; margin-bottom: 0px; font-size: 40px"";>&ensp;</p>","-","viewing","0","9","14A,23A","","","","","","","","","","","","","","","","",""
"","","","","","html-slider-response","154","393054","0.0-21.0-1.13","8a13dda4-6463-4320-baa2-a54090512a31","3060","
                  <p style=""text-align: center;"">₪18
                                                <br>25%</p>
                  <p id=""wtp"" style=""text-align:center; margin-top: 0px; margin-bottom: 0px; font-size: 40px"";>מוכנים לשלם: <span id=""c_p_y""></span></p>","4","evaluation","47","9","14A,23A","25","18","5","","","","","","","","","","","","","",""
"","","","","","html-keyboard-response","155","393966","0.0-21.0-2.13","8a13dda4-6463-4320-baa2-a54090512a31","null","<p style=""text-align: center;"">+</p>","null","fixation","","","","","","","","","","","","","","","","","","","",""
"","","","","","html-slider-response","156","394981","0.0-21.0-0.14","8a13dda4-6463-4320-baa2-a54090512a31","1000","
                  <p style=""text-align: center;"">₪18
                                                <br>50%</p>
                  <p id=""wtp"" style=""text-align:center; margin-top: 0px; margin-bottom: 0px; font-size: 40px"";>&ensp;</p>","-","viewing","0","10","2C,16C,22B,28A","","","","","","","","","","","","","","","","",""
"","","","","","html-slider-response","157","396854","0.0-21.0-1.14","8a13dda4-6463-4320-baa2-a54090512a31","1872","
                  <p style=""text-align: center;"">₪18
                                                <br>50%</p>
                  <p id=""wtp"" style=""text-align:center; margin-top: 0px; margin-bottom: 0px; font-size: 40px"";>מוכנים לשלם: <span id=""c_p_y""></span></p>","8","evaluation","74","10","2C,16C,22B,28A","50","18","9","","","","","","","","","","","","","",""
"","","","","","html-keyboard-response","158","397811","0.0-21.0-2.14","8a13dda4-6463-4320-baa2-a54090512a31","null","<p style=""text-align: center;"">+</p>","null","fixation","","","","","","","","","","","","","","","","","","","",""
"","","","","","html-slider-response","159","398821","0.0-21.0-0.15","8a13dda4-6463-4320-baa2-a54090512a31","1000","
                  <p style=""text-align: center;"">₪71
                                                <br>45%</p>
                  <p id=""wtp"" style=""text-align:center; margin-top: 0px; margin-bottom: 0px; font-size: 40px"";>&ensp;</p>","-","viewing","0","26","2B,16A","","","","","","","","","","","","","","","","",""
"","","","","","html-slider-response","160","401966","0.0-21.0-1.15","8a13dda4-6463-4320-baa2-a54090512a31","3144","
                  <p style=""text-align: center;"">₪71
                                                <br>45%</p>
                  <p id=""wtp"" style=""text-align:center; margin-top: 0px; margin-bottom: 0px; font-size: 40px"";>מוכנים לשלם: <span id=""c_p_y""></span></p>","37","evaluation","60","26","2B,16A","45","71","37","","","","","","","","","","","","","",""
"","","","","","html-keyboard-response","161","403346","0.0-21.0-2.15","8a13dda4-6463-4320-baa2-a54090512a31","null","<p style=""text-align: center;"">+</p>","null","fixation","","","","","","","","","","","","","","","","","","","",""
"","","","","","html-slider-response","162","404349","0.0-21.0-0.16","8a13dda4-6463-4320-baa2-a54090512a31","1000","
                  <p style=""text-align: center;"">₪71
                                                <br>55%</p>
                  <p id=""wtp"" style=""text-align:center; margin-top: 0px; margin-bottom: 0px; font-size: 40px"";>&ensp;</p>","-","viewing","0","27","5B,18A","","","","","","","","","","","","","","","","",""
"","","","","","html-slider-response","163","407390","0.0-21.0-1.16","8a13dda4-6463-4320-baa2-a54090512a31","3039","
                  <p style=""text-align: center;"">₪71
                                                <br>55%</p>
                  <p id=""wtp"" style=""text-align:center; margin-top: 0px; margin-bottom: 0px; font-size: 40px"";>מוכנים לשלם: <span id=""c_p_y""></span></p>","35","evaluation","68","27","5B,18A","55","71","35","","","","","","","","","","","","","",""
"","","","","","html-keyboard-response","164","408829","0.0-21.0-2.16","8a13dda4-6463-4320-baa2-a54090512a31","null","<p style=""text-align: center;"">+</p>","null","fixation","","","","","","","","","","","","","","","","","","","",""
"","","","","","html-slider-response","165","409839","0.0-21.0-0.17","8a13dda4-6463-4320-baa2-a54090512a31","1000","
                  <p style=""text-align: center;"">₪76
                                                <br>65%</p>
                  <p id=""wtp"" style=""text-align:center; margin-top: 0px; margin-bottom: 0px; font-size: 40px"";>&ensp;</p>","-","viewing","0","29","8C,19A,24B","","","","","","","","","","","","","","","","",""
"","","","","","html-slider-response","166","413094","0.0-21.0-1.17","8a13dda4-6463-4320-baa2-a54090512a31","3254","
                  <p style=""text-align: center;"">₪76
                                                <br>65%</p>
                  <p id=""wtp"" style=""text-align:center; margin-top: 0px; margin-bottom: 0px; font-size: 40px"";>מוכנים לשלם: <span id=""c_p_y""></span></p>","44","evaluation","80","29","8C,19A,24B","65","76","44","","","","","","","","","","","","","",""
"","","","","","html-keyboard-response","167","413603","0.0-21.0-2.17","8a13dda4-6463-4320-baa2-a54090512a31","null","<p style=""text-align: center;"">+</p>","null","fixation","","","","","","","","","","","","","","","","","","","",""
"","","","","","html-slider-response","168","414611","0.0-21.0-0.18","8a13dda4-6463-4320-baa2-a54090512a31","1000","
                  <p style=""text-align: center;"">₪43
                                                <br>60%</p>
                  <p id=""wtp"" style=""text-align:center; margin-top: 0px; margin-bottom: 0px; font-size: 40px"";>&ensp;</p>","-","viewing","0","17","2A,7A,9A,15B","","","","","","","","","","","","","","","","",""
"","","","","","html-slider-response","169","418518","0.0-21.0-1.18","8a13dda4-6463-4320-baa2-a54090512a31","3904","
                  <p style=""text-align: center;"">₪43
                                                <br>60%</p>
                  <p id=""wtp"" style=""text-align:center; margin-top: 0px; margin-bottom: 0px; font-size: 40px"";>מוכנים לשלם: <span id=""c_p_y""></span></p>","24","evaluation","46","17","2A,7A,9A,15B","60","43","24","","","","","","","","","","","","","",""
"","","","","","html-keyboard-response","170","419417","0.0-21.0-2.18","8a13dda4-6463-4320-baa2-a54090512a31","null","<p style=""text-align: center;"">+</p>","null","fixation","","","","","","","","","","","","","","","","","","","",""
"","","","","","html-slider-response","171","420429","0.0-21.0-0.19","8a13dda4-6463-4320-baa2-a54090512a31","1000","
                  <p style=""text-align: center;"">₪36
                                                <br>70%</p>
                  <p id=""wtp"" style=""text-align:center; margin-top: 0px; margin-bottom: 0px; font-size: 40px"";>&ensp;</p>","-","viewing","0","13","3A,5C,10B","","","","","","","","","","","","","","","","",""
"","","","","","html-slider-response","172","423030","0.0-21.0-1.19","8a13dda4-6463-4320-baa2-a54090512a31","2600","
                  <p style=""text-align: center;"">₪36
                                                <br>70%</p>
                  <p id=""wtp"" style=""text-align:center; margin-top: 0px; margin-bottom: 0px; font-size: 40px"";>מוכנים לשלם: <span id=""c_p_y""></span></p>","24","evaluation","5","13","3A,5C,10B","70","36","24","","","","","","","","","","","","","",""
"","","","","","html-keyboard-response","173","423703","0.0-21.0-2.19","8a13dda4-6463-4320-baa2-a54090512a31","null","<p style=""text-align: center;"">+</p>","null","fixation","","","","","","","","","","","","","","","","","","","",""
"","","","","","html-slider-response","174","424714","0.0-21.0-0.20","8a13dda4-6463-4320-baa2-a54090512a31","1000","
                  <p style=""text-align: center;"">₪4
                                                <br>25%</p>
                  <p id=""wtp"" style=""text-align:center; margin-top: 0px; margin-bottom: 0px; font-size: 40px"";>&ensp;</p>","-","viewing","0","1","6C,29B,30C","","","","","","","","","","","","","","","","",""
"","","","","","html-slider-response","175","427190","0.0-21.0-1.20","8a13dda4-6463-4320-baa2-a54090512a31","2474","
                  <p style=""text-align: center;"">₪4
                                                <br>25%</p>
                  <p id=""wtp"" style=""text-align:center; margin-top: 0px; margin-bottom: 0px; font-size: 40px"";>מוכנים לשלם: <span id=""c_p_y""></span></p>","0","evaluation","49","1","6C,29B,30C","25","4","1","","","","","","","","","","","","","",""
"","","","","","html-keyboard-response","176","428609","0.0-21.0-2.20","8a13dda4-6463-4320-baa2-a54090512a31","null","<p style=""text-align: center;"">+</p>","null","fixation","","","","","","","","","","","","","","","","","","","",""
"","","","","","html-slider-response","177","429618","0.0-21.0-0.21","8a13dda4-6463-4320-baa2-a54090512a31","1000","
                  <p style=""text-align: center;"">₪64
                                                <br>25%</p>
                  <p id=""wtp"" style=""text-align:center; margin-top: 0px; margin-bottom: 0px; font-size: 40px"";>&ensp;</p>","-","viewing","0","24","6A,21A","","","","","","","","","","","","","","","","",""
"","","","","","html-slider-response","178","433054","0.0-21.0-1.21","8a13dda4-6463-4320-baa2-a54090512a31","3433","
                  <p style=""text-align: center;"">₪64
                                                <br>25%</p>
                  <p id=""wtp"" style=""text-align:center; margin-top: 0px; margin-bottom: 0px; font-size: 40px"";>מוכנים לשלם: <span id=""c_p_y""></span></p>","18","evaluation","55","24","6A,21A","25","64","18","","","","","","","","","","","","","",""
"","","","","","html-keyboard-response","179","434302","0.0-21.0-2.21","8a13dda4-6463-4320-baa2-a54090512a31","null","<p style=""text-align: center;"">+</p>","null","fixation","","","","","","","","","","","","","","","","","","","",""
"","","","","","html-slider-response","180","435303","0.0-21.0-0.22","8a13dda4-6463-4320-baa2-a54090512a31","1000","
                  <p style=""text-align: center;"">₪11
                                                <br>75%</p>
                  <p id=""wtp"" style=""text-align:center; margin-top: 0px; margin-bottom: 0px; font-size: 40px"";>&ensp;</p>","-","viewing","0","7","6B,18B,22C,24C,29A","","","","","","","","","","","","","","","","",""
"","","","","","html-slider-response","181","437726","0.0-21.0-1.22","8a13dda4-6463-4320-baa2-a54090512a31","2421","
                  <p style=""text-align: center;"">₪11
                                                <br>75%</p>
                  <p id=""wtp"" style=""text-align:center; margin-top: 0px; margin-bottom: 0px; font-size: 40px"";>מוכנים לשלם: <span id=""c_p_y""></span></p>","6","evaluation","69","7","6B,18B,22C,24C,29A","75","11","7","","","","","","","","","","","","","",""
"","","","","","html-keyboard-response","182","438520","0.0-21.0-2.22","8a13dda4-6463-4320-baa2-a54090512a31","null","<p style=""text-align: center;"">+</p>","null","fixation","","","","","","","","","","","","","","","","","","","",""
"","","","","","html-slider-response","183","439528","0.0-21.0-0.23","8a13dda4-6463-4320-baa2-a54090512a31","1000","
                  <p style=""text-align: center;"">₪71
                                                <br>75%</p>
                  <p id=""wtp"" style=""text-align:center; margin-top: 0px; margin-bottom: 0px; font-size: 40px"";>&ensp;</p>","-","viewing","0","28","8B","","","","","","","","","","","","","","","","",""
"","","","","","html-slider-response","184","443530","0.0-21.0-1.23","8a13dda4-6463-4320-baa2-a54090512a31","null","
                  <p style=""text-align: center;"">₪71
                                                <br>75%</p>
                  <p id=""wtp"" style=""text-align:center; margin-top: 0px; margin-bottom: 0px; font-size: 40px"";>מוכנים לשלם: <span id=""c_p_y""></span></p>","null","evaluation","64","28","8B","75","71","58","","","","","","","","","","","","","",""
"","","","","","html-keyboard-response","185","444142","0.0-21.0-2.23","8a13dda4-6463-4320-baa2-a54090512a31","null","<p style=""text-align: center;"">+</p>","null","fixation","","","","","","","","","","","","","","","","","","","",""
"","","","","","html-slider-response","186","445145","0.0-21.0-0.24","8a13dda4-6463-4320-baa2-a54090512a31","1000","
                  <p style=""text-align: center;"">₪39
                                                <br>60%</p>
                  <p id=""wtp"" style=""text-align:center; margin-top: 0px; margin-bottom: 0px; font-size: 40px"";>&ensp;</p>","-","viewing","0","15","9C,25B","","","","","","","","","","","","","","","","",""
"","","","","","html-slider-response","187","448934","0.0-21.0-1.24","8a13dda4-6463-4320-baa2-a54090512a31","3787","
                  <p style=""text-align: center;"">₪39
                                                <br>60%</p>
                  <p id=""wtp"" style=""text-align:center; margin-top: 0px; margin-bottom: 0px; font-size: 40px"";>מוכנים לשלם: <span id=""c_p_y""></span></p>","26","evaluation","43","15","9C,25B","60","39","26","","","","","","","","","","","","","",""
"","","","","","html-keyboard-response","188","450036","0.0-21.0-2.24","8a13dda4-6463-4320-baa2-a54090512a31","null","<p style=""text-align: center;"">+</p>","null","fixation","","","","","","","","","","","","","","","","","","","",""
"","","","","","html-slider-response","189","451048","0.0-21.0-0.25","8a13dda4-6463-4320-baa2-a54090512a31","1000","
                  <p style=""text-align: center;"">₪43
                                                <br>75%</p>
                  <p id=""wtp"" style=""text-align:center; margin-top: 0px; margin-bottom: 0px; font-size: 40px"";>&ensp;</p>","-","viewing","0","18","11B,19B,24A,26A","","","","","","","","","","","","","","","","",""
"","","","","","html-slider-response","190","454382","0.0-21.0-1.25","8a13dda4-6463-4320-baa2-a54090512a31","3332","
                  <p style=""text-align: center;"">₪43
                                                <br>75%</p>
                  <p id=""wtp"" style=""text-align:center; margin-top: 0px; margin-bottom: 0px; font-size: 40px"";>מוכנים לשלם: <span id=""c_p_y""></span></p>","31","evaluation","80","18","11B,19B,24A,26A","75","43","31","","","","","","","","","","","","","",""
"","","","","","html-keyboard-response","191","455768","0.0-21.0-2.25","8a13dda4-6463-4320-baa2-a54090512a31","null","<p style=""text-align: center;"">+</p>","null","fixation","","","","","","","","","","","","","","","","","","","",""
"","","","","","html-slider-response","192","456771","0.0-21.0-0.26","8a13dda4-6463-4320-baa2-a54090512a31","1000","
                  <p style=""text-align: center;"">₪4
                                                <br>50%</p>
                  <p id=""wtp"" style=""text-align:center; margin-top: 0px; margin-bottom: 0px; font-size: 40px"";>&ensp;</p>","-","viewing","0","2","4C,17B","","","","","","","","","","","","","","","","",""
"","","","","","html-slider-response","193","458342","0.0-21.0-1.26","8a13dda4-6463-4320-baa2-a54090512a31","1571","
                  <p style=""text-align: center;"">₪4
                                                <br>50%</p>
                  <p id=""wtp"" style=""text-align:center; margin-top: 0px; margin-bottom: 0px; font-size: 40px"";>מוכנים לשלם: <span id=""c_p_y""></span></p>","1","evaluation","70","2","4C,17B","50","4","2","","","","","","","","","","","","","",""
"","","","","","html-keyboard-response","194","459725","0.0-21.0-2.26","8a13dda4-6463-4320-baa2-a54090512a31","null","<p style=""text-align: center;"">+</p>","null","fixation","","","","","","","","","","","","","","","","","","","",""
"","","","","","html-slider-response","195","460729","0.0-21.0-0.27","8a13dda4-6463-4320-baa2-a54090512a31","1000","
                  <p style=""text-align: center;"">₪58
                                                <br>40%</p>
                  <p id=""wtp"" style=""text-align:center; margin-top: 0px; margin-bottom: 0px; font-size: 40px"";>&ensp;</p>","-","viewing","0","20","10C,13A,19C,21B","","","","","","","","","","","","","","","","",""
"","","","","","html-slider-response","196","463382","0.0-21.0-1.27","8a13dda4-6463-4320-baa2-a54090512a31","2651","
                  <p style=""text-align: center;"">₪58
                                                <br>40%</p>
                  <p id=""wtp"" style=""text-align:center; margin-top: 0px; margin-bottom: 0px; font-size: 40px"";>מוכנים לשלם: <span id=""c_p_y""></span></p>","24","evaluation","56","20","10C,13A,19C,21B","40","58","25","","","","","","","","","","","","","",""
"","","","","","html-keyboard-response","197","464737","0.0-21.0-2.27","8a13dda4-6463-4320-baa2-a54090512a31","null","<p style=""text-align: center;"">+</p>","null","fixation","","","","","","","","","","","","","","","","","","","",""
"","","","","","html-slider-response","198","465739","0.0-21.0-0.28","8a13dda4-6463-4320-baa2-a54090512a31","1000","
                  <p style=""text-align: center;"">₪11
                                                <br>25%</p>
                  <p id=""wtp"" style=""text-align:center; margin-top: 0px; margin-bottom: 0px; font-size: 40px"";>&ensp;</p>","-","viewing","0","5","12A,27B,28B,30B","","","","","","","","","","","","","","","","",""
"","","","","","html-slider-response","199","468294","0.0-21.0-1.28","8a13dda4-6463-4320-baa2-a54090512a31","2553","
                  <p style=""text-align: center;"">₪11
                                                <br>25%</p>
                  <p id=""wtp"" style=""text-align:center; margin-top: 0px; margin-bottom: 0px; font-size: 40px"";>מוכנים לשלם: <span id=""c_p_y""></span></p>","3","evaluation","54","5","12A,27B,28B,30B","25","11","3","","","","","","","","","","","","","",""
"","","","","","html-keyboard-response","200","469202","0.0-21.0-2.28","8a13dda4-6463-4320-baa2-a54090512a31","null","<p style=""text-align: center;"">+</p>","null","fixation","","","","","","","","","","","","","","","","","","","",""
"","","","","","html-slider-response","201","470210","0.0-21.0-0.29","8a13dda4-6463-4320-baa2-a54090512a31","1000","
                  <p style=""text-align: center;"">₪61
                                                <br>55%</p>
                  <p id=""wtp"" style=""text-align:center; margin-top: 0px; margin-bottom: 0px; font-size: 40px"";>&ensp;</p>","-","viewing","0","23","7B,26B","","","","","","","","","","","","","","","","",""
"","","","","","html-slider-response","202","472822","0.0-21.0-1.29","8a13dda4-6463-4320-baa2-a54090512a31","2610","
                  <p style=""text-align: center;"">₪61
                                                <br>55%</p>
                  <p id=""wtp"" style=""text-align:center; margin-top: 0px; margin-bottom: 0px; font-size: 40px"";>מוכנים לשלם: <span id=""c_p_y""></span></p>","35","evaluation","42","23","7B,26B","55","61","35","","","","","","","","","","","","","",""
"","","","","","html-keyboard-response","203","474311","0.0-21.0-2.29","8a13dda4-6463-4320-baa2-a54090512a31","null","<p style=""text-align: center;"">+</p>","null","fixation","","","","","","","","","","","","","","","","","","","",""
"","","","","","html-slider-response","204","475326","0.0-21.0-0.30","8a13dda4-6463-4320-baa2-a54090512a31","1000","
                  <p style=""text-align: center;"">₪58
                                                <br>30%</p>
                  <p id=""wtp"" style=""text-align:center; margin-top: 0px; margin-bottom: 0px; font-size: 40px"";>&ensp;</p>","-","viewing","0","19","13C,30A","","","","","","","","","","","","","","","","",""
"","","","","","html-slider-response","205","478654","0.0-21.0-1.30","8a13dda4-6463-4320-baa2-a54090512a31","3326","
                  <p style=""text-align: center;"">₪58
                                                <br>30%</p>
                  <p id=""wtp"" style=""text-align:center; margin-top: 0px; margin-bottom: 0px; font-size: 40px"";>מוכנים לשלם: <span id=""c_p_y""></span></p>","21","evaluation","50","19","13C,30A","30","58","22","","","","","","","","","","","","","",""
"","","","","","html-keyboard-response","206","479759","0.0-21.0-2.30","8a13dda4-6463-4320-baa2-a54090512a31","null","<p style=""text-align: center;"">+</p>","null","fixation","","","","","","","","","","","","","","","","","","","",""
"","","","","","html-keyboard-response","207","480775","0.0-22.0","8a13dda4-6463-4320-baa2-a54090512a31","null","<p style=""text-align: center;"">+</p>","null","fixation","","","","","","","","","","","","","","","","","","","",""
"","","","","","html-keyboard-response","208","487294","0.0-23.0","8a13dda4-6463-4320-baa2-a54090512a31","null","<p>הפסקה.
          <br>לחצו כדי להמשיך.</p>","1","scan_wait","","","","","","","","","","","","","","","","","","","",""
"","","","","","html-keyboard-response","209","488296","0.0-24.0","8a13dda4-6463-4320-baa2-a54090512a31","null","<p style=""text-align: center;"">+</p>","null","fixation","","","","","","","","","","","","","","","","","","","",""
"","","","","","html-slider-response","210","489297","0.0-25.0-0.0","8a13dda4-6463-4320-baa2-a54090512a31","1000","
                  <p style=""text-align: center;"">₪36
                                                <br>75%</p>
                  <p id=""wtp"" style=""text-align:center; margin-top: 0px; margin-bottom: 0px; font-size: 40px"";>&ensp;</p>","-","viewing","0","14","4B,5A,13B,16B","","","","","","","","","","","","","","","","",""
"","","","","","html-slider-response","211","491622","0.0-25.0-1.0","8a13dda4-6463-4320-baa2-a54090512a31","2324","
                  <p style=""text-align: center;"">₪36
                                                <br>75%</p>
                  <p id=""wtp"" style=""text-align:center; margin-top: 0px; margin-bottom: 0px; font-size: 40px"";>מוכנים לשלם: <span id=""c_p_y""></span></p>","24","evaluation","37","14","4B,5A,13B,16B","75","36","25","","","","","","","","","","","","","",""
"","","","","","html-keyboard-response","212","492189","0.0-25.0-2.0","8a13dda4-6463-4320-baa2-a54090512a31","null","<p style=""text-align: center;"">+</p>","null","fixation","","","","","","","","","","","","","","","","","","","",""
"","","","","","html-slider-response","213","493197","0.0-25.0-0.1","8a13dda4-6463-4320-baa2-a54090512a31","1000","
                  <p style=""text-align: center;"">₪16
                                                <br>20%</p>
                  <p id=""wtp"" style=""text-align:center; margin-top: 0px; margin-bottom: 0px; font-size: 40px"";>&ensp;</p>","-","viewing","0","8","14C,17A,20C,27A","","","","","","","","","","","","","","","","",""
"","","","","","html-slider-response","214","495254","0.0-25.0-1.1","8a13dda4-6463-4320-baa2-a54090512a31","2057","
                  <p style=""text-align: center;"">₪16
                                                <br>20%</p>
                  <p id=""wtp"" style=""text-align:center; margin-top: 0px; margin-bottom: 0px; font-size: 40px"";>מוכנים לשלם: <span id=""c_p_y""></span></p>","5","evaluation","55","8","14C,17A,20C,27A","20","16","6","","","","","","","","","","","","","",""
"","","","","","html-keyboard-response","215","496413","0.0-25.0-2.1","8a13dda4-6463-4320-baa2-a54090512a31","null","<p style=""text-align: center;"">+</p>","null","fixation","","","","","","","","","","","","","","","","","","","",""
"","","","","","html-slider-response","216","497425","0.0-25.0-0.2","8a13dda4-6463-4320-baa2-a54090512a31","1000","
                  <p style=""text-align: center;"">₪79
                                                <br>65%</p>
                  <p id=""wtp"" style=""text-align:center; margin-top: 0px; margin-bottom: 0px; font-size: 40px"";>&ensp;</p>","-","viewing","0","31","8A","","","","","","","","","","","","","","","","",""
"","","","","","html-slider-response","217","500366","0.0-25.0-1.2","8a13dda4-6463-4320-baa2-a54090512a31","2940","
                  <p style=""text-align: center;"">₪79
                                                <br>65%</p>
                  <p id=""wtp"" style=""text-align:center; margin-top: 0px; margin-bottom: 0px; font-size: 40px"";>מוכנים לשלם: <span id=""c_p_y""></span></p>","46","evaluation","64","31","8A","65","79","46","","","","","","","","","","","","","",""
"","","","","","html-keyboard-response","218","501159","0.0-25.0-2.2","8a13dda4-6463-4320-baa2-a54090512a31","null","<p style=""text-align: center;"">+</p>","null","fixation","","","","","","","","","","","","","","","","","","","",""
"","","","","","html-slider-response","219","502174","0.0-25.0-0.3","8a13dda4-6463-4320-baa2-a54090512a31","1000","
                  <p style=""text-align: center;"">₪11
                                                <br>75%</p>
                  <p id=""wtp"" style=""text-align:center; margin-top: 0px; margin-bottom: 0px; font-size: 40px"";>&ensp;</p>","-","viewing","0","7","6B,18B,22C,24C,29A","","","","","","","","","","","","","","","","",""
"","","","","","html-slider-response","220","505270","0.0-25.0-1.3","8a13dda4-6463-4320-baa2-a54090512a31","3095","
                  <p style=""text-align: center;"">₪11
                                                <br>75%</p>
                  <p id=""wtp"" style=""text-align:center; margin-top: 0px; margin-bottom: 0px; font-size: 40px"";>מוכנים לשלם: <span id=""c_p_y""></span></p>","8","evaluation","14","7","6B,18B,22C,24C,29A","75","11","8","","","","","","","","","","","","","",""
"","","","","","html-keyboard-response","221","506546","0.0-25.0-2.3","8a13dda4-6463-4320-baa2-a54090512a31","null","<p style=""text-align: center;"">+</p>","null","fixation","","","","","","","","","","","","","","","","","","","",""
"","","","","","html-slider-response","222","507548","0.0-25.0-0.4","8a13dda4-6463-4320-baa2-a54090512a31","1000","
                  <p style=""text-align: center;"">₪58
                                                <br>40%</p>
                  <p id=""wtp"" style=""text-align:center; margin-top: 0px; margin-bottom: 0px; font-size: 40px"";>&ensp;</p>","-","viewing","0","20","10C,13A,19C,21B","","","","","","","","","","","","","","","","",""
"","","","","","html-slider-response","223","511302","0.0-25.0-1.4","8a13dda4-6463-4320-baa2-a54090512a31","3752","
                  <p style=""text-align: center;"">₪58
                                                <br>40%</p>
                  <p id=""wtp"" style=""text-align:center; margin-top: 0px; margin-bottom: 0px; font-size: 40px"";>מוכנים לשלם: <span id=""c_p_y""></span></p>","21","evaluation","76","20","10C,13A,19C,21B","40","58","21","","","","","","","","","","","","","",""
"","","","","","html-keyboard-response","224","511972","0.0-25.0-2.4","8a13dda4-6463-4320-baa2-a54090512a31","null","<p style=""text-align: center;"">+</p>","null","fixation","","","","","","","","","","","","","","","","","","","",""
"","","","","","html-slider-response","225","512982","0.0-25.0-0.5","8a13dda4-6463-4320-baa2-a54090512a31","1000","
                  <p style=""text-align: center;"">₪71
                                                <br>45%</p>
                  <p id=""wtp"" style=""text-align:center; margin-top: 0px; margin-bottom: 0px; font-size: 40px"";>&ensp;</p>","-","viewing","0","26","2B,16A","","","","","","","","","","","","","","","","",""
"","","","","","html-slider-response","226","515462","0.0-25.0-1.5","8a13dda4-6463-4320-baa2-a54090512a31","2479","
                  <p style=""text-align: center;"">₪71
                                                <br>45%</p>
                  <p id=""wtp"" style=""text-align:center; margin-top: 0px; margin-bottom: 0px; font-size: 40px"";>מוכנים לשלם: <span id=""c_p_y""></span></p>","31","evaluation","53","26","2B,16A","45","71","31","","","","","","","","","","","","","",""
"","","","","","html-keyboard-response","227","516549","0.0-25.0-2.5","8a13dda4-6463-4320-baa2-a54090512a31","null","<p style=""text-align: center;"">+</p>","null","fixation","","","","","","","","","","","","","","","","","","","",""
"","","","","","html-slider-response","228","517564","0.0-25.0-0.6","8a13dda4-6463-4320-baa2-a54090512a31","1000","
                  <p style=""text-align: center;"">₪64
                                                <br>25%</p>
                  <p id=""wtp"" style=""text-align:center; margin-top: 0px; margin-bottom: 0px; font-size: 40px"";>&ensp;</p>","-","viewing","0","24","6A,21A","","","","","","","","","","","","","","","","",""
"","","","","","html-slider-response","229","520862","0.0-25.0-1.6","8a13dda4-6463-4320-baa2-a54090512a31","3298","
                  <p style=""text-align: center;"">₪64
                                                <br>25%</p>
                  <p id=""wtp"" style=""text-align:center; margin-top: 0px; margin-bottom: 0px; font-size: 40px"";>מוכנים לשלם: <span id=""c_p_y""></span></p>","21","evaluation","79","24","6A,21A","25","64","21","","","","","","","","","","","","","",""
"","","","","","html-keyboard-response","230","522167","0.0-25.0-2.6","8a13dda4-6463-4320-baa2-a54090512a31","null","<p style=""text-align: center;"">+</p>","null","fixation","","","","","","","","","","","","","","","","","","","",""
"","","","","","html-slider-response","231","523183","0.0-25.0-0.7","8a13dda4-6463-4320-baa2-a54090512a31","1000","
                  <p style=""text-align: center;"">₪58
                                                <br>30%</p>
                  <p id=""wtp"" style=""text-align:center; margin-top: 0px; margin-bottom: 0px; font-size: 40px"";>&ensp;</p>","-","viewing","0","19","13C,30A","","","","","","","","","","","","","","","","",""
"","","","","","html-slider-response","232","525942","0.0-25.0-1.7","8a13dda4-6463-4320-baa2-a54090512a31","2758","
                  <p style=""text-align: center;"">₪58
                                                <br>30%</p>
                  <p id=""wtp"" style=""text-align:center; margin-top: 0px; margin-bottom: 0px; font-size: 40px"";>מוכנים לשלם: <span id=""c_p_y""></span></p>","12","evaluation","47","19","13C,30A","30","58","12","","","","","","","","","","","","","",""
"","","","","","html-keyboard-response","233","526981","0.0-25.0-2.7","8a13dda4-6463-4320-baa2-a54090512a31","null","<p style=""text-align: center;"">+</p>","null","fixation","","","","","","","","","","","","","","","","","","","",""
"","","","","","html-slider-response","234","527986","0.0-25.0-0.8","8a13dda4-6463-4320-baa2-a54090512a31","1000","
                  <p style=""text-align: center;"">₪71
                                                <br>55%</p>
                  <p id=""wtp"" style=""text-align:center; margin-top: 0px; margin-bottom: 0px; font-size: 40px"";>&ensp;</p>","-","viewing","0","27","5B,18A","","","","","","","","","","","","","","","","",""
"","","","","","html-slider-response","235","531070","0.0-25.0-1.8","8a13dda4-6463-4320-baa2-a54090512a31","3083","
                  <p style=""text-align: center;"">₪71
                                                <br>55%</p>
                  <p id=""wtp"" style=""text-align:center; margin-top: 0px; margin-bottom: 0px; font-size: 40px"";>מוכנים לשלם: <span id=""c_p_y""></span></p>","33","evaluation","5","27","5B,18A","55","71","33","","","","","","","","","","","","","",""
"","","","","","html-keyboard-response","236","532304","0.0-25.0-2.8","8a13dda4-6463-4320-baa2-a54090512a31","null","<p style=""text-align: center;"">+</p>","null","fixation","","","","","","","","","","","","","","","","","","","",""
"","","","","","html-slider-response","237","533322","0.0-25.0-0.9","8a13dda4-6463-4320-baa2-a54090512a31","1000","
                  <p style=""text-align: center;"">₪61
                                                <br>45%</p>
                  <p id=""wtp"" style=""text-align:center; margin-top: 0px; margin-bottom: 0px; font-size: 40px"";>&ensp;</p>","-","viewing","0","22","10A,11A","","","","","","","","","","","","","","","","",""
"","","","","","html-slider-response","238","535926","0.0-25.0-1.9","8a13dda4-6463-4320-baa2-a54090512a31","2604","
                  <p style=""text-align: center;"">₪61
                                                <br>45%</p>
                  <p id=""wtp"" style=""text-align:center; margin-top: 0px; margin-bottom: 0px; font-size: 40px"";>מוכנים לשלם: <span id=""c_p_y""></span></p>","25","evaluation","9","22","10A,11A","45","61","25","","","","","","","","","","","","","",""
"","","","","","html-keyboard-response","239","536573","0.0-25.0-2.9","8a13dda4-6463-4320-baa2-a54090512a31","null","<p style=""text-align: center;"">+</p>","null","fixation","","","","","","","","","","","","","","","","","","","",""
"","","","","","html-slider-response","240","537582","0.0-25.0-0.10","8a13dda4-6463-4320-baa2-a54090512a31","1000","
                  <p style=""text-align: center;"">₪18
                                                <br>50%</p>
                  <p id=""wtp"" style=""text-align:center; margin-top: 0px; margin-bottom: 0px; font-size: 40px"";>&ensp;</p>","-","viewing","0","10","2C,16C,22B,28A","","","","","","","","","","","","","","","","",""
"","","","","","html-slider-response","241","539838","0.0-25.0-1.10","8a13dda4-6463-4320-baa2-a54090512a31","2254","
                  <p style=""text-align: center;"">₪18
                                                <br>50%</p>
                  <p id=""wtp"" style=""text-align:center; margin-top: 0px; margin-bottom: 0px; font-size: 40px"";>מוכנים לשלם: <span id=""c_p_y""></span></p>","9","evaluation","4","10","2C,16C,22B,28A","50","18","9","","","","","","","","","","","","","",""
"","","","","","html-keyboard-response","242","541218","0.0-25.0-2.10","8a13dda4-6463-4320-baa2-a54090512a31","null","<p style=""text-align: center;"">+</p>","null","fixation","","","","","","","","","","","","","","","","","","","",""
"","","","","","html-slider-response","243","542221","0.0-25.0-0.11","8a13dda4-6463-4320-baa2-a54090512a31","1000","
                  <p style=""text-align: center;"">₪11
                                                <br>25%</p>
                  <p id=""wtp"" style=""text-align:center; margin-top: 0px; margin-bottom: 0px; font-size: 40px"";>&ensp;</p>","-","viewing","0","5","12A,27B,28B,30B","","","","","","","","","","","","","","","","",""
"","","","","","html-slider-response","244","545142","0.0-25.0-1.11","8a13dda4-6463-4320-baa2-a54090512a31","2920","
                  <p style=""text-align: center;"">₪11
                                                <br>25%</p>
                  <p id=""wtp"" style=""text-align:center; margin-top: 0px; margin-bottom: 0px; font-size: 40px"";>מוכנים לשלם: <span id=""c_p_y""></span></p>","3","evaluation","53","5","12A,27B,28B,30B","25","11","4","","","","","","","","","","","","","",""
"","","","","","html-keyboard-response","245","545863","0.0-25.0-2.11","8a13dda4-6463-4320-baa2-a54090512a31","null","<p style=""text-align: center;"">+</p>","null","fixation","","","","","","","","","","","","","","","","","","","",""
"","","","","","html-slider-response","246","546880","0.0-25.0-0.12","8a13dda4-6463-4320-baa2-a54090512a31","1000","
                  <p style=""text-align: center;"">₪71
                                                <br>75%</p>
                  <p id=""wtp"" style=""text-align:center; margin-top: 0px; margin-bottom: 0px; font-size: 40px"";>&ensp;</p>","-","viewing","0","28","8B","","","","","","","","","","","","","","","","",""
"","","","","","html-slider-response","247","550790","0.0-25.0-1.12","8a13dda4-6463-4320-baa2-a54090512a31","3909","
                  <p style=""text-align: center;"">₪71
                                                <br>75%</p>
                  <p id=""wtp"" style=""text-align:center; margin-top: 0px; margin-bottom: 0px; font-size: 40px"";>מוכנים לשלם: <span id=""c_p_y""></span></p>","55","evaluation","72","28","8B","75","71","55","","","","","","","","","","","","","",""
"","","","","","html-keyboard-response","248","551402","0.0-25.0-2.12","8a13dda4-6463-4320-baa2-a54090512a31","null","<p style=""text-align: center;"">+</p>","null","fixation","","","","","","","","","","","","","","","","","","","",""
"","","","","","html-slider-response","249","552409","0.0-25.0-0.13","8a13dda4-6463-4320-baa2-a54090512a31","1000","
                  <p style=""text-align: center;"">₪18
                                                <br>25%</p>
                  <p id=""wtp"" style=""text-align:center; margin-top: 0px; margin-bottom: 0px; font-size: 40px"";>&ensp;</p>","-","viewing","0","9","14A,23A","","","","","","","","","","","","","","","","",""
"","","","","","html-slider-response","250","555550","0.0-25.0-1.13","8a13dda4-6463-4320-baa2-a54090512a31","3140","
                  <p style=""text-align: center;"">₪18
                                                <br>25%</p>
                  <p id=""wtp"" style=""text-align:center; margin-top: 0px; margin-bottom: 0px; font-size: 40px"";>מוכנים לשלם: <span id=""c_p_y""></span></p>","3","evaluation","51","9","14A,23A","25","18","4","","","","","","","","","","","","","",""
"","","","","","html-keyboard-response","251","556297","0.0-25.0-2.13","8a13dda4-6463-4320-baa2-a54090512a31","null","<p style=""text-align: center;"">+</p>","null","fixation","","","","","","","","","","","","","","","","","","","",""
"","","","","","html-slider-response","252","557310","0.0-25.0-0.14","8a13dda4-6463-4320-baa2-a54090512a31","1000","
                  <p style=""text-align: center;"">₪76
                                                <br>65%</p>
                  <p id=""wtp"" style=""text-align:center; margin-top: 0px; margin-bottom: 0px; font-size: 40px"";>&ensp;</p>","-","viewing","0","29","8C,19A,24B","","","","","","","","","","","","","","","","",""
"","","","","","html-slider-response","253","560134","0.0-25.0-1.14","8a13dda4-6463-4320-baa2-a54090512a31","2823","
                  <p style=""text-align: center;"">₪76
                                                <br>65%</p>
                  <p id=""wtp"" style=""text-align:center; margin-top: 0px; margin-bottom: 0px; font-size: 40px"";>מוכנים לשלם: <span id=""c_p_y""></span></p>","55","evaluation","65","29","8C,19A,24B","65","76","55","","","","","","","","","","","","","",""
"","","","","","html-keyboard-response","254","561627","0.0-25.0-2.14","8a13dda4-6463-4320-baa2-a54090512a31","null","<p style=""text-align: center;"">+</p>","null","fixation","","","","","","","","","","","","","","","","","","","",""
"","","","","","html-slider-response","255","562635","0.0-25.0-0.15","8a13dda4-6463-4320-baa2-a54090512a31","1000","
