"success","timeout","failed_images","failed_audio","failed_video","trial_type","trial_index","time_elapsed","internal_node_id","subject_id","rt","stimulus","response","part","slider_start","ID","set_ID","prob","amount","last_location","actual_choice","actual_EV","binary_id","trinary_id","catch","direction","A_key","S_key","D_key","choice_prob","choice_amount","chosen_part","potential_prize_prob","potential_prize_amount","won_prize","total_prize","prize_cost","remaining_budget","accuracy"
"true","false","[]","[]","[]","preload","0","27","0.0-0.0","bd7393dd-41f5-4a2d-b4ae-d4cb5afeea0e","","","","","","","","","","","","","","","","","","","","","","","","","","","","",""
"","","","","","html-keyboard-response","1","12551","0.0-1.0","bd7393dd-41f5-4a2d-b4ae-d4cb5afeea0e","null","
          <h1>שלום וברוכים הבאים!</h1>
          <p>לפניכם ניסוי בקבלת החלטות עם שני חלקים.
          <br><br>לחצו על העכבר כדי להמשיך.</p>","0","example","","","","","","","","","","","","","","","","","","","","","","","","",""
"","","","","","html-keyboard-response","2","20096","0.0-2.0","bd7393dd-41f5-4a2d-b4ae-d4cb5afeea0e","null","
        <h1>חלק 1</h1>
        <p>בקרוב יוצגו בפניכם הגרלות.
        <br>עליכם לבחור את המחיר המירבי שתהיו מוכנים לשלם כדי להשתתף בהגרלה שתוצג.
        <br>יש לכם תקציב של ₪80 לכל הגרלה. 
        <br>נסו להעריך כל הגרלה בנפרד ולחשוב כמה היא שווה עבורכם, ₪80 זמינים לכל הגרלה בנפרד.
        <br><br>לחצו על העכבר כדי להמשיך.</p>","1","instructions","","","","","","","","","","","","","","","","","","","","","","","","",""
"","","","","","html-keyboard-response","3","30647","0.0-3.0","bd7393dd-41f5-4a2d-b4ae-d4cb5afeea0e","null","
        <p>בסוף הניסוי, המחשב יבחר את אחת ההגרלות ויקבע מחיר לכרטיס עבורה. 
        <br>במידה והמחיר שבחרתם נמוך מהמחיר שנבחר על ידי המחשב, לא תשתתפו בהגרלה ותשארו עם מלוא התקציב.
        <br>במידה והמחיר שבחרתם גבוה מהמחיר שנבחר על ידי המחשב, תשלמו את המחיר שנקבע ותשתתפו בהגרלה.
        <br><br>לחצו על העכבר כדי להמשיך.</p>","1","instructions","","","","","","","","","","","","","","","","","","","","","","","","",""
"","","","","","html-slider-response","4","61475","0.0-4.0","bd7393dd-41f5-4a2d-b4ae-d4cb5afeea0e","30721","
        <p style=""font-size: 42px;"">נתחיל עם דוגמא: 
        <br>ההגרלה מטה מציעה 65% סיכוי לזכות ב-₪40 
        <br>&emsp;&emsp;&emsp;&emsp;&emsp;&emsp;&emsp;&emsp;&ensp;35% סיכוי לזכות ב-₪0.
        <br><br>מה המחיר המירבי שתהיו מוכנים לשלם על כרטיס להגרלה זו בין 0 ל-₪80?
        <br>הזיזו את העכבר על פני המלבן ולחצו כדי לבצע בחירה.</p>
        
        <p style=""text-align: center;"">₪40<br>65%</p>

        <p id=""wtp"" style=""text-align:center; margin-top: 0px; margin-bottom: 0px; font-size: 40px"";>מוכנים לשלם: <span id=""c_p_y""></span></p>","30","example","22","","","","","","","","","","","","","","","","","","","","","","","",""
"","","","","","html-keyboard-response","5","70362","0.0-5.0","bd7393dd-41f5-4a2d-b4ae-d4cb5afeea0e","null","<p>יפה מאוד!
                <br> בחרתם שתהיו מוכנים לשלם ₪30 כדי להשתתף בהגרלה:
                <br><p style=""text-align: center;"">₪40<br>65%</p>
                <p>נשמע נכון?
                <br>נניח שהגרלה זו נבחרה בסוף הניסוי.
                <br>כעת המחשב יקבע מחיר עבורה באקראי.
                <br>לחצו על העכבר להמשך.</p>","1","example","","","","","","","","","","","","","","","","","","","","","","","","",""
"","","","","","html-keyboard-response","6","83690","0.0-6.0","bd7393dd-41f5-4a2d-b4ae-d4cb5afeea0e","null","<p>המחשב קבע מחיר: ₪43
                <br>ואתם בחרתם לשלם לכל היותר: ₪30
                <br><br>מכיוון שהמחיר שבחרתם נמוך מהמחיר שנקבע, לא תתשתתפו בהגרלה.
                <br>במקרה כזה, בסוף הניסוי תקבלו את כל התקציב ההתחלתי של ₪80.
                <br><br>לחצו על העכבר להמשך.</p>","1","example","","","","","","","","","","","","","","","","","","","","","","","","",""
"","","","","","html-slider-response","7","90003","0.0-7.0","bd7393dd-41f5-4a2d-b4ae-d4cb5afeea0e","6056","<p style=""font-size: 42px;"">הנה עוד דוגמא:
                <br>ההגרלה מטה מציעה 35% סיכוי לזכות ב-₪18 
                <br>&emsp;&emsp;&emsp;&emsp;&emsp;&emsp;&emsp;&emsp;&ensp;65% סיכוי לזכות ב-₪0.</p>
        
                <p style=""text-align: center;"">₪18<br>35%</p>
                <p id=""wtp"" style=""text-align:center; margin-top: 0px; margin-bottom: 0px; font-size: 40px"";>מוכנים לשלם: <span id=""c_p_y""></span></p>","18","example","59","","","","","","","","","","","","","","","","","","","","","","","",""
"","","","","","html-keyboard-response","8","94514","0.0-8.0","bd7393dd-41f5-4a2d-b4ae-d4cb5afeea0e","null","<p>הייתם מוכנים לשלם  ₪18 כדי להשתתף בהגרלה:
                <p style=""text-align: center;"">₪18<br>35%</p>
                <p>כעת נניח שהמחשב בחר את ההגרלה הזו בסוף הניסוי, וקבע עבורה מחיר.
                <br><br>לחצו על העכבר כדי להמשיך.</p>","1","instructions","","","","","","","","","","","","","","","","","","","","","","","","",""
"","","","","","html-keyboard-response","9","108203","0.0-9.0","bd7393dd-41f5-4a2d-b4ae-d4cb5afeea0e","null","<p>המחשב קבע מחיר להגרלה: ₪3<br>ואתם בחרתם לשלם לכל היותר: ₪18
                <br><br>כעת המחיר שנקבע נמוך מזה שבחרתם, אז תשלמו את המחיר שקבע המחשב (₪3) ותשתתפו בהגרלה.
                <br>במקרה כזה, תסיימו את הניסוי עם תקציב של ₪77 ועם סיכוי לזכות ב-₪18 נוספים מההגרלה.
                <br>כלומר, תוכלו לקבל ₪77 אם לא תזכו בהגרלה, או ₪95 אם תזכו בהגרלה.
                <br><br>לחצו על העכבר להמשך.</p>","1","example","","","","","","","","","","","","","","","","","","","","","","","","",""
"","","","","","html-keyboard-response","10","114122","0.0-10.0","bd7393dd-41f5-4a2d-b4ae-d4cb5afeea0e","null","<p>במהלך הניסוי, קודם תראו את ההגרלה ורק לאחר מכן תוכלו לבחור.
                <p>כמו כן, יהיו לכם מספר שניות מוגבל להגיב.
                <p>בואו ננסה זאת עם ההגרלה הקודמת.
                <br>לחצו על העכבר כדי להמשיך.</p>","1","instructions","","","","","","","","","","","","","","","","","","","","","","","","",""
"","","","","","html-slider-response","11","115386","0.0-11.0","bd7393dd-41f5-4a2d-b4ae-d4cb5afeea0e","1000","
                    <p style=""text-align: center;"">₪18<br>35%</p>
                    <p id=""wtp"" style=""text-align:center; margin-top: 0px; margin-bottom: 0px; font-size: 40px"";>&ensp;</p>","50","instructions","0","","","","","","","","","","","","","","","","","","","","","","","",""
"","","","","","html-slider-response","12","119642","0.0-12.0","bd7393dd-41f5-4a2d-b4ae-d4cb5afeea0e","null","
                    <p style=""text-align: center;"">₪18<br>35%</p>
                    <p id=""wtp"" style=""text-align:center; margin-top: 0px; margin-bottom: 0px; font-size: 40px"";>מוכנים לשלם: <span id=""c_p_y""></span></p>","null","instructions","46","","","","","","","","","","","","","","","","","","","","","","","",""
"","","","","","html-keyboard-response","13","122531","0.0-13.0","bd7393dd-41f5-4a2d-b4ae-d4cb5afeea0e","null","<p>לא הגבתם בזמן המוקצב לתגובה. 
                <br>נסו להגיב מהר יותר בפעם הבאה.
                <br><br>לחצו על העכבר כדי להמשיך.</p>","1","instructions","","","","","","","","","","","","","","","","","","","","","","","","",""
"","","","","","html-slider-response","14","124283","0.0-14.0-0.0","bd7393dd-41f5-4a2d-b4ae-d4cb5afeea0e","1496","
                    <p style=""text-align: center;"">₪40<br>65%</p>
                    <p id=""wtp"" style=""text-align:center; margin-top: 0px; margin-bottom: 0px; font-size: 40px"";>מוכנים לשלם: <span id=""c_p_y""></span></p>","20","instructions","14","","","","","","","","","","","","","","","","","","","","","","","",""
"","","","","","html-keyboard-response","15","125810","0.0-14.0-1.0","bd7393dd-41f5-4a2d-b4ae-d4cb5afeea0e","null","<p>יפה. הפעם בחרתם לשלם לכל היותר ₪20.
                <br><br>לחצו על העכבר כדי להמשיך.</p>","1","instructions","","","","","","","","","","","","","","","","","","","","","","","","",""
"","","","","","html-keyboard-response","16","133675","0.0-15.0","bd7393dd-41f5-4a2d-b4ae-d4cb5afeea0e","null","<p>כעת נתחיל את הניסוי.
                <br><br>אתם תראו הגרלות ותתבקשו לבחור כמה תהיו מוכנים לשלם כדי להשתתף בהן.
                <br>יש לכם תקציב של ₪80 עבור כל הגרלה.
                <br>בסוף הניסוי הגרלה אחת תבחר באקראי ותשוחק.
                <br><br>לחצו על העכבר כדי להתחיל את הניסוי.</p>","1","instructions","","","","","","","","","","","","","","","","","","","","","","","","",""
"","","","","","html-keyboard-response","17","134933","0.0-16.0","bd7393dd-41f5-4a2d-b4ae-d4cb5afeea0e","null","<p style=""text-align: center;"">+</p>","null","fixation","","","","","","","","","","","","","","","","","","","","","","","","",""
"","","","","","html-slider-response","18","135936","0.0-17.0-0.0","bd7393dd-41f5-4a2d-b4ae-d4cb5afeea0e","1000","
                  <p style=""text-align: center;"">₪64
                                                <br>25%</p>
                  <p id=""wtp"" style=""text-align:center; margin-top: 0px; margin-bottom: 0px; font-size: 40px"";>&ensp;</p>","-","viewing","0","24","6A,21A","","","","","","","","","","","","","","","","","","","","","",""
"","","","","","html-slider-response","19","139943","0.0-17.0-1.0","bd7393dd-41f5-4a2d-b4ae-d4cb5afeea0e","null","
                  <p style=""text-align: center;"">₪64
                                                <br>25%</p>
                  <p id=""wtp"" style=""text-align:center; margin-top: 0px; margin-bottom: 0px; font-size: 40px"";>מוכנים לשלם: <span id=""c_p_y""></span></p>","null","evaluation","0","24","6A,21A","25","64","58","","","","","","","","","","","","","","","","","","",""
"","","","","","html-keyboard-response","20","140451","0.0-17.0-2.0","bd7393dd-41f5-4a2d-b4ae-d4cb5afeea0e","null","<p style=""text-align: center;"">+</p>","null","fixation","","","","","","","","","","","","","","","","","","","","","","","","",""
"","","","","","html-slider-response","21","141455","0.0-17.0-0.1","bd7393dd-41f5-4a2d-b4ae-d4cb5afeea0e","1000","
                  <p style=""text-align: center;"">₪11
                                                <br>75%</p>
                  <p id=""wtp"" style=""text-align:center; margin-top: 0px; margin-bottom: 0px; font-size: 40px"";>&ensp;</p>","-","viewing","0","7","6B,18B,22C,24C,29A","","","","","","","","","","","","","","","","","","","","","",""
"","","","","","html-slider-response","22","142795","0.0-17.0-1.1","bd7393dd-41f5-4a2d-b4ae-d4cb5afeea0e","1339","
                  <p style=""text-align: center;"">₪11
                                                <br>75%</p>
                  <p id=""wtp"" style=""text-align:center; margin-top: 0px; margin-bottom: 0px; font-size: 40px"";>מוכנים לשלם: <span id=""c_p_y""></span></p>","22","evaluation","4","7","6B,18B,22C,24C,29A","75","11","22","","","","","","","","","","","","","","","","","","",""
"","","","","","html-keyboard-response","23","143890","0.0-17.0-2.1","bd7393dd-41f5-4a2d-b4ae-d4cb5afeea0e","null","<p style=""text-align: center;"">+</p>","null","fixation","","","","","","","","","","","","","","","","","","","","","","","","",""
"","","","","","html-slider-response","24","144903","0.0-17.0-0.2","bd7393dd-41f5-4a2d-b4ae-d4cb5afeea0e","1000","
                  <p style=""text-align: center;"">₪79
                                                <br>65%</p>
                  <p id=""wtp"" style=""text-align:center; margin-top: 0px; margin-bottom: 0px; font-size: 40px"";>&ensp;</p>","-","viewing","0","31","8A","","","","","","","","","","","","","","","","","","","","","",""
"","","","","","html-slider-response","25","146555","0.0-17.0-1.2","bd7393dd-41f5-4a2d-b4ae-d4cb5afeea0e","1650","
                  <p style=""text-align: center;"">₪79
                                                <br>65%</p>
                  <p id=""wtp"" style=""text-align:center; margin-top: 0px; margin-bottom: 0px; font-size: 40px"";>מוכנים לשלם: <span id=""c_p_y""></span></p>","72","evaluation","50","31","8A","65","79","72","","","","","","","","","","","","","","","","","","",""
"","","","","","html-keyboard-response","26","147179","0.0-17.0-2.2","bd7393dd-41f5-4a2d-b4ae-d4cb5afeea0e","null","<p style=""text-align: center;"">+</p>","null","fixation","","","","","","","","","","","","","","","","","","","","","","","","",""
"","","","","","html-slider-response","27","148182","0.0-17.0-0.3","bd7393dd-41f5-4a2d-b4ae-d4cb5afeea0e","1000","
                  <p style=""text-align: center;"">₪11
                                                <br>20%</p>
                  <p id=""wtp"" style=""text-align:center; margin-top: 0px; margin-bottom: 0px; font-size: 40px"";>&ensp;</p>","-","viewing","0","4","12C,17C,23C,28C","","","","","","","","","","","","","","","","","","","","","",""
"","","","","","html-slider-response","28","148947","0.0-17.0-1.3","bd7393dd-41f5-4a2d-b4ae-d4cb5afeea0e","763","
                  <p style=""text-align: center;"">₪11
                                                <br>20%</p>
                  <p id=""wtp"" style=""text-align:center; margin-top: 0px; margin-bottom: 0px; font-size: 40px"";>מוכנים לשלם: <span id=""c_p_y""></span></p>","29","evaluation","75","4","12C,17C,23C,28C","20","11","29","","","","","","","","","","","","","","","","","","",""
"","","","","","html-keyboard-response","29","149632","0.0-17.0-2.3","bd7393dd-41f5-4a2d-b4ae-d4cb5afeea0e","null","<p style=""text-align: center;"">+</p>","null","fixation","","","","","","","","","","","","","","","","","","","","","","","","",""
"","","","","","html-slider-response","30","150635","0.0-17.0-0.4","bd7393dd-41f5-4a2d-b4ae-d4cb5afeea0e","1000","
                  <p style=""text-align: center;"">₪76
                                                <br>65%</p>
                  <p id=""wtp"" style=""text-align:center; margin-top: 0px; margin-bottom: 0px; font-size: 40px"";>&ensp;</p>","-","viewing","0","29","8C,19A,24B","","","","","","","","","","","","","","","","","","","","","",""
"","","","","","html-slider-response","31","152011","0.0-17.0-1.4","bd7393dd-41f5-4a2d-b4ae-d4cb5afeea0e","1374","
                  <p style=""text-align: center;"">₪76
                                                <br>65%</p>
                  <p id=""wtp"" style=""text-align:center; margin-top: 0px; margin-bottom: 0px; font-size: 40px"";>מוכנים לשלם: <span id=""c_p_y""></span></p>","66","evaluation","25","29","8C,19A,24B","65","76","66","","","","","","","","","","","","","","","","","","",""
"","","","","","html-keyboard-response","32","152995","0.0-17.0-2.4","bd7393dd-41f5-4a2d-b4ae-d4cb5afeea0e","null","<p style=""text-align: center;"">+</p>","null","fixation","","","","","","","","","","","","","","","","","","","","","","","","",""
"","","","","","html-slider-response","33","153997","0.0-17.0-0.5","bd7393dd-41f5-4a2d-b4ae-d4cb5afeea0e","1000","
                  <p style=""text-align: center;"">₪71
                                                <br>75%</p>
                  <p id=""wtp"" style=""text-align:center; margin-top: 0px; margin-bottom: 0px; font-size: 40px"";>&ensp;</p>","-","viewing","0","28","8B","","","","","","","","","","","","","","","","","","","","","",""
"","","","","","html-slider-response","34","155747","0.0-17.0-1.5","bd7393dd-41f5-4a2d-b4ae-d4cb5afeea0e","1749","
                  <p style=""text-align: center;"">₪71
                                                <br>75%</p>
                  <p id=""wtp"" style=""text-align:center; margin-top: 0px; margin-bottom: 0px; font-size: 40px"";>מוכנים לשלם: <span id=""c_p_y""></span></p>","79","evaluation","16","28","8B","75","71","78","","","","","","","","","","","","","","","","","","",""
"","","","","","html-keyboard-response","35","156954","0.0-17.0-2.5","bd7393dd-41f5-4a2d-b4ae-d4cb5afeea0e","null","<p style=""text-align: center;"">+</p>","null","fixation","","","","","","","","","","","","","","","","","","","","","","","","",""
"","","","","","html-slider-response","36","157955","0.0-17.0-0.6","bd7393dd-41f5-4a2d-b4ae-d4cb5afeea0e","1000","
                  <p style=""text-align: center;"">₪4
                                                <br>75%</p>
                  <p id=""wtp"" style=""text-align:center; margin-top: 0px; margin-bottom: 0px; font-size: 40px"";>&ensp;</p>","-","viewing","0","3","12B,20B,23B,27C,29C","","","","","","","","","","","","","","","","","","","","","",""
"","","","","","html-slider-response","37","159451","0.0-17.0-1.6","bd7393dd-41f5-4a2d-b4ae-d4cb5afeea0e","1495","
                  <p style=""text-align: center;"">₪4
                                                <br>75%</p>
                  <p id=""wtp"" style=""text-align:center; margin-top: 0px; margin-bottom: 0px; font-size: 40px"";>מוכנים לשלם: <span id=""c_p_y""></span></p>","15","evaluation","63","3","12B,20B,23B,27C,29C","75","4","15","","","","","","","","","","","","","","","","","","",""
"","","","","","html-keyboard-response","38","160625","0.0-17.0-2.6","bd7393dd-41f5-4a2d-b4ae-d4cb5afeea0e","null","<p style=""text-align: center;"">+</p>","null","fixation","","","","","","","","","","","","","","","","","","","","","","","","",""
"","","","","","html-slider-response","39","161637","0.0-17.0-0.7","bd7393dd-41f5-4a2d-b4ae-d4cb5afeea0e","1000","
                  <p style=""text-align: center;"">₪39
                                                <br>65%</p>
                  <p id=""wtp"" style=""text-align:center; margin-top: 0px; margin-bottom: 0px; font-size: 40px"";>&ensp;</p>","-","viewing","0","16","1A,15A,26C","","","","","","","","","","","","","","","","","","","","","",""
"","","","","","html-slider-response","40","163475","0.0-17.0-1.7","bd7393dd-41f5-4a2d-b4ae-d4cb5afeea0e","1837","
                  <p style=""text-align: center;"">₪39
                                                <br>65%</p>
                  <p id=""wtp"" style=""text-align:center; margin-top: 0px; margin-bottom: 0px; font-size: 40px"";>מוכנים לשלם: <span id=""c_p_y""></span></p>","38","evaluation","60","16","1A,15A,26C","65","39","38","","","","","","","","","","","","","","","","","","",""
"","","","","","html-keyboard-response","41","164735","0.0-17.0-2.7","bd7393dd-41f5-4a2d-b4ae-d4cb5afeea0e","null","<p style=""text-align: center;"">+</p>","null","fixation","","","","","","","","","","","","","","","","","","","","","","","","",""
"","","","","","html-slider-response","42","165748","0.0-17.0-0.8","bd7393dd-41f5-4a2d-b4ae-d4cb5afeea0e","1000","
                  <p style=""text-align: center;"">₪36
                                                <br>75%</p>
                  <p id=""wtp"" style=""text-align:center; margin-top: 0px; margin-bottom: 0px; font-size: 40px"";>&ensp;</p>","-","viewing","0","14","4B,5A,13B,16B","","","","","","","","","","","","","","","","","","","","","",""
"","","","","","html-slider-response","43","167843","0.0-17.0-1.8","bd7393dd-41f5-4a2d-b4ae-d4cb5afeea0e","2093","
                  <p style=""text-align: center;"">₪36
                                                <br>75%</p>
                  <p id=""wtp"" style=""text-align:center; margin-top: 0px; margin-bottom: 0px; font-size: 40px"";>מוכנים לשלם: <span id=""c_p_y""></span></p>","41","evaluation","11","14","4B,5A,13B,16B","75","36","41","","","","","","","","","","","","","","","","","","",""
"","","","","","html-keyboard-response","44","168732","0.0-17.0-2.8","bd7393dd-41f5-4a2d-b4ae-d4cb5afeea0e","null","<p style=""text-align: center;"">+</p>","null","fixation","","","","","","","","","","","","","","","","","","","","","","","","",""
"","","","","","html-slider-response","45","169734","0.0-17.0-0.9","bd7393dd-41f5-4a2d-b4ae-d4cb5afeea0e","1000","
                  <p style=""text-align: center;"">₪36
                                                <br>60%</p>
                  <p id=""wtp"" style=""text-align:center; margin-top: 0px; margin-bottom: 0px; font-size: 40px"";>&ensp;</p>","-","viewing","0","12","1C,7C,15C","","","","","","","","","","","","","","","","","","","","","",""
"","","","","","html-slider-response","46","171627","0.0-17.0-1.9","bd7393dd-41f5-4a2d-b4ae-d4cb5afeea0e","1891","
                  <p style=""text-align: center;"">₪36
                                                <br>60%</p>
                  <p id=""wtp"" style=""text-align:center; margin-top: 0px; margin-bottom: 0px; font-size: 40px"";>מוכנים לשלם: <span id=""c_p_y""></span></p>","49","evaluation","58","12","1C,7C,15C","60","36","49","","","","","","","","","","","","","","","","","","",""
"","","","","","html-keyboard-response","47","173012","0.0-17.0-2.9","bd7393dd-41f5-4a2d-b4ae-d4cb5afeea0e","null","<p style=""text-align: center;"">+</p>","null","fixation","","","","","","","","","","","","","","","","","","","","","","","","",""
"","","","","","html-slider-response","48","174017","0.0-17.0-0.10","bd7393dd-41f5-4a2d-b4ae-d4cb5afeea0e","1000","
                  <p style=""text-align: center;"">₪61
                                                <br>45%</p>
                  <p id=""wtp"" style=""text-align:center; margin-top: 0px; margin-bottom: 0px; font-size: 40px"";>&ensp;</p>","-","viewing","0","22","10A,11A","","","","","","","","","","","","","","","","","","","","","",""
"","","","","","html-slider-response","49","176267","0.0-17.0-1.10","bd7393dd-41f5-4a2d-b4ae-d4cb5afeea0e","2248","
                  <p style=""text-align: center;"">₪61
                                                <br>45%</p>
                  <p id=""wtp"" style=""text-align:center; margin-top: 0px; margin-bottom: 0px; font-size: 40px"";>מוכנים לשלם: <span id=""c_p_y""></span></p>","60","evaluation","75","22","10A,11A","45","61","60","","","","","","","","","","","","","","","","","","",""
"","","","","","html-keyboard-response","50","177164","0.0-17.0-2.10","bd7393dd-41f5-4a2d-b4ae-d4cb5afeea0e","null","<p style=""text-align: center;"">+</p>","null","fixation","","","","","","","","","","","","","","","","","","","","","","","","",""
"","","","","","html-slider-response","51","178170","0.0-17.0-0.11","bd7393dd-41f5-4a2d-b4ae-d4cb5afeea0e","1000","
                  <p style=""text-align: center;"">₪11
                                                <br>45%</p>
                  <p id=""wtp"" style=""text-align:center; margin-top: 0px; margin-bottom: 0px; font-size: 40px"";>&ensp;</p>","-","viewing","0","6","14B,21C,25C","","","","","","","","","","","","","","","","","","","","","",""
"","","","","","html-slider-response","52","179035","0.0-17.0-1.11","bd7393dd-41f5-4a2d-b4ae-d4cb5afeea0e","863","
                  <p style=""text-align: center;"">₪11
                                                <br>45%</p>
                  <p id=""wtp"" style=""text-align:center; margin-top: 0px; margin-bottom: 0px; font-size: 40px"";>מוכנים לשלם: <span id=""c_p_y""></span></p>","62","evaluation","40","6","14B,21C,25C","45","11","62","","","","","","","","","","","","","","","","","","",""
"","","","","","html-keyboard-response","53","180126","0.0-17.0-2.11","bd7393dd-41f5-4a2d-b4ae-d4cb5afeea0e","null","<p style=""text-align: center;"">+</p>","null","fixation","","","","","","","","","","","","","","","","","","","","","","","","",""
"","","","","","html-slider-response","54","181138","0.0-17.0-0.12","bd7393dd-41f5-4a2d-b4ae-d4cb5afeea0e","1000","
                  <p style=""text-align: center;"">₪71
                                                <br>55%</p>
                  <p id=""wtp"" style=""text-align:center; margin-top: 0px; margin-bottom: 0px; font-size: 40px"";>&ensp;</p>","-","viewing","0","27","5B,18A","","","","","","","","","","","","","","","","","","","","","",""
"","","","","","html-slider-response","55","182931","0.0-17.0-1.12","bd7393dd-41f5-4a2d-b4ae-d4cb5afeea0e","1799","
                  <p style=""text-align: center;"">₪71
                                                <br>55%</p>
                  <p id=""wtp"" style=""text-align:center; margin-top: 0px; margin-bottom: 0px; font-size: 40px"";>מוכנים לשלם: <span id=""c_p_y""></span></p>","71","evaluation","12","27","5B,18A","55","71","71","","","","","","","","","","","","","","","","","","",""
"","","","","","html-keyboard-response","56","184126","0.0-17.0-2.12","bd7393dd-41f5-4a2d-b4ae-d4cb5afeea0e","null","<p style=""text-align: center;"">+</p>","null","fixation","","","","","","","","","","","","","","","","","","","","","","","","",""
"","","","","","html-slider-response","57","185137","0.0-17.0-0.13","bd7393dd-41f5-4a2d-b4ae-d4cb5afeea0e","1000","
                  <p style=""text-align: center;"">₪36
                                                <br>70%</p>
                  <p id=""wtp"" style=""text-align:center; margin-top: 0px; margin-bottom: 0px; font-size: 40px"";>&ensp;</p>","-","viewing","0","13","3A,5C,10B","","","","","","","","","","","","","","","","","","","","","",""
"","","","","","html-slider-response","58","186699","0.0-17.0-1.13","bd7393dd-41f5-4a2d-b4ae-d4cb5afeea0e","1560","
                  <p style=""text-align: center;"">₪36
                                                <br>70%</p>
                  <p id=""wtp"" style=""text-align:center; margin-top: 0px; margin-bottom: 0px; font-size: 40px"";>מוכנים לשלם: <span id=""c_p_y""></span></p>","51","evaluation","9","13","3A,5C,10B","70","36","51","","","","","","","","","","","","","","","","","","",""
"","","","","","html-keyboard-response","59","187849","0.0-17.0-2.13","bd7393dd-41f5-4a2d-b4ae-d4cb5afeea0e","null","<p style=""text-align: center;"">+</p>","null","fixation","","","","","","","","","","","","","","","","","","","","","","","","",""
"","","","","","html-slider-response","60","188850","0.0-17.0-0.14","bd7393dd-41f5-4a2d-b4ae-d4cb5afeea0e","1000","
                  <p style=""text-align: center;"">₪11
                                                <br>25%</p>
                  <p id=""wtp"" style=""text-align:center; margin-top: 0px; margin-bottom: 0px; font-size: 40px"";>&ensp;</p>","-","viewing","0","5","12A,27B,28B,30B","","","","","","","","","","","","","","","","","","","","","",""
"","","","","","html-slider-response","61","189674","0.0-17.0-1.14","bd7393dd-41f5-4a2d-b4ae-d4cb5afeea0e","823","
                  <p style=""text-align: center;"">₪11
                                                <br>25%</p>
                  <p id=""wtp"" style=""text-align:center; margin-top: 0px; margin-bottom: 0px; font-size: 40px"";>מוכנים לשלם: <span id=""c_p_y""></span></p>","36","evaluation","29","5","12A,27B,28B,30B","25","11","36","","","","","","","","","","","","","","","","","","",""
"","","","","","html-keyboard-response","62","191109","0.0-17.0-2.14","bd7393dd-41f5-4a2d-b4ae-d4cb5afeea0e","null","<p style=""text-align: center;"">+</p>","null","fixation","","","","","","","","","","","","","","","","","","","","","","","","",""
"","","","","","html-slider-response","63","192118","0.0-17.0-0.15","bd7393dd-41f5-4a2d-b4ae-d4cb5afeea0e","1000","
                  <p style=""text-align: center;"">₪18
                                                <br>25%</p>
                  <p id=""wtp"" style=""text-align:center; margin-top: 0px; margin-bottom: 0px; font-size: 40px"";>&ensp;</p>","-","viewing","0","9","14A,23A","","","","","","","","","","","","","","","","","","","","","",""
"","","","","","html-slider-response","64","192867","0.0-17.0-1.15","bd7393dd-41f5-4a2d-b4ae-d4cb5afeea0e","747","
                  <p style=""text-align: center;"">₪18
                                                <br>25%</p>
                  <p id=""wtp"" style=""text-align:center; margin-top: 0px; margin-bottom: 0px; font-size: 40px"";>מוכנים לשלם: <span id=""c_p_y""></span></p>","39","evaluation","55","9","14A,23A","25","18","39","","","","","","","","","","","","","","","","","","",""
"","","","","","html-keyboard-response","65","193665","0.0-17.0-2.15","bd7393dd-41f5-4a2d-b4ae-d4cb5afeea0e","null","<p style=""text-align: center;"">+</p>","null","fixation","","","","","","","","","","","","","","","","","","","","","","","","",""
"","","","","","html-slider-response","66","194666","0.0-17.0-0.16","bd7393dd-41f5-4a2d-b4ae-d4cb5afeea0e","1000","
                  <p style=""text-align: center;"">₪79
                                                <br>40%</p>
                  <p id=""wtp"" style=""text-align:center; margin-top: 0px; margin-bottom: 0px; font-size: 40px"";>&ensp;</p>","-","viewing","0","30","9B","","","","","","","","","","","","","","","","","","","","","",""
"","","","","","html-slider-response","67","196235","0.0-17.0-1.16","bd7393dd-41f5-4a2d-b4ae-d4cb5afeea0e","1568","
                  <p style=""text-align: center;"">₪79
                                                <br>40%</p>
                  <p id=""wtp"" style=""text-align:center; margin-top: 0px; margin-bottom: 0px; font-size: 40px"";>מוכנים לשלם: <span id=""c_p_y""></span></p>","76","evaluation","45","30","9B","40","79","76","","","","","","","","","","","","","","","","","","",""
"","","","","","html-keyboard-response","68","197636","0.0-17.0-2.16","bd7393dd-41f5-4a2d-b4ae-d4cb5afeea0e","null","<p style=""text-align: center;"">+</p>","null","fixation","","","","","","","","","","","","","","","","","","","","","","","","",""
"","","","","","html-slider-response","69","198638","0.0-17.0-0.17","bd7393dd-41f5-4a2d-b4ae-d4cb5afeea0e","1000","
                  <p style=""text-align: center;"">₪64
                                                <br>50%</p>
                  <p id=""wtp"" style=""text-align:center; margin-top: 0px; margin-bottom: 0px; font-size: 40px"";>&ensp;</p>","-","viewing","0","25","1B,3B,4A","","","","","","","","","","","","","","","","","","","","","",""
"","","","","","html-slider-response","70","200842","0.0-17.0-1.17","bd7393dd-41f5-4a2d-b4ae-d4cb5afeea0e","2203","
                  <p style=""text-align: center;"">₪64
                                                <br>50%</p>
                  <p id=""wtp"" style=""text-align:center; margin-top: 0px; margin-bottom: 0px; font-size: 40px"";>מוכנים לשלם: <span id=""c_p_y""></span></p>","65","evaluation","36","25","1B,3B,4A","50","64","65","","","","","","","","","","","","","","","","","","",""
"","","","","","html-keyboard-response","71","202338","0.0-17.0-2.17","bd7393dd-41f5-4a2d-b4ae-d4cb5afeea0e","null","<p style=""text-align: center;"">+</p>","null","fixation","","","","","","","","","","","","","","","","","","","","","","","","",""
"","","","","","html-slider-response","72","203340","0.0-17.0-0.18","bd7393dd-41f5-4a2d-b4ae-d4cb5afeea0e","1000","
                  <p style=""text-align: center;"">₪43
                                                <br>75%</p>
                  <p id=""wtp"" style=""text-align:center; margin-top: 0px; margin-bottom: 0px; font-size: 40px"";>&ensp;</p>","-","viewing","0","18","11B,19B,24A,26A","","","","","","","","","","","","","","","","","","","","","",""
"","","","","","html-slider-response","73","205451","0.0-17.0-1.18","bd7393dd-41f5-4a2d-b4ae-d4cb5afeea0e","2110","
                  <p style=""text-align: center;"">₪43
                                                <br>75%</p>
                  <p id=""wtp"" style=""text-align:center; margin-top: 0px; margin-bottom: 0px; font-size: 40px"";>מוכנים לשלם: <span id=""c_p_y""></span></p>","41","evaluation","47","18","11B,19B,24A,26A","75","43","41","","","","","","","","","","","","","","","","","","",""
"","","","","","html-keyboard-response","74","206446","0.0-17.0-2.18","bd7393dd-41f5-4a2d-b4ae-d4cb5afeea0e","null","<p style=""text-align: center;"">+</p>","null","fixation","","","","","","","","","","","","","","","","","","","","","","","","",""
"","","","","","html-slider-response","75","207448","0.0-17.0-0.19","bd7393dd-41f5-4a2d-b4ae-d4cb5afeea0e","1000","
                  <p style=""text-align: center;"">₪16
                                                <br>20%</p>
                  <p id=""wtp"" style=""text-align:center; margin-top: 0px; margin-bottom: 0px; font-size: 40px"";>&ensp;</p>","-","viewing","0","8","14C,17A,20C,27A","","","","","","","","","","","","","","","","","","","","","",""
"","","","","","html-slider-response","76","208747","0.0-17.0-1.19","bd7393dd-41f5-4a2d-b4ae-d4cb5afeea0e","1297","
                  <p style=""text-align: center;"">₪16
                                                <br>20%</p>
                  <p id=""wtp"" style=""text-align:center; margin-top: 0px; margin-bottom: 0px; font-size: 40px"";>מוכנים לשלם: <span id=""c_p_y""></span></p>","27","evaluation","22","8","14C,17A,20C,27A","20","16","27","","","","","","","","","","","","","","","","","","",""
"","","","","","html-keyboard-response","77","209413","0.0-17.0-2.19","bd7393dd-41f5-4a2d-b4ae-d4cb5afeea0e","null","<p style=""text-align: center;"">+</p>","null","fixation","","","","","","","","","","","","","","","","","","","","","","","","",""
"","","","","","html-slider-response","78","210417","0.0-17.0-0.20","bd7393dd-41f5-4a2d-b4ae-d4cb5afeea0e","1000","
                  <p style=""text-align: center;"">₪18
                                                <br>50%</p>
                  <p id=""wtp"" style=""text-align:center; margin-top: 0px; margin-bottom: 0px; font-size: 40px"";>&ensp;</p>","-","viewing","0","10","2C,16C,22B,28A","","","","","","","","","","","","","","","","","","","","","",""
"","","","","","html-slider-response","79","212059","0.0-17.0-1.20","bd7393dd-41f5-4a2d-b4ae-d4cb5afeea0e","1641","
                  <p style=""text-align: center;"">₪18
                                                <br>50%</p>
                  <p id=""wtp"" style=""text-align:center; margin-top: 0px; margin-bottom: 0px; font-size: 40px"";>מוכנים לשלם: <span id=""c_p_y""></span></p>","33","evaluation","55","10","2C,16C,22B,28A","50","18","33","","","","","","","","","","","","","","","","","","",""
"","","","","","html-keyboard-response","80","212868","0.0-17.0-2.20","bd7393dd-41f5-4a2d-b4ae-d4cb5afeea0e","null","<p style=""text-align: center;"">+</p>","null","fixation","","","","","","","","","","","","","","","","","","","","","","","","",""
"","","","","","html-slider-response","81","213874","0.0-17.0-0.21","bd7393dd-41f5-4a2d-b4ae-d4cb5afeea0e","1000","
                  <p style=""text-align: center;"">₪61
                                                <br>55%</p>
                  <p id=""wtp"" style=""text-align:center; margin-top: 0px; margin-bottom: 0px; font-size: 40px"";>&ensp;</p>","-","viewing","0","23","7B,26B","","","","","","","","","","","","","","","","","","","","","",""
"","","","","","html-slider-response","82","216003","0.0-17.0-1.21","bd7393dd-41f5-4a2d-b4ae-d4cb5afeea0e","2129","
                  <p style=""text-align: center;"">₪61
                                                <br>55%</p>
                  <p id=""wtp"" style=""text-align:center; margin-top: 0px; margin-bottom: 0px; font-size: 40px"";>מוכנים לשלם: <span id=""c_p_y""></span></p>","65","evaluation","34","23","7B,26B","55","61","65","","","","","","","","","","","","","","","","","","",""
"","","","","","html-keyboard-response","83","216573","0.0-17.0-2.21","bd7393dd-41f5-4a2d-b4ae-d4cb5afeea0e","null","<p style=""text-align: center;"">+</p>","null","fixation","","","","","","","","","","","","","","","","","","","","","","","","",""
"","","","","","html-slider-response","84","217576","0.0-17.0-0.22","bd7393dd-41f5-4a2d-b4ae-d4cb5afeea0e","1000","
                  <p style=""text-align: center;"">₪58
                                                <br>45%</p>
                  <p id=""wtp"" style=""text-align:center; margin-top: 0px; margin-bottom: 0px; font-size: 40px"";>&ensp;</p>","-","viewing","0","21","11C,18C,25A","","","","","","","","","","","","","","","","","","","","","",""
"","","","","","html-slider-response","85","218811","0.0-17.0-1.22","bd7393dd-41f5-4a2d-b4ae-d4cb5afeea0e","1235","
                  <p style=""text-align: center;"">₪58
                                                <br>45%</p>
                  <p id=""wtp"" style=""text-align:center; margin-top: 0px; margin-bottom: 0px; font-size: 40px"";>מוכנים לשלם: <span id=""c_p_y""></span></p>","69","evaluation","41","21","11C,18C,25A","45","58","69","","","","","","","","","","","","","","","","","","",""
"","","","","","html-keyboard-response","86","219774","0.0-17.0-2.22","bd7393dd-41f5-4a2d-b4ae-d4cb5afeea0e","null","<p style=""text-align: center;"">+</p>","null","fixation","","","","","","","","","","","","","","","","","","","","","","","","",""
"","","","","","html-slider-response","87","220776","0.0-17.0-0.23","bd7393dd-41f5-4a2d-b4ae-d4cb5afeea0e","1000","
                  <p style=""text-align: center;"">₪4
                                                <br>25%</p>
                  <p id=""wtp"" style=""text-align:center; margin-top: 0px; margin-bottom: 0px; font-size: 40px"";>&ensp;</p>","-","viewing","0","1","6C,29B,30C","","","","","","","","","","","","","","","","","","","","","",""
"","","","","","html-slider-response","88","221731","0.0-17.0-1.23","bd7393dd-41f5-4a2d-b4ae-d4cb5afeea0e","955","
                  <p style=""text-align: center;"">₪4
                                                <br>25%</p>
                  <p id=""wtp"" style=""text-align:center; margin-top: 0px; margin-bottom: 0px; font-size: 40px"";>מוכנים לשלם: <span id=""c_p_y""></span></p>","29","evaluation","24","1","6C,29B,30C","25","4","29","","","","","","","","","","","","","","","","","","",""
"","","","","","html-keyboard-response","89","222589","0.0-17.0-2.23","bd7393dd-41f5-4a2d-b4ae-d4cb5afeea0e","null","<p style=""text-align: center;"">+</p>","null","fixation","","","","","","","","","","","","","","","","","","","","","","","","",""
"","","","","","html-slider-response","90","223595","0.0-17.0-0.24","bd7393dd-41f5-4a2d-b4ae-d4cb5afeea0e","1000","
                  <p style=""text-align: center;"">₪43
                                                <br>60%</p>
                  <p id=""wtp"" style=""text-align:center; margin-top: 0px; margin-bottom: 0px; font-size: 40px"";>&ensp;</p>","-","viewing","0","17","2A,7A,9A,15B","","","","","","","","","","","","","","","","","","","","","",""
"","","","","","html-slider-response","91","226698","0.0-17.0-1.24","bd7393dd-41f5-4a2d-b4ae-d4cb5afeea0e","3103","
                  <p style=""text-align: center;"">₪43
                                                <br>60%</p>
                  <p id=""wtp"" style=""text-align:center; margin-top: 0px; margin-bottom: 0px; font-size: 40px"";>מוכנים לשלם: <span id=""c_p_y""></span></p>","60","evaluation","69","17","2A,7A,9A,15B","60","43","60","","","","","","","","","","","","","","","","","","",""
"","","","","","html-keyboard-response","92","227648","0.0-17.0-2.24","bd7393dd-41f5-4a2d-b4ae-d4cb5afeea0e","null","<p style=""text-align: center;"">+</p>","null","fixation","","","","","","","","","","","","","","","","","","","","","","","","",""
"","","","","","html-slider-response","93","228650","0.0-17.0-0.25","bd7393dd-41f5-4a2d-b4ae-d4cb5afeea0e","1000","
                  <p style=""text-align: center;"">₪4
                                                <br>50%</p>
                  <p id=""wtp"" style=""text-align:center; margin-top: 0px; margin-bottom: 0px; font-size: 40px"";>&ensp;</p>","-","viewing","0","2","4C,17B","","","","","","","","","","","","","","","","","","","","","",""
"","","","","","html-slider-response","94","229379","0.0-17.0-1.25","bd7393dd-41f5-4a2d-b4ae-d4cb5afeea0e","728","
                  <p style=""text-align: center;"">₪4
                                                <br>50%</p>
                  <p id=""wtp"" style=""text-align:center; margin-top: 0px; margin-bottom: 0px; font-size: 40px"";>מוכנים לשלם: <span id=""c_p_y""></span></p>","33","evaluation","47","2","4C,17B","50","4","33","","","","","","","","","","","","","","","","","","",""
"","","","","","html-keyboard-response","95","230352","0.0-17.0-2.25","bd7393dd-41f5-4a2d-b4ae-d4cb5afeea0e","null","<p style=""text-align: center;"">+</p>","null","fixation","","","","","","","","","","","","","","","","","","","","","","","","",""
"","","","","","html-slider-response","96","231354","0.0-17.0-0.26","bd7393dd-41f5-4a2d-b4ae-d4cb5afeea0e","1000","
                  <p style=""text-align: center;"">₪58
                                                <br>30%</p>
                  <p id=""wtp"" style=""text-align:center; margin-top: 0px; margin-bottom: 0px; font-size: 40px"";>&ensp;</p>","-","viewing","0","19","13C,30A","","","","","","","","","","","","","","","","","","","","","",""
"","","","","","html-slider-response","97","232667","0.0-17.0-1.26","bd7393dd-41f5-4a2d-b4ae-d4cb5afeea0e","1311","
                  <p style=""text-align: center;"">₪58
                                                <br>30%</p>
                  <p id=""wtp"" style=""text-align:center; margin-top: 0px; margin-bottom: 0px; font-size: 40px"";>מוכנים לשלם: <span id=""c_p_y""></span></p>","71","evaluation","16","19","13C,30A","30","58","71","","","","","","","","","","","","","","","","","","",""
"","","","","","html-keyboard-response","98","233788","0.0-17.0-2.26","bd7393dd-41f5-4a2d-b4ae-d4cb5afeea0e","null","<p style=""text-align: center;"">+</p>","null","fixation","","","","","","","","","","","","","","","","","","","","","","","","",""
"","","","","","html-slider-response","99","234790","0.0-17.0-0.27","bd7393dd-41f5-4a2d-b4ae-d4cb5afeea0e","1000","
                  <p style=""text-align: center;"">₪39
                                                <br>60%</p>
                  <p id=""wtp"" style=""text-align:center; margin-top: 0px; margin-bottom: 0px; font-size: 40px"";>&ensp;</p>","-","viewing","0","15","9C,25B","","","","","","","","","","","","","","","","","","","","","",""
"","","","","","html-slider-response","100","235811","0.0-17.0-1.27","bd7393dd-41f5-4a2d-b4ae-d4cb5afeea0e","1019","
                  <p style=""text-align: center;"">₪39
                                                <br>60%</p>
                  <p id=""wtp"" style=""text-align:center; margin-top: 0px; margin-bottom: 0px; font-size: 40px"";>מוכנים לשלם: <span id=""c_p_y""></span></p>","55","evaluation","12","15","9C,25B","60","39","55","","","","","","","","","","","","","","","","","","",""
"","","","","","html-keyboard-response","101","236905","0.0-17.0-2.27","bd7393dd-41f5-4a2d-b4ae-d4cb5afeea0e","null","<p style=""text-align: center;"">+</p>","null","fixation","","","","","","","","","","","","","","","","","","","","","","","","",""
"","","","","","html-slider-response","102","237912","0.0-17.0-0.28","bd7393dd-41f5-4a2d-b4ae-d4cb5afeea0e","1000","
                  <p style=""text-align: center;"">₪36
                                                <br>30%</p>
                  <p id=""wtp"" style=""text-align:center; margin-top: 0px; margin-bottom: 0px; font-size: 40px"";>&ensp;</p>","-","viewing","0","11","3C,20A,22A","","","","","","","","","","","","","","","","","","","","","",""
"","","","","","html-slider-response","103","239291","0.0-17.0-1.28","bd7393dd-41f5-4a2d-b4ae-d4cb5afeea0e","1378","
                  <p style=""text-align: center;"">₪36
                                                <br>30%</p>
                  <p id=""wtp"" style=""text-align:center; margin-top: 0px; margin-bottom: 0px; font-size: 40px"";>מוכנים לשלם: <span id=""c_p_y""></span></p>","65","evaluation","8","11","3C,20A,22A","30","36","65","","","","","","","","","","","","","","","","","","",""
"","","","","","html-keyboard-response","104","240213","0.0-17.0-2.28","bd7393dd-41f5-4a2d-b4ae-d4cb5afeea0e","null","<p style=""text-align: center;"">+</p>","null","fixation","","","","","","","","","","","","","","","","","","","","","","","","",""
"","","","","","html-slider-response","105","241216","0.0-17.0-0.29","bd7393dd-41f5-4a2d-b4ae-d4cb5afeea0e","1000","
                  <p style=""text-align: center;"">₪71
                                                <br>45%</p>
                  <p id=""wtp"" style=""text-align:center; margin-top: 0px; margin-bottom: 0px; font-size: 40px"";>&ensp;</p>","-","viewing","0","26","2B,16A","","","","","","","","","","","","","","","","","","","","","",""
"","","","","","html-slider-response","106","241764","0.0-17.0-1.29","bd7393dd-41f5-4a2d-b4ae-d4cb5afeea0e","547","
                  <p style=""text-align: center;"">₪71
                                                <br>45%</p>
                  <p id=""wtp"" style=""text-align:center; margin-top: 0px; margin-bottom: 0px; font-size: 40px"";>מוכנים לשלם: <span id=""c_p_y""></span></p>","72","evaluation","47","26","2B,16A","45","71","72","","","","","","","","","","","","","","","","","","",""
"","","","","","html-keyboard-response","107","243242","0.0-17.0-2.29","bd7393dd-41f5-4a2d-b4ae-d4cb5afeea0e","null","<p style=""text-align: center;"">+</p>","null","fixation","","","","","","","","","","","","","","","","","","","","","","","","",""
"","","","","","html-slider-response","108","244244","0.0-17.0-0.30","bd7393dd-41f5-4a2d-b4ae-d4cb5afeea0e","1000","
                  <p style=""text-align: center;"">₪58
                                                <br>40%</p>
                  <p id=""wtp"" style=""text-align:center; margin-top: 0px; margin-bottom: 0px; font-size: 40px"";>&ensp;</p>","-","viewing","0","20","10C,13A,19C,21B","","","","","","","","","","","","","","","","","","","","","",""
"","","","","","html-slider-response","109","245379","0.0-17.0-1.30","bd7393dd-41f5-4a2d-b4ae-d4cb5afeea0e","1134","
                  <p style=""text-align: center;"">₪58
                                                <br>40%</p>
                  <p id=""wtp"" style=""text-align:center; margin-top: 0px; margin-bottom: 0px; font-size: 40px"";>מוכנים לשלם: <span id=""c_p_y""></span></p>","60","evaluation","14","20","10C,13A,19C,21B","40","58","60","","","","","","","","","","","","","","","","","","",""
"","","","","","html-keyboard-response","110","246598","0.0-17.0-2.30","bd7393dd-41f5-4a2d-b4ae-d4cb5afeea0e","null","<p style=""text-align: center;"">+</p>","null","fixation","","","","","","","","","","","","","","","","","","","","","","","","",""
"","","","","","html-keyboard-response","111","247606","0.0-18.0","bd7393dd-41f5-4a2d-b4ae-d4cb5afeea0e","null","<p style=""text-align: center;"">+</p>","null","fixation","","","","","","","","","","","","","","","","","","","","","","","","",""
"","","","","","html-keyboard-response","112","252387","0.0-19.0","bd7393dd-41f5-4a2d-b4ae-d4cb5afeea0e","null","<p>הפסקה.
          <br>לחצו כדי להמשיך.</p>","1","scan_wait","","","","","","","","","","","","","","","","","","","","","","","","",""
"","","","","","html-keyboard-response","113","253388","0.0-20.0","bd7393dd-41f5-4a2d-b4ae-d4cb5afeea0e","null","<p style=""text-align: center;"">+</p>","null","fixation","","","","","","","","","","","","","","","","","","","","","","","","",""
"","","","","","html-slider-response","114","254390","0.0-21.0-0.0","bd7393dd-41f5-4a2d-b4ae-d4cb5afeea0e","1000","
                  <p style=""text-align: center;"">₪11
                                                <br>20%</p>
                  <p id=""wtp"" style=""text-align:center; margin-top: 0px; margin-bottom: 0px; font-size: 40px"";>&ensp;</p>","-","viewing","0","4","12C,17C,23C,28C","","","","","","","","","","","","","","","","","","","","","",""
"","","","","","html-slider-response","115","257115","0.0-21.0-1.0","bd7393dd-41f5-4a2d-b4ae-d4cb5afeea0e","2725","
                  <p style=""text-align: center;"">₪11
                                                <br>20%</p>
                  <p id=""wtp"" style=""text-align:center; margin-top: 0px; margin-bottom: 0px; font-size: 40px"";>מוכנים לשלם: <span id=""c_p_y""></span></p>","35","evaluation","77","4","12C,17C,23C,28C","20","11","35","","","","","","","","","","","","","","","","","","",""
"","","","","","html-keyboard-response","116","258004","0.0-21.0-2.0","bd7393dd-41f5-4a2d-b4ae-d4cb5afeea0e","null","<p style=""text-align: center;"">+</p>","null","fixation","","","","","","","","","","","","","","","","","","","","","","","","",""
"","","","","","html-slider-response","117","259009","0.0-21.0-0.1","bd7393dd-41f5-4a2d-b4ae-d4cb5afeea0e","1000","
                  <p style=""text-align: center;"">₪11
                                                <br>25%</p>
                  <p id=""wtp"" style=""text-align:center; margin-top: 0px; margin-bottom: 0px; font-size: 40px"";>&ensp;</p>","-","viewing","0","5","12A,27B,28B,30B","","","","","","","","","","","","","","","","","","","","","",""
"","","","","","html-slider-response","118","259707","0.0-21.0-1.1","bd7393dd-41f5-4a2d-b4ae-d4cb5afeea0e","697","
                  <p style=""text-align: center;"">₪11
                                                <br>25%</p>
                  <p id=""wtp"" style=""text-align:center; margin-top: 0px; margin-bottom: 0px; font-size: 40px"";>מוכנים לשלם: <span id=""c_p_y""></span></p>","39","evaluation","9","5","12A,27B,28B,30B","25","11","39","","","","","","","","","","","","","","","","","","",""
"","","","","","html-keyboard-response","119","260260","0.0-21.0-2.1","bd7393dd-41f5-4a2d-b4ae-d4cb5afeea0e","null","<p style=""text-align: center;"">+</p>","null","fixation","","","","","","","","","","","","","","","","","","","","","","","","",""
"","","","","","html-slider-response","120","261268","0.0-21.0-0.2","bd7393dd-41f5-4a2d-b4ae-d4cb5afeea0e","1000","
                  <p style=""text-align: center;"">₪58
                                                <br>40%</p>
                  <p id=""wtp"" style=""text-align:center; margin-top: 0px; margin-bottom: 0px; font-size: 40px"";>&ensp;</p>","-","viewing","0","20","10C,13A,19C,21B","","","","","","","","","","","","","","","","","","","","","",""
"","","","","","html-slider-response","121","263299","0.0-21.0-1.2","bd7393dd-41f5-4a2d-b4ae-d4cb5afeea0e","2030","
                  <p style=""text-align: center;"">₪58
                                                <br>40%</p>
                  <p id=""wtp"" style=""text-align:center; margin-top: 0px; margin-bottom: 0px; font-size: 40px"";>מוכנים לשלם: <span id=""c_p_y""></span></p>","69","evaluation","41","20","10C,13A,19C,21B","40","58","69","","","","","","","","","","","","","","","","","","",""
"","","","","","html-keyboard-response","122","263895","0.0-21.0-2.2","bd7393dd-41f5-4a2d-b4ae-d4cb5afeea0e","null","<p style=""text-align: center;"">+</p>","null","fixation","","","","","","","","","","","","","","","","","","","","","","","","",""
"","","","","","html-slider-response","123","264903","0.0-21.0-0.3","bd7393dd-41f5-4a2d-b4ae-d4cb5afeea0e","1000","
                  <p style=""text-align: center;"">₪43
                                                <br>75%</p>
                  <p id=""wtp"" style=""text-align:center; margin-top: 0px; margin-bottom: 0px; font-size: 40px"";>&ensp;</p>","-","viewing","0","18","11B,19B,24A,26A","","","","","","","","","","","","","","","","","","","","","",""
"","","","","","html-slider-response","124","266483","0.0-21.0-1.3","bd7393dd-41f5-4a2d-b4ae-d4cb5afeea0e","1579","
                  <p style=""text-align: center;"">₪43
                                                <br>75%</p>
                  <p id=""wtp"" style=""text-align:center; margin-top: 0px; margin-bottom: 0px; font-size: 40px"";>מוכנים לשלם: <span id=""c_p_y""></span></p>","70","evaluation","63","18","11B,19B,24A,26A","75","43","69","","","","","","","","","","","","","","","","","","",""
"","","","","","html-keyboard-response","125","267393","0.0-21.0-2.3","bd7393dd-41f5-4a2d-b4ae-d4cb5afeea0e","null","<p style=""text-align: center;"">+</p>","null","fixation","","","","","","","","","","","","","","","","","","","","","","","","",""
"","","","","","html-slider-response","126","268406","0.0-21.0-0.4","bd7393dd-41f5-4a2d-b4ae-d4cb5afeea0e","1000","
                  <p style=""text-align: center;"">₪39
                                                <br>60%</p>
                  <p id=""wtp"" style=""text-align:center; margin-top: 0px; margin-bottom: 0px; font-size: 40px"";>&ensp;</p>","-","viewing","0","15","9C,25B","","","","","","","","","","","","","","","","","","","","","",""
"","","","","","html-slider-response","127","269427","0.0-21.0-1.4","bd7393dd-41f5-4a2d-b4ae-d4cb5afeea0e","1020","
                  <p style=""text-align: center;"">₪39
                                                <br>60%</p>
                  <p id=""wtp"" style=""text-align:center; margin-top: 0px; margin-bottom: 0px; font-size: 40px"";>מוכנים לשלם: <span id=""c_p_y""></span></p>","72","evaluation","19","15","9C,25B","60","39","72","","","","","","","","","","","","","","","","","","",""
"","","","","","html-keyboard-response","128","270533","0.0-21.0-2.4","bd7393dd-41f5-4a2d-b4ae-d4cb5afeea0e","null","<p style=""text-align: center;"">+</p>","null","fixation","","","","","","","","","","","","","","","","","","","","","","","","",""
"","","","","","html-slider-response","129","271539","0.0-21.0-0.5","bd7393dd-41f5-4a2d-b4ae-d4cb5afeea0e","1000","
                  <p style=""text-align: center;"">₪11
                                                <br>75%</p>
                  <p id=""wtp"" style=""text-align:center; margin-top: 0px; margin-bottom: 0px; font-size: 40px"";>&ensp;</p>","-","viewing","0","7","6B,18B,22C,24C,29A","","","","","","","","","","","","","","","","","","","","","",""
"","","","","","html-slider-response","130","272442","0.0-21.0-1.5","bd7393dd-41f5-4a2d-b4ae-d4cb5afeea0e","903","
                  <p style=""text-align: center;"">₪11
                                                <br>75%</p>
                  <p id=""wtp"" style=""text-align:center; margin-top: 0px; margin-bottom: 0px; font-size: 40px"";>מוכנים לשלם: <span id=""c_p_y""></span></p>","61","evaluation","50","7","6B,18B,22C,24C,29A","75","11","60","","","","","","","","","","","","","","","","","","",""
"","","","","","html-keyboard-response","131","273053","0.0-21.0-2.5","bd7393dd-41f5-4a2d-b4ae-d4cb5afeea0e","null","<p style=""text-align: center;"">+</p>","null","fixation","","","","","","","","","","","","","","","","","","","","","","","","",""
"","","","","","html-slider-response","132","274057","0.0-21.0-0.6","bd7393dd-41f5-4a2d-b4ae-d4cb5afeea0e","1000","
                  <p style=""text-align: center;"">₪71
                                                <br>75%</p>
                  <p id=""wtp"" style=""text-align:center; margin-top: 0px; margin-bottom: 0px; font-size: 40px"";>&ensp;</p>","-","viewing","0","28","8B","","","","","","","","","","","","","","","","","","","","","",""
"","","","","","html-slider-response","133","275083","0.0-21.0-1.6","bd7393dd-41f5-4a2d-b4ae-d4cb5afeea0e","1025","
                  <p style=""text-align: center;"">₪71
                                                <br>75%</p>
                  <p id=""wtp"" style=""text-align:center; margin-top: 0px; margin-bottom: 0px; font-size: 40px"";>מוכנים לשלם: <span id=""c_p_y""></span></p>","77","evaluation","70","28","8B","75","71","77","","","","","","","","","","","","","","","","","","",""
"","","","","","html-keyboard-response","134","275963","0.0-21.0-2.6","bd7393dd-41f5-4a2d-b4ae-d4cb5afeea0e","null","<p style=""text-align: center;"">+</p>","null","fixation","","","","","","","","","","","","","","","","","","","","","","","","",""
"","","","","","html-slider-response","135","276965","0.0-21.0-0.7","bd7393dd-41f5-4a2d-b4ae-d4cb5afeea0e","1000","
                  <p style=""text-align: center;"">₪79
                                                <br>65%</p>
                  <p id=""wtp"" style=""text-align:center; margin-top: 0px; margin-bottom: 0px; font-size: 40px"";>&ensp;</p>","-","viewing","0","31","8A","","","","","","","","","","","","","","","","","","","","","",""
"","","","","","html-slider-response","136","278083","0.0-21.0-1.7","bd7393dd-41f5-4a2d-b4ae-d4cb5afeea0e","1117","
                  <p style=""text-align: center;"">₪79
                                                <br>65%</p>
                  <p id=""wtp"" style=""text-align:center; margin-top: 0px; margin-bottom: 0px; font-size: 40px"";>מוכנים לשלם: <span id=""c_p_y""></span></p>","80","evaluation","7","31","8A","65","79","80","","","","","","","","","","","","","","","","","","",""
"","","","","","html-keyboard-response","137","279081","0.0-21.0-2.7","bd7393dd-41f5-4a2d-b4ae-d4cb5afeea0e","null","<p style=""text-align: center;"">+</p>","null","fixation","","","","","","","","","","","","","","","","","","","","","","","","",""
"","","","","","html-slider-response","138","280083","0.0-21.0-0.8","bd7393dd-41f5-4a2d-b4ae-d4cb5afeea0e","1000","
                  <p style=""text-align: center;"">₪36
                                                <br>60%</p>
                  <p id=""wtp"" style=""text-align:center; margin-top: 0px; margin-bottom: 0px; font-size: 40px"";>&ensp;</p>","-","viewing","0","12","1C,7C,15C","","","","","","","","","","","","","","","","","","","","","",""
"","","","","","html-slider-response","139","280827","0.0-21.0-1.8","bd7393dd-41f5-4a2d-b4ae-d4cb5afeea0e","743","
                  <p style=""text-align: center;"">₪36
                                                <br>60%</p>
                  <p id=""wtp"" style=""text-align:center; margin-top: 0px; margin-bottom: 0px; font-size: 40px"";>מוכנים לשלם: <span id=""c_p_y""></span></p>","53","evaluation","36","12","1C,7C,15C","60","36","53","","","","","","","","","","","","","","","","","","",""
"","","","","","html-keyboard-response","140","281798","0.0-21.0-2.8","bd7393dd-41f5-4a2d-b4ae-d4cb5afeea0e","null","<p style=""text-align: center;"">+</p>","null","fixation","","","","","","","","","","","","","","","","","","","","","","","","",""
"","","","","","html-slider-response","141","282801","0.0-21.0-0.9","bd7393dd-41f5-4a2d-b4ae-d4cb5afeea0e","1000","
                  <p style=""text-align: center;"">₪4
                                                <br>75%</p>
                  <p id=""wtp"" style=""text-align:center; margin-top: 0px; margin-bottom: 0px; font-size: 40px"";>&ensp;</p>","-","viewing","0","3","12B,20B,23B,27C,29C","","","","","","","","","","","","","","","","","","","","","",""
"","","","","","html-slider-response","142","283427","0.0-21.0-1.9","bd7393dd-41f5-4a2d-b4ae-d4cb5afeea0e","626","
                  <p style=""text-align: center;"">₪4
                                                <br>75%</p>
                  <p id=""wtp"" style=""text-align:center; margin-top: 0px; margin-bottom: 0px; font-size: 40px"";>מוכנים לשלם: <span id=""c_p_y""></span></p>","37","evaluation","48","3","12B,20B,23B,27C,29C","75","4","37","","","","","","","","","","","","","","","","","","",""
"","","","","","html-keyboard-response","143","284815","0.0-21.0-2.9","bd7393dd-41f5-4a2d-b4ae-d4cb5afeea0e","null","<p style=""text-align: center;"">+</p>","null","fixation","","","","","","","","","","","","","","","","","","","","","","","","",""
"","","","","","html-slider-response","144","285818","0.0-21.0-0.10","bd7393dd-41f5-4a2d-b4ae-d4cb5afeea0e","1000","
                  <p style=""text-align: center;"">₪71
                                                <br>55%</p>
                  <p id=""wtp"" style=""text-align:center; margin-top: 0px; margin-bottom: 0px; font-size: 40px"";>&ensp;</p>","-","viewing","0","27","5B,18A","","","","","","","","","","","","","","","","","","","","","",""
"","","","","","html-slider-response","145","286739","0.0-21.0-1.10","bd7393dd-41f5-4a2d-b4ae-d4cb5afeea0e","920","
                  <p style=""text-align: center;"">₪71
                                                <br>55%</p>
                  <p id=""wtp"" style=""text-align:center; margin-top: 0px; margin-bottom: 0px; font-size: 40px"";>מוכנים לשלם: <span id=""c_p_y""></span></p>","80","evaluation","15","27","5B,18A","55","71","80","","","","","","","","","","","","","","","","","","",""
"","","","","","html-keyboard-response","146","287250","0.0-21.0-2.10","bd7393dd-41f5-4a2d-b4ae-d4cb5afeea0e","null","<p style=""text-align: center;"">+</p>","null","fixation","","","","","","","","","","","","","","","","","","","","","","","","",""
"","","","","","html-slider-response","147","288252","0.0-21.0-0.11","bd7393dd-41f5-4a2d-b4ae-d4cb5afeea0e","1000","
                  <p style=""text-align: center;"">₪16
                                                <br>20%</p>
                  <p id=""wtp"" style=""text-align:center; margin-top: 0px; margin-bottom: 0px; font-size: 40px"";>&ensp;</p>","-","viewing","0","8","14C,17A,20C,27A","","","","","","","","","","","","","","","","","","","","","",""
"","","","","","html-slider-response","148","289371","0.0-21.0-1.11","bd7393dd-41f5-4a2d-b4ae-d4cb5afeea0e","1118","
                  <p style=""text-align: center;"">₪16
                                                <br>20%</p>
                  <p id=""wtp"" style=""text-align:center; margin-top: 0px; margin-bottom: 0px; font-size: 40px"";>מוכנים לשלם: <span id=""c_p_y""></span></p>","44","evaluation","14","8","14C,17A,20C,27A","20","16","44","","","","","","","","","","","","","","","","","","",""
"","","","","","html-keyboard-response","149","290328","0.0-21.0-2.11","bd7393dd-41f5-4a2d-b4ae-d4cb5afeea0e","null","<p style=""text-align: center;"">+</p>","null","fixation","","","","","","","","","","","","","","","","","","","","","","","","",""
"","","","","","html-slider-response","150","291330","0.0-21.0-0.12","bd7393dd-41f5-4a2d-b4ae-d4cb5afeea0e","1000","
                  <p style=""text-align: center;"">₪58
                                                <br>45%</p>
                  <p id=""wtp"" style=""text-align:center; margin-top: 0px; margin-bottom: 0px; font-size: 40px"";>&ensp;</p>","-","viewing","0","21","11C,18C,25A","","","","","","","","","","","","","","","","","","","","","",""
"","","","","","html-slider-response","151","293163","0.0-21.0-1.12","bd7393dd-41f5-4a2d-b4ae-d4cb5afeea0e","1833","
                  <p style=""text-align: center;"">₪58
                                                <br>45%</p>
                  <p id=""wtp"" style=""text-align:center; margin-top: 0px; margin-bottom: 0px; font-size: 40px"";>מוכנים לשלם: <span id=""c_p_y""></span></p>","76","evaluation","78","21","11C,18C,25A","45","58","76","","","","","","","","","","","","","","","","","","",""
"","","","","","html-keyboard-response","152","293859","0.0-21.0-2.12","bd7393dd-41f5-4a2d-b4ae-d4cb5afeea0e","null","<p style=""text-align: center;"">+</p>","null","fixation","","","","","","","","","","","","","","","","","","","","","","","","",""
"","","","","","html-slider-response","153","294876","0.0-21.0-0.13","bd7393dd-41f5-4a2d-b4ae-d4cb5afeea0e","1000","
                  <p style=""text-align: center;"">₪4
                                                <br>25%</p>
                  <p id=""wtp"" style=""text-align:center; margin-top: 0px; margin-bottom: 0px; font-size: 40px"";>&ensp;</p>","-","viewing","0","1","6C,29B,30C","","","","","","","","","","","","","","","","","","","","","",""
"","","","","","html-slider-response","154","295443","0.0-21.0-1.13","bd7393dd-41f5-4a2d-b4ae-d4cb5afeea0e","566","
                  <p style=""text-align: center;"">₪4
                                                <br>25%</p>
                  <p id=""wtp"" style=""text-align:center; margin-top: 0px; margin-bottom: 0px; font-size: 40px"";>מוכנים לשלם: <span id=""c_p_y""></span></p>","38","evaluation","41","1","6C,29B,30C","25","4","38","","","","","","","","","","","","","","","","","","",""
"","","","","","html-keyboard-response","155","296527","0.0-21.0-2.13","bd7393dd-41f5-4a2d-b4ae-d4cb5afeea0e","null","<p style=""text-align: center;"">+</p>","null","fixation","","","","","","","","","","","","","","","","","","","","","","","","",""
"","","","","","html-slider-response","156","297529","0.0-21.0-0.14","bd7393dd-41f5-4a2d-b4ae-d4cb5afeea0e","1000","
                  <p style=""text-align: center;"">₪71
                                                <br>45%</p>
                  <p id=""wtp"" style=""text-align:center; margin-top: 0px; margin-bottom: 0px; font-size: 40px"";>&ensp;</p>","-","viewing","0","26","2B,16A","","","","","","","","","","","","","","","","","","","","","",""
"","","","","","html-slider-response","157","298187","0.0-21.0-1.14","bd7393dd-41f5-4a2d-b4ae-d4cb5afeea0e","657","
                  <p style=""text-align: center;"">₪71
                                                <br>45%</p>
                  <p id=""wtp"" style=""text-align:center; margin-top: 0px; margin-bottom: 0px; font-size: 40px"";>מוכנים לשלם: <span id=""c_p_y""></span></p>","71","evaluation","25","26","2B,16A","45","71","71","","","","","","","","","","","","","","","","","","",""
"","","","","","html-keyboard-response","158","299544","0.0-21.0-2.14","bd7393dd-41f5-4a2d-b4ae-d4cb5afeea0e","null","<p style=""text-align: center;"">+</p>","null","fixation","","","","","","","","","","","","","","","","","","","","","","","","",""
"","","","","","html-slider-response","159","300546","0.0-21.0-0.15","bd7393dd-41f5-4a2d-b4ae-d4cb5afeea0e","1000","
                  <p style=""text-align: center;"">₪61
                                                <br>55%</p>
                  <p id=""wtp"" style=""text-align:center; margin-top: 0px; margin-bottom: 0px; font-size: 40px"";>&ensp;</p>","-","viewing","0","23","7B,26B","","","","","","","","","","","","","","","","","","","","","",""
"","","","","","html-slider-response","160","301363","0.0-21.0-1.15","bd7393dd-41f5-4a2d-b4ae-d4cb5afeea0e","816","
                  <p style=""text-align: center;"">₪61
                                                <br>55%</p>
                  <p id=""wtp"" style=""text-align:center; margin-top: 0px; margin-bottom: 0px; font-size: 40px"";>מוכנים לשלם: <span id=""c_p_y""></span></p>","80","evaluation","1","23","7B,26B","55","61","80","","","","","","","","","","","","","","","","","","",""
"","","","","","html-keyboard-response","161","302229","0.0-21.0-2.15","bd7393dd-41f5-4a2d-b4ae-d4cb5afeea0e","null","<p style=""text-align: center;"">+</p>","null","fixation","","","","","","","","","","","","","","","","","","","","","","","","",""
"","","","","","html-slider-response","162","303245","0.0-21.0-0.16","bd7393dd-41f5-4a2d-b4ae-d4cb5afeea0e","1000","
                  <p style=""text-align: center;"">₪79
                                                <br>40%</p>
                  <p id=""wtp"" style=""text-align:center; margin-top: 0px; margin-bottom: 0px; font-size: 40px"";>&ensp;</p>","-","viewing","0","30","9B","","","","","","","","","","","","","","","","","","","","","",""
"","","","","","html-slider-response","163","304203","0.0-21.0-1.16","bd7393dd-41f5-4a2d-b4ae-d4cb5afeea0e","957","
                  <p style=""text-align: center;"">₪79
                                                <br>40%</p>
                  <p id=""wtp"" style=""text-align:center; margin-top: 0px; margin-bottom: 0px; font-size: 40px"";>מוכנים לשלם: <span id=""c_p_y""></span></p>","80","evaluation","73","30","9B","40","79","80","","","","","","","","","","","","","","","","","","",""
"","","","","","html-keyboard-response","164","305508","0.0-21.0-2.16","bd7393dd-41f5-4a2d-b4ae-d4cb5afeea0e","null","<p style=""text-align: center;"">+</p>","null","fixation","","","","","","","","","","","","","","","","","","","","","","","","",""
"","","","","","html-slider-response","165","306517","0.0-21.0-0.17","bd7393dd-41f5-4a2d-b4ae-d4cb5afeea0e","1000","
                  <p style=""text-align: center;"">₪18
                                                <br>50%</p>
                  <p id=""wtp"" style=""text-align:center; margin-top: 0px; margin-bottom: 0px; font-size: 40px"";>&ensp;</p>","-","viewing","0","10","2C,16C,22B,28A","","","","","","","","","","","","","","","","","","","","","",""
"","","","","","html-slider-response","166","308595","0.0-21.0-1.17","bd7393dd-41f5-4a2d-b4ae-d4cb5afeea0e","2077","
                  <p style=""text-align: center;"">₪18
                                                <br>50%</p>
                  <p id=""wtp"" style=""text-align:center; margin-top: 0px; margin-bottom: 0px; font-size: 40px"";>מוכנים לשלם: <span id=""c_p_y""></span></p>","70","evaluation","78","10","2C,16C,22B,28A","50","18","70","","","","","","","","","","","","","","","","","","",""
"","","","","","html-keyboard-response","167","309844","0.0-21.0-2.17","bd7393dd-41f5-4a2d-b4ae-d4cb5afeea0e","null","<p style=""text-align: center;"">+</p>","null","fixation","","","","","","","","","","","","","","","","","","","","","","","","",""
"","","","","","html-slider-response","168","310848","0.0-21.0-0.18","bd7393dd-41f5-4a2d-b4ae-d4cb5afeea0e","1000","
                  <p style=""text-align: center;"">₪43
                                                <br>60%</p>
                  <p id=""wtp"" style=""text-align:center; margin-top: 0px; margin-bottom: 0px; font-size: 40px"";>&ensp;</p>","-","viewing","0","17","2A,7A,9A,15B","","","","","","","","","","","","","","","","","","","","","",""
"","","","","","html-slider-response","169","313163","0.0-21.0-1.18","bd7393dd-41f5-4a2d-b4ae-d4cb5afeea0e","2314","
                  <p style=""text-align: center;"">₪43
                                                <br>60%</p>
                  <p id=""wtp"" style=""text-align:center; margin-top: 0px; margin-bottom: 0px; font-size: 40px"";>מוכנים לשלם: <span id=""c_p_y""></span></p>","52","evaluation","4","17","2A,7A,9A,15B","60","43","52","","","","","","","","","","","","","","","","","","",""
"","","","","","html-keyboard-response","170","314389","0.0-21.0-2.18","bd7393dd-41f5-4a2d-b4ae-d4cb5afeea0e","null","<p style=""text-align: center;"">+</p>","null","fixation","","","","","","","","","","","","","","","","","","","","","","","","",""
"","","","","","html-slider-response","171","315406","0.0-21.0-0.19","bd7393dd-41f5-4a2d-b4ae-d4cb5afeea0e","1000","
                  <p style=""text-align: center;"">₪61
                                                <br>45%</p>
                  <p id=""wtp"" style=""text-align:center; margin-top: 0px; margin-bottom: 0px; font-size: 40px"";>&ensp;</p>","-","viewing","0","22","10A,11A","","","","","","","","","","","","","","","","","","","","","",""
"","","","","","html-slider-response","172","317219","0.0-21.0-1.19","bd7393dd-41f5-4a2d-b4ae-d4cb5afeea0e","1811","
                  <p style=""text-align: center;"">₪61
                                                <br>45%</p>
                  <p id=""wtp"" style=""text-align:center; margin-top: 0px; margin-bottom: 0px; font-size: 40px"";>מוכנים לשלם: <span id=""c_p_y""></span></p>","50","evaluation","53","22","10A,11A","45","61","50","","","","","","","","","","","","","","","","","","",""
"","","","","","html-keyboard-response","173","317760","0.0-21.0-2.19","bd7393dd-41f5-4a2d-b4ae-d4cb5afeea0e","null","<p style=""text-align: center;"">+</p>","null","fixation","","","","","","","","","","","","","","","","","","","","","","","","",""
"","","","","","html-slider-response","174","318776","0.0-21.0-0.20","bd7393dd-41f5-4a2d-b4ae-d4cb5afeea0e","1000","
                  <p style=""text-align: center;"">₪36
                                                <br>70%</p>
                  <p id=""wtp"" style=""text-align:center; margin-top: 0px; margin-bottom: 0px; font-size: 40px"";>&ensp;</p>","-","viewing","0","13","3A,5C,10B","","","","","","","","","","","","","","","","","","","","","",""
"","","","","","html-slider-response","175","319883","0.0-21.0-1.20","bd7393dd-41f5-4a2d-b4ae-d4cb5afeea0e","1106","
                  <p style=""text-align: center;"">₪36
                                                <br>70%</p>
                  <p id=""wtp"" style=""text-align:center; margin-top: 0px; margin-bottom: 0px; font-size: 40px"";>מוכנים לשלם: <span id=""c_p_y""></span></p>","69","evaluation","19","13","3A,5C,10B","70","36","69","","","","","","","","","","","","","","","","","","",""
"","","","","","html-keyboard-response","176","320775","0.0-21.0-2.20","bd7393dd-41f5-4a2d-b4ae-d4cb5afeea0e","null","<p style=""text-align: center;"">+</p>","null","fixation","","","","","","","","","","","","","","","","","","","","","","","","",""
"","","","","","html-slider-response","177","321777","0.0-21.0-0.21","bd7393dd-41f5-4a2d-b4ae-d4cb5afeea0e","1000","
                  <p style=""text-align: center;"">₪39
                                                <br>65%</p>
                  <p id=""wtp"" style=""text-align:center; margin-top: 0px; margin-bottom: 0px; font-size: 40px"";>&ensp;</p>","-","viewing","0","16","1A,15A,26C","","","","","","","","","","","","","","","","","","","","","",""
"","","","","","html-slider-response","178","323859","0.0-21.0-1.21","bd7393dd-41f5-4a2d-b4ae-d4cb5afeea0e","2081","
                  <p style=""text-align: center;"">₪39
                                                <br>65%</p>
                  <p id=""wtp"" style=""text-align:center; margin-top: 0px; margin-bottom: 0px; font-size: 40px"";>מוכנים לשלם: <span id=""c_p_y""></span></p>","51","evaluation","72","16","1A,15A,26C","65","39","51","","","","","","","","","","","","","","","","","","",""
"","","","","","html-keyboard-response","179","324998","0.0-21.0-2.21","bd7393dd-41f5-4a2d-b4ae-d4cb5afeea0e","null","<p style=""text-align: center;"">+</p>","null","fixation","","","","","","","","","","","","","","","","","","","","","","","","",""
"","","","","","html-slider-response","180","326001","0.0-21.0-0.22","bd7393dd-41f5-4a2d-b4ae-d4cb5afeea0e","1000","
                  <p style=""text-align: center;"">₪18
                                                <br>25%</p>
                  <p id=""wtp"" style=""text-align:center; margin-top: 0px; margin-bottom: 0px; font-size: 40px"";>&ensp;</p>","-","viewing","0","9","14A,23A","","","","","","","","","","","","","","","","","","","","","",""
"","","","","","html-slider-response","181","328971","0.0-21.0-1.22","bd7393dd-41f5-4a2d-b4ae-d4cb5afeea0e","2969","
                  <p style=""text-align: center;"">₪18
                                                <br>25%</p>
                  <p id=""wtp"" style=""text-align:center; margin-top: 0px; margin-bottom: 0px; font-size: 40px"";>מוכנים לשלם: <span id=""c_p_y""></span></p>","29","evaluation","73","9","14A,23A","25","18","29","","","","","","","","","","","","","","","","","","",""
"","","","","","html-keyboard-response","182","330270","0.0-21.0-2.22","bd7393dd-41f5-4a2d-b4ae-d4cb5afeea0e","null","<p style=""text-align: center;"">+</p>","null","fixation","","","","","","","","","","","","","","","","","","","","","","","","",""
"","","","","","html-slider-response","183","331274","0.0-21.0-0.23","bd7393dd-41f5-4a2d-b4ae-d4cb5afeea0e","1000","
                  <p style=""text-align: center;"">₪36
                                                <br>30%</p>
                  <p id=""wtp"" style=""text-align:center; margin-top: 0px; margin-bottom: 0px; font-size: 40px"";>&ensp;</p>","-","viewing","0","11","3C,20A,22A","","","","","","","","","","","","","","","","","","","","","",""
"","","","","","html-slider-response","184","332659","0.0-21.0-1.23","bd7393dd-41f5-4a2d-b4ae-d4cb5afeea0e","1384","
                  <p style=""text-align: center;"">₪36
                                                <br>30%</p>
                  <p id=""wtp"" style=""text-align:center; margin-top: 0px; margin-bottom: 0px; font-size: 40px"";>מוכנים לשלם: <span id=""c_p_y""></span></p>","78","evaluation","20","11","3C,20A,22A","30","36","77","","","","","","","","","","","","","","","","","","",""
"","","","","","html-keyboard-response","185","333771","0.0-21.0-2.23","bd7393dd-41f5-4a2d-b4ae-d4cb5afeea0e","null","<p style=""text-align: center;"">+</p>","null","fixation","","","","","","","","","","","","","","","","","","","","","","","","",""
"","","","","","html-slider-response","186","334793","0.0-21.0-0.24","bd7393dd-41f5-4a2d-b4ae-d4cb5afeea0e","1000","
                  <p style=""text-align: center;"">₪11
                                                <br>45%</p>
                  <p id=""wtp"" style=""text-align:center; margin-top: 0px; margin-bottom: 0px; font-size: 40px"";>&ensp;</p>","-","viewing","0","6","14B,21C,25C","","","","","","","","","","","","","","","","","","","","","",""
"","","","","","html-slider-response","187","335643","0.0-21.0-1.24","bd7393dd-41f5-4a2d-b4ae-d4cb5afeea0e","849","
                  <p style=""text-align: center;"">₪11
                                                <br>45%</p>
                  <p id=""wtp"" style=""text-align:center; margin-top: 0px; margin-bottom: 0px; font-size: 40px"";>מוכנים לשלם: <span id=""c_p_y""></span></p>","42","evaluation","67","6","14B,21C,25C","45","11","42","","","","","","","","","","","","","","","","","","",""
"","","","","","html-keyboard-response","188","336248","0.0-21.0-2.24","bd7393dd-41f5-4a2d-b4ae-d4cb5afeea0e","null","<p style=""text-align: center;"">+</p>","null","fixation","","","","","","","","","","","","","","","","","","","","","","","","",""
"","","","","","html-slider-response","189","337251","0.0-21.0-0.25","bd7393dd-41f5-4a2d-b4ae-d4cb5afeea0e","1000","
                  <p style=""text-align: center;"">₪76
                                                <br>65%</p>
                  <p id=""wtp"" style=""text-align:center; margin-top: 0px; margin-bottom: 0px; font-size: 40px"";>&ensp;</p>","-","viewing","0","29","8C,19A,24B","","","","","","","","","","","","","","","","","","","","","",""
"","","","","","html-slider-response","190","338747","0.0-21.0-1.25","bd7393dd-41f5-4a2d-b4ae-d4cb5afeea0e","1496","
                  <p style=""text-align: center;"">₪76
                                                <br>65%</p>
                  <p id=""wtp"" style=""text-align:center; margin-top: 0px; margin-bottom: 0px; font-size: 40px"";>מוכנים לשלם: <span id=""c_p_y""></span></p>","79","evaluation","2","29","8C,19A,24B","65","76","78","","","","","","","","","","","","","","","","","","",""
"","","","","","html-keyboard-response","191","339529","0.0-21.0-2.25","bd7393dd-41f5-4a2d-b4ae-d4cb5afeea0e","null","<p style=""text-align: center;"">+</p>","null","fixation","","","","","","","","","","","","","","","","","","","","","","","","",""
"","","","","","html-slider-response","192","340531","0.0-21.0-0.26","bd7393dd-41f5-4a2d-b4ae-d4cb5afeea0e","1000","
                  <p style=""text-align: center;"">₪64
                                                <br>25%</p>
                  <p id=""wtp"" style=""text-align:center; margin-top: 0px; margin-bottom: 0px; font-size: 40px"";>&ensp;</p>","-","viewing","0","24","6A,21A","","","","","","","","","","","","","","","","","","","","","",""
"","","","","","html-slider-response","193","342803","0.0-21.0-1.26","bd7393dd-41f5-4a2d-b4ae-d4cb5afeea0e","2272","
                  <p style=""text-align: center;"">₪64
                                                <br>25%</p>
                  <p id=""wtp"" style=""text-align:center; margin-top: 0px; margin-bottom: 0px; font-size: 40px"";>מוכנים לשלם: <span id=""c_p_y""></span></p>","70","evaluation","32","24","6A,21A","25","64","70","","","","","","","","","","","","","","","","","","",""
"","","","","","html-keyboard-response","194","343652","0.0-21.0-2.26","bd7393dd-41f5-4a2d-b4ae-d4cb5afeea0e","null","<p style=""text-align: center;"">+</p>","null","fixation","","","","","","","","","","","","","","","","","","","","","","","","",""
"","","","","","html-slider-response","195","344655","0.0-21.0-0.27","bd7393dd-41f5-4a2d-b4ae-d4cb5afeea0e","1000","
                  <p style=""text-align: center;"">₪36
                                                <br>75%</p>
                  <p id=""wtp"" style=""text-align:center; margin-top: 0px; margin-bottom: 0px; font-size: 40px"";>&ensp;</p>","-","viewing","0","14","4B,5A,13B,16B","","","","","","","","","","","","","","","","","","","","","",""
"","","","","","html-slider-response","196","346091","0.0-21.0-1.27","bd7393dd-41f5-4a2d-b4ae-d4cb5afeea0e","1434","
                  <p style=""text-align: center;"">₪36
                                                <br>75%</p>
                  <p id=""wtp"" style=""text-align:center; margin-top: 0px; margin-bottom: 0px; font-size: 40px"";>מוכנים לשלם: <span id=""c_p_y""></span></p>","58","evaluation","59","14","4B,5A,13B,16B","75","36","58","","","","","","","","","","","","","","","","","","",""
"","","","","","html-keyboard-response","197","347067","0.0-21.0-2.27","bd7393dd-41f5-4a2d-b4ae-d4cb5afeea0e","null","<p style=""text-align: center;"">+</p>","null","fixation","","","","","","","","","","","","","","","","","","","","","","","","",""
"","","","","","html-slider-response","198","348075","0.0-21.0-0.28","bd7393dd-41f5-4a2d-b4ae-d4cb5afeea0e","1000","
                  <p style=""text-align: center;"">₪4
                                                <br>50%</p>
                  <p id=""wtp"" style=""text-align:center; margin-top: 0px; margin-bottom: 0px; font-size: 40px"";>&ensp;</p>","-","viewing","0","2","4C,17B","","","","","","","","","","","","","","","","","","","","","",""
"","","","","","html-slider-response","199","349627","0.0-21.0-1.28","bd7393dd-41f5-4a2d-b4ae-d4cb5afeea0e","1550","
                  <p style=""text-align: center;"">₪4
                                                <br>50%</p>
                  <p id=""wtp"" style=""text-align:center; margin-top: 0px; margin-bottom: 0px; font-size: 40px"";>מוכנים לשלם: <span id=""c_p_y""></span></p>","20","evaluation","24","2","4C,17B","50","4","20","","","","","","","","","","","","","","","","","","",""
"","","","","","html-keyboard-response","200","350851","0.0-21.0-2.28","bd7393dd-41f5-4a2d-b4ae-d4cb5afeea0e","null","<p style=""text-align: center;"">+</p>","null","fixation","","","","","","","","","","","","","","","","","","","","","","","","",""
"","","","","","html-slider-response","201","351853","0.0-21.0-0.29","bd7393dd-41f5-4a2d-b4ae-d4cb5afeea0e","1000","
                  <p style=""text-align: center;"">₪58
                                                <br>30%</p>
                  <p id=""wtp"" style=""text-align:center; margin-top: 0px; margin-bottom: 0px; font-size: 40px"";>&ensp;</p>","-","viewing","0","19","13C,30A","","","","","","","","","","","","","","","","","","","","","",""
"","","","","","html-slider-response","202","353019","0.0-21.0-1.29","bd7393dd-41f5-4a2d-b4ae-d4cb5afeea0e","1164","
                  <p style=""text-align: center;"">₪58
                                                <br>30%</p>
                  <p id=""wtp"" style=""text-align:center; margin-top: 0px; margin-bottom: 0px; font-size: 40px"";>מוכנים לשלם: <span id=""c_p_y""></span></p>","30","evaluation","71","19","13C,30A","30","58","30","","","","","","","","","","","","","","","","","","",""
"","","","","","html-keyboard-response","203","353836","0.0-21.0-2.29","bd7393dd-41f5-4a2d-b4ae-d4cb5afeea0e","null","<p style=""text-align: center;"">+</p>","null","fixation","","","","","","","","","","","","","","","","","","","","","","","","",""
"","","","","","html-slider-response","204","354845","0.0-21.0-0.30","bd7393dd-41f5-4a2d-b4ae-d4cb5afeea0e","1000","
                  <p style=""text-align: center;"">₪64
                                                <br>50%</p>
                  <p id=""wtp"" style=""text-align:center; margin-top: 0px; margin-bottom: 0px; font-size: 40px"";>&ensp;</p>","-","viewing","0","25","1B,3B,4A","","","","","","","","","","","","","","","","","","","","","",""
"","","","","","html-slider-response","205","355915","0.0-21.0-1.30","bd7393dd-41f5-4a2d-b4ae-d4cb5afeea0e","1070","
                  <p style=""text-align: center;"">₪64
                                                <br>50%</p>
                  <p id=""wtp"" style=""text-align:center; margin-top: 0px; margin-bottom: 0px; font-size: 40px"";>מוכנים לשלם: <span id=""c_p_y""></span></p>","74","evaluation","25","25","1B,3B,4A","50","64","74","","","","","","","","","","","","","","","","","","",""
"","","","","","html-keyboard-response","206","357081","0.0-21.0-2.30","bd7393dd-41f5-4a2d-b4ae-d4cb5afeea0e","null","<p style=""text-align: center;"">+</p>","null","fixation","","","","","","","","","","","","","","","","","","","","","","","","",""
"","","","","","html-keyboard-response","207","358087","0.0-22.0","bd7393dd-41f5-4a2d-b4ae-d4cb5afeea0e","null","<p style=""text-align: center;"">+</p>","null","fixation","","","","","","","","","","","","","","","","","","","","","","","","",""
"","","","","","html-keyboard-response","208","360491","0.0-23.0","bd7393dd-41f5-4a2d-b4ae-d4cb5afeea0e","null","<p>הפסקה.
          <br>לחצו כדי להמשיך.</p>","1","scan_wait","","","","","","","","","","","","","","","","","","","","","","","","",""
"","","","","","html-keyboard-response","209","361500","0.0-24.0","bd7393dd-41f5-4a2d-b4ae-d4cb5afeea0e","null","<p style=""text-align: center;"">+</p>","null","fixation","","","","","","","","","","","","","","","","","","","","","","","","",""
"","","","","","html-slider-response","210","362505","0.0-25.0-0.0","bd7393dd-41f5-4a2d-b4ae-d4cb5afeea0e","1000","
                  <p style=""text-align: center;"">₪71
                                                <br>75%</p>
                  <p id=""wtp"" style=""text-align:center; margin-top: 0px; margin-bottom: 0px; font-size: 40px"";>&ensp;</p>","-","viewing","0","28","8B","","","","","","","","","","","","","","","","","","","","","",""
"","","","","","html-slider-response","211","363563","0.0-25.0-1.0","bd7393dd-41f5-4a2d-b4ae-d4cb5afeea0e","1056","
                  <p style=""text-align: center;"">₪71
                                                <br>75%</p>
                  <p id=""wtp"" style=""text-align:center; margin-top: 0px; margin-bottom: 0px; font-size: 40px"";>מוכנים לשלם: <span id=""c_p_y""></span></p>","76","evaluation","47","28","8B","75","71","76","","","","","","","","","","","","","","","","","","",""
"","","","","","html-keyboard-response","212","364295","0.0-25.0-2.0","bd7393dd-41f5-4a2d-b4ae-d4cb5afeea0e","null","<p style=""text-align: center;"">+</p>","null","fixation","","","","","","","","","","","","","","","","","","","","","","","","",""
"","","","","","html-slider-response","213","365297","0.0-25.0-0.1","bd7393dd-41f5-4a2d-b4ae-d4cb5afeea0e","1000","
                  <p style=""text-align: center;"">₪58
                                                <br>30%</p>
                  <p id=""wtp"" style=""text-align:center; margin-top: 0px; margin-bottom: 0px; font-size: 40px"";>&ensp;</p>","-","viewing","0","19","13C,30A","","","","","","","","","","","","","","","","","","","","","",""
"","","","","","html-slider-response","214","366539","0.0-25.0-1.1","bd7393dd-41f5-4a2d-b4ae-d4cb5afeea0e","1242","
                  <p style=""text-align: center;"">₪58
                                                <br>30%</p>
                  <p id=""wtp"" style=""text-align:center; margin-top: 0px; margin-bottom: 0px; font-size: 40px"";>מוכנים לשלם: <span id=""c_p_y""></span></p>","59","evaluation","9","19","13C,30A","30","58","59","","","","","","","","","","","","","","","","","","",""
"","","","","","html-keyboard-response","215","367921","0.0-25.0-2.1","bd7393dd-41f5-4a2d-b4ae-d4cb5afeea0e","null","<p style=""text-align: center;"">+</p>","null","fixation","","","","","","","","","","","","","","","","","","","","","","","","",""
"","","","","","html-slider-response","216","368939","0.0-25.0-0.2","bd7393dd-41f5-4a2d-b4ae-d4cb5afeea0e","1000","
                  <p style=""text-align: center;"">₪71
                                                <br>45%</p>
                  <p id=""wtp"" style=""text-align:center; margin-top: 0px; margin-bottom: 0px; font-size: 40px"";>&ensp;</p>","-","viewing","0","26","2B,16A","","","","","","","","","","","","","","","","","","","","","",""
"","","","","","html-slider-response","217","370331","0.0-25.0-1.2","bd7393dd-41f5-4a2d-b4ae-d4cb5afeea0e","1392","
                  <p style=""text-align: center;"">₪71
                                                <br>45%</p>
                  <p id=""wtp"" style=""text-align:center; margin-top: 0px; margin-bottom: 0px; font-size: 40px"";>מוכנים לשלם: <span id=""c_p_y""></span></p>","67","evaluation","6","26","2B,16A","45","71","67","","","","","","","","","","","","","","","","","","",""
"","","","","","html-keyboard-response","218","370841","0.0-25.0-2.2","bd7393dd-41f5-4a2d-b4ae-d4cb5afeea0e","null","<p style=""text-align: center;"">+</p>","null","fixation","","","","","","","","","","","","","","","","","","","","","","","","",""
"","","","","","html-slider-response","219","371852","0.0-25.0-0.3","bd7393dd-41f5-4a2d-b4ae-d4cb5afeea0e","1000","
                  <p style=""text-align: center;"">₪4
                                                <br>50%</p>
                  <p id=""wtp"" style=""text-align:center; margin-top: 0px; margin-bottom: 0px; font-size: 40px"";>&ensp;</p>","-","viewing","0","2","4C,17B","","","","","","","","","","","","","","","","","","","","","",""
"","","","","","html-slider-response","220","372915","0.0-25.0-1.3","bd7393dd-41f5-4a2d-b4ae-d4cb5afeea0e","1062","
                  <p style=""text-align: center;"">₪4
                                                <br>50%</p>
                  <p id=""wtp"" style=""text-align:center; margin-top: 0px; margin-bottom: 0px; font-size: 40px"";>מוכנים לשלם: <span id=""c_p_y""></span></p>","26","evaluation","62","2","4C,17B","50","4","26","","","","","","","","","","","","","","","","","","",""
"","","","","","html-keyboard-response","221","373904","0.0-25.0-2.3","bd7393dd-41f5-4a2d-b4ae-d4cb5afeea0e","null","<p style=""text-align: center;"">+</p>","null","fixation","","","","","","","","","","","","","","","","","","","","","","","","",""
"","","","","","html-slider-response","222","374906","0.0-25.0-0.4","bd7393dd-41f5-4a2d-b4ae-d4cb5afeea0e","1000","
                  <p style=""text-align: center;"">₪4
                                                <br>25%</p>
                  <p id=""wtp"" style=""text-align:center; margin-top: 0px; margin-bottom: 0px; font-size: 40px"";>&ensp;</p>","-","viewing","0","1","6C,29B,30C","","","","","","","","","","","","","","","","","","","","","",""
"","","","","","html-slider-response","223","375787","0.0-25.0-1.4","bd7393dd-41f5-4a2d-b4ae-d4cb5afeea0e","880","
                  <p style=""text-align: center;"">₪4
                                                <br>25%</p>
                  <p id=""wtp"" style=""text-align:center; margin-top: 0px; margin-bottom: 0px; font-size: 40px"";>מוכנים לשלם: <span id=""c_p_y""></span></p>","37","evaluation","3","1","6C,29B,30C","25","4","37","","","","","","","","","","","","","","","","","","",""
"","","","","","html-keyboard-response","224","377211","0.0-25.0-2.4","bd7393dd-41f5-4a2d-b4ae-d4cb5afeea0e","null","<p style=""text-align: center;"">+</p>","null","fixation","","","","","","","","","","","","","","","","","","","","","","","","",""
"","","","","","html-slider-response","225","378227","0.0-25.0-0.5","bd7393dd-41f5-4a2d-b4ae-d4cb5afeea0e","1000","
                  <p style=""text-align: center;"">₪58
                                                <br>45%</p>
                  <p id=""wtp"" style=""text-align:center; margin-top: 0px; margin-bottom: 0px; font-size: 40px"";>&ensp;</p>","-","viewing","0","21","11C,18C,25A","","","","","","","","","","","","","","","","","","","","","",""
"","","","","","html-slider-response","226","380243","0.0-25.0-1.5","bd7393dd-41f5-4a2d-b4ae-d4cb5afeea0e","2015","
                  <p style=""text-align: center;"">₪58
                                                <br>45%</p>
                  <p id=""wtp"" style=""text-align:center; margin-top: 0px; margin-bottom: 0px; font-size: 40px"";>מוכנים לשלם: <span id=""c_p_y""></span></p>","76","evaluation","66","21","11C,18C,25A","45","58","76","","","","","","","","","","","","","","","","","","",""
"","","","","","html-keyboard-response","227","380965","0.0-25.0-2.5","bd7393dd-41f5-4a2d-b4ae-d4cb5afeea0e","null","<p style=""text-align: center;"">+</p>","null","fixation","","","","","","","","","","","","","","","","","","","","","","","","",""
"","","","","","html-slider-response","228","381969","0.0-25.0-0.6","bd7393dd-41f5-4a2d-b4ae-d4cb5afeea0e","1000","
                  <p style=""text-align: center;"">₪43
                                                <br>60%</p>
                  <p id=""wtp"" style=""text-align:center; margin-top: 0px; margin-bottom: 0px; font-size: 40px"";>&ensp;</p>","-","viewing","0","17","2A,7A,9A,15B","","","","","","","","","","","","","","","","","","","","","",""
"","","","","","html-slider-response","229","382603","0.0-25.0-1.6","bd7393dd-41f5-4a2d-b4ae-d4cb5afeea0e","633","
                  <p style=""text-align: center;"">₪43
                                                <br>60%</p>
                  <p id=""wtp"" style=""text-align:center; margin-top: 0px; margin-bottom: 0px; font-size: 40px"";>מוכנים לשלם: <span id=""c_p_y""></span></p>","66","evaluation","50","17","2A,7A,9A,15B","60","43","65","","","","","","","","","","","","","","","","","","",""
"","","","","","html-keyboard-response","230","383730","0.0-25.0-2.6","bd7393dd-41f5-4a2d-b4ae-d4cb5afeea0e","null","<p style=""text-align: center;"">+</p>","null","fixation","","","","","","","","","","","","","","","","","","","","","","","","",""
"","","","","","html-slider-response","231","384731","0.0-25.0-0.7","bd7393dd-41f5-4a2d-b4ae-d4cb5afeea0e","1000","
                  <p style=""text-align: center;"">₪11
                                                <br>20%</p>
                  <p id=""wtp"" style=""text-align:center; margin-top: 0px; margin-bottom: 0px; font-size: 40px"";>&ensp;</p>","-","viewing","0","4","12C,17C,23C,28C","","","","","","","","","","","","","","","","","","","","","",""
"","","","","","html-slider-response","232","385699","0.0-25.0-1.7","bd7393dd-41f5-4a2d-b4ae-d4cb5afeea0e","966","
                  <p style=""text-align: center;"">₪11
                                                <br>20%</p>
                  <p id=""wtp"" style=""text-align:center; margin-top: 0px; margin-bottom: 0px; font-size: 40px"";>מוכנים לשלם: <span id=""c_p_y""></span></p>","39","evaluation","64","4","12C,17C,23C,28C","20","11","39","","","","","","","","","","","","","","","","","","",""
"","","","","","html-keyboard-response","233","386359","0.0-25.0-2.7","bd7393dd-41f5-4a2d-b4ae-d4cb5afeea0e","null","<p style=""text-align: center;"">+</p>","null","fixation","","","","","","","","","","","","","","","","","","","","","","","","",""
"","","","","","html-slider-response","234","387366","0.0-25.0-0.8","bd7393dd-41f5-4a2d-b4ae-d4cb5afeea0e","1000","
                  <p style=""text-align: center;"">₪61
                                                <br>45%</p>
                  <p id=""wtp"" style=""text-align:center; margin-top: 0px; margin-bottom: 0px; font-size: 40px"";>&ensp;</p>","-","viewing","0","22","10A,11A","","","","","","","","","","","","","","","","","","","","","",""
"","","","","","html-slider-response","235","388923","0.0-25.0-1.8","bd7393dd-41f5-4a2d-b4ae-d4cb5afeea0e","1556","
                  <p style=""text-align: center;"">₪61
                                                <br>45%</p>
                  <p id=""wtp"" style=""text-align:center; margin-top: 0px; margin-bottom: 0px; font-size: 40px"";>מוכנים לשלם: <span id=""c_p_y""></span></p>","71","evaluation","67","22","10A,11A","45","61","70","","","","","","","","","","","","","","","","","","",""
"","","","","","html-keyboard-response","236","390414","0.0-25.0-2.8","bd7393dd-41f5-4a2d-b4ae-d4cb5afeea0e","null","<p style=""text-align: center;"">+</p>","null","fixation","","","","","","","","","","","","","","","","","","","","","","","","",""
"","","","","","html-slider-response","237","391419","0.0-25.0-0.9","bd7393dd-41f5-4a2d-b4ae-d4cb5afeea0e","1000","
                  <p style=""text-align: center;"">₪43
                                                <br>75%</p>
                  <p id=""wtp"" style=""text-align:center; margin-top: 0px; margin-bottom: 0px; font-size: 40px"";>&ensp;</p>","-","viewing","0","18","11B,19B,24A,26A","","","","","","","","","","","","","","","","","","","","","",""
"","","","","","html-slider-response","238","393419","0.0-25.0-1.9","bd7393dd-41f5-4a2d-b4ae-d4cb5afeea0e","1999","
                  <p style=""text-align: center;"">₪43
                                                <br>75%</p>
                  <p id=""wtp"" style=""text-align:center; margin-top: 0px; margin-bottom: 0px; font-size: 40px"";>מוכנים לשלם: <span id=""c_p_y""></span></p>","58","evaluation","59","18","11B,19B,24A,26A","75","43","58","","","","","","","","","","","","","","","","","","",""
"","","","","","html-keyboard-response","239","394634","0.0-25.0-2.9","bd7393dd-41f5-4a2d-b4ae-d4cb5afeea0e","null","<p style=""text-align: center;"">+</p>","null","fixation","","","","","","","","","","","","","","","","","","","","","","","","",""
"","","","","","html-slider-response","240","395648","0.0-25.0-0.10","bd7393dd-41f5-4a2d-b4ae-d4cb5afeea0e","1000","
                  <p style=""text-align: center;"">₪79
                                                <br>65%</p>
                  <p id=""wtp"" style=""text-align:center; margin-top: 0px; margin-bottom: 0px; font-size: 40px"";>&ensp;</p>","-","viewing","0","31","8A","","","","","","","","","","","","","","","","","","","","","",""
"","","","","","html-slider-response","241","397067","0.0-25.0-1.10","bd7393dd-41f5-4a2d-b4ae-d4cb5afeea0e","1418","
                  <p style=""text-align: center;"">₪79
                                                <br>65%</p>
                  <p id=""wtp"" style=""text-align:center; margin-top: 0px; margin-bottom: 0px; font-size: 40px"";>מוכנים לשלם: <span id=""c_p_y""></span></p>","80","evaluation","74","31","8A","65","79","80","","","","","","","","","","","","","","","","","","",""
"","","","","","html-keyboard-response","242","397974","0.0-25.0-2.10","bd7393dd-41f5-4a2d-b4ae-d4cb5afeea0e","null","<p style=""text-align: center;"">+</p>","null","fixation","","","","","","","","","","","","","","","","","","","","","","","","",""
"","","","","","html-slider-response","243","398991","0.0-25.0-0.11","bd7393dd-41f5-4a2d-b4ae-d4cb5afeea0e","1000","
                  <p style=""text-align: center;"">₪64
                                                <br>50%</p>
                  <p id=""wtp"" style=""text-align:center; margin-top: 0px; margin-bottom: 0px; font-size: 40px"";>&ensp;</p>","-","viewing","0","25","1B,3B,4A","","","","","","","","","","","","","","","","","","","","","",""
"","","","","","html-slider-response","244","400699","0.0-25.0-1.11","bd7393dd-41f5-4a2d-b4ae-d4cb5afeea0e","1707","
                  <p style=""text-align: center;"">₪64
                                                <br>50%</p>
                  <p id=""wtp"" style=""text-align:center; margin-top: 0px; margin-bottom: 0px; font-size: 40px"";>מוכנים לשלם: <span id=""c_p_y""></span></p>","75","evaluation","37","25","1B,3B,4A","50","64","75","","","","","","","","","","","","","","","","","","",""
