"success","timeout","failed_images","failed_audio","failed_video","trial_type","trial_index","time_elapsed","internal_node_id","subject_id","rt","stimulus","response","part","slider_start","ID","set_ID","prob","amount","last_location","actual_choice","actual_EV","binary_id","trinary_id","catch","direction","A_key","S_key","D_key","choice_prob","choice_amount","chosen_part","won_prize","potential_prize_amount","potential_prize_prob","total_prize","accuracy"
"true","false","[]","[]","[]","preload","0","65","0.0-0.0","99f25d54-f976-44b7-b397-8339b9b6ac27","","","","","","","","","","","","","","","","","","","","","","","","","","",""
"","","","","","html-keyboard-response","1","1483467","0.0-1.0","99f25d54-f976-44b7-b397-8339b9b6ac27","null","
          <h1>שלום וברוכים הבאים!</h1>
          <p>לפניכם ניסוי בקבלת החלטות עם שני חלקים.
          <br><br>לחצו על העכבר כדי להמשיך.</p>","0","example","","","","","","","","","","","","","","","","","","","","","","",""
"","","","","","html-keyboard-response","2","1488770","0.0-2.0","99f25d54-f976-44b7-b397-8339b9b6ac27","null","
        <h1>חלק 1</h1>
        <p>בקרוב יוצגו בפניכם הגרלות.
        <br>עליכם לבחור את המחיר המירבי שתהיו מוכנים לשלם כדי להשתתף בהגרלה שתוצג.
        <br>יש לכם תקציב של ₪80 לכל הגרלה. 
        <br>נסו להעריך כל הגרלה בנפרד ולחשוב כמה היא שווה עבורכם, ₪80 זמינים לכל הגרלה בנפרד.
        <br><br>לחצו על העכבר כדי להמשיך.</p>","1","instructions","","","","","","","","","","","","","","","","","","","","","","",""
"","","","","","html-keyboard-response","3","1494794","0.0-3.0","99f25d54-f976-44b7-b397-8339b9b6ac27","null","
        <p>בסוף הניסוי, המחשב יבחר את אחת ההגרלות ויקבע מחיר לכרטיס עבורה. 
        <br>במידה והמחיר שבחרתם נמוך מהמחיר שנבחר על ידי המחשב, לא תשתתפו בהגרלה ותשארו עם מלוא התקציב.
        <br>במידה והמחיר שבחרתם גבוה מהמחיר שנבחר על ידי המחשב, תשלמו את המחיר שנקבע ותשתתפו בהגרלה.
        <br><br>לחצו על העכבר כדי להמשיך.</p>","1","instructions","","","","","","","","","","","","","","","","","","","","","","",""
"","","","","","html-slider-response","4","1512618","0.0-4.0","99f25d54-f976-44b7-b397-8339b9b6ac27","17715","
        <p style=""font-size: 42px;"">נתחיל עם דוגמא: 
        <br>ההגרלה מטה מציעה 65% סיכוי לזכות ב-₪40 
        <br>&emsp;&emsp;&emsp;&emsp;&emsp;&emsp;&emsp;&emsp;&ensp;35% סיכוי לזכות ב-₪0.
        <br><br>מה המחיר המירבי שתהיו מוכנים לשלם על כרטיס להגרלה זו בין 0 ל-₪80?
        <br>הזיזו את העכבר על פני המלבן ולחצו כדי לבצע בחירה.</p>
        
        <p style=""text-align: center;"">₪40<br>65%</p>

        <p id=""wtp"" style=""text-align:center; margin-top: 0px; margin-bottom: 0px; font-size: 40px"";>מוכנים לשלם: <span id=""c_p_y""></span></p>","15","example","19","","","","","","","","","","","","","","","","","","","","","",""
"","","","","","html-keyboard-response","5","1517458","0.0-5.0","99f25d54-f976-44b7-b397-8339b9b6ac27","null","<p>יפה מאוד!
                <br> בחרתם שתהיו מוכנים לשלם ₪15 כדי להשתתף בהגרלה:
                <br><p style=""text-align: center;"">₪40<br>65%</p>
                <p>נשמע נכון?
                <br>נניח שהגרלה זו נבחרה בסוף הניסוי.
                <br>כעת המחשב יקבע מחיר עבורה באקראי.
                <br>לחצו על העכבר להמשך.</p>","1","example","","","","","","","","","","","","","","","","","","","","","","",""
"","","","","","html-keyboard-response","6","1522314","0.0-6.0","99f25d54-f976-44b7-b397-8339b9b6ac27","null","<p>המחשב קבע מחיר: ₪46
                <br>ואתם בחרתם לשלם לכל היותר: ₪15
                <br><br>מכיוון שהמחיר שבחרתם נמוך מהמחיר שנקבע, לא תתשתתפו בהגרלה.
                <br>במקרה כזה, בסוף הניסוי תקבלו את כל התקציב ההתחלתי של ₪80.
                <br><br>לחצו על העכבר להמשך.</p>","1","example","","","","","","","","","","","","","","","","","","","","","","",""
"","","","","","html-slider-response","7","1577138","0.0-7.0","99f25d54-f976-44b7-b397-8339b9b6ac27","54567","<p style=""font-size: 42px;"">הנה עוד דוגמא:
                <br>ההגרלה מטה מציעה 35% סיכוי לזכות ב-₪18 
                <br>&emsp;&emsp;&emsp;&emsp;&emsp;&emsp;&emsp;&emsp;&ensp;65% סיכוי לזכות ב-₪0.</p>
        
                <p style=""text-align: center;"">₪18<br>35%</p>
                <p id=""wtp"" style=""text-align:center; margin-top: 0px; margin-bottom: 0px; font-size: 40px"";>מוכנים לשלם: <span id=""c_p_y""></span></p>","5","example","54","","","","","","","","","","","","","","","","","","","","","",""
"","","","","","html-keyboard-response","8","1580194","0.0-8.0","99f25d54-f976-44b7-b397-8339b9b6ac27","null","<p>הייתם מוכנים לשלם  ₪5 כדי להשתתף בהגרלה:
                <p style=""text-align: center;"">₪18<br>35%</p>
                <p>כעת נניח שהמחשב בחר את ההגרלה הזו בסוף הניסוי, וקבע עבורה מחיר.
                <br><br>לחצו על העכבר כדי להמשיך.</p>","1","instructions","","","","","","","","","","","","","","","","","","","","","","",""
"","","","","","html-keyboard-response","9","1589602","0.0-9.0","99f25d54-f976-44b7-b397-8339b9b6ac27","null","<p>המחשב קבע מחיר להגרלה: ₪4<br>ואתם בחרתם לשלם לכל היותר: ₪5
                <br><br>כעת המחיר שנקבע נמוך מזה שבחרתם, אז תשלמו את המחיר שקבע המחשב (₪4) ותשתתפו בהגרלה.
                <br>במקרה כזה, תסיימו את הניסוי עם תקציב של ₪76 ועם סיכוי לזכות ב-₪18 נוספים מההגרלה.
                <br>כלומר, תוכלו לקבל ₪76 אם לא תזכו בהגרלה, או ₪94 אם תזכו בהגרלה.
                <br><br>לחצו על העכבר להמשך.</p>","1","example","","","","","","","","","","","","","","","","","","","","","","",""
"","","","","","html-keyboard-response","10","1592314","0.0-10.0","99f25d54-f976-44b7-b397-8339b9b6ac27","null","<p>במהלך הניסוי, קודם תראו את ההגרלה ורק לאחר מכן תוכלו לבחור.
                <p>כמו כן, יהיו לכם מספר שניות מוגבל להגיב.
                <p>בואו ננסה זאת עם ההגרלה הקודמת.
                <br>לחצו על העכבר כדי להמשיך.</p>","1","instructions","","","","","","","","","","","","","","","","","","","","","","",""
"","","","","","html-slider-response","11","1593589","0.0-11.0","99f25d54-f976-44b7-b397-8339b9b6ac27","1000","
                    <p style=""text-align: center;"">₪18<br>35%</p>
                    <p id=""wtp"" style=""text-align:center; margin-top: 0px; margin-bottom: 0px; font-size: 40px"";>&ensp;</p>","22","instructions","0","","","","","","","","","","","","","","","","","","","","","",""
"","","","","","html-slider-response","12","1597869","0.0-12.0","99f25d54-f976-44b7-b397-8339b9b6ac27","null","
                    <p style=""text-align: center;"">₪18<br>35%</p>
                    <p id=""wtp"" style=""text-align:center; margin-top: 0px; margin-bottom: 0px; font-size: 40px"";>מוכנים לשלם: <span id=""c_p_y""></span></p>","null","instructions","33","","","","","","","","","","","","","","","","","","","","","",""
"","","","","","html-keyboard-response","13","1599970","0.0-13.0","99f25d54-f976-44b7-b397-8339b9b6ac27","null","<p>לא הגבתם בזמן המוקצב לתגובה. 
                <br>נסו להגיב מהר יותר בפעם הבאה.
                <br><br>לחצו על העכבר כדי להמשיך.</p>","1","instructions","","","","","","","","","","","","","","","","","","","","","","",""
"","","","","","html-slider-response","14","1601914","0.0-14.0-0.0","99f25d54-f976-44b7-b397-8339b9b6ac27","1684","
                    <p style=""text-align: center;"">₪40<br>65%</p>
                    <p id=""wtp"" style=""text-align:center; margin-top: 0px; margin-bottom: 0px; font-size: 40px"";>מוכנים לשלם: <span id=""c_p_y""></span></p>","3","instructions","55","","","","","","","","","","","","","","","","","","","","","",""
"","","","","","html-keyboard-response","15","1604866","0.0-14.0-1.0","99f25d54-f976-44b7-b397-8339b9b6ac27","null","<p>יפה. הפעם בחרתם לשלם לכל היותר ₪3.
                <br><br>לחצו על העכבר כדי להמשיך.</p>","1","instructions","","","","","","","","","","","","","","","","","","","","","","",""
"","","","","","html-keyboard-response","16","1610530","0.0-15.0","99f25d54-f976-44b7-b397-8339b9b6ac27","null","<p>כעת נתחיל את הניסוי.
                <br><br>אתם תראו הגרלות ותתבקשו לבחור כמה תהיו מוכנים לשלם כדי להשתתף בהן.
                <br>יש לכם תקציב של ₪80 עבור כל הגרלה.
                <br>בסוף הניסוי הגרלה אחת תבחר באקראי ותשוחק.
                <br><br>לחצו על העכבר כדי להתחיל את הניסוי.</p>","1","instructions","","","","","","","","","","","","","","","","","","","","","","",""
"","","","","","html-keyboard-response","17","1611802","0.0-16.0","99f25d54-f976-44b7-b397-8339b9b6ac27","null","<p style=""text-align: center;"">+</p>","null","fixation","","","","","","","","","","","","","","","","","","","","","","",""
"","","","","","html-slider-response","18","1612821","0.0-17.0-0.0","99f25d54-f976-44b7-b397-8339b9b6ac27","1000","
                  <p style=""text-align: center;"">₪39
                                                <br>60%</p>
                  <p id=""wtp"" style=""text-align:center; margin-top: 0px; margin-bottom: 0px; font-size: 40px"";>&ensp;</p>","-","viewing","0","15","9C,25B","","","","","","","","","","","","","","","","","","","",""
"","","","","","html-slider-response","19","1614362","0.0-17.0-1.0","99f25d54-f976-44b7-b397-8339b9b6ac27","1539","
                  <p style=""text-align: center;"">₪39
                                                <br>60%</p>
                  <p id=""wtp"" style=""text-align:center; margin-top: 0px; margin-bottom: 0px; font-size: 40px"";>מוכנים לשלם: <span id=""c_p_y""></span></p>","5","evaluation","60","15","9C,25B","60","39","5","","","","","","","","","","","","","","","","",""
"","","","","","html-keyboard-response","20","1615471","0.0-17.0-2.0","99f25d54-f976-44b7-b397-8339b9b6ac27","null","<p style=""text-align: center;"">+</p>","null","fixation","","","","","","","","","","","","","","","","","","","","","","",""
"","","","","","html-slider-response","21","1616487","0.0-17.0-0.1","99f25d54-f976-44b7-b397-8339b9b6ac27","1000","
                  <p style=""text-align: center;"">₪4
                                                <br>25%</p>
                  <p id=""wtp"" style=""text-align:center; margin-top: 0px; margin-bottom: 0px; font-size: 40px"";>&ensp;</p>","-","viewing","0","1","6C,29B,30C","","","","","","","","","","","","","","","","","","","",""
"","","","","","html-slider-response","22","1617490","0.0-17.0-1.1","99f25d54-f976-44b7-b397-8339b9b6ac27","1002","
                  <p style=""text-align: center;"">₪4
                                                <br>25%</p>
                  <p id=""wtp"" style=""text-align:center; margin-top: 0px; margin-bottom: 0px; font-size: 40px"";>מוכנים לשלם: <span id=""c_p_y""></span></p>","4","evaluation","23","1","6C,29B,30C","25","4","4","","","","","","","","","","","","","","","","",""
"","","","","","html-keyboard-response","23","1618746","0.0-17.0-2.1","99f25d54-f976-44b7-b397-8339b9b6ac27","null","<p style=""text-align: center;"">+</p>","null","fixation","","","","","","","","","","","","","","","","","","","","","","",""
"","","","","","html-slider-response","24","1619749","0.0-17.0-0.2","99f25d54-f976-44b7-b397-8339b9b6ac27","1000","
                  <p style=""text-align: center;"">₪61
                                                <br>45%</p>
                  <p id=""wtp"" style=""text-align:center; margin-top: 0px; margin-bottom: 0px; font-size: 40px"";>&ensp;</p>","-","viewing","0","22","10A,11A","","","","","","","","","","","","","","","","","","","",""
"","","","","","html-slider-response","25","1621337","0.0-17.0-1.2","99f25d54-f976-44b7-b397-8339b9b6ac27","1588","
                  <p style=""text-align: center;"">₪61
                                                <br>45%</p>
                  <p id=""wtp"" style=""text-align:center; margin-top: 0px; margin-bottom: 0px; font-size: 40px"";>מוכנים לשלם: <span id=""c_p_y""></span></p>","4","evaluation","67","22","10A,11A","45","61","4","","","","","","","","","","","","","","","","",""
"","","","","","html-keyboard-response","26","1621897","0.0-17.0-2.2","99f25d54-f976-44b7-b397-8339b9b6ac27","null","<p style=""text-align: center;"">+</p>","null","fixation","","","","","","","","","","","","","","","","","","","","","","",""
"","","","","","html-slider-response","27","1622902","0.0-17.0-0.3","99f25d54-f976-44b7-b397-8339b9b6ac27","1000","
                  <p style=""text-align: center;"">₪71
                                                <br>75%</p>
                  <p id=""wtp"" style=""text-align:center; margin-top: 0px; margin-bottom: 0px; font-size: 40px"";>&ensp;</p>","-","viewing","0","28","8B","","","","","","","","","","","","","","","","","","","",""
"","","","","","html-slider-response","28","1623778","0.0-17.0-1.3","99f25d54-f976-44b7-b397-8339b9b6ac27","876","
                  <p style=""text-align: center;"">₪71
                                                <br>75%</p>
                  <p id=""wtp"" style=""text-align:center; margin-top: 0px; margin-bottom: 0px; font-size: 40px"";>מוכנים לשלם: <span id=""c_p_y""></span></p>","4","evaluation","70","28","8B","75","71","4","","","","","","","","","","","","","","","","",""
"","","","","","html-keyboard-response","29","1624819","0.0-17.0-2.3","99f25d54-f976-44b7-b397-8339b9b6ac27","null","<p style=""text-align: center;"">+</p>","null","fixation","","","","","","","","","","","","","","","","","","","","","","",""
"","","","","","html-slider-response","30","1625821","0.0-17.0-0.4","99f25d54-f976-44b7-b397-8339b9b6ac27","1000","
                  <p style=""text-align: center;"">₪36
                                                <br>60%</p>
                  <p id=""wtp"" style=""text-align:center; margin-top: 0px; margin-bottom: 0px; font-size: 40px"";>&ensp;</p>","-","viewing","0","12","1C,7C,15C","","","","","","","","","","","","","","","","","","","",""
"","","","","","html-slider-response","31","1627218","0.0-17.0-1.4","99f25d54-f976-44b7-b397-8339b9b6ac27","1396","
                  <p style=""text-align: center;"">₪36
                                                <br>60%</p>
                  <p id=""wtp"" style=""text-align:center; margin-top: 0px; margin-bottom: 0px; font-size: 40px"";>מוכנים לשלם: <span id=""c_p_y""></span></p>","3","evaluation","35","12","1C,7C,15C","60","36","3","","","","","","","","","","","","","","","","",""
"","","","","","html-keyboard-response","32","1628503","0.0-17.0-2.4","99f25d54-f976-44b7-b397-8339b9b6ac27","null","<p style=""text-align: center;"">+</p>","null","fixation","","","","","","","","","","","","","","","","","","","","","","",""
"","","","","","html-slider-response","33","1629508","0.0-17.0-0.5","99f25d54-f976-44b7-b397-8339b9b6ac27","1000","
                  <p style=""text-align: center;"">₪64
                                                <br>50%</p>
                  <p id=""wtp"" style=""text-align:center; margin-top: 0px; margin-bottom: 0px; font-size: 40px"";>&ensp;</p>","-","viewing","0","25","1B,3B,4A","","","","","","","","","","","","","","","","","","","",""
"","","","","","html-slider-response","34","1630834","0.0-17.0-1.5","99f25d54-f976-44b7-b397-8339b9b6ac27","1324","
                  <p style=""text-align: center;"">₪64
                                                <br>50%</p>
                  <p id=""wtp"" style=""text-align:center; margin-top: 0px; margin-bottom: 0px; font-size: 40px"";>מוכנים לשלם: <span id=""c_p_y""></span></p>","5","evaluation","64","25","1B,3B,4A","50","64","5","","","","","","","","","","","","","","","","",""
"","","","","","html-keyboard-response","35","1631811","0.0-17.0-2.5","99f25d54-f976-44b7-b397-8339b9b6ac27","null","<p style=""text-align: center;"">+</p>","null","fixation","","","","","","","","","","","","","","","","","","","","","","",""
"","","","","","html-slider-response","36","1632827","0.0-17.0-0.6","99f25d54-f976-44b7-b397-8339b9b6ac27","1000","
                  <p style=""text-align: center;"">₪11
                                                <br>75%</p>
                  <p id=""wtp"" style=""text-align:center; margin-top: 0px; margin-bottom: 0px; font-size: 40px"";>&ensp;</p>","-","viewing","0","7","6B,18B,22C,24C,29A","","","","","","","","","","","","","","","","","","","",""
"","","","","","html-slider-response","37","1633530","0.0-17.0-1.6","99f25d54-f976-44b7-b397-8339b9b6ac27","702","
                  <p style=""text-align: center;"">₪11
                                                <br>75%</p>
                  <p id=""wtp"" style=""text-align:center; margin-top: 0px; margin-bottom: 0px; font-size: 40px"";>מוכנים לשלם: <span id=""c_p_y""></span></p>","3","evaluation","37","7","6B,18B,22C,24C,29A","75","11","3","","","","","","","","","","","","","","","","",""
"","","","","","html-keyboard-response","38","1634673","0.0-17.0-2.6","99f25d54-f976-44b7-b397-8339b9b6ac27","null","<p style=""text-align: center;"">+</p>","null","fixation","","","","","","","","","","","","","","","","","","","","","","",""
"","","","","","html-slider-response","39","1635681","0.0-17.0-0.7","99f25d54-f976-44b7-b397-8339b9b6ac27","1000","
                  <p style=""text-align: center;"">₪11
                                                <br>20%</p>
                  <p id=""wtp"" style=""text-align:center; margin-top: 0px; margin-bottom: 0px; font-size: 40px"";>&ensp;</p>","-","viewing","0","4","12C,17C,23C,28C","","","","","","","","","","","","","","","","","","","",""
"","","","","","html-slider-response","40","1636290","0.0-17.0-1.7","99f25d54-f976-44b7-b397-8339b9b6ac27","609","
                  <p style=""text-align: center;"">₪11
                                                <br>20%</p>
                  <p id=""wtp"" style=""text-align:center; margin-top: 0px; margin-bottom: 0px; font-size: 40px"";>מוכנים לשלם: <span id=""c_p_y""></span></p>","2","evaluation","3","4","12C,17C,23C,28C","20","11","2","","","","","","","","","","","","","","","","",""
"","","","","","html-keyboard-response","41","1637279","0.0-17.0-2.7","99f25d54-f976-44b7-b397-8339b9b6ac27","null","<p style=""text-align: center;"">+</p>","null","fixation","","","","","","","","","","","","","","","","","","","","","","",""
"","","","","","html-slider-response","42","1638283","0.0-17.0-0.8","99f25d54-f976-44b7-b397-8339b9b6ac27","1000","
                  <p style=""text-align: center;"">₪58
                                                <br>30%</p>
                  <p id=""wtp"" style=""text-align:center; margin-top: 0px; margin-bottom: 0px; font-size: 40px"";>&ensp;</p>","-","viewing","0","19","13C,30A","","","","","","","","","","","","","","","","","","","",""
"","","","","","html-slider-response","43","1639250","0.0-17.0-1.8","99f25d54-f976-44b7-b397-8339b9b6ac27","966","
                  <p style=""text-align: center;"">₪58
                                                <br>30%</p>
                  <p id=""wtp"" style=""text-align:center; margin-top: 0px; margin-bottom: 0px; font-size: 40px"";>מוכנים לשלם: <span id=""c_p_y""></span></p>","4","evaluation","66","19","13C,30A","30","58","4","","","","","","","","","","","","","","","","",""
"","","","","","html-keyboard-response","44","1639924","0.0-17.0-2.8","99f25d54-f976-44b7-b397-8339b9b6ac27","null","<p style=""text-align: center;"">+</p>","null","fixation","","","","","","","","","","","","","","","","","","","","","","",""
"","","","","","html-slider-response","45","1640934","0.0-17.0-0.9","99f25d54-f976-44b7-b397-8339b9b6ac27","1000","
                  <p style=""text-align: center;"">₪4
                                                <br>75%</p>
                  <p id=""wtp"" style=""text-align:center; margin-top: 0px; margin-bottom: 0px; font-size: 40px"";>&ensp;</p>","-","viewing","0","3","12B,20B,23B,27C,29C","","","","","","","","","","","","","","","","","","","",""
"","","","","","html-slider-response","46","1641754","0.0-17.0-1.9","99f25d54-f976-44b7-b397-8339b9b6ac27","820","
                  <p style=""text-align: center;"">₪4
                                                <br>75%</p>
                  <p id=""wtp"" style=""text-align:center; margin-top: 0px; margin-bottom: 0px; font-size: 40px"";>מוכנים לשלם: <span id=""c_p_y""></span></p>","2","evaluation","45","3","12B,20B,23B,27C,29C","75","4","2","","","","","","","","","","","","","","","","",""
"","","","","","html-keyboard-response","47","1642866","0.0-17.0-2.9","99f25d54-f976-44b7-b397-8339b9b6ac27","null","<p style=""text-align: center;"">+</p>","null","fixation","","","","","","","","","","","","","","","","","","","","","","",""
"","","","","","html-slider-response","48","1643869","0.0-17.0-0.10","99f25d54-f976-44b7-b397-8339b9b6ac27","1000","
                  <p style=""text-align: center;"">₪61
                                                <br>55%</p>
                  <p id=""wtp"" style=""text-align:center; margin-top: 0px; margin-bottom: 0px; font-size: 40px"";>&ensp;</p>","-","viewing","0","23","7B,26B","","","","","","","","","","","","","","","","","","","",""
"","","","","","html-slider-response","49","1644906","0.0-17.0-1.10","99f25d54-f976-44b7-b397-8339b9b6ac27","1036","
                  <p style=""text-align: center;"">₪61
                                                <br>55%</p>
                  <p id=""wtp"" style=""text-align:center; margin-top: 0px; margin-bottom: 0px; font-size: 40px"";>מוכנים לשלם: <span id=""c_p_y""></span></p>","5","evaluation","52","23","7B,26B","55","61","5","","","","","","","","","","","","","","","","",""
"","","","","","html-keyboard-response","50","1645675","0.0-17.0-2.10","99f25d54-f976-44b7-b397-8339b9b6ac27","null","<p style=""text-align: center;"">+</p>","null","fixation","","","","","","","","","","","","","","","","","","","","","","",""
"","","","","","html-slider-response","51","1646679","0.0-17.0-0.11","99f25d54-f976-44b7-b397-8339b9b6ac27","1000","
                  <p style=""text-align: center;"">₪58
                                                <br>45%</p>
                  <p id=""wtp"" style=""text-align:center; margin-top: 0px; margin-bottom: 0px; font-size: 40px"";>&ensp;</p>","-","viewing","0","21","11C,18C,25A","","","","","","","","","","","","","","","","","","","",""
"","","","","","html-slider-response","52","1647634","0.0-17.0-1.11","99f25d54-f976-44b7-b397-8339b9b6ac27","954","
                  <p style=""text-align: center;"">₪58
                                                <br>45%</p>
                  <p id=""wtp"" style=""text-align:center; margin-top: 0px; margin-bottom: 0px; font-size: 40px"";>מוכנים לשלם: <span id=""c_p_y""></span></p>","3","evaluation","20","21","11C,18C,25A","45","58","3","","","","","","","","","","","","","","","","",""
"","","","","","html-keyboard-response","53","1648906","0.0-17.0-2.11","99f25d54-f976-44b7-b397-8339b9b6ac27","null","<p style=""text-align: center;"">+</p>","null","fixation","","","","","","","","","","","","","","","","","","","","","","",""
"","","","","","html-slider-response","54","1649908","0.0-17.0-0.12","99f25d54-f976-44b7-b397-8339b9b6ac27","1000","
                  <p style=""text-align: center;"">₪16
                                                <br>20%</p>
                  <p id=""wtp"" style=""text-align:center; margin-top: 0px; margin-bottom: 0px; font-size: 40px"";>&ensp;</p>","-","viewing","0","8","14C,17A,20C,27A","","","","","","","","","","","","","","","","","","","",""
"","","","","","html-slider-response","55","1650682","0.0-17.0-1.12","99f25d54-f976-44b7-b397-8339b9b6ac27","773","
                  <p style=""text-align: center;"">₪16
                                                <br>20%</p>
                  <p id=""wtp"" style=""text-align:center; margin-top: 0px; margin-bottom: 0px; font-size: 40px"";>מוכנים לשלם: <span id=""c_p_y""></span></p>","2","evaluation","57","8","14C,17A,20C,27A","20","16","2","","","","","","","","","","","","","","","","",""
"","","","","","html-keyboard-response","56","1651338","0.0-17.0-2.12","99f25d54-f976-44b7-b397-8339b9b6ac27","null","<p style=""text-align: center;"">+</p>","null","fixation","","","","","","","","","","","","","","","","","","","","","","",""
"","","","","","html-slider-response","57","1652340","0.0-17.0-0.13","99f25d54-f976-44b7-b397-8339b9b6ac27","1000","
                  <p style=""text-align: center;"">₪36
                                                <br>75%</p>
                  <p id=""wtp"" style=""text-align:center; margin-top: 0px; margin-bottom: 0px; font-size: 40px"";>&ensp;</p>","-","viewing","0","14","4B,5A,13B,16B","","","","","","","","","","","","","","","","","","","",""
"","","","","","html-slider-response","58","1653586","0.0-17.0-1.13","99f25d54-f976-44b7-b397-8339b9b6ac27","1245","
                  <p style=""text-align: center;"">₪36
                                                <br>75%</p>
                  <p id=""wtp"" style=""text-align:center; margin-top: 0px; margin-bottom: 0px; font-size: 40px"";>מוכנים לשלם: <span id=""c_p_y""></span></p>","5","evaluation","39","14","4B,5A,13B,16B","75","36","5","","","","","","","","","","","","","","","","",""
"","","","","","html-keyboard-response","59","1654911","0.0-17.0-2.13","99f25d54-f976-44b7-b397-8339b9b6ac27","null","<p style=""text-align: center;"">+</p>","null","fixation","","","","","","","","","","","","","","","","","","","","","","",""
"","","","","","html-slider-response","60","1655913","0.0-17.0-0.14","99f25d54-f976-44b7-b397-8339b9b6ac27","1000","
                  <p style=""text-align: center;"">₪39
                                                <br>65%</p>
                  <p id=""wtp"" style=""text-align:center; margin-top: 0px; margin-bottom: 0px; font-size: 40px"";>&ensp;</p>","-","viewing","0","16","1A,15A,26C","","","","","","","","","","","","","","","","","","","",""
"","","","","","html-slider-response","61","1656778","0.0-17.0-1.14","99f25d54-f976-44b7-b397-8339b9b6ac27","864","
                  <p style=""text-align: center;"">₪39
                                                <br>65%</p>
                  <p id=""wtp"" style=""text-align:center; margin-top: 0px; margin-bottom: 0px; font-size: 40px"";>מוכנים לשלם: <span id=""c_p_y""></span></p>","4","evaluation","61","16","1A,15A,26C","65","39","4","","","","","","","","","","","","","","","","",""
"","","","","","html-keyboard-response","62","1657332","0.0-17.0-2.14","99f25d54-f976-44b7-b397-8339b9b6ac27","null","<p style=""text-align: center;"">+</p>","null","fixation","","","","","","","","","","","","","","","","","","","","","","",""
"","","","","","html-slider-response","63","1658344","0.0-17.0-0.15","99f25d54-f976-44b7-b397-8339b9b6ac27","1000","
                  <p style=""text-align: center;"">₪64
                                                <br>25%</p>
                  <p id=""wtp"" style=""text-align:center; margin-top: 0px; margin-bottom: 0px; font-size: 40px"";>&ensp;</p>","-","viewing","0","24","6A,21A","","","","","","","","","","","","","","","","","","","",""
"","","","","","html-slider-response","64","1659562","0.0-17.0-1.15","99f25d54-f976-44b7-b397-8339b9b6ac27","1217","
                  <p style=""text-align: center;"">₪64
                                                <br>25%</p>
                  <p id=""wtp"" style=""text-align:center; margin-top: 0px; margin-bottom: 0px; font-size: 40px"";>מוכנים לשלם: <span id=""c_p_y""></span></p>","1","evaluation","63","24","6A,21A","25","64","1","","","","","","","","","","","","","","","","",""
"","","","","","html-keyboard-response","65","1660609","0.0-17.0-2.15","99f25d54-f976-44b7-b397-8339b9b6ac27","null","<p style=""text-align: center;"">+</p>","null","fixation","","","","","","","","","","","","","","","","","","","","","","",""
"","","","","","html-slider-response","66","1661619","0.0-17.0-0.16","99f25d54-f976-44b7-b397-8339b9b6ac27","1000","
                  <p style=""text-align: center;"">₪18
                                                <br>25%</p>
                  <p id=""wtp"" style=""text-align:center; margin-top: 0px; margin-bottom: 0px; font-size: 40px"";>&ensp;</p>","-","viewing","0","9","14A,23A","","","","","","","","","","","","","","","","","","","",""
"","","","","","html-slider-response","67","1662930","0.0-17.0-1.16","99f25d54-f976-44b7-b397-8339b9b6ac27","1310","
                  <p style=""text-align: center;"">₪18
                                                <br>25%</p>
                  <p id=""wtp"" style=""text-align:center; margin-top: 0px; margin-bottom: 0px; font-size: 40px"";>מוכנים לשלם: <span id=""c_p_y""></span></p>","2","evaluation","55","9","14A,23A","25","18","2","","","","","","","","","","","","","","","","",""
"","","","","","html-keyboard-response","68","1663863","0.0-17.0-2.16","99f25d54-f976-44b7-b397-8339b9b6ac27","null","<p style=""text-align: center;"">+</p>","null","fixation","","","","","","","","","","","","","","","","","","","","","","",""
"","","","","","html-slider-response","69","1664873","0.0-17.0-0.17","99f25d54-f976-44b7-b397-8339b9b6ac27","1000","
                  <p style=""text-align: center;"">₪76
                                                <br>65%</p>
                  <p id=""wtp"" style=""text-align:center; margin-top: 0px; margin-bottom: 0px; font-size: 40px"";>&ensp;</p>","-","viewing","0","29","8C,19A,24B","","","","","","","","","","","","","","","","","","","",""
"","","","","","html-slider-response","70","1665954","0.0-17.0-1.17","99f25d54-f976-44b7-b397-8339b9b6ac27","1080","
                  <p style=""text-align: center;"">₪76
                                                <br>65%</p>
                  <p id=""wtp"" style=""text-align:center; margin-top: 0px; margin-bottom: 0px; font-size: 40px"";>מוכנים לשלם: <span id=""c_p_y""></span></p>","5","evaluation","62","29","8C,19A,24B","65","76","5","","","","","","","","","","","","","","","","",""
"","","","","","html-keyboard-response","71","1666727","0.0-17.0-2.17","99f25d54-f976-44b7-b397-8339b9b6ac27","null","<p style=""text-align: center;"">+</p>","null","fixation","","","","","","","","","","","","","","","","","","","","","","",""
"","","","","","html-slider-response","72","1667730","0.0-17.0-0.18","99f25d54-f976-44b7-b397-8339b9b6ac27","1000","
                  <p style=""text-align: center;"">₪43
                                                <br>75%</p>
                  <p id=""wtp"" style=""text-align:center; margin-top: 0px; margin-bottom: 0px; font-size: 40px"";>&ensp;</p>","-","viewing","0","18","11B,19B,24A,26A","","","","","","","","","","","","","","","","","","","",""
"","","","","","html-slider-response","73","1669250","0.0-17.0-1.18","99f25d54-f976-44b7-b397-8339b9b6ac27","1520","
                  <p style=""text-align: center;"">₪43
                                                <br>75%</p>
                  <p id=""wtp"" style=""text-align:center; margin-top: 0px; margin-bottom: 0px; font-size: 40px"";>מוכנים לשלם: <span id=""c_p_y""></span></p>","4","evaluation","37","18","11B,19B,24A,26A","75","43","4","","","","","","","","","","","","","","","","",""
"","","","","","html-keyboard-response","74","1670717","0.0-17.0-2.18","99f25d54-f976-44b7-b397-8339b9b6ac27","null","<p style=""text-align: center;"">+</p>","null","fixation","","","","","","","","","","","","","","","","","","","","","","",""
"","","","","","html-slider-response","75","1671729","0.0-17.0-0.19","99f25d54-f976-44b7-b397-8339b9b6ac27","1000","
                  <p style=""text-align: center;"">₪36
                                                <br>30%</p>
                  <p id=""wtp"" style=""text-align:center; margin-top: 0px; margin-bottom: 0px; font-size: 40px"";>&ensp;</p>","-","viewing","0","11","3C,20A,22A","","","","","","","","","","","","","","","","","","","",""
"","","","","","html-slider-response","76","1672642","0.0-17.0-1.19","99f25d54-f976-44b7-b397-8339b9b6ac27","911","
                  <p style=""text-align: center;"">₪36
                                                <br>30%</p>
                  <p id=""wtp"" style=""text-align:center; margin-top: 0px; margin-bottom: 0px; font-size: 40px"";>מוכנים לשלם: <span id=""c_p_y""></span></p>","0","evaluation","47","11","3C,20A,22A","30","36","0","","","","","","","","","","","","","","","","",""
"","","","","","html-keyboard-response","77","1673553","0.0-17.0-2.19","99f25d54-f976-44b7-b397-8339b9b6ac27","null","<p style=""text-align: center;"">+</p>","null","fixation","","","","","","","","","","","","","","","","","","","","","","",""
"","","","","","html-slider-response","78","1674566","0.0-17.0-0.20","99f25d54-f976-44b7-b397-8339b9b6ac27","1000","
                  <p style=""text-align: center;"">₪43
                                                <br>60%</p>
                  <p id=""wtp"" style=""text-align:center; margin-top: 0px; margin-bottom: 0px; font-size: 40px"";>&ensp;</p>","-","viewing","0","17","2A,7A,9A,15B","","","","","","","","","","","","","","","","","","","",""
"","","","","","html-slider-response","79","1675762","0.0-17.0-1.20","99f25d54-f976-44b7-b397-8339b9b6ac27","1195","
                  <p style=""text-align: center;"">₪43
                                                <br>60%</p>
                  <p id=""wtp"" style=""text-align:center; margin-top: 0px; margin-bottom: 0px; font-size: 40px"";>מוכנים לשלם: <span id=""c_p_y""></span></p>","5","evaluation","65","17","2A,7A,9A,15B","60","43","5","","","","","","","","","","","","","","","","",""
"","","","","","html-keyboard-response","80","1676755","0.0-17.0-2.20","99f25d54-f976-44b7-b397-8339b9b6ac27","null","<p style=""text-align: center;"">+</p>","null","fixation","","","","","","","","","","","","","","","","","","","","","","",""
"","","","","","html-slider-response","81","1677766","0.0-17.0-0.21","99f25d54-f976-44b7-b397-8339b9b6ac27","1000","
                  <p style=""text-align: center;"">₪79
                                                <br>65%</p>
                  <p id=""wtp"" style=""text-align:center; margin-top: 0px; margin-bottom: 0px; font-size: 40px"";>&ensp;</p>","-","viewing","0","31","8A","","","","","","","","","","","","","","","","","","","",""
"","","","","","html-slider-response","82","1678922","0.0-17.0-1.21","99f25d54-f976-44b7-b397-8339b9b6ac27","1155","
                  <p style=""text-align: center;"">₪79
                                                <br>65%</p>
                  <p id=""wtp"" style=""text-align:center; margin-top: 0px; margin-bottom: 0px; font-size: 40px"";>מוכנים לשלם: <span id=""c_p_y""></span></p>","5","evaluation","72","31","8A","65","79","5","","","","","","","","","","","","","","","","",""
"","","","","","html-keyboard-response","83","1679878","0.0-17.0-2.21","99f25d54-f976-44b7-b397-8339b9b6ac27","null","<p style=""text-align: center;"">+</p>","null","fixation","","","","","","","","","","","","","","","","","","","","","","",""
"","","","","","html-slider-response","84","1680889","0.0-17.0-0.22","99f25d54-f976-44b7-b397-8339b9b6ac27","1000","
                  <p style=""text-align: center;"">₪4
                                                <br>50%</p>
                  <p id=""wtp"" style=""text-align:center; margin-top: 0px; margin-bottom: 0px; font-size: 40px"";>&ensp;</p>","-","viewing","0","2","4C,17B","","","","","","","","","","","","","","","","","","","",""
"","","","","","html-slider-response","85","1682466","0.0-17.0-1.22","99f25d54-f976-44b7-b397-8339b9b6ac27","1576","
                  <p style=""text-align: center;"">₪4
                                                <br>50%</p>
                  <p id=""wtp"" style=""text-align:center; margin-top: 0px; margin-bottom: 0px; font-size: 40px"";>מוכנים לשלם: <span id=""c_p_y""></span></p>","0","evaluation","18","2","4C,17B","50","4","0","","","","","","","","","","","","","","","","",""
"","","","","","html-keyboard-response","86","1683041","0.0-17.0-2.22","99f25d54-f976-44b7-b397-8339b9b6ac27","null","<p style=""text-align: center;"">+</p>","null","fixation","","","","","","","","","","","","","","","","","","","","","","",""
"","","","","","html-slider-response","87","1684057","0.0-17.0-0.23","99f25d54-f976-44b7-b397-8339b9b6ac27","1000","
                  <p style=""text-align: center;"">₪36
                                                <br>70%</p>
                  <p id=""wtp"" style=""text-align:center; margin-top: 0px; margin-bottom: 0px; font-size: 40px"";>&ensp;</p>","-","viewing","0","13","3A,5C,10B","","","","","","","","","","","","","","","","","","","",""
"","","","","","html-slider-response","88","1684922","0.0-17.0-1.23","99f25d54-f976-44b7-b397-8339b9b6ac27","864","
                  <p style=""text-align: center;"">₪36
                                                <br>70%</p>
                  <p id=""wtp"" style=""text-align:center; margin-top: 0px; margin-bottom: 0px; font-size: 40px"";>מוכנים לשלם: <span id=""c_p_y""></span></p>","5","evaluation","36","13","3A,5C,10B","70","36","5","","","","","","","","","","","","","","","","",""
"","","","","","html-keyboard-response","89","1685524","0.0-17.0-2.23","99f25d54-f976-44b7-b397-8339b9b6ac27","null","<p style=""text-align: center;"">+</p>","null","fixation","","","","","","","","","","","","","","","","","","","","","","",""
"","","","","","html-slider-response","90","1686526","0.0-17.0-0.24","99f25d54-f976-44b7-b397-8339b9b6ac27","1000","
                  <p style=""text-align: center;"">₪18
                                                <br>50%</p>
                  <p id=""wtp"" style=""text-align:center; margin-top: 0px; margin-bottom: 0px; font-size: 40px"";>&ensp;</p>","-","viewing","0","10","2C,16C,22B,28A","","","","","","","","","","","","","","","","","","","",""
"","","","","","html-slider-response","91","1687090","0.0-17.0-1.24","99f25d54-f976-44b7-b397-8339b9b6ac27","563","
                  <p style=""text-align: center;"">₪18
                                                <br>50%</p>
                  <p id=""wtp"" style=""text-align:center; margin-top: 0px; margin-bottom: 0px; font-size: 40px"";>מוכנים לשלם: <span id=""c_p_y""></span></p>","0","evaluation","12","10","2C,16C,22B,28A","50","18","0","","","","","","","","","","","","","","","","",""
"","","","","","html-keyboard-response","92","1688271","0.0-17.0-2.24","99f25d54-f976-44b7-b397-8339b9b6ac27","null","<p style=""text-align: center;"">+</p>","null","fixation","","","","","","","","","","","","","","","","","","","","","","",""
"","","","","","html-slider-response","93","1689283","0.0-17.0-0.25","99f25d54-f976-44b7-b397-8339b9b6ac27","1000","
                  <p style=""text-align: center;"">₪71
                                                <br>55%</p>
                  <p id=""wtp"" style=""text-align:center; margin-top: 0px; margin-bottom: 0px; font-size: 40px"";>&ensp;</p>","-","viewing","0","27","5B,18A","","","","","","","","","","","","","","","","","","","",""
"","","","","","html-slider-response","94","1691330","0.0-17.0-1.25","99f25d54-f976-44b7-b397-8339b9b6ac27","2046","
                  <p style=""text-align: center;"">₪71
                                                <br>55%</p>
                  <p id=""wtp"" style=""text-align:center; margin-top: 0px; margin-bottom: 0px; font-size: 40px"";>מוכנים לשלם: <span id=""c_p_y""></span></p>","5","evaluation","41","27","5B,18A","55","71","5","","","","","","","","","","","","","","","","",""
"","","","","","html-keyboard-response","95","1692277","0.0-17.0-2.25","99f25d54-f976-44b7-b397-8339b9b6ac27","null","<p style=""text-align: center;"">+</p>","null","fixation","","","","","","","","","","","","","","","","","","","","","","",""
"","","","","","html-slider-response","96","1693287","0.0-17.0-0.26","99f25d54-f976-44b7-b397-8339b9b6ac27","1000","
                  <p style=""text-align: center;"">₪11
                                                <br>45%</p>
                  <p id=""wtp"" style=""text-align:center; margin-top: 0px; margin-bottom: 0px; font-size: 40px"";>&ensp;</p>","-","viewing","0","6","14B,21C,25C","","","","","","","","","","","","","","","","","","","",""
"","","","","","html-slider-response","97","1694033","0.0-17.0-1.26","99f25d54-f976-44b7-b397-8339b9b6ac27","745","
                  <p style=""text-align: center;"">₪11
                                                <br>45%</p>
                  <p id=""wtp"" style=""text-align:center; margin-top: 0px; margin-bottom: 0px; font-size: 40px"";>מוכנים לשלם: <span id=""c_p_y""></span></p>","0","evaluation","34","6","14B,21C,25C","45","11","0","","","","","","","","","","","","","","","","",""
"","","","","","html-keyboard-response","98","1695243","0.0-17.0-2.26","99f25d54-f976-44b7-b397-8339b9b6ac27","null","<p style=""text-align: center;"">+</p>","null","fixation","","","","","","","","","","","","","","","","","","","","","","",""
"","","","","","html-slider-response","99","1696250","0.0-17.0-0.27","99f25d54-f976-44b7-b397-8339b9b6ac27","1000","
                  <p style=""text-align: center;"">₪71
                                                <br>45%</p>
                  <p id=""wtp"" style=""text-align:center; margin-top: 0px; margin-bottom: 0px; font-size: 40px"";>&ensp;</p>","-","viewing","0","26","2B,16A","","","","","","","","","","","","","","","","","","","",""
"","","","","","html-slider-response","100","1697426","0.0-17.0-1.27","99f25d54-f976-44b7-b397-8339b9b6ac27","1174","
                  <p style=""text-align: center;"">₪71
                                                <br>45%</p>
                  <p id=""wtp"" style=""text-align:center; margin-top: 0px; margin-bottom: 0px; font-size: 40px"";>מוכנים לשלם: <span id=""c_p_y""></span></p>","0","evaluation","76","26","2B,16A","45","71","0","","","","","","","","","","","","","","","","",""
"","","","","","html-keyboard-response","101","1698700","0.0-17.0-2.27","99f25d54-f976-44b7-b397-8339b9b6ac27","null","<p style=""text-align: center;"">+</p>","null","fixation","","","","","","","","","","","","","","","","","","","","","","",""
"","","","","","html-slider-response","102","1699702","0.0-17.0-0.28","99f25d54-f976-44b7-b397-8339b9b6ac27","1000","
                  <p style=""text-align: center;"">₪79
                                                <br>40%</p>
                  <p id=""wtp"" style=""text-align:center; margin-top: 0px; margin-bottom: 0px; font-size: 40px"";>&ensp;</p>","-","viewing","0","30","9B","","","","","","","","","","","","","","","","","","","",""
"","","","","","html-slider-response","103","1700346","0.0-17.0-1.28","99f25d54-f976-44b7-b397-8339b9b6ac27","643","
                  <p style=""text-align: center;"">₪79
                                                <br>40%</p>
                  <p id=""wtp"" style=""text-align:center; margin-top: 0px; margin-bottom: 0px; font-size: 40px"";>מוכנים לשלם: <span id=""c_p_y""></span></p>","0","evaluation","77","30","9B","40","79","0","","","","","","","","","","","","","","","","",""
"","","","","","html-keyboard-response","104","1701831","0.0-17.0-2.28","99f25d54-f976-44b7-b397-8339b9b6ac27","null","<p style=""text-align: center;"">+</p>","null","fixation","","","","","","","","","","","","","","","","","","","","","","",""
"","","","","","html-slider-response","105","1702835","0.0-17.0-0.29","99f25d54-f976-44b7-b397-8339b9b6ac27","1000","
                  <p style=""text-align: center;"">₪11
                                                <br>25%</p>
                  <p id=""wtp"" style=""text-align:center; margin-top: 0px; margin-bottom: 0px; font-size: 40px"";>&ensp;</p>","-","viewing","0","5","12A,27B,28B,30B","","","","","","","","","","","","","","","","","","","",""
"","","","","","html-slider-response","106","1703282","0.0-17.0-1.29","99f25d54-f976-44b7-b397-8339b9b6ac27","446","
                  <p style=""text-align: center;"">₪11
                                                <br>25%</p>
                  <p id=""wtp"" style=""text-align:center; margin-top: 0px; margin-bottom: 0px; font-size: 40px"";>מוכנים לשלם: <span id=""c_p_y""></span></p>","0","evaluation","29","5","12A,27B,28B,30B","25","11","0","","","","","","","","","","","","","","","","",""
"","","","","","html-keyboard-response","107","1703970","0.0-17.0-2.29","99f25d54-f976-44b7-b397-8339b9b6ac27","null","<p style=""text-align: center;"">+</p>","null","fixation","","","","","","","","","","","","","","","","","","","","","","",""
"","","","","","html-slider-response","108","1704983","0.0-17.0-0.30","99f25d54-f976-44b7-b397-8339b9b6ac27","1000","
                  <p style=""text-align: center;"">₪58
                                                <br>40%</p>
                  <p id=""wtp"" style=""text-align:center; margin-top: 0px; margin-bottom: 0px; font-size: 40px"";>&ensp;</p>","-","viewing","0","20","10C,13A,19C,21B","","","","","","","","","","","","","","","","","","","",""
"","","","","","html-slider-response","109","1706346","0.0-17.0-1.30","99f25d54-f976-44b7-b397-8339b9b6ac27","1361","
                  <p style=""text-align: center;"">₪58
                                                <br>40%</p>
                  <p id=""wtp"" style=""text-align:center; margin-top: 0px; margin-bottom: 0px; font-size: 40px"";>מוכנים לשלם: <span id=""c_p_y""></span></p>","0","evaluation","50","20","10C,13A,19C,21B","40","58","0","","","","","","","","","","","","","","","","",""
"","","","","","html-keyboard-response","110","1707377","0.0-17.0-2.30","99f25d54-f976-44b7-b397-8339b9b6ac27","null","<p style=""text-align: center;"">+</p>","null","fixation","","","","","","","","","","","","","","","","","","","","","","",""
"","","","","","html-keyboard-response","111","1708381","0.0-18.0","99f25d54-f976-44b7-b397-8339b9b6ac27","null","<p style=""text-align: center;"">+</p>","null","fixation","","","","","","","","","","","","","","","","","","","","","","",""
"","","","","","html-keyboard-response","112","1709674","0.0-19.0","99f25d54-f976-44b7-b397-8339b9b6ac27","null","<p>הפסקה.
          <br>לחצו כדי להמשיך.</p>","1","scan_wait","","","","","","","","","","","","","","","","","","","","","","",""
"","","","","","html-keyboard-response","113","1710677","0.0-20.0","99f25d54-f976-44b7-b397-8339b9b6ac27","null","<p style=""text-align: center;"">+</p>","null","fixation","","","","","","","","","","","","","","","","","","","","","","",""
"","","","","","html-slider-response","114","1711687","0.0-21.0-0.0","99f25d54-f976-44b7-b397-8339b9b6ac27","1000","
                  <p style=""text-align: center;"">₪79
                                                <br>40%</p>
                  <p id=""wtp"" style=""text-align:center; margin-top: 0px; margin-bottom: 0px; font-size: 40px"";>&ensp;</p>","-","viewing","0","30","9B","","","","","","","","","","","","","","","","","","","",""
"","","","","","html-slider-response","115","1712986","0.0-21.0-1.0","99f25d54-f976-44b7-b397-8339b9b6ac27","1297","
                  <p style=""text-align: center;"">₪79
                                                <br>40%</p>
                  <p id=""wtp"" style=""text-align:center; margin-top: 0px; margin-bottom: 0px; font-size: 40px"";>מוכנים לשלם: <span id=""c_p_y""></span></p>","0","evaluation","21","30","9B","40","79","0","","","","","","","","","","","","","","","","",""
"","","","","","html-keyboard-response","116","1713585","0.0-21.0-2.0","99f25d54-f976-44b7-b397-8339b9b6ac27","null","<p style=""text-align: center;"">+</p>","null","fixation","","","","","","","","","","","","","","","","","","","","","","",""
"","","","","","html-slider-response","117","1714593","0.0-21.0-0.1","99f25d54-f976-44b7-b397-8339b9b6ac27","1000","
                  <p style=""text-align: center;"">₪18
                                                <br>50%</p>
                  <p id=""wtp"" style=""text-align:center; margin-top: 0px; margin-bottom: 0px; font-size: 40px"";>&ensp;</p>","-","viewing","0","10","2C,16C,22B,28A","","","","","","","","","","","","","","","","","","","",""
"","","","","","html-slider-response","118","1715394","0.0-21.0-1.1","99f25d54-f976-44b7-b397-8339b9b6ac27","799","
                  <p style=""text-align: center;"">₪18
                                                <br>50%</p>
                  <p id=""wtp"" style=""text-align:center; margin-top: 0px; margin-bottom: 0px; font-size: 40px"";>מוכנים לשלם: <span id=""c_p_y""></span></p>","0","evaluation","71","10","2C,16C,22B,28A","50","18","0","","","","","","","","","","","","","","","","",""
"","","","","","html-keyboard-response","119","1716176","0.0-21.0-2.1","99f25d54-f976-44b7-b397-8339b9b6ac27","null","<p style=""text-align: center;"">+</p>","null","fixation","","","","","","","","","","","","","","","","","","","","","","",""
"","","","","","html-slider-response","120","1717188","0.0-21.0-0.2","99f25d54-f976-44b7-b397-8339b9b6ac27","1000","
                  <p style=""text-align: center;"">₪58
                                                <br>30%</p>
                  <p id=""wtp"" style=""text-align:center; margin-top: 0px; margin-bottom: 0px; font-size: 40px"";>&ensp;</p>","-","viewing","0","19","13C,30A","","","","","","","","","","","","","","","","","","","",""
"","","","","","html-slider-response","121","1717858","0.0-21.0-1.2","99f25d54-f976-44b7-b397-8339b9b6ac27","669","
                  <p style=""text-align: center;"">₪58
                                                <br>30%</p>
                  <p id=""wtp"" style=""text-align:center; margin-top: 0px; margin-bottom: 0px; font-size: 40px"";>מוכנים לשלם: <span id=""c_p_y""></span></p>","0","evaluation","64","19","13C,30A","30","58","0","","","","","","","","","","","","","","","","",""
"","","","","","html-keyboard-response","122","1718851","0.0-21.0-2.2","99f25d54-f976-44b7-b397-8339b9b6ac27","null","<p style=""text-align: center;"">+</p>","null","fixation","","","","","","","","","","","","","","","","","","","","","","",""
"","","","","","html-slider-response","123","1719862","0.0-21.0-0.3","99f25d54-f976-44b7-b397-8339b9b6ac27","1000","
                  <p style=""text-align: center;"">₪79
                                                <br>65%</p>
                  <p id=""wtp"" style=""text-align:center; margin-top: 0px; margin-bottom: 0px; font-size: 40px"";>&ensp;</p>","-","viewing","0","31","8A","","","","","","","","","","","","","","","","","","","",""
"","","","","","html-slider-response","124","1721410","0.0-21.0-1.3","99f25d54-f976-44b7-b397-8339b9b6ac27","1547","
                  <p style=""text-align: center;"">₪79
                                                <br>65%</p>
                  <p id=""wtp"" style=""text-align:center; margin-top: 0px; margin-bottom: 0px; font-size: 40px"";>מוכנים לשלם: <span id=""c_p_y""></span></p>","5","evaluation","38","31","8A","65","79","5","","","","","","","","","","","","","","","","",""
"","","","","","html-keyboard-response","125","1722881","0.0-21.0-2.3","99f25d54-f976-44b7-b397-8339b9b6ac27","null","<p style=""text-align: center;"">+</p>","null","fixation","","","","","","","","","","","","","","","","","","","","","","",""
"","","","","","html-slider-response","126","1723898","0.0-21.0-0.4","99f25d54-f976-44b7-b397-8339b9b6ac27","1000","
                  <p style=""text-align: center;"">₪58
                                                <br>40%</p>
                  <p id=""wtp"" style=""text-align:center; margin-top: 0px; margin-bottom: 0px; font-size: 40px"";>&ensp;</p>","-","viewing","0","20","10C,13A,19C,21B","","","","","","","","","","","","","","","","","","","",""
"","","","","","html-slider-response","127","1724594","0.0-21.0-1.4","99f25d54-f976-44b7-b397-8339b9b6ac27","694","
                  <p style=""text-align: center;"">₪58
                                                <br>40%</p>
                  <p id=""wtp"" style=""text-align:center; margin-top: 0px; margin-bottom: 0px; font-size: 40px"";>מוכנים לשלם: <span id=""c_p_y""></span></p>","0","evaluation","72","20","10C,13A,19C,21B","40","58","0","","","","","","","","","","","","","","","","",""
"","","","","","html-keyboard-response","128","1725645","0.0-21.0-2.4","99f25d54-f976-44b7-b397-8339b9b6ac27","null","<p style=""text-align: center;"">+</p>","null","fixation","","","","","","","","","","","","","","","","","","","","","","",""
"","","","","","html-slider-response","129","1726654","0.0-21.0-0.5","99f25d54-f976-44b7-b397-8339b9b6ac27","1000","
                  <p style=""text-align: center;"">₪43
                                                <br>75%</p>
                  <p id=""wtp"" style=""text-align:center; margin-top: 0px; margin-bottom: 0px; font-size: 40px"";>&ensp;</p>","-","viewing","0","18","11B,19B,24A,26A","","","","","","","","","","","","","","","","","","","",""
"","","","","","html-slider-response","130","1728538","0.0-21.0-1.5","99f25d54-f976-44b7-b397-8339b9b6ac27","1883","
                  <p style=""text-align: center;"">₪43
                                                <br>75%</p>
                  <p id=""wtp"" style=""text-align:center; margin-top: 0px; margin-bottom: 0px; font-size: 40px"";>מוכנים לשלם: <span id=""c_p_y""></span></p>","5","evaluation","30","18","11B,19B,24A,26A","75","43","5","","","","","","","","","","","","","","","","",""
"","","","","","html-keyboard-response","131","1729199","0.0-21.0-2.5","99f25d54-f976-44b7-b397-8339b9b6ac27","null","<p style=""text-align: center;"">+</p>","null","fixation","","","","","","","","","","","","","","","","","","","","","","",""
"","","","","","html-slider-response","132","1730207","0.0-21.0-0.6","99f25d54-f976-44b7-b397-8339b9b6ac27","1000","
                  <p style=""text-align: center;"">₪71
                                                <br>55%</p>
                  <p id=""wtp"" style=""text-align:center; margin-top: 0px; margin-bottom: 0px; font-size: 40px"";>&ensp;</p>","-","viewing","0","27","5B,18A","","","","","","","","","","","","","","","","","","","",""
"","","","","","html-slider-response","133","1732314","0.0-21.0-1.6","99f25d54-f976-44b7-b397-8339b9b6ac27","2106","
                  <p style=""text-align: center;"">₪71
                                                <br>55%</p>
                  <p id=""wtp"" style=""text-align:center; margin-top: 0px; margin-bottom: 0px; font-size: 40px"";>מוכנים לשלם: <span id=""c_p_y""></span></p>","5","evaluation","56","27","5B,18A","55","71","5","","","","","","","","","","","","","","","","",""
"","","","","","html-keyboard-response","134","1732860","0.0-21.0-2.6","99f25d54-f976-44b7-b397-8339b9b6ac27","null","<p style=""text-align: center;"">+</p>","null","fixation","","","","","","","","","","","","","","","","","","","","","","",""
"","","","","","html-slider-response","135","1733872","0.0-21.0-0.7","99f25d54-f976-44b7-b397-8339b9b6ac27","1000","
                  <p style=""text-align: center;"">₪11
                                                <br>20%</p>
                  <p id=""wtp"" style=""text-align:center; margin-top: 0px; margin-bottom: 0px; font-size: 40px"";>&ensp;</p>","-","viewing","0","4","12C,17C,23C,28C","","","","","","","","","","","","","","","","","","","",""
"","","","","","html-slider-response","136","1734634","0.0-21.0-1.7","99f25d54-f976-44b7-b397-8339b9b6ac27","761","
                  <p style=""text-align: center;"">₪11
                                                <br>20%</p>
                  <p id=""wtp"" style=""text-align:center; margin-top: 0px; margin-bottom: 0px; font-size: 40px"";>מוכנים לשלם: <span id=""c_p_y""></span></p>","0","evaluation","13","4","12C,17C,23C,28C","20","11","0","","","","","","","","","","","","","","","","",""
"","","","","","html-keyboard-response","137","1736014","0.0-21.0-2.7","99f25d54-f976-44b7-b397-8339b9b6ac27","null","<p style=""text-align: center;"">+</p>","null","fixation","","","","","","","","","","","","","","","","","","","","","","",""
"","","","","","html-slider-response","138","1737018","0.0-21.0-0.8","99f25d54-f976-44b7-b397-8339b9b6ac27","1000","
                  <p style=""text-align: center;"">₪71
                                                <br>45%</p>
                  <p id=""wtp"" style=""text-align:center; margin-top: 0px; margin-bottom: 0px; font-size: 40px"";>&ensp;</p>","-","viewing","0","26","2B,16A","","","","","","","","","","","","","","","","","","","",""
"","","","","","html-slider-response","139","1737898","0.0-21.0-1.8","99f25d54-f976-44b7-b397-8339b9b6ac27","880","
                  <p style=""text-align: center;"">₪71
                                                <br>45%</p>
                  <p id=""wtp"" style=""text-align:center; margin-top: 0px; margin-bottom: 0px; font-size: 40px"";>מוכנים לשלם: <span id=""c_p_y""></span></p>","0","evaluation","36","26","2B,16A","45","71","0","","","","","","","","","","","","","","","","",""
"","","","","","html-keyboard-response","140","1738729","0.0-21.0-2.8","99f25d54-f976-44b7-b397-8339b9b6ac27","null","<p style=""text-align: center;"">+</p>","null","fixation","","","","","","","","","","","","","","","","","","","","","","",""
"","","","","","html-slider-response","141","1739735","0.0-21.0-0.9","99f25d54-f976-44b7-b397-8339b9b6ac27","1000","
                  <p style=""text-align: center;"">₪36
                                                <br>75%</p>
                  <p id=""wtp"" style=""text-align:center; margin-top: 0px; margin-bottom: 0px; font-size: 40px"";>&ensp;</p>","-","viewing","0","14","4B,5A,13B,16B","","","","","","","","","","","","","","","","","","","",""
"","","","","","html-slider-response","142","1740706","0.0-21.0-1.9","99f25d54-f976-44b7-b397-8339b9b6ac27","970","
                  <p style=""text-align: center;"">₪36
                                                <br>75%</p>
                  <p id=""wtp"" style=""text-align:center; margin-top: 0px; margin-bottom: 0px; font-size: 40px"";>מוכנים לשלם: <span id=""c_p_y""></span></p>","0","evaluation","26","14","4B,5A,13B,16B","75","36","0","","","","","","","","","","","","","","","","",""
"","","","","","html-keyboard-response","143","1742146","0.0-21.0-2.9","99f25d54-f976-44b7-b397-8339b9b6ac27","null","<p style=""text-align: center;"">+</p>","null","fixation","","","","","","","","","","","","","","","","","","","","","","",""
"","","","","","html-slider-response","144","1743151","0.0-21.0-0.10","99f25d54-f976-44b7-b397-8339b9b6ac27","1000","
                  <p style=""text-align: center;"">₪39
                                                <br>65%</p>
                  <p id=""wtp"" style=""text-align:center; margin-top: 0px; margin-bottom: 0px; font-size: 40px"";>&ensp;</p>","-","viewing","0","16","1A,15A,26C","","","","","","","","","","","","","","","","","","","",""
"","","","","","html-slider-response","145","1745002","0.0-21.0-1.10","99f25d54-f976-44b7-b397-8339b9b6ac27","1850","
                  <p style=""text-align: center;"">₪39
                                                <br>65%</p>
                  <p id=""wtp"" style=""text-align:center; margin-top: 0px; margin-bottom: 0px; font-size: 40px"";>מוכנים לשלם: <span id=""c_p_y""></span></p>","4","evaluation","3","16","1A,15A,26C","65","39","4","","","","","","","","","","","","","","","","",""
"","","","","","html-keyboard-response","146","1745818","0.0-21.0-2.10","99f25d54-f976-44b7-b397-8339b9b6ac27","null","<p style=""text-align: center;"">+</p>","null","fixation","","","","","","","","","","","","","","","","","","","","","","",""
"","","","","","html-slider-response","147","1746824","0.0-21.0-0.11","99f25d54-f976-44b7-b397-8339b9b6ac27","1000","
                  <p style=""text-align: center;"">₪16
                                                <br>20%</p>
                  <p id=""wtp"" style=""text-align:center; margin-top: 0px; margin-bottom: 0px; font-size: 40px"";>&ensp;</p>","-","viewing","0","8","14C,17A,20C,27A","","","","","","","","","","","","","","","","","","","",""
"","","","","","html-slider-response","148","1747914","0.0-21.0-1.11","99f25d54-f976-44b7-b397-8339b9b6ac27","1089","
                  <p style=""text-align: center;"">₪16
                                                <br>20%</p>
                  <p id=""wtp"" style=""text-align:center; margin-top: 0px; margin-bottom: 0px; font-size: 40px"";>מוכנים לשלם: <span id=""c_p_y""></span></p>","0","evaluation","65","8","14C,17A,20C,27A","20","16","0","","","","","","","","","","","","","","","","",""
"","","","","","html-keyboard-response","149","1749098","0.0-21.0-2.11","99f25d54-f976-44b7-b397-8339b9b6ac27","null","<p style=""text-align: center;"">+</p>","null","fixation","","","","","","","","","","","","","","","","","","","","","","",""
"","","","","","html-slider-response","150","1750107","0.0-21.0-0.12","99f25d54-f976-44b7-b397-8339b9b6ac27","1000","
                  <p style=""text-align: center;"">₪36
                                                <br>60%</p>
                  <p id=""wtp"" style=""text-align:center; margin-top: 0px; margin-bottom: 0px; font-size: 40px"";>&ensp;</p>","-","viewing","0","12","1C,7C,15C","","","","","","","","","","","","","","","","","","","",""
"","","","","","html-slider-response","151","1751290","0.0-21.0-1.12","99f25d54-f976-44b7-b397-8339b9b6ac27","1182","
                  <p style=""text-align: center;"">₪36
                                                <br>60%</p>
                  <p id=""wtp"" style=""text-align:center; margin-top: 0px; margin-bottom: 0px; font-size: 40px"";>מוכנים לשלם: <span id=""c_p_y""></span></p>","5","evaluation","26","12","1C,7C,15C","60","36","5","","","","","","","","","","","","","","","","",""
"","","","","","html-keyboard-response","152","1751890","0.0-21.0-2.12","99f25d54-f976-44b7-b397-8339b9b6ac27","null","<p style=""text-align: center;"">+</p>","null","fixation","","","","","","","","","","","","","","","","","","","","","","",""
"","","","","","html-slider-response","153","1752899","0.0-21.0-0.13","99f25d54-f976-44b7-b397-8339b9b6ac27","1000","
                  <p style=""text-align: center;"">₪4
                                                <br>25%</p>
                  <p id=""wtp"" style=""text-align:center; margin-top: 0px; margin-bottom: 0px; font-size: 40px"";>&ensp;</p>","-","viewing","0","1","6C,29B,30C","","","","","","","","","","","","","","","","","","","",""
"","","","","","html-slider-response","154","1753746","0.0-21.0-1.13","99f25d54-f976-44b7-b397-8339b9b6ac27","846","
                  <p style=""text-align: center;"">₪4
                                                <br>25%</p>
                  <p id=""wtp"" style=""text-align:center; margin-top: 0px; margin-bottom: 0px; font-size: 40px"";>מוכנים לשלם: <span id=""c_p_y""></span></p>","0","evaluation","11","1","6C,29B,30C","25","4","0","","","","","","","","","","","","","","","","",""
"","","","","","html-keyboard-response","155","1754828","0.0-21.0-2.13","99f25d54-f976-44b7-b397-8339b9b6ac27","null","<p style=""text-align: center;"">+</p>","null","fixation","","","","","","","","","","","","","","","","","","","","","","",""
"","","","","","html-slider-response","156","1755833","0.0-21.0-0.14","99f25d54-f976-44b7-b397-8339b9b6ac27","1000","
                  <p style=""text-align: center;"">₪11
                                                <br>75%</p>
                  <p id=""wtp"" style=""text-align:center; margin-top: 0px; margin-bottom: 0px; font-size: 40px"";>&ensp;</p>","-","viewing","0","7","6B,18B,22C,24C,29A","","","","","","","","","","","","","","","","","","","",""
"","","","","","html-slider-response","157","1757762","0.0-21.0-1.14","99f25d54-f976-44b7-b397-8339b9b6ac27","1928","
                  <p style=""text-align: center;"">₪11
                                                <br>75%</p>
                  <p id=""wtp"" style=""text-align:center; margin-top: 0px; margin-bottom: 0px; font-size: 40px"";>מוכנים לשלם: <span id=""c_p_y""></span></p>","5","evaluation","3","7","6B,18B,22C,24C,29A","75","11","5","","","","","","","","","","","","","","","","",""
"","","","","","html-keyboard-response","158","1759067","0.0-21.0-2.14","99f25d54-f976-44b7-b397-8339b9b6ac27","null","<p style=""text-align: center;"">+</p>","null","fixation","","","","","","","","","","","","","","","","","","","","","","",""
"","","","","","html-slider-response","159","1760073","0.0-21.0-0.15","99f25d54-f976-44b7-b397-8339b9b6ac27","1000","
                  <p style=""text-align: center;"">₪76
                                                <br>65%</p>
                  <p id=""wtp"" style=""text-align:center; margin-top: 0px; margin-bottom: 0px; font-size: 40px"";>&ensp;</p>","-","viewing","0","29","8C,19A,24B","","","","","","","","","","","","","","","","","","","",""
"","","","","","html-slider-response","160","1761122","0.0-21.0-1.15","99f25d54-f976-44b7-b397-8339b9b6ac27","1049","
                  <p style=""text-align: center;"">₪76
                                                <br>65%</p>
                  <p id=""wtp"" style=""text-align:center; margin-top: 0px; margin-bottom: 0px; font-size: 40px"";>מוכנים לשלם: <span id=""c_p_y""></span></p>","5","evaluation","17","29","8C,19A,24B","65","76","5","","","","","","","","","","","","","","","","",""
"","","","","","html-keyboard-response","161","1762578","0.0-21.0-2.15","99f25d54-f976-44b7-b397-8339b9b6ac27","null","<p style=""text-align: center;"">+</p>","null","fixation","","","","","","","","","","","","","","","","","","","","","","",""
"","","","","","html-slider-response","162","1763591","0.0-21.0-0.16","99f25d54-f976-44b7-b397-8339b9b6ac27","1000","
                  <p style=""text-align: center;"">₪4
                                                <br>75%</p>
                  <p id=""wtp"" style=""text-align:center; margin-top: 0px; margin-bottom: 0px; font-size: 40px"";>&ensp;</p>","-","viewing","0","3","12B,20B,23B,27C,29C","","","","","","","","","","","","","","","","","","","",""
"","","","","","html-slider-response","163","1765034","0.0-21.0-1.16","99f25d54-f976-44b7-b397-8339b9b6ac27","1442","
                  <p style=""text-align: center;"">₪4
                                                <br>75%</p>
                  <p id=""wtp"" style=""text-align:center; margin-top: 0px; margin-bottom: 0px; font-size: 40px"";>מוכנים לשלם: <span id=""c_p_y""></span></p>","4","evaluation","30","3","12B,20B,23B,27C,29C","75","4","4","","","","","","","","","","","","","","","","",""
"","","","","","html-keyboard-response","164","1765872","0.0-21.0-2.16","99f25d54-f976-44b7-b397-8339b9b6ac27","null","<p style=""text-align: center;"">+</p>","null","fixation","","","","","","","","","","","","","","","","","","","","","","",""
"","","","","","html-slider-response","165","1766878","0.0-21.0-0.17","99f25d54-f976-44b7-b397-8339b9b6ac27","1000","
                  <p style=""text-align: center;"">₪61
                                                <br>45%</p>
                  <p id=""wtp"" style=""text-align:center; margin-top: 0px; margin-bottom: 0px; font-size: 40px"";>&ensp;</p>","-","viewing","0","22","10A,11A","","","","","","","","","","","","","","","","","","","",""
"","","","","","html-slider-response","166","1768394","0.0-21.0-1.17","99f25d54-f976-44b7-b397-8339b9b6ac27","1514","
                  <p style=""text-align: center;"">₪61
                                                <br>45%</p>
                  <p id=""wtp"" style=""text-align:center; margin-top: 0px; margin-bottom: 0px; font-size: 40px"";>מוכנים לשלם: <span id=""c_p_y""></span></p>","0","evaluation","21","22","10A,11A","45","61","0","","","","","","","","","","","","","","","","",""
"","","","","","html-keyboard-response","167","1769023","0.0-21.0-2.17","99f25d54-f976-44b7-b397-8339b9b6ac27","null","<p style=""text-align: center;"">+</p>","null","fixation","","","","","","","","","","","","","","","","","","","","","","",""
"","","","","","html-slider-response","168","1770030","0.0-21.0-0.18","99f25d54-f976-44b7-b397-8339b9b6ac27","1000","
                  <p style=""text-align: center;"">₪11
                                                <br>25%</p>
                  <p id=""wtp"" style=""text-align:center; margin-top: 0px; margin-bottom: 0px; font-size: 40px"";>&ensp;</p>","-","viewing","0","5","12A,27B,28B,30B","","","","","","","","","","","","","","","","","","","",""
"","","","","","html-slider-response","169","1771722","0.0-21.0-1.18","99f25d54-f976-44b7-b397-8339b9b6ac27","1691","
                  <p style=""text-align: center;"">₪11
                                                <br>25%</p>
                  <p id=""wtp"" style=""text-align:center; margin-top: 0px; margin-bottom: 0px; font-size: 40px"";>מוכנים לשלם: <span id=""c_p_y""></span></p>","0","evaluation","1","5","12A,27B,28B,30B","25","11","0","","","","","","","","","","","","","","","","",""
"","","","","","html-keyboard-response","170","1772872","0.0-21.0-2.18","99f25d54-f976-44b7-b397-8339b9b6ac27","null","<p style=""text-align: center;"">+</p>","null","fixation","","","","","","","","","","","","","","","","","","","","","","",""
"","","","","","html-slider-response","171","1773880","0.0-21.0-0.19","99f25d54-f976-44b7-b397-8339b9b6ac27","1000","
                  <p style=""text-align: center;"">₪39
                                                <br>60%</p>
                  <p id=""wtp"" style=""text-align:center; margin-top: 0px; margin-bottom: 0px; font-size: 40px"";>&ensp;</p>","-","viewing","0","15","9C,25B","","","","","","","","","","","","","","","","","","","",""
"","","","","","html-slider-response","172","1775658","0.0-21.0-1.19","99f25d54-f976-44b7-b397-8339b9b6ac27","1778","
                  <p style=""text-align: center;"">₪39
                                                <br>60%</p>
                  <p id=""wtp"" style=""text-align:center; margin-top: 0px; margin-bottom: 0px; font-size: 40px"";>מוכנים לשלם: <span id=""c_p_y""></span></p>","5","evaluation","12","15","9C,25B","60","39","5","","","","","","","","","","","","","","","","",""
"","","","","","html-keyboard-response","173","1776187","0.0-21.0-2.19","99f25d54-f976-44b7-b397-8339b9b6ac27","null","<p style=""text-align: center;"">+</p>","null","fixation","","","","","","","","","","","","","","","","","","","","","","",""
"","","","","","html-slider-response","174","1777189","0.0-21.0-0.20","99f25d54-f976-44b7-b397-8339b9b6ac27","1000","
                  <p style=""text-align: center;"">₪11
                                                <br>45%</p>
                  <p id=""wtp"" style=""text-align:center; margin-top: 0px; margin-bottom: 0px; font-size: 40px"";>&ensp;</p>","-","viewing","0","6","14B,21C,25C","","","","","","","","","","","","","","","","","","","",""
"","","","","","html-slider-response","175","1778538","0.0-21.0-1.20","99f25d54-f976-44b7-b397-8339b9b6ac27","1348","
                  <p style=""text-align: center;"">₪11
                                                <br>45%</p>
                  <p id=""wtp"" style=""text-align:center; margin-top: 0px; margin-bottom: 0px; font-size: 40px"";>מוכנים לשלם: <span id=""c_p_y""></span></p>","0","evaluation","67","6","14B,21C,25C","45","11","0","","","","","","","","","","","","","","","","",""
"","","","","","html-keyboard-response","176","1779318","0.0-21.0-2.20","99f25d54-f976-44b7-b397-8339b9b6ac27","null","<p style=""text-align: center;"">+</p>","null","fixation","","","","","","","","","","","","","","","","","","","","","","",""
"","","","","","html-slider-response","177","1780322","0.0-21.0-0.21","99f25d54-f976-44b7-b397-8339b9b6ac27","1000","
                  <p style=""text-align: center;"">₪43
                                                <br>60%</p>
                  <p id=""wtp"" style=""text-align:center; margin-top: 0px; margin-bottom: 0px; font-size: 40px"";>&ensp;</p>","-","viewing","0","17","2A,7A,9A,15B","","","","","","","","","","","","","","","","","","","",""
"","","","","","html-slider-response","178","1781554","0.0-21.0-1.21","99f25d54-f976-44b7-b397-8339b9b6ac27","1231","
                  <p style=""text-align: center;"">₪43
                                                <br>60%</p>
                  <p id=""wtp"" style=""text-align:center; margin-top: 0px; margin-bottom: 0px; font-size: 40px"";>מוכנים לשלם: <span id=""c_p_y""></span></p>","0","evaluation","61","17","2A,7A,9A,15B","60","43","0","","","","","","","","","","","","","","","","",""
"","","","","","html-keyboard-response","179","1782857","0.0-21.0-2.21","99f25d54-f976-44b7-b397-8339b9b6ac27","null","<p style=""text-align: center;"">+</p>","null","fixation","","","","","","","","","","","","","","","","","","","","","","",""
"","","","","","html-slider-response","180","1783870","0.0-21.0-0.22","99f25d54-f976-44b7-b397-8339b9b6ac27","1000","
                  <p style=""text-align: center;"">₪18
                                                <br>25%</p>
                  <p id=""wtp"" style=""text-align:center; margin-top: 0px; margin-bottom: 0px; font-size: 40px"";>&ensp;</p>","-","viewing","0","9","14A,23A","","","","","","","","","","","","","","","","","","","",""
"","","","","","html-slider-response","181","1784450","0.0-21.0-1.22","99f25d54-f976-44b7-b397-8339b9b6ac27","579","
                  <p style=""text-align: center;"">₪18
                                                <br>25%</p>
                  <p id=""wtp"" style=""text-align:center; margin-top: 0px; margin-bottom: 0px; font-size: 40px"";>מוכנים לשלם: <span id=""c_p_y""></span></p>","0","evaluation","55","9","14A,23A","25","18","0","","","","","","","","","","","","","","","","",""
"","","","","","html-keyboard-response","182","1785728","0.0-21.0-2.22","99f25d54-f976-44b7-b397-8339b9b6ac27","null","<p style=""text-align: center;"">+</p>","null","fixation","","","","","","","","","","","","","","","","","","","","","","",""
"","","","","","html-slider-response","183","1786731","0.0-21.0-0.23","99f25d54-f976-44b7-b397-8339b9b6ac27","1000","
                  <p style=""text-align: center;"">₪64
                                                <br>50%</p>
                  <p id=""wtp"" style=""text-align:center; margin-top: 0px; margin-bottom: 0px; font-size: 40px"";>&ensp;</p>","-","viewing","0","25","1B,3B,4A","","","","","","","","","","","","","","","","","","","",""
"","","","","","html-slider-response","184","1787650","0.0-21.0-1.23","99f25d54-f976-44b7-b397-8339b9b6ac27","917","
                  <p style=""text-align: center;"">₪64
                                                <br>50%</p>
                  <p id=""wtp"" style=""text-align:center; margin-top: 0px; margin-bottom: 0px; font-size: 40px"";>מוכנים לשלם: <span id=""c_p_y""></span></p>","0","evaluation","30","25","1B,3B,4A","50","64","0","","","","","","","","","","","","","","","","",""
"","","","","","html-keyboard-response","185","1789103","0.0-21.0-2.23","99f25d54-f976-44b7-b397-8339b9b6ac27","null","<p style=""text-align: center;"">+</p>","null","fixation","","","","","","","","","","","","","","","","","","","","","","",""
"","","","","","html-slider-response","186","1790118","0.0-21.0-0.24","99f25d54-f976-44b7-b397-8339b9b6ac27","1000","
                  <p style=""text-align: center;"">₪36
                                                <br>30%</p>
                  <p id=""wtp"" style=""text-align:center; margin-top: 0px; margin-bottom: 0px; font-size: 40px"";>&ensp;</p>","-","viewing","0","11","3C,20A,22A","","","","","","","","","","","","","","","","","","","",""
"","","","","","html-slider-response","187","1790850","0.0-21.0-1.24","99f25d54-f976-44b7-b397-8339b9b6ac27","731","
                  <p style=""text-align: center;"">₪36
                                                <br>30%</p>
                  <p id=""wtp"" style=""text-align:center; margin-top: 0px; margin-bottom: 0px; font-size: 40px"";>מוכנים לשלם: <span id=""c_p_y""></span></p>","0","evaluation","31","11","3C,20A,22A","30","36","0","","","","","","","","","","","","","","","","",""
"","","","","","html-keyboard-response","188","1791593","0.0-21.0-2.24","99f25d54-f976-44b7-b397-8339b9b6ac27","null","<p style=""text-align: center;"">+</p>","null","fixation","","","","","","","","","","","","","","","","","","","","","","",""
"","","","","","html-slider-response","189","1792608","0.0-21.0-0.25","99f25d54-f976-44b7-b397-8339b9b6ac27","1000","
                  <p style=""text-align: center;"">₪4
                                                <br>50%</p>
                  <p id=""wtp"" style=""text-align:center; margin-top: 0px; margin-bottom: 0px; font-size: 40px"";>&ensp;</p>","-","viewing","0","2","4C,17B","","","","","","","","","","","","","","","","","","","",""
"","","","","","html-slider-response","190","1793553","0.0-21.0-1.25","99f25d54-f976-44b7-b397-8339b9b6ac27","944","
                  <p style=""text-align: center;"">₪4
                                                <br>50%</p>
                  <p id=""wtp"" style=""text-align:center; margin-top: 0px; margin-bottom: 0px; font-size: 40px"";>מוכנים לשלם: <span id=""c_p_y""></span></p>","0","evaluation","24","2","4C,17B","50","4","0","","","","","","","","","","","","","","","","",""
"","","","","","html-keyboard-response","191","1794681","0.0-21.0-2.25","99f25d54-f976-44b7-b397-8339b9b6ac27","null","<p style=""text-align: center;"">+</p>","null","fixation","","","","","","","","","","","","","","","","","","","","","","",""
"","","","","","html-slider-response","192","1795684","0.0-21.0-0.26","99f25d54-f976-44b7-b397-8339b9b6ac27","1000","
                  <p style=""text-align: center;"">₪36
                                                <br>70%</p>
                  <p id=""wtp"" style=""text-align:center; margin-top: 0px; margin-bottom: 0px; font-size: 40px"";>&ensp;</p>","-","viewing","0","13","3A,5C,10B","","","","","","","","","","","","","","","","","","","",""
"","","","","","html-slider-response","193","1797194","0.0-21.0-1.26","99f25d54-f976-44b7-b397-8339b9b6ac27","1509","
                  <p style=""text-align: center;"">₪36
                                                <br>70%</p>
                  <p id=""wtp"" style=""text-align:center; margin-top: 0px; margin-bottom: 0px; font-size: 40px"";>מוכנים לשלם: <span id=""c_p_y""></span></p>","5","evaluation","8","13","3A,5C,10B","70","36","5","","","","","","","","","","","","","","","","",""
"","","","","","html-keyboard-response","194","1798006","0.0-21.0-2.26","99f25d54-f976-44b7-b397-8339b9b6ac27","null","<p style=""text-align: center;"">+</p>","null","fixation","","","","","","","","","","","","","","","","","","","","","","",""
"","","","","","html-slider-response","195","1799011","0.0-21.0-0.27","99f25d54-f976-44b7-b397-8339b9b6ac27","1000","
                  <p style=""text-align: center;"">₪71
                                                <br>75%</p>
                  <p id=""wtp"" style=""text-align:center; margin-top: 0px; margin-bottom: 0px; font-size: 40px"";>&ensp;</p>","-","viewing","0","28","8B","","","","","","","","","","","","","","","","","","","",""
"","","","","","html-slider-response","196","1802082","0.0-21.0-1.27","99f25d54-f976-44b7-b397-8339b9b6ac27","3070","
                  <p style=""text-align: center;"">₪71
                                                <br>75%</p>
                  <p id=""wtp"" style=""text-align:center; margin-top: 0px; margin-bottom: 0px; font-size: 40px"";>מוכנים לשלם: <span id=""c_p_y""></span></p>","9","evaluation","21","28","8B","75","71","9","","","","","","","","","","","","","","","","",""
"","","","","","html-keyboard-response","197","1802656","0.0-21.0-2.27","99f25d54-f976-44b7-b397-8339b9b6ac27","null","<p style=""text-align: center;"">+</p>","null","fixation","","","","","","","","","","","","","","","","","","","","","","",""
"","","","","","html-slider-response","198","1803666","0.0-21.0-0.28","99f25d54-f976-44b7-b397-8339b9b6ac27","1000","
                  <p style=""text-align: center;"">₪64
                                                <br>25%</p>
                  <p id=""wtp"" style=""text-align:center; margin-top: 0px; margin-bottom: 0px; font-size: 40px"";>&ensp;</p>","-","viewing","0","24","6A,21A","","","","","","","","","","","","","","","","","","","",""
"","","","","","html-slider-response","199","1804690","0.0-21.0-1.28","99f25d54-f976-44b7-b397-8339b9b6ac27","1023","
                  <p style=""text-align: center;"">₪64
                                                <br>25%</p>
                  <p id=""wtp"" style=""text-align:center; margin-top: 0px; margin-bottom: 0px; font-size: 40px"";>מוכנים לשלם: <span id=""c_p_y""></span></p>","0","evaluation","21","24","6A,21A","25","64","0","","","","","","","","","","","","","","","","",""
"","","","","","html-keyboard-response","200","1805434","0.0-21.0-2.28","99f25d54-f976-44b7-b397-8339b9b6ac27","null","<p style=""text-align: center;"">+</p>","null","fixation","","","","","","","","","","","","","","","","","","","","","","",""
"","","","","","html-slider-response","201","1806443","0.0-21.0-0.29","99f25d54-f976-44b7-b397-8339b9b6ac27","1000","
                  <p style=""text-align: center;"">₪58
                                                <br>45%</p>
                  <p id=""wtp"" style=""text-align:center; margin-top: 0px; margin-bottom: 0px; font-size: 40px"";>&ensp;</p>","-","viewing","0","21","11C,18C,25A","","","","","","","","","","","","","","","","","","","",""
"","","","","","html-slider-response","202","1807282","0.0-21.0-1.29","99f25d54-f976-44b7-b397-8339b9b6ac27","839","
                  <p style=""text-align: center;"">₪58
                                                <br>45%</p>
                  <p id=""wtp"" style=""text-align:center; margin-top: 0px; margin-bottom: 0px; font-size: 40px"";>מוכנים לשלם: <span id=""c_p_y""></span></p>","0","evaluation","64","21","11C,18C,25A","45","58","0","","","","","","","","","","","","","","","","",""
"","","","","","html-keyboard-response","203","1808069","0.0-21.0-2.29","99f25d54-f976-44b7-b397-8339b9b6ac27","null","<p style=""text-align: center;"">+</p>","null","fixation","","","","","","","","","","","","","","","","","","","","","","",""
"","","","","","html-slider-response","204","1809071","0.0-21.0-0.30","99f25d54-f976-44b7-b397-8339b9b6ac27","1000","
                  <p style=""text-align: center;"">₪61
                                                <br>55%</p>
                  <p id=""wtp"" style=""text-align:center; margin-top: 0px; margin-bottom: 0px; font-size: 40px"";>&ensp;</p>","-","viewing","0","23","7B,26B","","","","","","","","","","","","","","","","","","","",""
"","","","","","html-slider-response","205","1810026","0.0-21.0-1.30","99f25d54-f976-44b7-b397-8339b9b6ac27","954","
                  <p style=""text-align: center;"">₪61
                                                <br>55%</p>
                  <p id=""wtp"" style=""text-align:center; margin-top: 0px; margin-bottom: 0px; font-size: 40px"";>מוכנים לשלם: <span id=""c_p_y""></span></p>","0","evaluation","80","23","7B,26B","55","61","0","","","","","","","","","","","","","","","","",""
"","","","","","html-keyboard-response","206","1810960","0.0-21.0-2.30","99f25d54-f976-44b7-b397-8339b9b6ac27","null","<p style=""text-align: center;"">+</p>","null","fixation","","","","","","","","","","","","","","","","","","","","","","",""
"","","","","","html-keyboard-response","207","1811973","0.0-22.0","99f25d54-f976-44b7-b397-8339b9b6ac27","null","<p style=""text-align: center;"">+</p>","null","fixation","","","","","","","","","","","","","","","","","","","","","","",""
"","","","","","html-keyboard-response","208","1813210","0.0-23.0","99f25d54-f976-44b7-b397-8339b9b6ac27","null","<p>הפסקה.
          <br>לחצו כדי להמשיך.</p>","1","scan_wait","","","","","","","","","","","","","","","","","","","","","","",""
"","","","","","html-keyboard-response","209","1814225","0.0-24.0","99f25d54-f976-44b7-b397-8339b9b6ac27","null","<p style=""text-align: center;"">+</p>","null","fixation","","","","","","","","","","","","","","","","","","","","","","",""
"","","","","","html-slider-response","210","1815228","0.0-25.0-0.0","99f25d54-f976-44b7-b397-8339b9b6ac27","1000","
                  <p style=""text-align: center;"">₪61
                                                <br>45%</p>
                  <p id=""wtp"" style=""text-align:center; margin-top: 0px; margin-bottom: 0px; font-size: 40px"";>&ensp;</p>","-","viewing","0","22","10A,11A","","","","","","","","","","","","","","","","","","","",""
"","","","","","html-slider-response","211","1816050","0.0-25.0-1.0","99f25d54-f976-44b7-b397-8339b9b6ac27","821","
                  <p style=""text-align: center;"">₪61
                                                <br>45%</p>
                  <p id=""wtp"" style=""text-align:center; margin-top: 0px; margin-bottom: 0px; font-size: 40px"";>מוכנים לשלם: <span id=""c_p_y""></span></p>","0","evaluation","46","22","10A,11A","45","61","0","","","","","","","","","","","","","","","","",""
"","","","","","html-keyboard-response","212","1816804","0.0-25.0-2.0","99f25d54-f976-44b7-b397-8339b9b6ac27","null","<p style=""text-align: center;"">+</p>","null","fixation","","","","","","","","","","","","","","","","","","","","","","",""
"","","","","","html-slider-response","213","1817808","0.0-25.0-0.1","99f25d54-f976-44b7-b397-8339b9b6ac27","1000","
                  <p style=""text-align: center;"">₪64
                                                <br>25%</p>
                  <p id=""wtp"" style=""text-align:center; margin-top: 0px; margin-bottom: 0px; font-size: 40px"";>&ensp;</p>","-","viewing","0","24","6A,21A","","","","","","","","","","","","","","","","","","","",""
"","","","","","html-slider-response","214","1818186","0.0-25.0-1.1","99f25d54-f976-44b7-b397-8339b9b6ac27","376","
                  <p style=""text-align: center;"">₪64
                                                <br>25%</p>
                  <p id=""wtp"" style=""text-align:center; margin-top: 0px; margin-bottom: 0px; font-size: 40px"";>מוכנים לשלם: <span id=""c_p_y""></span></p>","0","evaluation","67","24","6A,21A","25","64","0","","","","","","","","","","","","","","","","",""
"","","","","","html-keyboard-response","215","1818947","0.0-25.0-2.1","99f25d54-f976-44b7-b397-8339b9b6ac27","null","<p style=""text-align: center;"">+</p>","null","fixation","","","","","","","","","","","","","","","","","","","","","","",""
"","","","","","html-slider-response","216","1819964","0.0-25.0-0.2","99f25d54-f976-44b7-b397-8339b9b6ac27","1000","
                  <p style=""text-align: center;"">₪36
                                                <br>30%</p>
                  <p id=""wtp"" style=""text-align:center; margin-top: 0px; margin-bottom: 0px; font-size: 40px"";>&ensp;</p>","-","viewing","0","11","3C,20A,22A","","","","","","","","","","","","","","","","","","","",""
"","","","","","html-slider-response","217","1820442","0.0-25.0-1.2","99f25d54-f976-44b7-b397-8339b9b6ac27","478","
                  <p style=""text-align: center;"">₪36
                                                <br>30%</p>
                  <p id=""wtp"" style=""text-align:center; margin-top: 0px; margin-bottom: 0px; font-size: 40px"";>מוכנים לשלם: <span id=""c_p_y""></span></p>","2","evaluation","2","11","3C,20A,22A","30","36","2","","","","","","","","","","","","","","","","",""
"","","","","","html-keyboard-response","218","1821949","0.0-25.0-2.2","99f25d54-f976-44b7-b397-8339b9b6ac27","null","<p style=""text-align: center;"">+</p>","null","fixation","","","","","","","","","","","","","","","","","","","","","","",""
"","","","","","html-slider-response","219","1822950","0.0-25.0-0.3","99f25d54-f976-44b7-b397-8339b9b6ac27","1000","
                  <p style=""text-align: center;"">₪18
                                                <br>50%</p>
                  <p id=""wtp"" style=""text-align:center; margin-top: 0px; margin-bottom: 0px; font-size: 40px"";>&ensp;</p>","-","viewing","0","10","2C,16C,22B,28A","","","","","","","","","","","","","","","","","","","",""
"","","","","","html-slider-response","220","1823386","0.0-25.0-1.3","99f25d54-f976-44b7-b397-8339b9b6ac27","435","
                  <p style=""text-align: center;"">₪18
                                                <br>50%</p>
                  <p id=""wtp"" style=""text-align:center; margin-top: 0px; margin-bottom: 0px; font-size: 40px"";>מוכנים לשלם: <span id=""c_p_y""></span></p>","0","evaluation","9","10","2C,16C,22B,28A","50","18","0","","","","","","","","","","","","","","","","",""
"","","","","","html-keyboard-response","221","1824213","0.0-25.0-2.3","99f25d54-f976-44b7-b397-8339b9b6ac27","null","<p style=""text-align: center;"">+</p>","null","fixation","","","","","","","","","","","","","","","","","","","","","","",""
"","","","","","html-slider-response","222","1825222","0.0-25.0-0.4","99f25d54-f976-44b7-b397-8339b9b6ac27","1000","
                  <p style=""text-align: center;"">₪71
                                                <br>55%</p>
                  <p id=""wtp"" style=""text-align:center; margin-top: 0px; margin-bottom: 0px; font-size: 40px"";>&ensp;</p>","-","viewing","0","27","5B,18A","","","","","","","","","","","","","","","","","","","",""
"","","","","","html-slider-response","223","1827034","0.0-25.0-1.4","99f25d54-f976-44b7-b397-8339b9b6ac27","1811","
                  <p style=""text-align: center;"">₪71
                                                <br>55%</p>
                  <p id=""wtp"" style=""text-align:center; margin-top: 0px; margin-bottom: 0px; font-size: 40px"";>מוכנים לשלם: <span id=""c_p_y""></span></p>","5","evaluation","14","27","5B,18A","55","71","5","","","","","","","","","","","","","","","","",""
"","","","","","html-keyboard-response","224","1828298","0.0-25.0-2.4","99f25d54-f976-44b7-b397-8339b9b6ac27","null","<p style=""text-align: center;"">+</p>","null","fixation","","","","","","","","","","","","","","","","","","","","","","",""
"","","","","","html-slider-response","225","1829307","0.0-25.0-0.5","99f25d54-f976-44b7-b397-8339b9b6ac27","1000","
                  <p style=""text-align: center;"">₪43
                                                <br>75%</p>
                  <p id=""wtp"" style=""text-align:center; margin-top: 0px; margin-bottom: 0px; font-size: 40px"";>&ensp;</p>","-","viewing","0","18","11B,19B,24A,26A","","","","","","","","","","","","","","","","","","","",""
"","","","","","html-slider-response","226","1831106","0.0-25.0-1.5","99f25d54-f976-44b7-b397-8339b9b6ac27","1798","
                  <p style=""text-align: center;"">₪43
                                                <br>75%</p>
                  <p id=""wtp"" style=""text-align:center; margin-top: 0px; margin-bottom: 0px; font-size: 40px"";>מוכנים לשלם: <span id=""c_p_y""></span></p>","5","evaluation","27","18","11B,19B,24A,26A","75","43","5","","","","","","","","","","","","","","","","",""
"","","","","","html-keyboard-response","227","1832096","0.0-25.0-2.5","99f25d54-f976-44b7-b397-8339b9b6ac27","null","<p style=""text-align: center;"">+</p>","null","fixation","","","","","","","","","","","","","","","","","","","","","","",""
"","","","","","html-slider-response","228","1833110","0.0-25.0-0.6","99f25d54-f976-44b7-b397-8339b9b6ac27","1000","
                  <p style=""text-align: center;"">₪11
                                                <br>45%</p>
                  <p id=""wtp"" style=""text-align:center; margin-top: 0px; margin-bottom: 0px; font-size: 40px"";>&ensp;</p>","-","viewing","0","6","14B,21C,25C","","","","","","","","","","","","","","","","","","","",""
"","","","","","html-slider-response","229","1833874","0.0-25.0-1.6","99f25d54-f976-44b7-b397-8339b9b6ac27","762","
                  <p style=""text-align: center;"">₪11
                                                <br>45%</p>
                  <p id=""wtp"" style=""text-align:center; margin-top: 0px; margin-bottom: 0px; font-size: 40px"";>מוכנים לשלם: <span id=""c_p_y""></span></p>","0","evaluation","73","6","14B,21C,25C","45","11","0","","","","","","","","","","","","","","","","",""
"","","","","","html-keyboard-response","230","1834424","0.0-25.0-2.6","99f25d54-f976-44b7-b397-8339b9b6ac27","null","<p style=""text-align: center;"">+</p>","null","fixation","","","","","","","","","","","","","","","","","","","","","","",""
"","","","","","html-slider-response","231","1835426","0.0-25.0-0.7","99f25d54-f976-44b7-b397-8339b9b6ac27","1000","
                  <p style=""text-align: center;"">₪64
                                                <br>50%</p>
                  <p id=""wtp"" style=""text-align:center; margin-top: 0px; margin-bottom: 0px; font-size: 40px"";>&ensp;</p>","-","viewing","0","25","1B,3B,4A","","","","","","","","","","","","","","","","","","","",""
"","","","","","html-slider-response","232","1836306","0.0-25.0-1.7","99f25d54-f976-44b7-b397-8339b9b6ac27","878","
                  <p style=""text-align: center;"">₪64
                                                <br>50%</p>
                  <p id=""wtp"" style=""text-align:center; margin-top: 0px; margin-bottom: 0px; font-size: 40px"";>מוכנים לשלם: <span id=""c_p_y""></span></p>","0","evaluation","37","25","1B,3B,4A","50","64","0","","","","","","","","","","","","","","","","",""
"","","","","","html-keyboard-response","233","1837049","0.0-25.0-2.7","99f25d54-f976-44b7-b397-8339b9b6ac27","null","<p style=""text-align: center;"">+</p>","null","fixation","","","","","","","","","","","","","","","","","","","","","","",""
"","","","","","html-slider-response","234","1838065","0.0-25.0-0.8","99f25d54-f976-44b7-b397-8339b9b6ac27","1000","
                  <p style=""text-align: center;"">₪58
                                                <br>45%</p>
                  <p id=""wtp"" style=""text-align:center; margin-top: 0px; margin-bottom: 0px; font-size: 40px"";>&ensp;</p>","-","viewing","0","21","11C,18C,25A","","","","","","","","","","","","","","","","","","","",""
"","","","","","html-slider-response","235","1839043","0.0-25.0-1.8","99f25d54-f976-44b7-b397-8339b9b6ac27","977","
                  <p style=""text-align: center;"">₪58
                                                <br>45%</p>
                  <p id=""wtp"" style=""text-align:center; margin-top: 0px; margin-bottom: 0px; font-size: 40px"";>מוכנים לשלם: <span id=""c_p_y""></span></p>","0","evaluation","44","21","11C,18C,25A","45","58","0","","","","","","","","","","","","","","","","",""
"","","","","","html-keyboard-response","236","1840315","0.0-25.0-2.8","99f25d54-f976-44b7-b397-8339b9b6ac27","null","<p style=""text-align: center;"">+</p>","null","fixation","","","","","","","","","","","","","","","","","","","","","","",""
"","","","","","html-slider-response","237","1841325","0.0-25.0-0.9","99f25d54-f976-44b7-b397-8339b9b6ac27","1000","
                  <p style=""text-align: center;"">₪36
                                                <br>60%</p>
                  <p id=""wtp"" style=""text-align:center; margin-top: 0px; margin-bottom: 0px; font-size: 40px"";>&ensp;</p>","-","viewing","0","12","1C,7C,15C","","","","","","","","","","","","","","","","","","","",""
"","","","","","html-slider-response","238","1843210","0.0-25.0-1.9","99f25d54-f976-44b7-b397-8339b9b6ac27","1884","
                  <p style=""text-align: center;"">₪36
                                                <br>60%</p>
                  <p id=""wtp"" style=""text-align:center; margin-top: 0px; margin-bottom: 0px; font-size: 40px"";>מוכנים לשלם: <span id=""c_p_y""></span></p>","5","evaluation","78","12","1C,7C,15C","60","36","5","","","","","","","","","","","","","","","","",""
"","","","","","html-keyboard-response","239","1844409","0.0-25.0-2.9","99f25d54-f976-44b7-b397-8339b9b6ac27","null","<p style=""text-align: center;"">+</p>","null","fixation","","","","","","","","","","","","","","","","","","","","","","",""
"","","","","","html-slider-response","240","1845412","0.0-25.0-0.10","99f25d54-f976-44b7-b397-8339b9b6ac27","1000","
                  <p style=""text-align: center;"">₪4
                                                <br>75%</p>
                  <p id=""wtp"" style=""text-align:center; margin-top: 0px; margin-bottom: 0px; font-size: 40px"";>&ensp;</p>","-","viewing","0","3","12B,20B,23B,27C,29C","","","","","","","","","","","","","","","","","","","",""
"","","","","","html-slider-response","241","1847378","0.0-25.0-1.10","99f25d54-f976-44b7-b397-8339b9b6ac27","1965","
                  <p style=""text-align: center;"">₪4
                                                <br>75%</p>
                  <p id=""wtp"" style=""text-align:center; margin-top: 0px; margin-bottom: 0px; font-size: 40px"";>מוכנים לשלם: <span id=""c_p_y""></span></p>","4","evaluation","73","3","12B,20B,23B,27C,29C","75","4","4","","","","","","","","","","","","","","","","",""
"","","","","","html-keyboard-response","242","1848239","0.0-25.0-2.10","99f25d54-f976-44b7-b397-8339b9b6ac27","null","<p style=""text-align: center;"">+</p>","null","fixation","","","","","","","","","","","","","","","","","","","","","","",""
"","","","","","html-slider-response","243","1849252","0.0-25.0-0.11","99f25d54-f976-44b7-b397-8339b9b6ac27","1000","
                  <p style=""text-align: center;"">₪4
                                                <br>25%</p>
                  <p id=""wtp"" style=""text-align:center; margin-top: 0px; margin-bottom: 0px; font-size: 40px"";>&ensp;</p>","-","viewing","0","1","6C,29B,30C","","","","","","","","","","","","","","","","","","","",""
"","","","","","html-slider-response","244","1850122","0.0-25.0-1.11","99f25d54-f976-44b7-b397-8339b9b6ac27","869","
                  <p style=""text-align: center;"">₪4
                                                <br>25%</p>
                  <p id=""wtp"" style=""text-align:center; margin-top: 0px; margin-bottom: 0px; font-size: 40px"";>מוכנים לשלם: <span id=""c_p_y""></span></p>","0","evaluation","62","1","6C,29B,30C","25","4","0","","","","","","","","","","","","","","","","",""
"","","","","","html-keyboard-response","245","1850910","0.0-25.0-2.11","99f25d54-f976-44b7-b397-8339b9b6ac27","null","<p style=""text-align: center;"">+</p>","null","fixation","","","","","","","","","","","","","","","","","","","","","","",""
"","","","","","html-slider-response","246","1851914","0.0-25.0-0.12","99f25d54-f976-44b7-b397-8339b9b6ac27","1000","
                  <p style=""text-align: center;"">₪18
                                                <br>25%</p>
                  <p id=""wtp"" style=""text-align:center; margin-top: 0px; margin-bottom: 0px; font-size: 40px"";>&ensp;</p>","-","viewing","0","9","14A,23A","","","","","","","","","","","","","","","","","","","",""
"","","","","","html-slider-response","247","1852690","0.0-25.0-1.12","99f25d54-f976-44b7-b397-8339b9b6ac27","775","
                  <p style=""text-align: center;"">₪18
                                                <br>25%</p>
                  <p id=""wtp"" style=""text-align:center; margin-top: 0px; margin-bottom: 0px; font-size: 40px"";>מוכנים לשלם: <span id=""c_p_y""></span></p>","0","evaluation","16","9","14A,23A","25","18","0","","","","","","","","","","","","","","","","",""
"","","","","","html-keyboard-response","248","1853370","0.0-25.0-2.12","99f25d54-f976-44b7-b397-8339b9b6ac27","null","<p style=""text-align: center;"">+</p>","null","fixation","","","","","","","","","","","","","","","","","","","","","","",""
"","","","","","html-slider-response","249","1854377","0.0-25.0-0.13","99f25d54-f976-44b7-b397-8339b9b6ac27","1000","
                  <p style=""text-align: center;"">₪58
                                                <br>40%</p>
