"success","timeout","failed_images","failed_audio","failed_video","trial_type","trial_index","time_elapsed","internal_node_id","subject_id","rt","stimulus","response","part","slider_start","ID","set_ID","prob","amount","last_location","actual_choice","actual_EV","binary_id","trinary_id","catch","A_key","D_key","choice_prob","choice_amount","potential_prize_prob","potential_prize_amount","won_prize","total_prize","accuracy"
"true","false","[]","[]","[]","preload","0","10","0.0-0.0","dfee4379-a815-456b-8011-1e095ba0fcdf","","","","","","","","","","","","","","","","","","","","","","","",""
"","","","","","html-keyboard-response","1","15172","0.0-1.0","dfee4379-a815-456b-8011-1e095ba0fcdf","null","
          <h1>שלום וברוכים הבאים!</h1>
          <p>לפניכם ניסוי בקבלת החלטות עם שני חלקים.
          <br><br>לחצו על העכבר כדי להמשיך.</p>","0","example","","","","","","","","","","","","","","","","","","","",""
"","","","","","html-keyboard-response","2","26804","0.0-2.0","dfee4379-a815-456b-8011-1e095ba0fcdf","null","
        <h1>חלק 1</h1>
        <p>בקרוב יוצגו בפניכם הגרלות.
        <br>עליכם לבחור את המחיר המירבי שתהיו מוכנים לשלם כדי להשתתף בהגרלה שתוצג.
        <br>יש לכם תקציב של ₪80 לכל הגרלה. 
        <br>נסו להעריך כל הגרלה בנפרד ולחשוב כמה היא שווה עבורכם, ₪80 זמינים לכל הגרלה בנפרד.
        <br><br>לחצו על העכבר כדי להמשיך.</p>","1","instructions","","","","","","","","","","","","","","","","","","","",""
"","","","","","html-keyboard-response","3","40092","0.0-3.0","dfee4379-a815-456b-8011-1e095ba0fcdf","null","
        <p>בסוף הניסוי, המחשב יבחר את אחת ההגרלות ויקבע מחיר לכרטיס עבורה. 
        <br>במידה והמחיר שבחרתם נמוך מהמחיר שנבחר על ידי המחשב, לא תשתתפו בהגרלה ותשארו עם מלוא התקציב.
        <br>במידה והמחיר שבחרתם גבוה מהמחיר שנבחר על ידי המחשב, תשלמו את המחיר שנקבע ותשתתפו בהגרלה.
        <br><br>לחצו על העכבר כדי להמשיך.</p>","1","instructions","","","","","","","","","","","","","","","","","","","",""
"","","","","","html-slider-response","4","68085","0.0-4.0","dfee4379-a815-456b-8011-1e095ba0fcdf","27886","
        <p style=""font-size: 42px;"">נתחיל עם דוגמא: 
        <br>ההגרלה מטה מציעה 65% סיכוי לזכות ב-₪40 
        <br>&emsp;&emsp;&emsp;&emsp;&emsp;&emsp;&emsp;&emsp;&ensp;35% סיכוי לזכות ב-₪0.
        <br><br>מה המחיר המירבי שתהיו מוכנים לשלם על כרטיס להגרלה זו בין 0 ל-₪80?
        <br>הזיזו את העכבר על פני המלבן ולחצו כדי לבצע בחירה.</p>
        
        <p style=""text-align: center;"">₪40<br>65%</p>

        <p id=""wtp"" style=""text-align:center; margin-top: 0px; margin-bottom: 0px; font-size: 40px"";>מוכנים לשלם: <span id=""c_p_y""></span></p>","60","example","26","","","","","","","","","","","","","","","","","","",""
"","","","","","html-keyboard-response","5","80829","0.0-5.0","dfee4379-a815-456b-8011-1e095ba0fcdf","null","<p>יפה מאוד!
                <br> בחרתם שתהיו מוכנים לשלם ₪60 כדי להשתתף בהגרלה:
                <br><p style=""text-align: center;"">₪40<br>65%</p>
                <p>נשמע נכון?
                <br>נניח שהגרלה זו נבחרה בסוף הניסוי.
                <br>כעת המחשב יקבע מחיר עבורה באקראי.
                <br>לחצו על העכבר להמשך.</p>","1","example","","","","","","","","","","","","","","","","","","","",""
"","","","","","html-keyboard-response","6","86461","0.0-6.0","dfee4379-a815-456b-8011-1e095ba0fcdf","null","<p>המחשב קבע מחיר: ₪66
                <br>ואתם בחרתם לשלם לכל היותר: ₪60
                <br><br>מכיוון שהמחיר שבחרתם נמוך מהמחיר שנקבע, לא תתשתתפו בהגרלה.
                <br>במקרה כזה, בסוף הניסוי תקבלו את כל התקציב ההתחלתי של ₪80.
                <br><br>לחצו על העכבר להמשך.</p>","1","example","","","","","","","","","","","","","","","","","","","",""
"","","","","","html-slider-response","7","104205","0.0-7.0","dfee4379-a815-456b-8011-1e095ba0fcdf","17482","<p style=""font-size: 42px;"">הנה עוד דוגמא:
                <br>ההגרלה מטה מציעה 35% סיכוי לזכות ב-₪18 
                <br>&emsp;&emsp;&emsp;&emsp;&emsp;&emsp;&emsp;&emsp;&ensp;65% סיכוי לזכות ב-₪0.</p>
        
                <p style=""text-align: center;"">₪18<br>35%</p>
                <p id=""wtp"" style=""text-align:center; margin-top: 0px; margin-bottom: 0px; font-size: 40px"";>מוכנים לשלם: <span id=""c_p_y""></span></p>","18","example","77","","","","","","","","","","","","","","","","","","",""
"","","","","","html-keyboard-response","8","107909","0.0-8.0","dfee4379-a815-456b-8011-1e095ba0fcdf","null","<p>הייתם מוכנים לשלם  ₪18 כדי להשתתף בהגרלה:
                <p style=""text-align: center;"">₪18<br>35%</p>
                <p>כעת נניח שהמחשב בחר את ההגרלה הזו בסוף הניסוי, וקבע עבורה מחיר.
                <br><br>לחצו על העכבר כדי להמשיך.</p>","1","instructions","","","","","","","","","","","","","","","","","","","",""
"","","","","","html-keyboard-response","9","122405","0.0-9.0","dfee4379-a815-456b-8011-1e095ba0fcdf","null","<p>המחשב קבע מחיר להגרלה: ₪16<br>ואתם בחרתם לשלם לכל היותר: ₪18
                <br><br>כעת המחיר שנקבע נמוך מזה שבחרתם, אז תשלמו את המחיר שקבע המחשב (₪16) ותשתתפו בהגרלה.
                <br>במקרה כזה, תסיימו את הניסוי עם תקציב של ₪64 ועם סיכוי לזכות ב-₪18 נוספים מההגרלה.
                <br>כלומר, תוכלו לקבל ₪64 אם לא תזכו בהגרלה, או ₪82 אם תזכו בהגרלה.
                <br><br>לחצו על העכבר להמשך.</p>","1","example","","","","","","","","","","","","","","","","","","","",""
"","","","","","html-keyboard-response","10","128245","0.0-10.0","dfee4379-a815-456b-8011-1e095ba0fcdf","null","<p>במהלך הניסוי, קודם תראו את ההגרלה ורק לאחר מכן תוכלו לבחור.
                <p>כמו כן, יהיו לכם מספר שניות מוגבל להגיב.
                <p>בואו ננסה זאת עם ההגרלה הקודמת.
                <br>לחצו על העכבר כדי להמשיך.</p>","1","instructions","","","","","","","","","","","","","","","","","","","",""
"","","","","","html-slider-response","11","129518","0.0-11.0","dfee4379-a815-456b-8011-1e095ba0fcdf","1000","
                    <p style=""text-align: center;"">₪18<br>35%</p>
                    <p id=""wtp"" style=""text-align:center; margin-top: 0px; margin-bottom: 0px; font-size: 40px"";>&ensp;</p>","40","instructions","0","","","","","","","","","","","","","","","","","","",""
"","","","","","html-slider-response","12","133772","0.0-12.0","dfee4379-a815-456b-8011-1e095ba0fcdf","null","
                    <p style=""text-align: center;"">₪18<br>35%</p>
                    <p id=""wtp"" style=""text-align:center; margin-top: 0px; margin-bottom: 0px; font-size: 40px"";>מוכנים לשלם: <span id=""c_p_y""></span></p>","null","instructions","52","","","","","","","","","","","","","","","","","","",""
"","","","","","html-keyboard-response","13","137549","0.0-13.0","dfee4379-a815-456b-8011-1e095ba0fcdf","null","<p>לא הגבתם בזמן המוקצב לתגובה. 
                <br>נסו להגיב מהר יותר בפעם הבאה.
                <br><br>לחצו על העכבר כדי להמשיך.</p>","1","instructions","","","","","","","","","","","","","","","","","","","",""
"","","","","","html-slider-response","14","141821","0.0-14.0-0.0","dfee4379-a815-456b-8011-1e095ba0fcdf","null","
                    <p style=""text-align: center;"">₪40<br>65%</p>
                    <p id=""wtp"" style=""text-align:center; margin-top: 0px; margin-bottom: 0px; font-size: 40px"";>מוכנים לשלם: <span id=""c_p_y""></span></p>","null","instructions","31","","","","","","","","","","","","","","","","","","",""
"","","","","","html-keyboard-response","15","143925","0.0-14.0-1.0","dfee4379-a815-456b-8011-1e095ba0fcdf","null","<p>לא הגבתם בזמן המוקצב לתגובה. 
                <br>נסו להגיב מהר יותר בפעם הבאה.
                <br><br>לחצו על העכבר כדי להמשיך.</p>","1","instructions","","","","","","","","","","","","","","","","","","","",""
"","","","","","html-keyboard-response","16","159461","0.0-15.0","dfee4379-a815-456b-8011-1e095ba0fcdf","null","<p>כעת נתחיל את הניסוי.
                <br><br>אתם תראו הגרלות ותתבקשו לבחור כמה תהיו מוכנים לשלם כדי להשתתף בהן.
                <br>יש לכם תקציב של ₪80 עבור כל הגרלה.
                <br>בסוף הניסוי הגרלה אחת תבחר באקראי ותשוחק.
                <br><br>לחצו על העכבר כדי להתחיל את הניסוי.</p>","1","instructions","","","","","","","","","","","","","","","","","","","",""
"","","","","","html-keyboard-response","17","160713","0.0-16.0","dfee4379-a815-456b-8011-1e095ba0fcdf","null","<p style=""text-align: center;"">+</p>","null","fixation","","","","","","","","","","","","","","","","","","","",""
"","","","","","html-slider-response","18","161718","0.0-17.0-0.0","dfee4379-a815-456b-8011-1e095ba0fcdf","1000","
                  <p style=""text-align: center;"">₪76
                                                <br>65%</p>
                  <p id=""wtp"" style=""text-align:center; margin-top: 0px; margin-bottom: 0px; font-size: 40px"";>&ensp;</p>","-","viewing","0","29","8C,19A,24B","","","","","","","","","","","","","","","","",""
"","","","","","html-slider-response","19","165722","0.0-17.0-1.0","dfee4379-a815-456b-8011-1e095ba0fcdf","null","
                  <p style=""text-align: center;"">₪76
                                                <br>65%</p>
                  <p id=""wtp"" style=""text-align:center; margin-top: 0px; margin-bottom: 0px; font-size: 40px"";>מוכנים לשלם: <span id=""c_p_y""></span></p>","null","evaluation","20","29","8C,19A,24B","65","76","59","","","","","","","","","","","","","",""
"","","","","","html-keyboard-response","20","166363","0.0-17.0-2.0","dfee4379-a815-456b-8011-1e095ba0fcdf","null","<p style=""text-align: center;"">+</p>","null","fixation","","","","","","","","","","","","","","","","","","","",""
"","","","","","html-slider-response","21","167380","0.0-17.0-0.1","dfee4379-a815-456b-8011-1e095ba0fcdf","1000","
                  <p style=""text-align: center;"">₪36
                                                <br>70%</p>
                  <p id=""wtp"" style=""text-align:center; margin-top: 0px; margin-bottom: 0px; font-size: 40px"";>&ensp;</p>","-","viewing","0","13","3A,5C,10B","","","","","","","","","","","","","","","","",""
"","","","","","html-slider-response","22","171384","0.0-17.0-1.1","dfee4379-a815-456b-8011-1e095ba0fcdf","null","
                  <p style=""text-align: center;"">₪36
                                                <br>70%</p>
                  <p id=""wtp"" style=""text-align:center; margin-top: 0px; margin-bottom: 0px; font-size: 40px"";>מוכנים לשלם: <span id=""c_p_y""></span></p>","null","evaluation","55","13","3A,5C,10B","70","36","28","","","","","","","","","","","","","",""
"","","","","","html-keyboard-response","23","171974","0.0-17.0-2.1","dfee4379-a815-456b-8011-1e095ba0fcdf","null","<p style=""text-align: center;"">+</p>","null","fixation","","","","","","","","","","","","","","","","","","","",""
"","","","","","html-slider-response","24","172981","0.0-17.0-0.2","dfee4379-a815-456b-8011-1e095ba0fcdf","1000","
                  <p style=""text-align: center;"">₪11
                                                <br>20%</p>
                  <p id=""wtp"" style=""text-align:center; margin-top: 0px; margin-bottom: 0px; font-size: 40px"";>&ensp;</p>","-","viewing","0","4","12C,17C,23C,28C","","","","","","","","","","","","","","","","",""
"","","","","","html-slider-response","25","175493","0.0-17.0-1.2","dfee4379-a815-456b-8011-1e095ba0fcdf","2511","
                  <p style=""text-align: center;"">₪11
                                                <br>20%</p>
                  <p id=""wtp"" style=""text-align:center; margin-top: 0px; margin-bottom: 0px; font-size: 40px"";>מוכנים לשלם: <span id=""c_p_y""></span></p>","11","evaluation","29","4","12C,17C,23C,28C","20","11","11","","","","","","","","","","","","","",""
"","","","","","html-keyboard-response","26","176052","0.0-17.0-2.2","dfee4379-a815-456b-8011-1e095ba0fcdf","null","<p style=""text-align: center;"">+</p>","null","fixation","","","","","","","","","","","","","","","","","","","",""
"","","","","","html-slider-response","27","177067","0.0-17.0-0.3","dfee4379-a815-456b-8011-1e095ba0fcdf","1000","
                  <p style=""text-align: center;"">₪71
                                                <br>75%</p>
                  <p id=""wtp"" style=""text-align:center; margin-top: 0px; margin-bottom: 0px; font-size: 40px"";>&ensp;</p>","-","viewing","0","28","8B","","","","","","","","","","","","","","","","",""
"","","","","","html-slider-response","28","180277","0.0-17.0-1.3","dfee4379-a815-456b-8011-1e095ba0fcdf","3208","
                  <p style=""text-align: center;"">₪71
                                                <br>75%</p>
                  <p id=""wtp"" style=""text-align:center; margin-top: 0px; margin-bottom: 0px; font-size: 40px"";>מוכנים לשלם: <span id=""c_p_y""></span></p>","59","evaluation","38","28","8B","75","71","59","","","","","","","","","","","","","",""
"","","","","","html-keyboard-response","29","181114","0.0-17.0-2.3","dfee4379-a815-456b-8011-1e095ba0fcdf","null","<p style=""text-align: center;"">+</p>","null","fixation","","","","","","","","","","","","","","","","","","","",""
"","","","","","html-slider-response","30","182131","0.0-17.0-0.4","dfee4379-a815-456b-8011-1e095ba0fcdf","1000","
                  <p style=""text-align: center;"">₪64
                                                <br>50%</p>
                  <p id=""wtp"" style=""text-align:center; margin-top: 0px; margin-bottom: 0px; font-size: 40px"";>&ensp;</p>","-","viewing","0","25","1B,3B,4A","","","","","","","","","","","","","","","","",""
"","","","","","html-slider-response","31","186136","0.0-17.0-1.4","dfee4379-a815-456b-8011-1e095ba0fcdf","null","
                  <p style=""text-align: center;"">₪64
                                                <br>50%</p>
                  <p id=""wtp"" style=""text-align:center; margin-top: 0px; margin-bottom: 0px; font-size: 40px"";>מוכנים לשלם: <span id=""c_p_y""></span></p>","null","evaluation","72","25","1B,3B,4A","50","64","45","","","","","","","","","","","","","",""
"","","","","","html-keyboard-response","32","187007","0.0-17.0-2.4","dfee4379-a815-456b-8011-1e095ba0fcdf","null","<p style=""text-align: center;"">+</p>","null","fixation","","","","","","","","","","","","","","","","","","","",""
"","","","","","html-slider-response","33","188009","0.0-17.0-0.5","dfee4379-a815-456b-8011-1e095ba0fcdf","1000","
                  <p style=""text-align: center;"">₪11
                                                <br>25%</p>
                  <p id=""wtp"" style=""text-align:center; margin-top: 0px; margin-bottom: 0px; font-size: 40px"";>&ensp;</p>","-","viewing","0","5","12A,27B,28B,30B","","","","","","","","","","","","","","","","",""
"","","","","","html-slider-response","34","191173","0.0-17.0-1.5","dfee4379-a815-456b-8011-1e095ba0fcdf","3163","
                  <p style=""text-align: center;"">₪11
                                                <br>25%</p>
                  <p id=""wtp"" style=""text-align:center; margin-top: 0px; margin-bottom: 0px; font-size: 40px"";>מוכנים לשלם: <span id=""c_p_y""></span></p>","7","evaluation","1","5","12A,27B,28B,30B","25","11","8","","","","","","","","","","","","","",""
"","","","","","html-keyboard-response","35","191799","0.0-17.0-2.5","dfee4379-a815-456b-8011-1e095ba0fcdf","null","<p style=""text-align: center;"">+</p>","null","fixation","","","","","","","","","","","","","","","","","","","",""
"","","","","","html-slider-response","36","192815","0.0-17.0-0.6","dfee4379-a815-456b-8011-1e095ba0fcdf","1000","
                  <p style=""text-align: center;"">₪4
                                                <br>75%</p>
                  <p id=""wtp"" style=""text-align:center; margin-top: 0px; margin-bottom: 0px; font-size: 40px"";>&ensp;</p>","-","viewing","0","3","12B,20B,23B,27C,29C","","","","","","","","","","","","","","","","",""
"","","","","","html-slider-response","37","196833","0.0-17.0-1.6","dfee4379-a815-456b-8011-1e095ba0fcdf","null","
                  <p style=""text-align: center;"">₪4
                                                <br>75%</p>
                  <p id=""wtp"" style=""text-align:center; margin-top: 0px; margin-bottom: 0px; font-size: 40px"";>מוכנים לשלם: <span id=""c_p_y""></span></p>","null","evaluation","61","3","12B,20B,23B,27C,29C","75","4","5","","","","","","","","","","","","","",""
"","","","","","html-keyboard-response","38","198333","0.0-17.0-2.6","dfee4379-a815-456b-8011-1e095ba0fcdf","null","<p style=""text-align: center;"">+</p>","null","fixation","","","","","","","","","","","","","","","","","","","",""
"","","","","","html-slider-response","39","199350","0.0-17.0-0.7","dfee4379-a815-456b-8011-1e095ba0fcdf","1000","
                  <p style=""text-align: center;"">₪39
                                                <br>65%</p>
                  <p id=""wtp"" style=""text-align:center; margin-top: 0px; margin-bottom: 0px; font-size: 40px"";>&ensp;</p>","-","viewing","0","16","1A,15A,26C","","","","","","","","","","","","","","","","",""
"","","","","","html-slider-response","40","203362","0.0-17.0-1.7","dfee4379-a815-456b-8011-1e095ba0fcdf","null","
                  <p style=""text-align: center;"">₪39
                                                <br>65%</p>
                  <p id=""wtp"" style=""text-align:center; margin-top: 0px; margin-bottom: 0px; font-size: 40px"";>מוכנים לשלם: <span id=""c_p_y""></span></p>","null","evaluation","23","16","1A,15A,26C","65","39","37","","","","","","","","","","","","","",""
"","","","","","html-keyboard-response","41","204656","0.0-17.0-2.7","dfee4379-a815-456b-8011-1e095ba0fcdf","null","<p style=""text-align: center;"">+</p>","null","fixation","","","","","","","","","","","","","","","","","","","",""
"","","","","","html-slider-response","42","205658","0.0-17.0-0.8","dfee4379-a815-456b-8011-1e095ba0fcdf","1000","
                  <p style=""text-align: center;"">₪79
                                                <br>65%</p>
                  <p id=""wtp"" style=""text-align:center; margin-top: 0px; margin-bottom: 0px; font-size: 40px"";>&ensp;</p>","-","viewing","0","31","8A","","","","","","","","","","","","","","","","",""
"","","","","","html-slider-response","43","207893","0.0-17.0-1.8","dfee4379-a815-456b-8011-1e095ba0fcdf","2234","
                  <p style=""text-align: center;"">₪79
                                                <br>65%</p>
                  <p id=""wtp"" style=""text-align:center; margin-top: 0px; margin-bottom: 0px; font-size: 40px"";>מוכנים לשלם: <span id=""c_p_y""></span></p>","78","evaluation","30","31","8A","65","79","78","","","","","","","","","","","","","",""
"","","","","","html-keyboard-response","44","208851","0.0-17.0-2.8","dfee4379-a815-456b-8011-1e095ba0fcdf","null","<p style=""text-align: center;"">+</p>","null","fixation","","","","","","","","","","","","","","","","","","","",""
"","","","","","html-slider-response","45","209866","0.0-17.0-0.9","dfee4379-a815-456b-8011-1e095ba0fcdf","1000","
                  <p style=""text-align: center;"">₪58
                                                <br>40%</p>
                  <p id=""wtp"" style=""text-align:center; margin-top: 0px; margin-bottom: 0px; font-size: 40px"";>&ensp;</p>","-","viewing","0","20","10C,13A,19C,21B","","","","","","","","","","","","","","","","",""
"","","","","","html-slider-response","46","212141","0.0-17.0-1.9","dfee4379-a815-456b-8011-1e095ba0fcdf","2274","
                  <p style=""text-align: center;"">₪58
                                                <br>40%</p>
                  <p id=""wtp"" style=""text-align:center; margin-top: 0px; margin-bottom: 0px; font-size: 40px"";>מוכנים לשלם: <span id=""c_p_y""></span></p>","57","evaluation","35","20","10C,13A,19C,21B","40","58","57","","","","","","","","","","","","","",""
"","","","","","html-keyboard-response","47","212964","0.0-17.0-2.9","dfee4379-a815-456b-8011-1e095ba0fcdf","null","<p style=""text-align: center;"">+</p>","null","fixation","","","","","","","","","","","","","","","","","","","",""
"","","","","","html-slider-response","48","213978","0.0-17.0-0.10","dfee4379-a815-456b-8011-1e095ba0fcdf","1000","
                  <p style=""text-align: center;"">₪61
                                                <br>55%</p>
                  <p id=""wtp"" style=""text-align:center; margin-top: 0px; margin-bottom: 0px; font-size: 40px"";>&ensp;</p>","-","viewing","0","23","7B,26B","","","","","","","","","","","","","","","","",""
"","","","","","html-slider-response","49","216277","0.0-17.0-1.10","dfee4379-a815-456b-8011-1e095ba0fcdf","2298","
                  <p style=""text-align: center;"">₪61
                                                <br>55%</p>
                  <p id=""wtp"" style=""text-align:center; margin-top: 0px; margin-bottom: 0px; font-size: 40px"";>מוכנים לשלם: <span id=""c_p_y""></span></p>","57","evaluation","75","23","7B,26B","55","61","57","","","","","","","","","","","","","",""
"","","","","","html-keyboard-response","50","216822","0.0-17.0-2.10","dfee4379-a815-456b-8011-1e095ba0fcdf","null","<p style=""text-align: center;"">+</p>","null","fixation","","","","","","","","","","","","","","","","","","","",""
"","","","","","html-slider-response","51","217834","0.0-17.0-0.11","dfee4379-a815-456b-8011-1e095ba0fcdf","1000","
                  <p style=""text-align: center;"">₪43
                                                <br>60%</p>
                  <p id=""wtp"" style=""text-align:center; margin-top: 0px; margin-bottom: 0px; font-size: 40px"";>&ensp;</p>","-","viewing","0","17","2A,7A,9A,15B","","","","","","","","","","","","","","","","",""
"","","","","","html-slider-response","52","220965","0.0-17.0-1.11","dfee4379-a815-456b-8011-1e095ba0fcdf","3128","
                  <p style=""text-align: center;"">₪43
                                                <br>60%</p>
                  <p id=""wtp"" style=""text-align:center; margin-top: 0px; margin-bottom: 0px; font-size: 40px"";>מוכנים לשלם: <span id=""c_p_y""></span></p>","38","evaluation","58","17","2A,7A,9A,15B","60","43","38","","","","","","","","","","","","","",""
"","","","","","html-keyboard-response","53","221516","0.0-17.0-2.11","dfee4379-a815-456b-8011-1e095ba0fcdf","null","<p style=""text-align: center;"">+</p>","null","fixation","","","","","","","","","","","","","","","","","","","",""
"","","","","","html-slider-response","54","222521","0.0-17.0-0.12","dfee4379-a815-456b-8011-1e095ba0fcdf","1000","
                  <p style=""text-align: center;"">₪18
                                                <br>50%</p>
                  <p id=""wtp"" style=""text-align:center; margin-top: 0px; margin-bottom: 0px; font-size: 40px"";>&ensp;</p>","-","viewing","0","10","2C,16C,22B,28A","","","","","","","","","","","","","","","","",""
"","","","","","html-slider-response","55","226517","0.0-17.0-1.12","dfee4379-a815-456b-8011-1e095ba0fcdf","3995","
                  <p style=""text-align: center;"">₪18
                                                <br>50%</p>
                  <p id=""wtp"" style=""text-align:center; margin-top: 0px; margin-bottom: 0px; font-size: 40px"";>מוכנים לשלם: <span id=""c_p_y""></span></p>","15","evaluation","24","10","2C,16C,22B,28A","50","18","15","","","","","","","","","","","","","",""
"","","","","","html-keyboard-response","56","227362","0.0-17.0-2.12","dfee4379-a815-456b-8011-1e095ba0fcdf","null","<p style=""text-align: center;"">+</p>","null","fixation","","","","","","","","","","","","","","","","","","","",""
"","","","","","html-slider-response","57","228375","0.0-17.0-0.13","dfee4379-a815-456b-8011-1e095ba0fcdf","1000","
                  <p style=""text-align: center;"">₪43
                                                <br>75%</p>
                  <p id=""wtp"" style=""text-align:center; margin-top: 0px; margin-bottom: 0px; font-size: 40px"";>&ensp;</p>","-","viewing","0","18","11B,19B,24A,26A","","","","","","","","","","","","","","","","",""
"","","","","","html-slider-response","58","230005","0.0-17.0-1.13","dfee4379-a815-456b-8011-1e095ba0fcdf","1629","
                  <p style=""text-align: center;"">₪43
                                                <br>75%</p>
                  <p id=""wtp"" style=""text-align:center; margin-top: 0px; margin-bottom: 0px; font-size: 40px"";>מוכנים לשלם: <span id=""c_p_y""></span></p>","40","evaluation","0","18","11B,19B,24A,26A","75","43","40","","","","","","","","","","","","","",""
"","","","","","html-keyboard-response","59","230647","0.0-17.0-2.13","dfee4379-a815-456b-8011-1e095ba0fcdf","null","<p style=""text-align: center;"">+</p>","null","fixation","","","","","","","","","","","","","","","","","","","",""
"","","","","","html-slider-response","60","231651","0.0-17.0-0.14","dfee4379-a815-456b-8011-1e095ba0fcdf","1000","
                  <p style=""text-align: center;"">₪4
                                                <br>50%</p>
                  <p id=""wtp"" style=""text-align:center; margin-top: 0px; margin-bottom: 0px; font-size: 40px"";>&ensp;</p>","-","viewing","0","2","4C,17B","","","","","","","","","","","","","","","","",""
"","","","","","html-slider-response","61","233885","0.0-17.0-1.14","dfee4379-a815-456b-8011-1e095ba0fcdf","2233","
                  <p style=""text-align: center;"">₪4
                                                <br>50%</p>
                  <p id=""wtp"" style=""text-align:center; margin-top: 0px; margin-bottom: 0px; font-size: 40px"";>מוכנים לשלם: <span id=""c_p_y""></span></p>","3","evaluation","53","2","4C,17B","50","4","3","","","","","","","","","","","","","",""
"","","","","","html-keyboard-response","62","234928","0.0-17.0-2.14","dfee4379-a815-456b-8011-1e095ba0fcdf","null","<p style=""text-align: center;"">+</p>","null","fixation","","","","","","","","","","","","","","","","","","","",""
"","","","","","html-slider-response","63","235934","0.0-17.0-0.15","dfee4379-a815-456b-8011-1e095ba0fcdf","1000","
                  <p style=""text-align: center;"">₪36
                                                <br>75%</p>
                  <p id=""wtp"" style=""text-align:center; margin-top: 0px; margin-bottom: 0px; font-size: 40px"";>&ensp;</p>","-","viewing","0","14","4B,5A,13B,16B","","","","","","","","","","","","","","","","",""
"","","","","","html-slider-response","64","238981","0.0-17.0-1.15","dfee4379-a815-456b-8011-1e095ba0fcdf","3045","
                  <p style=""text-align: center;"">₪36
                                                <br>75%</p>
                  <p id=""wtp"" style=""text-align:center; margin-top: 0px; margin-bottom: 0px; font-size: 40px"";>מוכנים לשלם: <span id=""c_p_y""></span></p>","32","evaluation","39","14","4B,5A,13B,16B","75","36","32","","","","","","","","","","","","","",""
"","","","","","html-keyboard-response","65","240168","0.0-17.0-2.15","dfee4379-a815-456b-8011-1e095ba0fcdf","null","<p style=""text-align: center;"">+</p>","null","fixation","","","","","","","","","","","","","","","","","","","",""
"","","","","","html-slider-response","66","241184","0.0-17.0-0.16","dfee4379-a815-456b-8011-1e095ba0fcdf","1000","
                  <p style=""text-align: center;"">₪71
                                                <br>45%</p>
                  <p id=""wtp"" style=""text-align:center; margin-top: 0px; margin-bottom: 0px; font-size: 40px"";>&ensp;</p>","-","viewing","0","26","2B,16A","","","","","","","","","","","","","","","","",""
"","","","","","html-slider-response","67","243037","0.0-17.0-1.16","dfee4379-a815-456b-8011-1e095ba0fcdf","1852","
                  <p style=""text-align: center;"">₪71
                                                <br>45%</p>
                  <p id=""wtp"" style=""text-align:center; margin-top: 0px; margin-bottom: 0px; font-size: 40px"";>מוכנים לשלם: <span id=""c_p_y""></span></p>","60","evaluation","29","26","2B,16A","45","71","59","","","","","","","","","","","","","",""
"","","","","","html-keyboard-response","68","243992","0.0-17.0-2.16","dfee4379-a815-456b-8011-1e095ba0fcdf","null","<p style=""text-align: center;"">+</p>","null","fixation","","","","","","","","","","","","","","","","","","","",""
"","","","","","html-slider-response","69","244997","0.0-17.0-0.17","dfee4379-a815-456b-8011-1e095ba0fcdf","1000","
                  <p style=""text-align: center;"">₪11
                                                <br>75%</p>
                  <p id=""wtp"" style=""text-align:center; margin-top: 0px; margin-bottom: 0px; font-size: 40px"";>&ensp;</p>","-","viewing","0","7","6B,18B,22C,24C,29A","","","","","","","","","","","","","","","","",""
"","","","","","html-slider-response","70","249000","0.0-17.0-1.17","dfee4379-a815-456b-8011-1e095ba0fcdf","null","
                  <p style=""text-align: center;"">₪11
                                                <br>75%</p>
                  <p id=""wtp"" style=""text-align:center; margin-top: 0px; margin-bottom: 0px; font-size: 40px"";>מוכנים לשלם: <span id=""c_p_y""></span></p>","null","evaluation","7","7","6B,18B,22C,24C,29A","75","11","7","","","","","","","","","","","","","",""
"","","","","","html-keyboard-response","71","249618","0.0-17.0-2.17","dfee4379-a815-456b-8011-1e095ba0fcdf","null","<p style=""text-align: center;"">+</p>","null","fixation","","","","","","","","","","","","","","","","","","","",""
"","","","","","html-slider-response","72","250627","0.0-17.0-0.18","dfee4379-a815-456b-8011-1e095ba0fcdf","1000","
                  <p style=""text-align: center;"">₪36
                                                <br>30%</p>
                  <p id=""wtp"" style=""text-align:center; margin-top: 0px; margin-bottom: 0px; font-size: 40px"";>&ensp;</p>","-","viewing","0","11","3C,20A,22A","","","","","","","","","","","","","","","","",""
"","","","","","html-slider-response","73","252669","0.0-17.0-1.18","dfee4379-a815-456b-8011-1e095ba0fcdf","2041","
                  <p style=""text-align: center;"">₪36
                                                <br>30%</p>
                  <p id=""wtp"" style=""text-align:center; margin-top: 0px; margin-bottom: 0px; font-size: 40px"";>מוכנים לשלם: <span id=""c_p_y""></span></p>","19","evaluation","55","11","3C,20A,22A","30","36","19","","","","","","","","","","","","","",""
"","","","","","html-keyboard-response","74","253648","0.0-17.0-2.18","dfee4379-a815-456b-8011-1e095ba0fcdf","null","<p style=""text-align: center;"">+</p>","null","fixation","","","","","","","","","","","","","","","","","","","",""
"","","","","","html-slider-response","75","254653","0.0-17.0-0.19","dfee4379-a815-456b-8011-1e095ba0fcdf","1000","
                  <p style=""text-align: center;"">₪64
                                                <br>25%</p>
                  <p id=""wtp"" style=""text-align:center; margin-top: 0px; margin-bottom: 0px; font-size: 40px"";>&ensp;</p>","-","viewing","0","24","6A,21A","","","","","","","","","","","","","","","","",""
"","","","","","html-slider-response","76","257373","0.0-17.0-1.19","dfee4379-a815-456b-8011-1e095ba0fcdf","2719","
                  <p style=""text-align: center;"">₪64
                                                <br>25%</p>
                  <p id=""wtp"" style=""text-align:center; margin-top: 0px; margin-bottom: 0px; font-size: 40px"";>מוכנים לשלם: <span id=""c_p_y""></span></p>","20","evaluation","21","24","6A,21A","25","64","20","","","","","","","","","","","","","",""
"","","","","","html-keyboard-response","77","258346","0.0-17.0-2.19","dfee4379-a815-456b-8011-1e095ba0fcdf","null","<p style=""text-align: center;"">+</p>","null","fixation","","","","","","","","","","","","","","","","","","","",""
"","","","","","html-slider-response","78","259362","0.0-17.0-0.20","dfee4379-a815-456b-8011-1e095ba0fcdf","1000","
                  <p style=""text-align: center;"">₪71
                                                <br>55%</p>
                  <p id=""wtp"" style=""text-align:center; margin-top: 0px; margin-bottom: 0px; font-size: 40px"";>&ensp;</p>","-","viewing","0","27","5B,18A","","","","","","","","","","","","","","","","",""
"","","","","","html-slider-response","79","262013","0.0-17.0-1.20","dfee4379-a815-456b-8011-1e095ba0fcdf","2650","
                  <p style=""text-align: center;"">₪71
                                                <br>55%</p>
                  <p id=""wtp"" style=""text-align:center; margin-top: 0px; margin-bottom: 0px; font-size: 40px"";>מוכנים לשלם: <span id=""c_p_y""></span></p>","75","evaluation","46","27","5B,18A","55","71","75","","","","","","","","","","","","","",""
"","","","","","html-keyboard-response","80","263063","0.0-17.0-2.20","dfee4379-a815-456b-8011-1e095ba0fcdf","null","<p style=""text-align: center;"">+</p>","null","fixation","","","","","","","","","","","","","","","","","","","",""
"","","","","","html-slider-response","81","264064","0.0-17.0-0.21","dfee4379-a815-456b-8011-1e095ba0fcdf","1000","
                  <p style=""text-align: center;"">₪11
                                                <br>45%</p>
                  <p id=""wtp"" style=""text-align:center; margin-top: 0px; margin-bottom: 0px; font-size: 40px"";>&ensp;</p>","-","viewing","0","6","14B,21C,25C","","","","","","","","","","","","","","","","",""
"","","","","","html-slider-response","82","268067","0.0-17.0-1.21","dfee4379-a815-456b-8011-1e095ba0fcdf","null","
                  <p style=""text-align: center;"">₪11
                                                <br>45%</p>
                  <p id=""wtp"" style=""text-align:center; margin-top: 0px; margin-bottom: 0px; font-size: 40px"";>מוכנים לשלם: <span id=""c_p_y""></span></p>","null","evaluation","61","6","14B,21C,25C","45","11","7","","","","","","","","","","","","","",""
"","","","","","html-keyboard-response","83","268908","0.0-17.0-2.21","dfee4379-a815-456b-8011-1e095ba0fcdf","null","<p style=""text-align: center;"">+</p>","null","fixation","","","","","","","","","","","","","","","","","","","",""
"","","","","","html-slider-response","84","269910","0.0-17.0-0.22","dfee4379-a815-456b-8011-1e095ba0fcdf","1000","
                  <p style=""text-align: center;"">₪61
                                                <br>45%</p>
                  <p id=""wtp"" style=""text-align:center; margin-top: 0px; margin-bottom: 0px; font-size: 40px"";>&ensp;</p>","-","viewing","0","22","10A,11A","","","","","","","","","","","","","","","","",""
"","","","","","html-slider-response","85","273029","0.0-17.0-1.22","dfee4379-a815-456b-8011-1e095ba0fcdf","3117","
                  <p style=""text-align: center;"">₪61
                                                <br>45%</p>
                  <p id=""wtp"" style=""text-align:center; margin-top: 0px; margin-bottom: 0px; font-size: 40px"";>מוכנים לשלם: <span id=""c_p_y""></span></p>","56","evaluation","45","22","10A,11A","45","61","56","","","","","","","","","","","","","",""
"","","","","","html-keyboard-response","86","274102","0.0-17.0-2.22","dfee4379-a815-456b-8011-1e095ba0fcdf","null","<p style=""text-align: center;"">+</p>","null","fixation","","","","","","","","","","","","","","","","","","","",""
"","","","","","html-slider-response","87","275118","0.0-17.0-0.23","dfee4379-a815-456b-8011-1e095ba0fcdf","1000","
                  <p style=""text-align: center;"">₪58
                                                <br>30%</p>
                  <p id=""wtp"" style=""text-align:center; margin-top: 0px; margin-bottom: 0px; font-size: 40px"";>&ensp;</p>","-","viewing","0","19","13C,30A","","","","","","","","","","","","","","","","",""
"","","","","","html-slider-response","88","279122","0.0-17.0-1.23","dfee4379-a815-456b-8011-1e095ba0fcdf","null","
                  <p style=""text-align: center;"">₪58
                                                <br>30%</p>
                  <p id=""wtp"" style=""text-align:center; margin-top: 0px; margin-bottom: 0px; font-size: 40px"";>מוכנים לשלם: <span id=""c_p_y""></span></p>","null","evaluation","52","19","13C,30A","30","58","24","","","","","","","","","","","","","",""
"","","","","","html-keyboard-response","89","280487","0.0-17.0-2.23","dfee4379-a815-456b-8011-1e095ba0fcdf","null","<p style=""text-align: center;"">+</p>","null","fixation","","","","","","","","","","","","","","","","","","","",""
"","","","","","html-slider-response","90","281489","0.0-17.0-0.24","dfee4379-a815-456b-8011-1e095ba0fcdf","1000","
                  <p style=""text-align: center;"">₪18
                                                <br>25%</p>
                  <p id=""wtp"" style=""text-align:center; margin-top: 0px; margin-bottom: 0px; font-size: 40px"";>&ensp;</p>","-","viewing","0","9","14A,23A","","","","","","","","","","","","","","","","",""
"","","","","","html-slider-response","91","283405","0.0-17.0-1.24","dfee4379-a815-456b-8011-1e095ba0fcdf","1915","
                  <p style=""text-align: center;"">₪18
                                                <br>25%</p>
                  <p id=""wtp"" style=""text-align:center; margin-top: 0px; margin-bottom: 0px; font-size: 40px"";>מוכנים לשלם: <span id=""c_p_y""></span></p>","4","evaluation","22","9","14A,23A","25","18","5","","","","","","","","","","","","","",""
"","","","","","html-keyboard-response","92","284795","0.0-17.0-2.24","dfee4379-a815-456b-8011-1e095ba0fcdf","null","<p style=""text-align: center;"">+</p>","null","fixation","","","","","","","","","","","","","","","","","","","",""
"","","","","","html-slider-response","93","285804","0.0-17.0-0.25","dfee4379-a815-456b-8011-1e095ba0fcdf","1000","
                  <p style=""text-align: center;"">₪4
                                                <br>25%</p>
                  <p id=""wtp"" style=""text-align:center; margin-top: 0px; margin-bottom: 0px; font-size: 40px"";>&ensp;</p>","-","viewing","0","1","6C,29B,30C","","","","","","","","","","","","","","","","",""
"","","","","","html-slider-response","94","289493","0.0-17.0-1.25","dfee4379-a815-456b-8011-1e095ba0fcdf","3688","
                  <p style=""text-align: center;"">₪4
                                                <br>25%</p>
                  <p id=""wtp"" style=""text-align:center; margin-top: 0px; margin-bottom: 0px; font-size: 40px"";>מוכנים לשלם: <span id=""c_p_y""></span></p>","0","evaluation","59","1","6C,29B,30C","25","4","0","","","","","","","","","","","","","",""
"","","","","","html-keyboard-response","95","290416","0.0-17.0-2.25","dfee4379-a815-456b-8011-1e095ba0fcdf","null","<p style=""text-align: center;"">+</p>","null","fixation","","","","","","","","","","","","","","","","","","","",""
"","","","","","html-slider-response","96","291428","0.0-17.0-0.26","dfee4379-a815-456b-8011-1e095ba0fcdf","1000","
                  <p style=""text-align: center;"">₪36
                                                <br>60%</p>
                  <p id=""wtp"" style=""text-align:center; margin-top: 0px; margin-bottom: 0px; font-size: 40px"";>&ensp;</p>","-","viewing","0","12","1C,7C,15C","","","","","","","","","","","","","","","","",""
"","","","","","html-slider-response","97","295430","0.0-17.0-1.26","dfee4379-a815-456b-8011-1e095ba0fcdf","null","
                  <p style=""text-align: center;"">₪36
                                                <br>60%</p>
                  <p id=""wtp"" style=""text-align:center; margin-top: 0px; margin-bottom: 0px; font-size: 40px"";>מוכנים לשלם: <span id=""c_p_y""></span></p>","null","evaluation","21","12","1C,7C,15C","60","36","37","","","","","","","","","","","","","",""
"","","","","","html-keyboard-response","98","296426","0.0-17.0-2.26","dfee4379-a815-456b-8011-1e095ba0fcdf","null","<p style=""text-align: center;"">+</p>","null","fixation","","","","","","","","","","","","","","","","","","","",""
"","","","","","html-slider-response","99","297442","0.0-17.0-0.27","dfee4379-a815-456b-8011-1e095ba0fcdf","1000","
                  <p style=""text-align: center;"">₪58
                                                <br>45%</p>
                  <p id=""wtp"" style=""text-align:center; margin-top: 0px; margin-bottom: 0px; font-size: 40px"";>&ensp;</p>","-","viewing","0","21","11C,18C,25A","","","","","","","","","","","","","","","","",""
"","","","","","html-slider-response","100","300149","0.0-17.0-1.27","dfee4379-a815-456b-8011-1e095ba0fcdf","2706","
                  <p style=""text-align: center;"">₪58
                                                <br>45%</p>
                  <p id=""wtp"" style=""text-align:center; margin-top: 0px; margin-bottom: 0px; font-size: 40px"";>מוכנים לשלם: <span id=""c_p_y""></span></p>","45","evaluation","15","21","11C,18C,25A","45","58","45","","","","","","","","","","","","","",""
"","","","","","html-keyboard-response","101","300911","0.0-17.0-2.27","dfee4379-a815-456b-8011-1e095ba0fcdf","null","<p style=""text-align: center;"">+</p>","null","fixation","","","","","","","","","","","","","","","","","","","",""
"","","","","","html-slider-response","102","301912","0.0-17.0-0.28","dfee4379-a815-456b-8011-1e095ba0fcdf","1000","
                  <p style=""text-align: center;"">₪79
                                                <br>40%</p>
                  <p id=""wtp"" style=""text-align:center; margin-top: 0px; margin-bottom: 0px; font-size: 40px"";>&ensp;</p>","-","viewing","0","30","9B","","","","","","","","","","","","","","","","",""
"","","","","","html-slider-response","103","304245","0.0-17.0-1.28","dfee4379-a815-456b-8011-1e095ba0fcdf","2332","
                  <p style=""text-align: center;"">₪79
                                                <br>40%</p>
                  <p id=""wtp"" style=""text-align:center; margin-top: 0px; margin-bottom: 0px; font-size: 40px"";>מוכנים לשלם: <span id=""c_p_y""></span></p>","64","evaluation","54","30","9B","40","79","64","","","","","","","","","","","","","",""
"","","","","","html-keyboard-response","104","305176","0.0-17.0-2.28","dfee4379-a815-456b-8011-1e095ba0fcdf","null","<p style=""text-align: center;"">+</p>","null","fixation","","","","","","","","","","","","","","","","","","","",""
"","","","","","html-slider-response","105","306187","0.0-17.0-0.29","dfee4379-a815-456b-8011-1e095ba0fcdf","1000","
                  <p style=""text-align: center;"">₪16
                                                <br>20%</p>
                  <p id=""wtp"" style=""text-align:center; margin-top: 0px; margin-bottom: 0px; font-size: 40px"";>&ensp;</p>","-","viewing","0","8","14C,17A,20C,27A","","","","","","","","","","","","","","","","",""
"","","","","","html-slider-response","106","309453","0.0-17.0-1.29","dfee4379-a815-456b-8011-1e095ba0fcdf","3264","
                  <p style=""text-align: center;"">₪16
                                                <br>20%</p>
                  <p id=""wtp"" style=""text-align:center; margin-top: 0px; margin-bottom: 0px; font-size: 40px"";>מוכנים לשלם: <span id=""c_p_y""></span></p>","1","evaluation","80","8","14C,17A,20C,27A","20","16","2","","","","","","","","","","","","","",""
"","","","","","html-keyboard-response","107","310478","0.0-17.0-2.29","dfee4379-a815-456b-8011-1e095ba0fcdf","null","<p style=""text-align: center;"">+</p>","null","fixation","","","","","","","","","","","","","","","","","","","",""
"","","","","","html-slider-response","108","311483","0.0-17.0-0.30","dfee4379-a815-456b-8011-1e095ba0fcdf","1000","
                  <p style=""text-align: center;"">₪39
                                                <br>60%</p>
                  <p id=""wtp"" style=""text-align:center; margin-top: 0px; margin-bottom: 0px; font-size: 40px"";>&ensp;</p>","-","viewing","0","15","9C,25B","","","","","","","","","","","","","","","","",""
"","","","","","html-slider-response","109","314156","0.0-17.0-1.30","dfee4379-a815-456b-8011-1e095ba0fcdf","2671","
                  <p style=""text-align: center;"">₪39
                                                <br>60%</p>
                  <p id=""wtp"" style=""text-align:center; margin-top: 0px; margin-bottom: 0px; font-size: 40px"";>מוכנים לשלם: <span id=""c_p_y""></span></p>","35","evaluation","68","15","9C,25B","60","39","35","","","","","","","","","","","","","",""
"","","","","","html-keyboard-response","110","314870","0.0-17.0-2.30","dfee4379-a815-456b-8011-1e095ba0fcdf","null","<p style=""text-align: center;"">+</p>","null","fixation","","","","","","","","","","","","","","","","","","","",""
"","","","","","html-keyboard-response","111","315876","0.0-18.0","dfee4379-a815-456b-8011-1e095ba0fcdf","null","<p style=""text-align: center;"">+</p>","null","fixation","","","","","","","","","","","","","","","","","","","",""
"","","","","","html-keyboard-response","112","323372","0.0-19.0","dfee4379-a815-456b-8011-1e095ba0fcdf","null","<p>הפסקה.
          <br>לחצו כדי להמשיך.</p>","1","scan_wait","","","","","","","","","","","","","","","","","","","",""
"","","","","","html-keyboard-response","113","324374","0.0-20.0","dfee4379-a815-456b-8011-1e095ba0fcdf","null","<p style=""text-align: center;"">+</p>","null","fixation","","","","","","","","","","","","","","","","","","","",""
"","","","","","html-slider-response","114","325379","0.0-21.0-0.0","dfee4379-a815-456b-8011-1e095ba0fcdf","1000","
                  <p style=""text-align: center;"">₪39
                                                <br>60%</p>
                  <p id=""wtp"" style=""text-align:center; margin-top: 0px; margin-bottom: 0px; font-size: 40px"";>&ensp;</p>","-","viewing","0","15","9C,25B","","","","","","","","","","","","","","","","",""
"","","","","","html-slider-response","115","328181","0.0-21.0-1.0","dfee4379-a815-456b-8011-1e095ba0fcdf","2800","
                  <p style=""text-align: center;"">₪39
                                                <br>60%</p>
                  <p id=""wtp"" style=""text-align:center; margin-top: 0px; margin-bottom: 0px; font-size: 40px"";>מוכנים לשלם: <span id=""c_p_y""></span></p>","40","evaluation","71","15","9C,25B","60","39","40","","","","","","","","","","","","","",""
"","","","","","html-keyboard-response","116","329195","0.0-21.0-2.0","dfee4379-a815-456b-8011-1e095ba0fcdf","null","<p style=""text-align: center;"">+</p>","null","fixation","","","","","","","","","","","","","","","","","","","",""
"","","","","","html-slider-response","117","330208","0.0-21.0-0.1","dfee4379-a815-456b-8011-1e095ba0fcdf","1000","
                  <p style=""text-align: center;"">₪58
                                                <br>45%</p>
                  <p id=""wtp"" style=""text-align:center; margin-top: 0px; margin-bottom: 0px; font-size: 40px"";>&ensp;</p>","-","viewing","0","21","11C,18C,25A","","","","","","","","","","","","","","","","",""
"","","","","","html-slider-response","118","334209","0.0-21.0-1.1","dfee4379-a815-456b-8011-1e095ba0fcdf","null","
                  <p style=""text-align: center;"">₪58
                                                <br>45%</p>
                  <p id=""wtp"" style=""text-align:center; margin-top: 0px; margin-bottom: 0px; font-size: 40px"";>מוכנים לשלם: <span id=""c_p_y""></span></p>","null","evaluation","66","21","11C,18C,25A","45","58","58","","","","","","","","","","","","","",""
"","","","","","html-keyboard-response","119","335543","0.0-21.0-2.1","dfee4379-a815-456b-8011-1e095ba0fcdf","null","<p style=""text-align: center;"">+</p>","null","fixation","","","","","","","","","","","","","","","","","","","",""
"","","","","","html-slider-response","120","336548","0.0-21.0-0.2","dfee4379-a815-456b-8011-1e095ba0fcdf","1000","
                  <p style=""text-align: center;"">₪61
                                                <br>45%</p>
                  <p id=""wtp"" style=""text-align:center; margin-top: 0px; margin-bottom: 0px; font-size: 40px"";>&ensp;</p>","-","viewing","0","22","10A,11A","","","","","","","","","","","","","","","","",""
"","","","","","html-slider-response","121","338541","0.0-21.0-1.2","dfee4379-a815-456b-8011-1e095ba0fcdf","1991","
                  <p style=""text-align: center;"">₪61
                                                <br>45%</p>
                  <p id=""wtp"" style=""text-align:center; margin-top: 0px; margin-bottom: 0px; font-size: 40px"";>מוכנים לשלם: <span id=""c_p_y""></span></p>","57","evaluation","23","22","10A,11A","45","61","57","","","","","","","","","","","","","",""
"","","","","","html-keyboard-response","122","339195","0.0-21.0-2.2","dfee4379-a815-456b-8011-1e095ba0fcdf","null","<p style=""text-align: center;"">+</p>","null","fixation","","","","","","","","","","","","","","","","","","","",""
"","","","","","html-slider-response","123","340211","0.0-21.0-0.3","dfee4379-a815-456b-8011-1e095ba0fcdf","1000","
                  <p style=""text-align: center;"">₪79
                                                <br>65%</p>
                  <p id=""wtp"" style=""text-align:center; margin-top: 0px; margin-bottom: 0px; font-size: 40px"";>&ensp;</p>","-","viewing","0","31","8A","","","","","","","","","","","","","","","","",""
"","","","","","html-slider-response","124","342461","0.0-21.0-1.3","dfee4379-a815-456b-8011-1e095ba0fcdf","2248","
                  <p style=""text-align: center;"">₪79
                                                <br>65%</p>
                  <p id=""wtp"" style=""text-align:center; margin-top: 0px; margin-bottom: 0px; font-size: 40px"";>מוכנים לשלם: <span id=""c_p_y""></span></p>","80","evaluation","36","31","8A","65","79","80","","","","","","","","","","","","","",""
"","","","","","html-keyboard-response","125","343892","0.0-21.0-2.3","dfee4379-a815-456b-8011-1e095ba0fcdf","null","<p style=""text-align: center;"">+</p>","null","fixation","","","","","","","","","","","","","","","","","","","",""
"","","","","","html-slider-response","126","344895","0.0-21.0-0.4","dfee4379-a815-456b-8011-1e095ba0fcdf","1000","
                  <p style=""text-align: center;"">₪39
                                                <br>65%</p>
                  <p id=""wtp"" style=""text-align:center; margin-top: 0px; margin-bottom: 0px; font-size: 40px"";>&ensp;</p>","-","viewing","0","16","1A,15A,26C","","","","","","","","","","","","","","","","",""
"","","","","","html-slider-response","127","348180","0.0-21.0-1.4","dfee4379-a815-456b-8011-1e095ba0fcdf","3284","
                  <p style=""text-align: center;"">₪39
                                                <br>65%</p>
                  <p id=""wtp"" style=""text-align:center; margin-top: 0px; margin-bottom: 0px; font-size: 40px"";>מוכנים לשלם: <span id=""c_p_y""></span></p>","37","evaluation","74","16","1A,15A,26C","65","39","37","","","","","","","","","","","","","",""
"","","","","","html-keyboard-response","128","349362","0.0-21.0-2.4","dfee4379-a815-456b-8011-1e095ba0fcdf","null","<p style=""text-align: center;"">+</p>","null","fixation","","","","","","","","","","","","","","","","","","","",""
"","","","","","html-slider-response","129","350380","0.0-21.0-0.5","dfee4379-a815-456b-8011-1e095ba0fcdf","1000","
                  <p style=""text-align: center;"">₪36
                                                <br>60%</p>
                  <p id=""wtp"" style=""text-align:center; margin-top: 0px; margin-bottom: 0px; font-size: 40px"";>&ensp;</p>","-","viewing","0","12","1C,7C,15C","","","","","","","","","","","","","","","","",""
"","","","","","html-slider-response","130","354396","0.0-21.0-1.5","dfee4379-a815-456b-8011-1e095ba0fcdf","null","
                  <p style=""text-align: center;"">₪36
                                                <br>60%</p>
                  <p id=""wtp"" style=""text-align:center; margin-top: 0px; margin-bottom: 0px; font-size: 40px"";>מוכנים לשלם: <span id=""c_p_y""></span></p>","null","evaluation","48","12","1C,7C,15C","60","36","33","","","","","","","","","","","","","",""
"","","","","","html-keyboard-response","131","355651","0.0-21.0-2.5","dfee4379-a815-456b-8011-1e095ba0fcdf","null","<p style=""text-align: center;"">+</p>","null","fixation","","","","","","","","","","","","","","","","","","","",""
"","","","","","html-slider-response","132","356661","0.0-21.0-0.6","dfee4379-a815-456b-8011-1e095ba0fcdf","1000","
                  <p style=""text-align: center;"">₪43
                                                <br>75%</p>
                  <p id=""wtp"" style=""text-align:center; margin-top: 0px; margin-bottom: 0px; font-size: 40px"";>&ensp;</p>","-","viewing","0","18","11B,19B,24A,26A","","","","","","","","","","","","","","","","",""
"","","","","","html-slider-response","133","359853","0.0-21.0-1.6","dfee4379-a815-456b-8011-1e095ba0fcdf","3191","
                  <p style=""text-align: center;"">₪43
                                                <br>75%</p>
                  <p id=""wtp"" style=""text-align:center; margin-top: 0px; margin-bottom: 0px; font-size: 40px"";>מוכנים לשלם: <span id=""c_p_y""></span></p>","41","evaluation","38","18","11B,19B,24A,26A","75","43","41","","","","","","","","","","","","","",""
"","","","","","html-keyboard-response","134","360978","0.0-21.0-2.6","dfee4379-a815-456b-8011-1e095ba0fcdf","null","<p style=""text-align: center;"">+</p>","null","fixation","","","","","","","","","","","","","","","","","","","",""
"","","","","","html-slider-response","135","361981","0.0-21.0-0.7","dfee4379-a815-456b-8011-1e095ba0fcdf","1000","
                  <p style=""text-align: center;"">₪11
                                                <br>75%</p>
                  <p id=""wtp"" style=""text-align:center; margin-top: 0px; margin-bottom: 0px; font-size: 40px"";>&ensp;</p>","-","viewing","0","7","6B,18B,22C,24C,29A","","","","","","","","","","","","","","","","",""
"","","","","","html-slider-response","136","364917","0.0-21.0-1.7","dfee4379-a815-456b-8011-1e095ba0fcdf","2935","
                  <p style=""text-align: center;"">₪11
                                                <br>75%</p>
                  <p id=""wtp"" style=""text-align:center; margin-top: 0px; margin-bottom: 0px; font-size: 40px"";>מוכנים לשלם: <span id=""c_p_y""></span></p>","6","evaluation","74","7","6B,18B,22C,24C,29A","75","11","6","","","","","","","","","","","","","",""
"","","","","","html-keyboard-response","137","365548","0.0-21.0-2.7","dfee4379-a815-456b-8011-1e095ba0fcdf","null","<p style=""text-align: center;"">+</p>","null","fixation","","","","","","","","","","","","","","","","","","","",""
"","","","","","html-slider-response","138","366550","0.0-21.0-0.8","dfee4379-a815-456b-8011-1e095ba0fcdf","1000","
                  <p style=""text-align: center;"">₪61
                                                <br>55%</p>
                  <p id=""wtp"" style=""text-align:center; margin-top: 0px; margin-bottom: 0px; font-size: 40px"";>&ensp;</p>","-","viewing","0","23","7B,26B","","","","","","","","","","","","","","","","",""
"","","","","","html-slider-response","139","370560","0.0-21.0-1.8","dfee4379-a815-456b-8011-1e095ba0fcdf","null","
                  <p style=""text-align: center;"">₪61
                                                <br>55%</p>
                  <p id=""wtp"" style=""text-align:center; margin-top: 0px; margin-bottom: 0px; font-size: 40px"";>מוכנים לשלם: <span id=""c_p_y""></span></p>","null","evaluation","38","23","7B,26B","55","61","59","","","","","","","","","","","","","",""
"","","","","","html-keyboard-response","140","371966","0.0-21.0-2.8","dfee4379-a815-456b-8011-1e095ba0fcdf","null","<p style=""text-align: center;"">+</p>","null","fixation","","","","","","","","","","","","","","","","","","","",""
"","","","","","html-slider-response","141","372981","0.0-21.0-0.9","dfee4379-a815-456b-8011-1e095ba0fcdf","1000","
                  <p style=""text-align: center;"">₪18
                                                <br>50%</p>
                  <p id=""wtp"" style=""text-align:center; margin-top: 0px; margin-bottom: 0px; font-size: 40px"";>&ensp;</p>","-","viewing","0","10","2C,16C,22B,28A","","","","","","","","","","","","","","","","",""
"","","","","","html-slider-response","142","375045","0.0-21.0-1.9","dfee4379-a815-456b-8011-1e095ba0fcdf","2063","
                  <p style=""text-align: center;"">₪18
                                                <br>50%</p>
                  <p id=""wtp"" style=""text-align:center; margin-top: 0px; margin-bottom: 0px; font-size: 40px"";>מוכנים לשלם: <span id=""c_p_y""></span></p>","6","evaluation","75","10","2C,16C,22B,28A","50","18","6","","","","","","","","","","","","","",""
"","","","","","html-keyboard-response","143","376287","0.0-21.0-2.9","dfee4379-a815-456b-8011-1e095ba0fcdf","null","<p style=""text-align: center;"">+</p>","null","fixation","","","","","","","","","","","","","","","","","","","",""
"","","","","","html-slider-response","144","377289","0.0-21.0-0.10","dfee4379-a815-456b-8011-1e095ba0fcdf","1000","
                  <p style=""text-align: center;"">₪76
                                                <br>65%</p>
                  <p id=""wtp"" style=""text-align:center; margin-top: 0px; margin-bottom: 0px; font-size: 40px"";>&ensp;</p>","-","viewing","0","29","8C,19A,24B","","","","","","","","","","","","","","","","",""
"","","","","","html-slider-response","145","380117","0.0-21.0-1.10","dfee4379-a815-456b-8011-1e095ba0fcdf","2827","
                  <p style=""text-align: center;"">₪76
                                                <br>65%</p>
                  <p id=""wtp"" style=""text-align:center; margin-top: 0px; margin-bottom: 0px; font-size: 40px"";>מוכנים לשלם: <span id=""c_p_y""></span></p>","75","evaluation","30","29","8C,19A,24B","65","76","75","","","","","","","","","","","","","",""
"","","","","","html-keyboard-response","146","381418","0.0-21.0-2.10","dfee4379-a815-456b-8011-1e095ba0fcdf","null","<p style=""text-align: center;"">+</p>","null","fixation","","","","","","","","","","","","","","","","","","","",""
"","","","","","html-slider-response","147","382436","0.0-21.0-0.11","dfee4379-a815-456b-8011-1e095ba0fcdf","1000","
                  <p style=""text-align: center;"">₪58
                                                <br>40%</p>
                  <p id=""wtp"" style=""text-align:center; margin-top: 0px; margin-bottom: 0px; font-size: 40px"";>&ensp;</p>","-","viewing","0","20","10C,13A,19C,21B","","","","","","","","","","","","","","","","",""
"","","","","","html-slider-response","148","386245","0.0-21.0-1.11","dfee4379-a815-456b-8011-1e095ba0fcdf","3808","
                  <p style=""text-align: center;"">₪58
                                                <br>40%</p>
                  <p id=""wtp"" style=""text-align:center; margin-top: 0px; margin-bottom: 0px; font-size: 40px"";>מוכנים לשלם: <span id=""c_p_y""></span></p>","52","evaluation","52","20","10C,13A,19C,21B","40","58","52","","","","","","","","","","","","","",""
"","","","","","html-keyboard-response","149","387139","0.0-21.0-2.11","dfee4379-a815-456b-8011-1e095ba0fcdf","null","<p style=""text-align: center;"">+</p>","null","fixation","","","","","","","","","","","","","","","","","","","",""
"","","","","","html-slider-response","150","388155","0.0-21.0-0.12","dfee4379-a815-456b-8011-1e095ba0fcdf","1000","
                  <p style=""text-align: center;"">₪43
                                                <br>60%</p>
                  <p id=""wtp"" style=""text-align:center; margin-top: 0px; margin-bottom: 0px; font-size: 40px"";>&ensp;</p>","-","viewing","0","17","2A,7A,9A,15B","","","","","","","","","","","","","","","","",""
"","","","","","html-slider-response","151","390797","0.0-21.0-1.12","dfee4379-a815-456b-8011-1e095ba0fcdf","2641","
                  <p style=""text-align: center;"">₪43
                                                <br>60%</p>
                  <p id=""wtp"" style=""text-align:center; margin-top: 0px; margin-bottom: 0px; font-size: 40px"";>מוכנים לשלם: <span id=""c_p_y""></span></p>","40","evaluation","10","17","2A,7A,9A,15B","60","43","40","","","","","","","","","","","","","",""
"","","","","","html-keyboard-response","152","391949","0.0-21.0-2.12","dfee4379-a815-456b-8011-1e095ba0fcdf","null","<p style=""text-align: center;"">+</p>","null","fixation","","","","","","","","","","","","","","","","","","","",""
"","","","","","html-slider-response","153","392961","0.0-21.0-0.13","dfee4379-a815-456b-8011-1e095ba0fcdf","1000","
                  <p style=""text-align: center;"">₪11
                                                <br>20%</p>
                  <p id=""wtp"" style=""text-align:center; margin-top: 0px; margin-bottom: 0px; font-size: 40px"";>&ensp;</p>","-","viewing","0","4","12C,17C,23C,28C","","","","","","","","","","","","","","","","",""
"","","","","","html-slider-response","154","395694","0.0-21.0-1.13","dfee4379-a815-456b-8011-1e095ba0fcdf","2732","
                  <p style=""text-align: center;"">₪11
                                                <br>20%</p>
                  <p id=""wtp"" style=""text-align:center; margin-top: 0px; margin-bottom: 0px; font-size: 40px"";>מוכנים לשלם: <span id=""c_p_y""></span></p>","6","evaluation","19","4","12C,17C,23C,28C","20","11","6","","","","","","","","","","","","","",""
"","","","","","html-keyboard-response","155","396538","0.0-21.0-2.13","dfee4379-a815-456b-8011-1e095ba0fcdf","null","<p style=""text-align: center;"">+</p>","null","fixation","","","","","","","","","","","","","","","","","","","",""
"","","","","","html-slider-response","156","397545","0.0-21.0-0.14","dfee4379-a815-456b-8011-1e095ba0fcdf","1000","
                  <p style=""text-align: center;"">₪11
                                                <br>25%</p>
                  <p id=""wtp"" style=""text-align:center; margin-top: 0px; margin-bottom: 0px; font-size: 40px"";>&ensp;</p>","-","viewing","0","5","12A,27B,28B,30B","","","","","","","","","","","","","","","","",""
"","","","","","html-slider-response","157","401548","0.0-21.0-1.14","dfee4379-a815-456b-8011-1e095ba0fcdf","null","
                  <p style=""text-align: center;"">₪11
                                                <br>25%</p>
                  <p id=""wtp"" style=""text-align:center; margin-top: 0px; margin-bottom: 0px; font-size: 40px"";>מוכנים לשלם: <span id=""c_p_y""></span></p>","null","evaluation","43","5","12A,27B,28B,30B","25","11","4","","","","","","","","","","","","","",""
"","","","","","html-keyboard-response","158","403044","0.0-21.0-2.14","dfee4379-a815-456b-8011-1e095ba0fcdf","null","<p style=""text-align: center;"">+</p>","null","fixation","","","","","","","","","","","","","","","","","","","",""
"","","","","","html-slider-response","159","404045","0.0-21.0-0.15","dfee4379-a815-456b-8011-1e095ba0fcdf","1000","
                  <p style=""text-align: center;"">₪71
                                                <br>55%</p>
                  <p id=""wtp"" style=""text-align:center; margin-top: 0px; margin-bottom: 0px; font-size: 40px"";>&ensp;</p>","-","viewing","0","27","5B,18A","","","","","","","","","","","","","","","","",""
"","","","","","html-slider-response","160","406598","0.0-21.0-1.15","dfee4379-a815-456b-8011-1e095ba0fcdf","2551","
                  <p style=""text-align: center;"">₪71
                                                <br>55%</p>
                  <p id=""wtp"" style=""text-align:center; margin-top: 0px; margin-bottom: 0px; font-size: 40px"";>מוכנים לשלם: <span id=""c_p_y""></span></p>","67","evaluation","70","27","5B,18A","55","71","67","","","","","","","","","","","","","",""
"","","","","","html-keyboard-response","161","407520","0.0-21.0-2.15","dfee4379-a815-456b-8011-1e095ba0fcdf","null","<p style=""text-align: center;"">+</p>","null","fixation","","","","","","","","","","","","","","","","","","","",""
"","","","","","html-slider-response","162","408522","0.0-21.0-0.16","dfee4379-a815-456b-8011-1e095ba0fcdf","1000","
                  <p style=""text-align: center;"">₪18
                                                <br>25%</p>
                  <p id=""wtp"" style=""text-align:center; margin-top: 0px; margin-bottom: 0px; font-size: 40px"";>&ensp;</p>","-","viewing","0","9","14A,23A","","","","","","","","","","","","","","","","",""
"","","","","","html-slider-response","163","412246","0.0-21.0-1.16","dfee4379-a815-456b-8011-1e095ba0fcdf","3722","
                  <p style=""text-align: center;"">₪18
                                                <br>25%</p>
                  <p id=""wtp"" style=""text-align:center; margin-top: 0px; margin-bottom: 0px; font-size: 40px"";>מוכנים לשלם: <span id=""c_p_y""></span></p>","5","evaluation","3","9","14A,23A","25","18","5","","","","","","","","","","","","","",""
"","","","","","html-keyboard-response","164","413116","0.0-21.0-2.16","dfee4379-a815-456b-8011-1e095ba0fcdf","null","<p style=""text-align: center;"">+</p>","null","fixation","","","","","","","","","","","","","","","","","","","",""
"","","","","","html-slider-response","165","414116","0.0-21.0-0.17","dfee4379-a815-456b-8011-1e095ba0fcdf","1000","
                  <p style=""text-align: center;"">₪36
                                                <br>70%</p>
                  <p id=""wtp"" style=""text-align:center; margin-top: 0px; margin-bottom: 0px; font-size: 40px"";>&ensp;</p>","-","viewing","0","13","3A,5C,10B","","","","","","","","","","","","","","","","",""
"","","","","","html-slider-response","166","418119","0.0-21.0-1.17","dfee4379-a815-456b-8011-1e095ba0fcdf","null","
                  <p style=""text-align: center;"">₪36
                                                <br>70%</p>
                  <p id=""wtp"" style=""text-align:center; margin-top: 0px; margin-bottom: 0px; font-size: 40px"";>מוכנים לשלם: <span id=""c_p_y""></span></p>","null","evaluation","71","13","3A,5C,10B","70","36","33","","","","","","","","","","","","","",""
"","","","","","html-keyboard-response","167","418845","0.0-21.0-2.17","dfee4379-a815-456b-8011-1e095ba0fcdf","null","<p style=""text-align: center;"">+</p>","null","fixation","","","","","","","","","","","","","","","","","","","",""
"","","","","","html-slider-response","168","419851","0.0-21.0-0.18","dfee4379-a815-456b-8011-1e095ba0fcdf","1000","
                  <p style=""text-align: center;"">₪11
                                                <br>45%</p>
                  <p id=""wtp"" style=""text-align:center; margin-top: 0px; margin-bottom: 0px; font-size: 40px"";>&ensp;</p>","-","viewing","0","6","14B,21C,25C","","","","","","","","","","","","","","","","",""
"","","","","","html-slider-response","169","422125","0.0-21.0-1.18","dfee4379-a815-456b-8011-1e095ba0fcdf","2274","
                  <p style=""text-align: center;"">₪11
                                                <br>45%</p>
                  <p id=""wtp"" style=""text-align:center; margin-top: 0px; margin-bottom: 0px; font-size: 40px"";>מוכנים לשלם: <span id=""c_p_y""></span></p>","8","evaluation","44","6","14B,21C,25C","45","11","8","","","","","","","","","","","","","",""
"","","","","","html-keyboard-response","170","423068","0.0-21.0-2.18","dfee4379-a815-456b-8011-1e095ba0fcdf","null","<p style=""text-align: center;"">+</p>","null","fixation","","","","","","","","","","","","","","","","","","","",""
"","","","","","html-slider-response","171","424070","0.0-21.0-0.19","dfee4379-a815-456b-8011-1e095ba0fcdf","1000","
                  <p style=""text-align: center;"">₪58
                                                <br>30%</p>
                  <p id=""wtp"" style=""text-align:center; margin-top: 0px; margin-bottom: 0px; font-size: 40px"";>&ensp;</p>","-","viewing","0","19","13C,30A","","","","","","","","","","","","","","","","",""
"","","","","","html-slider-response","172","426493","0.0-21.0-1.19","dfee4379-a815-456b-8011-1e095ba0fcdf","2422","
                  <p style=""text-align: center;"">₪58
                                                <br>30%</p>
                  <p id=""wtp"" style=""text-align:center; margin-top: 0px; margin-bottom: 0px; font-size: 40px"";>מוכנים לשלם: <span id=""c_p_y""></span></p>","49","evaluation","60","19","13C,30A","30","58","49","","","","","","","","","","","","","",""
"","","","","","html-keyboard-response","173","427356","0.0-21.0-2.19","dfee4379-a815-456b-8011-1e095ba0fcdf","null","<p style=""text-align: center;"">+</p>","null","fixation","","","","","","","","","","","","","","","","","","","",""
"","","","","","html-slider-response","174","428368","0.0-21.0-0.20","dfee4379-a815-456b-8011-1e095ba0fcdf","1000","
                  <p style=""text-align: center;"">₪71
                                                <br>45%</p>
                  <p id=""wtp"" style=""text-align:center; margin-top: 0px; margin-bottom: 0px; font-size: 40px"";>&ensp;</p>","-","viewing","0","26","2B,16A","","","","","","","","","","","","","","","","",""
"","","","","","html-slider-response","175","431949","0.0-21.0-1.20","dfee4379-a815-456b-8011-1e095ba0fcdf","3580","
                  <p style=""text-align: center;"">₪71
                                                <br>45%</p>
                  <p id=""wtp"" style=""text-align:center; margin-top: 0px; margin-bottom: 0px; font-size: 40px"";>מוכנים לשלם: <span id=""c_p_y""></span></p>","57","evaluation","49","26","2B,16A","45","71","57","","","","","","","","","","","","","",""
"","","","","","html-keyboard-response","176","432979","0.0-21.0-2.20","dfee4379-a815-456b-8011-1e095ba0fcdf","null","<p style=""text-align: center;"">+</p>","null","fixation","","","","","","","","","","","","","","","","","","","",""
"","","","","","html-slider-response","177","433989","0.0-21.0-0.21","dfee4379-a815-456b-8011-1e095ba0fcdf","1000","
                  <p style=""text-align: center;"">₪4
                                                <br>75%</p>
                  <p id=""wtp"" style=""text-align:center; margin-top: 0px; margin-bottom: 0px; font-size: 40px"";>&ensp;</p>","-","viewing","0","3","12B,20B,23B,27C,29C","","","","","","","","","","","","","","","","",""
"","","","","","html-slider-response","178","437013","0.0-21.0-1.21","dfee4379-a815-456b-8011-1e095ba0fcdf","3023","
                  <p style=""text-align: center;"">₪4
                                                <br>75%</p>
                  <p id=""wtp"" style=""text-align:center; margin-top: 0px; margin-bottom: 0px; font-size: 40px"";>מוכנים לשלם: <span id=""c_p_y""></span></p>","2","evaluation","30","3","12B,20B,23B,27C,29C","75","4","2","","","","","","","","","","","","","",""
"","","","","","html-keyboard-response","179","437700","0.0-21.0-2.21","dfee4379-a815-456b-8011-1e095ba0fcdf","null","<p style=""text-align: center;"">+</p>","null","fixation","","","","","","","","","","","","","","","","","","","",""
"","","","","","html-slider-response","180","438706","0.0-21.0-0.22","dfee4379-a815-456b-8011-1e095ba0fcdf","1000","
                  <p style=""text-align: center;"">₪4
                                                <br>50%</p>
                  <p id=""wtp"" style=""text-align:center; margin-top: 0px; margin-bottom: 0px; font-size: 40px"";>&ensp;</p>","-","viewing","0","2","4C,17B","","","","","","","","","","","","","","","","",""
"","","","","","html-slider-response","181","440773","0.0-21.0-1.22","dfee4379-a815-456b-8011-1e095ba0fcdf","2066","
                  <p style=""text-align: center;"">₪4
                                                <br>50%</p>
                  <p id=""wtp"" style=""text-align:center; margin-top: 0px; margin-bottom: 0px; font-size: 40px"";>מוכנים לשלם: <span id=""c_p_y""></span></p>","1","evaluation","43","2","4C,17B","50","4","1","","","","","","","","","","","","","",""
"","","","","","html-keyboard-response","182","441527","0.0-21.0-2.22","dfee4379-a815-456b-8011-1e095ba0fcdf","null","<p style=""text-align: center;"">+</p>","null","fixation","","","","","","","","","","","","","","","","","","","",""
"","","","","","html-slider-response","183","442529","0.0-21.0-0.23","dfee4379-a815-456b-8011-1e095ba0fcdf","1000","
                  <p style=""text-align: center;"">₪16
                                                <br>20%</p>
                  <p id=""wtp"" style=""text-align:center; margin-top: 0px; margin-bottom: 0px; font-size: 40px"";>&ensp;</p>","-","viewing","0","8","14C,17A,20C,27A","","","","","","","","","","","","","","","","",""
"","","","","","html-slider-response","184","446532","0.0-21.0-1.23","dfee4379-a815-456b-8011-1e095ba0fcdf","null","
                  <p style=""text-align: center;"">₪16
                                                <br>20%</p>
                  <p id=""wtp"" style=""text-align:center; margin-top: 0px; margin-bottom: 0px; font-size: 40px"";>מוכנים לשלם: <span id=""c_p_y""></span></p>","null","evaluation","67","8","14C,17A,20C,27A","20","16","39","","","","","","","","","","","","","",""
"","","","","","html-keyboard-response","185","447725","0.0-21.0-2.23","dfee4379-a815-456b-8011-1e095ba0fcdf","null","<p style=""text-align: center;"">+</p>","null","fixation","","","","","","","","","","","","","","","","","","","",""
"","","","","","html-slider-response","186","448734","0.0-21.0-0.24","dfee4379-a815-456b-8011-1e095ba0fcdf","1000","
                  <p style=""text-align: center;"">₪71
                                                <br>75%</p>
                  <p id=""wtp"" style=""text-align:center; margin-top: 0px; margin-bottom: 0px; font-size: 40px"";>&ensp;</p>","-","viewing","0","28","8B","","","","","","","","","","","","","","","","",""
"","","","","","html-slider-response","187","451581","0.0-21.0-1.24","dfee4379-a815-456b-8011-1e095ba0fcdf","2846","
                  <p style=""text-align: center;"">₪71
                                                <br>75%</p>
                  <p id=""wtp"" style=""text-align:center; margin-top: 0px; margin-bottom: 0px; font-size: 40px"";>מוכנים לשלם: <span id=""c_p_y""></span></p>","68","evaluation","2","28","8B","75","71","68","","","","","","","","","","","","","",""
"","","","","","html-keyboard-response","188","452207","0.0-21.0-2.24","dfee4379-a815-456b-8011-1e095ba0fcdf","null","<p style=""text-align: center;"">+</p>","null","fixation","","","","","","","","","","","","","","","","","","","",""
"","","","","","html-slider-response","189","453219","0.0-21.0-0.25","dfee4379-a815-456b-8011-1e095ba0fcdf","1000","
                  <p style=""text-align: center;"">₪64
                                                <br>50%</p>
                  <p id=""wtp"" style=""text-align:center; margin-top: 0px; margin-bottom: 0px; font-size: 40px"";>&ensp;</p>","-","viewing","0","25","1B,3B,4A","","","","","","","","","","","","","","","","",""
"","","","","","html-slider-response","190","457223","0.0-21.0-1.25","dfee4379-a815-456b-8011-1e095ba0fcdf","null","
                  <p style=""text-align: center;"">₪64
                                                <br>50%</p>
                  <p id=""wtp"" style=""text-align:center; margin-top: 0px; margin-bottom: 0px; font-size: 40px"";>מוכנים לשלם: <span id=""c_p_y""></span></p>","null","evaluation","18","25","1B,3B,4A","50","64","50","","","","","","","","","","","","","",""
"","","","","","html-keyboard-response","191","458172","0.0-21.0-2.25","dfee4379-a815-456b-8011-1e095ba0fcdf","null","<p style=""text-align: center;"">+</p>","null","fixation","","","","","","","","","","","","","","","","","","","",""
"","","","","","html-slider-response","192","459186","0.0-21.0-0.26","dfee4379-a815-456b-8011-1e095ba0fcdf","1000","
                  <p style=""text-align: center;"">₪64
                                                <br>25%</p>
                  <p id=""wtp"" style=""text-align:center; margin-top: 0px; margin-bottom: 0px; font-size: 40px"";>&ensp;</p>","-","viewing","0","24","6A,21A","","","","","","","","","","","","","","","","",""
"","","","","","html-slider-response","193","461885","0.0-21.0-1.26","dfee4379-a815-456b-8011-1e095ba0fcdf","2698","
                  <p style=""text-align: center;"">₪64
                                                <br>25%</p>
                  <p id=""wtp"" style=""text-align:center; margin-top: 0px; margin-bottom: 0px; font-size: 40px"";>מוכנים לשלם: <span id=""c_p_y""></span></p>","25","evaluation","6","24","6A,21A","25","64","25","","","","","","","","","","","","","",""
"","","","","","html-keyboard-response","194","463045","0.0-21.0-2.26","dfee4379-a815-456b-8011-1e095ba0fcdf","null","<p style=""text-align: center;"">+</p>","null","fixation","","","","","","","","","","","","","","","","","","","",""
"","","","","","html-slider-response","195","464052","0.0-21.0-0.27","dfee4379-a815-456b-8011-1e095ba0fcdf","1000","
                  <p style=""text-align: center;"">₪36
                                                <br>75%</p>
                  <p id=""wtp"" style=""text-align:center; margin-top: 0px; margin-bottom: 0px; font-size: 40px"";>&ensp;</p>","-","viewing","0","14","4B,5A,13B,16B","","","","","","","","","","","","","","","","",""
"","","","","","html-slider-response","196","468069","0.0-21.0-1.27","dfee4379-a815-456b-8011-1e095ba0fcdf","null","
                  <p style=""text-align: center;"">₪36
                                                <br>75%</p>
                  <p id=""wtp"" style=""text-align:center; margin-top: 0px; margin-bottom: 0px; font-size: 40px"";>מוכנים לשלם: <span id=""c_p_y""></span></p>","null","evaluation","62","14","4B,5A,13B,16B","75","36","33","","","","","","","","","","","","","",""
"","","","","","html-keyboard-response","197","469448","0.0-21.0-2.27","dfee4379-a815-456b-8011-1e095ba0fcdf","null","<p style=""text-align: center;"">+</p>","null","fixation","","","","","","","","","","","","","","","","","","","",""
"","","","","","html-slider-response","198","470450","0.0-21.0-0.28","dfee4379-a815-456b-8011-1e095ba0fcdf","1000","
                  <p style=""text-align: center;"">₪79
                                                <br>40%</p>
                  <p id=""wtp"" style=""text-align:center; margin-top: 0px; margin-bottom: 0px; font-size: 40px"";>&ensp;</p>","-","viewing","0","30","9B","","","","","","","","","","","","","","","","",""
"","","","","","html-slider-response","199","472302","0.0-21.0-1.28","dfee4379-a815-456b-8011-1e095ba0fcdf","1850","
                  <p style=""text-align: center;"">₪79
                                                <br>40%</p>
                  <p id=""wtp"" style=""text-align:center; margin-top: 0px; margin-bottom: 0px; font-size: 40px"";>מוכנים לשלם: <span id=""c_p_y""></span></p>","60","evaluation","42","30","9B","40","79","60","","","","","","","","","","","","","",""
"","","","","","html-keyboard-response","200","473047","0.0-21.0-2.28","dfee4379-a815-456b-8011-1e095ba0fcdf","null","<p style=""text-align: center;"">+</p>","null","fixation","","","","","","","","","","","","","","","","","","","",""
"","","","","","html-slider-response","201","474049","0.0-21.0-0.29","dfee4379-a815-456b-8011-1e095ba0fcdf","1000","
                  <p style=""text-align: center;"">₪36
                                                <br>30%</p>
                  <p id=""wtp"" style=""text-align:center; margin-top: 0px; margin-bottom: 0px; font-size: 40px"";>&ensp;</p>","-","viewing","0","11","3C,20A,22A","","","","","","","","","","","","","","","","",""
"","","","","","html-slider-response","202","478051","0.0-21.0-1.29","dfee4379-a815-456b-8011-1e095ba0fcdf","null","
                  <p style=""text-align: center;"">₪36
                                                <br>30%</p>
                  <p id=""wtp"" style=""text-align:center; margin-top: 0px; margin-bottom: 0px; font-size: 40px"";>מוכנים לשלם: <span id=""c_p_y""></span></p>","null","evaluation","48","11","3C,20A,22A","30","36","11","","","","","","","","","","","","","",""
"","","","","","html-keyboard-response","203","479124","0.0-21.0-2.29","dfee4379-a815-456b-8011-1e095ba0fcdf","null","<p style=""text-align: center;"">+</p>","null","fixation","","","","","","","","","","","","","","","","","","","",""
"","","","","","html-slider-response","204","480132","0.0-21.0-0.30","dfee4379-a815-456b-8011-1e095ba0fcdf","1000","
                  <p style=""text-align: center;"">₪4
                                                <br>25%</p>
                  <p id=""wtp"" style=""text-align:center; margin-top: 0px; margin-bottom: 0px; font-size: 40px"";>&ensp;</p>","-","viewing","0","1","6C,29B,30C","","","","","","","","","","","","","","","","",""
"","","","","","html-slider-response","205","482053","0.0-21.0-1.30","dfee4379-a815-456b-8011-1e095ba0fcdf","1921","
                  <p style=""text-align: center;"">₪4
                                                <br>25%</p>
                  <p id=""wtp"" style=""text-align:center; margin-top: 0px; margin-bottom: 0px; font-size: 40px"";>מוכנים לשלם: <span id=""c_p_y""></span></p>","1","evaluation","15","1","6C,29B,30C","25","4","1","","","","","","","","","","","","","",""
"","","","","","html-keyboard-response","206","482807","0.0-21.0-2.30","dfee4379-a815-456b-8011-1e095ba0fcdf","null","<p style=""text-align: center;"">+</p>","null","fixation","","","","","","","","","","","","","","","","","","","",""
"","","","","","html-keyboard-response","207","483822","0.0-22.0","dfee4379-a815-456b-8011-1e095ba0fcdf","null","<p style=""text-align: center;"">+</p>","null","fixation","","","","","","","","","","","","","","","","","","","",""
"","","","","","html-keyboard-response","208","485901","0.0-23.0","dfee4379-a815-456b-8011-1e095ba0fcdf","null","<p>הפסקה.
          <br>לחצו כדי להמשיך.</p>","1","scan_wait","","","","","","","","","","","","","","","","","","","",""
"","","","","","html-keyboard-response","209","486903","0.0-24.0","dfee4379-a815-456b-8011-1e095ba0fcdf","null","<p style=""text-align: center;"">+</p>","null","fixation","","","","","","","","","","","","","","","","","","","",""
"","","","","","html-slider-response","210","487917","0.0-25.0-0.0","dfee4379-a815-456b-8011-1e095ba0fcdf","1000","
                  <p style=""text-align: center;"">₪36
                                                <br>75%</p>
                  <p id=""wtp"" style=""text-align:center; margin-top: 0px; margin-bottom: 0px; font-size: 40px"";>&ensp;</p>","-","viewing","0","14","4B,5A,13B,16B","","","","","","","","","","","","","","","","",""
"","","","","","html-slider-response","211","490037","0.0-25.0-1.0","dfee4379-a815-456b-8011-1e095ba0fcdf","2119","
                  <p style=""text-align: center;"">₪36
                                                <br>75%</p>
                  <p id=""wtp"" style=""text-align:center; margin-top: 0px; margin-bottom: 0px; font-size: 40px"";>מוכנים לשלם: <span id=""c_p_y""></span></p>","30","evaluation","10","14","4B,5A,13B,16B","75","36","30","","","","","","","","","","","","","",""
"","","","","","html-keyboard-response","212","490883","0.0-25.0-2.0","dfee4379-a815-456b-8011-1e095ba0fcdf","null","<p style=""text-align: center;"">+</p>","null","fixation","","","","","","","","","","","","","","","","","","","",""
"","","","","","html-slider-response","213","491890","0.0-25.0-0.1","dfee4379-a815-456b-8011-1e095ba0fcdf","1000","
                  <p style=""text-align: center;"">₪43
                                                <br>75%</p>
                  <p id=""wtp"" style=""text-align:center; margin-top: 0px; margin-bottom: 0px; font-size: 40px"";>&ensp;</p>","-","viewing","0","18","11B,19B,24A,26A","","","","","","","","","","","","","","","","",""
"","","","","","html-slider-response","214","495901","0.0-25.0-1.1","dfee4379-a815-456b-8011-1e095ba0fcdf","null","
                  <p style=""text-align: center;"">₪43
                                                <br>75%</p>
                  <p id=""wtp"" style=""text-align:center; margin-top: 0px; margin-bottom: 0px; font-size: 40px"";>מוכנים לשלם: <span id=""c_p_y""></span></p>","null","evaluation","75","18","11B,19B,24A,26A","75","43","38","","","","","","","","","","","","","",""
"","","","","","html-keyboard-response","215","496783","0.0-25.0-2.1","dfee4379-a815-456b-8011-1e095ba0fcdf","null","<p style=""text-align: center;"">+</p>","null","fixation","","","","","","","","","","","","","","","","","","","",""
"","","","","","html-slider-response","216","497790","0.0-25.0-0.2","dfee4379-a815-456b-8011-1e095ba0fcdf","1000","
                  <p style=""text-align: center;"">₪71
                                                <br>55%</p>
                  <p id=""wtp"" style=""text-align:center; margin-top: 0px; margin-bottom: 0px; font-size: 40px"";>&ensp;</p>","-","viewing","0","27","5B,18A","","","","","","","","","","","","","","","","",""
"","","","","","html-slider-response","217","499686","0.0-25.0-1.2","dfee4379-a815-456b-8011-1e095ba0fcdf","1895","
                  <p style=""text-align: center;"">₪71
                                                <br>55%</p>
                  <p id=""wtp"" style=""text-align:center; margin-top: 0px; margin-bottom: 0px; font-size: 40px"";>מוכנים לשלם: <span id=""c_p_y""></span></p>","43","evaluation","18","27","5B,18A","55","71","43","","","","","","","","","","","","","",""
"","","","","","html-keyboard-response","218","500238","0.0-25.0-2.2","dfee4379-a815-456b-8011-1e095ba0fcdf","null","<p style=""text-align: center;"">+</p>","null","fixation","","","","","","","","","","","","","","","","","","","",""
"","","","","","html-slider-response","219","501240","0.0-25.0-0.3","dfee4379-a815-456b-8011-1e095ba0fcdf","1000","
                  <p style=""text-align: center;"">₪71
                                                <br>45%</p>
                  <p id=""wtp"" style=""text-align:center; margin-top: 0px; margin-bottom: 0px; font-size: 40px"";>&ensp;</p>","-","viewing","0","26","2B,16A","","","","","","","","","","","","","","","","",""
"","","","","","html-slider-response","220","504061","0.0-25.0-1.3","dfee4379-a815-456b-8011-1e095ba0fcdf","2821","
                  <p style=""text-align: center;"">₪71
                                                <br>45%</p>
                  <p id=""wtp"" style=""text-align:center; margin-top: 0px; margin-bottom: 0px; font-size: 40px"";>מוכנים לשלם: <span id=""c_p_y""></span></p>","28","evaluation","50","26","2B,16A","45","71","28","","","","","","","","","","","","","",""
"","","","","","html-keyboard-response","221","504974","0.0-25.0-2.3","dfee4379-a815-456b-8011-1e095ba0fcdf","null","<p style=""text-align: center;"">+</p>","null","fixation","","","","","","","","","","","","","","","","","","","",""
"","","","","","html-slider-response","222","505990","0.0-25.0-0.4","dfee4379-a815-456b-8011-1e095ba0fcdf","1000","
                  <p style=""text-align: center;"">₪11
                                                <br>45%</p>
                  <p id=""wtp"" style=""text-align:center; margin-top: 0px; margin-bottom: 0px; font-size: 40px"";>&ensp;</p>","-","viewing","0","6","14B,21C,25C","","","","","","","","","","","","","","","","",""
"","","","","","html-slider-response","223","509995","0.0-25.0-1.4","dfee4379-a815-456b-8011-1e095ba0fcdf","null","
                  <p style=""text-align: center;"">₪11
                                                <br>45%</p>
                  <p id=""wtp"" style=""text-align:center; margin-top: 0px; margin-bottom: 0px; font-size: 40px"";>מוכנים לשלם: <span id=""c_p_y""></span></p>","null","evaluation","2","6","14B,21C,25C","45","11","0","","","","","","","","","","","","","",""
"","","","","","html-keyboard-response","224","510724","0.0-25.0-2.4","dfee4379-a815-456b-8011-1e095ba0fcdf","null","<p style=""text-align: center;"">+</p>","null","fixation","","","","","","","","","","","","","","","","","","","",""
"","","","","","html-slider-response","225","511727","0.0-25.0-0.5","dfee4379-a815-456b-8011-1e095ba0fcdf","1000","
                  <p style=""text-align: center;"">₪79
                                                <br>65%</p>
                  <p id=""wtp"" style=""text-align:center; margin-top: 0px; margin-bottom: 0px; font-size: 40px"";>&ensp;</p>","-","viewing","0","31","8A","","","","","","","","","","","","","","","","",""
"","","","","","html-slider-response","226","514685","0.0-25.0-1.5","dfee4379-a815-456b-8011-1e095ba0fcdf","2957","
                  <p style=""text-align: center;"">₪79
                                                <br>65%</p>
                  <p id=""wtp"" style=""text-align:center; margin-top: 0px; margin-bottom: 0px; font-size: 40px"";>מוכנים לשלם: <span id=""c_p_y""></span></p>","48","evaluation","64","31","8A","65","79","48","","","","","","","","","","","","","",""
"","","","","","html-keyboard-response","227","516158","0.0-25.0-2.5","dfee4379-a815-456b-8011-1e095ba0fcdf","null","<p style=""text-align: center;"">+</p>","null","fixation","","","","","","","","","","","","","","","","","","","",""
"","","","","","html-slider-response","228","517173","0.0-25.0-0.6","dfee4379-a815-456b-8011-1e095ba0fcdf","1000","
                  <p style=""text-align: center;"">₪58
                                                <br>45%</p>
                  <p id=""wtp"" style=""text-align:center; margin-top: 0px; margin-bottom: 0px; font-size: 40px"";>&ensp;</p>","-","viewing","0","21","11C,18C,25A","","","","","","","","","","","","","","","","",""
"","","","","","html-slider-response","229","520829","0.0-25.0-1.6","dfee4379-a815-456b-8011-1e095ba0fcdf","3655","
                  <p style=""text-align: center;"">₪58
                                                <br>45%</p>
                  <p id=""wtp"" style=""text-align:center; margin-top: 0px; margin-bottom: 0px; font-size: 40px"";>מוכנים לשלם: <span id=""c_p_y""></span></p>","29","evaluation","17","21","11C,18C,25A","45","58","29","","","","","","","","","","","","","",""
"","","","","","html-keyboard-response","230","521564","0.0-25.0-2.6","dfee4379-a815-456b-8011-1e095ba0fcdf","null","<p style=""text-align: center;"">+</p>","null","fixation","","","","","","","","","","","","","","","","","","","",""
"","","","","","html-slider-response","231","522566","0.0-25.0-0.7","dfee4379-a815-456b-8011-1e095ba0fcdf","1000","
                  <p style=""text-align: center;"">₪4
                                                <br>25%</p>
                  <p id=""wtp"" style=""text-align:center; margin-top: 0px; margin-bottom: 0px; font-size: 40px"";>&ensp;</p>","-","viewing","0","1","6C,29B,30C","","","","","","","","","","","","","","","","",""
"","","","","","html-slider-response","232","524030","0.0-25.0-1.7","dfee4379-a815-456b-8011-1e095ba0fcdf","1462","
                  <p style=""text-align: center;"">₪4
                                                <br>25%</p>
                  <p id=""wtp"" style=""text-align:center; margin-top: 0px; margin-bottom: 0px; font-size: 40px"";>מוכנים לשלם: <span id=""c_p_y""></span></p>","1","evaluation","62","1","6C,29B,30C","25","4","1","","","","","","","","","","","","","",""
"","","","","","html-keyboard-response","233","525526","0.0-25.0-2.7","dfee4379-a815-456b-8011-1e095ba0fcdf","null","<p style=""text-align: center;"">+</p>","null","fixation","","","","","","","","","","","","","","","","","","","",""
"","","","","","html-slider-response","234","526527","0.0-25.0-0.8","dfee4379-a815-456b-8011-1e095ba0fcdf","1000","
                  <p style=""text-align: center;"">₪43
                                                <br>60%</p>
                  <p id=""wtp"" style=""text-align:center; margin-top: 0px; margin-bottom: 0px; font-size: 40px"";>&ensp;</p>","-","viewing","0","17","2A,7A,9A,15B","","","","","","","","","","","","","","","","",""
"","","","","","html-slider-response","235","528774","0.0-25.0-1.8","dfee4379-a815-456b-8011-1e095ba0fcdf","2245","
                  <p style=""text-align: center;"">₪43
                                                <br>60%</p>
                  <p id=""wtp"" style=""text-align:center; margin-top: 0px; margin-bottom: 0px; font-size: 40px"";>מוכנים לשלם: <span id=""c_p_y""></span></p>","29","evaluation","46","17","2A,7A,9A,15B","60","43","29","","","","","","","","","","","","","",""
"","","","","","html-keyboard-response","236","529870","0.0-25.0-2.8","dfee4379-a815-456b-8011-1e095ba0fcdf","null","<p style=""text-align: center;"">+</p>","null","fixation","","","","","","","","","","","","","","","","","","","",""
"","","","","","html-slider-response","237","530875","0.0-25.0-0.9","dfee4379-a815-456b-8011-1e095ba0fcdf","1000","
                  <p style=""text-align: center;"">₪58
                                                <br>30%</p>
                  <p id=""wtp"" style=""text-align:center; margin-top: 0px; margin-bottom: 0px; font-size: 40px"";>&ensp;</p>","-","viewing","0","19","13C,30A","","","","","","","","","","","","","","","","",""
"","","","","","html-slider-response","238","533381","0.0-25.0-1.9","dfee4379-a815-456b-8011-1e095ba0fcdf","2506","
                  <p style=""text-align: center;"">₪58
                                                <br>30%</p>
                  <p id=""wtp"" style=""text-align:center; margin-top: 0px; margin-bottom: 0px; font-size: 40px"";>מוכנים לשלם: <span id=""c_p_y""></span></p>","26","evaluation","20","19","13C,30A","30","58","26","","","","","","","","","","","","","",""
"","","","","","html-keyboard-response","239","533943","0.0-25.0-2.9","dfee4379-a815-456b-8011-1e095ba0fcdf","null","<p style=""text-align: center;"">+</p>","null","fixation","","","","","","","","","","","","","","","","","","","",""
"","","","","","html-slider-response","240","534949","0.0-25.0-0.10","dfee4379-a815-456b-8011-1e095ba0fcdf","1000","
                  <p style=""text-align: center;"">₪18
                                                <br>50%</p>
                  <p id=""wtp"" style=""text-align:center; margin-top: 0px; margin-bottom: 0px; font-size: 40px"";>&ensp;</p>","-","viewing","0","10","2C,16C,22B,28A","","","","","","","","","","","","","","","","",""
"","","","","","html-slider-response","241","538694","0.0-25.0-1.10","dfee4379-a815-456b-8011-1e095ba0fcdf","3743","
                  <p style=""text-align: center;"">₪18
                                                <br>50%</p>
                  <p id=""wtp"" style=""text-align:center; margin-top: 0px; margin-bottom: 0px; font-size: 40px"";>מוכנים לשלם: <span id=""c_p_y""></span></p>","7","evaluation","48","10","2C,16C,22B,28A","50","18","7","","","","","","","","","","","","","",""
"","","","","","html-keyboard-response","242","539331","0.0-25.0-2.10","dfee4379-a815-456b-8011-1e095ba0fcdf","null","<p style=""text-align: center;"">+</p>","null","fixation","","","","","","","","","","","","","","","","","","","",""
"","","","","","html-slider-response","243","540344","0.0-25.0-0.11","dfee4379-a815-456b-8011-1e095ba0fcdf","1000","
                  <p style=""text-align: center;"">₪36
                                                <br>70%</p>
                  <p id=""wtp"" style=""text-align:center; margin-top: 0px; margin-bottom: 0px; font-size: 40px"";>&ensp;</p>","-","viewing","0","13","3A,5C,10B","","","","","","","","","","","","","","","","",""
"","","","","","html-slider-response","244","543134","0.0-25.0-1.11","dfee4379-a815-456b-8011-1e095ba0fcdf","2788","
                  <p style=""text-align: center;"">₪36
                                                <br>70%</p>
                  <p id=""wtp"" style=""text-align:center; margin-top: 0px; margin-bottom: 0px; font-size: 40px"";>מוכנים לשלם: <span id=""c_p_y""></span></p>","16","evaluation","51","13","3A,5C,10B","70","36","16","","","","","","","","","","","","","",""
"","","","","","html-keyboard-response","245","543853","0.0-25.0-2.11","dfee4379-a815-456b-8011-1e095ba0fcdf","null","<p style=""text-align: center;"">+</p>","null","fixation","","","","","","","","","","","","","","","","","","","",""
"","","","","","html-slider-response","246","544855","0.0-25.0-0.12","dfee4379-a815-456b-8011-1e095ba0fcdf","1000","
                  <p style=""text-align: center;"">₪39
                                                <br>60%</p>
                  <p id=""wtp"" style=""text-align:center; margin-top: 0px; margin-bottom: 0px; font-size: 40px"";>&ensp;</p>","-","viewing","0","15","9C,25B","","","","","","","","","","","","","","","","",""
"","","","","","html-slider-response","247","548868","0.0-25.0-1.12","dfee4379-a815-456b-8011-1e095ba0fcdf","null","
                  <p style=""text-align: center;"">₪39
                                                <br>60%</p>
                  <p id=""wtp"" style=""text-align:center; margin-top: 0px; margin-bottom: 0px; font-size: 40px"";>מוכנים לשלם: <span id=""c_p_y""></span></p>","null","evaluation","26","15","9C,25B","60","39","12","","","","","","","","","","","","","",""
"","","","","","html-keyboard-response","248","549725","0.0-25.0-2.12","dfee4379-a815-456b-8011-1e095ba0fcdf","null","<p style=""text-align: center;"">+</p>","null","fixation","","","","","","","","","","","","","","","","","","","",""
"","","","","","html-slider-response","249","550727","0.0-25.0-0.13","dfee4379-a815-456b-8011-1e095ba0fcdf","1000","
                  <p style=""text-align: center;"">₪11
                                                <br>25%</p>
                  <p id=""wtp"" style=""text-align:center; margin-top: 0px; margin-bottom: 0px; font-size: 40px"";>&ensp;</p>","-","viewing","0","5","12A,27B,28B,30B","","","","","","","","","","","","","","","","",""
"","","","","","html-slider-response","250","552926","0.0-25.0-1.13","dfee4379-a815-456b-8011-1e095ba0fcdf","2198","
                  <p style=""text-align: center;"">₪11
                                                <br>25%</p>
                  <p id=""wtp"" style=""text-align:center; margin-top: 0px; margin-bottom: 0px; font-size: 40px"";>מוכנים לשלם: <span id=""c_p_y""></span></p>","3","evaluation","38","5","12A,27B,28B,30B","25","11","3","","","","","","","","","","","","","",""
"","","","","","html-keyboard-response","251","554408","0.0-25.0-2.13","dfee4379-a815-456b-8011-1e095ba0fcdf","null","<p style=""text-align: center;"">+</p>","null","fixation","","","","","","","","","","","","","","","","","","","",""
"","","","","","html-slider-response","252","555417","0.0-25.0-0.14","dfee4379-a815-456b-8011-1e095ba0fcdf","1000","
                  <p style=""text-align: center;"">₪79
                                                <br>40%</p>
                  <p id=""wtp"" style=""text-align:center; margin-top: 0px; margin-bottom: 0px; font-size: 40px"";>&ensp;</p>","-","viewing","0","30","9B","","","","","","","","","","","","","","","","",""
"","","","","","html-slider-response","253","557470","0.0-25.0-1.14","dfee4379-a815-456b-8011-1e095ba0fcdf","2051","
                  <p style=""text-align: center;"">₪79
                                                <br>40%</p>
                  <p id=""wtp"" style=""text-align:center; margin-top: 0px; margin-bottom: 0px; font-size: 40px"";>מוכנים לשלם: <span id=""c_p_y""></span></p>","35","evaluation","42","30","9B","40","79","35","","","","","","","","","","","","","",""
"","","","","","html-keyboard-response","254","558001","0.0-25.0-2.14","dfee4379-a815-456b-8011-1e095ba0fcdf","null","<p style=""text-align: center;"">+</p>","null","fixation","","","","","","","","","","","","","","","","","","","",""
