"success","timeout","failed_images","failed_audio","failed_video","trial_type","trial_index","time_elapsed","internal_node_id","subject_id","rt","stimulus","response","part","slider_start","ID","set_ID","prob","amount","last_location","actual_choice","actual_EV","binary_id","trinary_id","catch","A_key","D_key","choice_prob","choice_amount","won_prize","potential_prize_amount","potential_prize_prob","total_prize","accuracy"
"true","false","[]","[]","[]","preload","0","17","0.0-0.0","0515c162-d4c4-4d6d-88d6-80d2de1765c9","","","","","","","","","","","","","","","","","","","","","","","",""
"","","","","","html-keyboard-response","1","13064","0.0-1.0","0515c162-d4c4-4d6d-88d6-80d2de1765c9","null","
          <h1>שלום וברוכים הבאים!</h1>
          <p>לפניכם ניסוי בקבלת החלטות עם שני חלקים.
          <br><br>לחצו על העכבר כדי להמשיך.</p>","0","example","","","","","","","","","","","","","","","","","","","",""
"","","","","","html-keyboard-response","2","26968","0.0-2.0","0515c162-d4c4-4d6d-88d6-80d2de1765c9","null","
        <h1>חלק 1</h1>
        <p>בקרוב יוצגו בפניכם הגרלות.
        <br>עליכם לבחור את המחיר המירבי שתהיו מוכנים לשלם כדי להשתתף בהגרלה שתוצג.
        <br>יש לכם תקציב של ₪80 לכל הגרלה. 
        <br>נסו להעריך כל הגרלה בנפרד ולחשוב כמה היא שווה עבורכם, ₪80 זמינים לכל הגרלה בנפרד.
        <br><br>לחצו על העכבר כדי להמשיך.</p>","1","instructions","","","","","","","","","","","","","","","","","","","",""
"","","","","","html-keyboard-response","3","40120","0.0-3.0","0515c162-d4c4-4d6d-88d6-80d2de1765c9","null","
        <p>בסוף הניסוי, המחשב יבחר את אחת ההגרלות ויקבע מחיר לכרטיס עבורה. 
        <br>במידה והמחיר שבחרתם נמוך מהמחיר שנבחר על ידי המחשב, לא תשתתפו בהגרלה ותשארו עם מלוא התקציב.
        <br>במידה והמחיר שבחרתם גבוה מהמחיר שנבחר על ידי המחשב, תשלמו את המחיר שנקבע ותשתתפו בהגרלה.
        <br><br>לחצו על העכבר כדי להמשיך.</p>","1","instructions","","","","","","","","","","","","","","","","","","","",""
"","","","","","html-slider-response","4","56536","0.0-4.0","0515c162-d4c4-4d6d-88d6-80d2de1765c9","16299","
        <p style=""font-size: 42px;"">נתחיל עם דוגמא: 
        <br>ההגרלה מטה מציעה 65% סיכוי לזכות ב-₪40 
        <br>&emsp;&emsp;&emsp;&emsp;&emsp;&emsp;&emsp;&emsp;&ensp;35% סיכוי לזכות ב-₪0.
        <br><br>מה המחיר המירבי שתהיו מוכנים לשלם על כרטיס להגרלה זו בין 0 ל-₪80?
        <br>הזיזו את העכבר על פני המלבן ולחצו כדי לבצע בחירה.</p>
        
        <p style=""text-align: center;"">₪40<br>65%</p>

        <p id=""wtp"" style=""text-align:center; margin-top: 0px; margin-bottom: 0px; font-size: 40px"";>מוכנים לשלם: <span id=""c_p_y""></span></p>","20","example","60","","","","","","","","","","","","","","","","","","",""
"","","","","","html-keyboard-response","5","68152","0.0-5.0","0515c162-d4c4-4d6d-88d6-80d2de1765c9","null","<p>יפה מאוד!
                <br> בחרתם שתהיו מוכנים לשלם ₪20 כדי להשתתף בהגרלה:
                <br><p style=""text-align: center;"">₪40<br>65%</p>
                <p>נשמע נכון?
                <br>נניח שהגרלה זו נבחרה בסוף הניסוי.
                <br>כעת המחשב יקבע מחיר עבורה באקראי.
                <br>לחצו על העכבר להמשך.</p>","1","example","","","","","","","","","","","","","","","","","","","",""
"","","","","","html-keyboard-response","6","74008","0.0-6.0","0515c162-d4c4-4d6d-88d6-80d2de1765c9","null","<p>המחשב קבע מחיר: ₪38
                <br>ואתם בחרתם לשלם לכל היותר: ₪20
                <br><br>מכיוון שהמחיר שבחרתם נמוך מהמחיר שנקבע, לא תתשתתפו בהגרלה.
                <br>במקרה כזה, בסוף הניסוי תקבלו את כל התקציב ההתחלתי של ₪80.
                <br><br>לחצו על העכבר להמשך.</p>","1","example","","","","","","","","","","","","","","","","","","","",""
"","","","","","html-slider-response","7","89776","0.0-7.0","0515c162-d4c4-4d6d-88d6-80d2de1765c9","15514","<p style=""font-size: 42px;"">הנה עוד דוגמא:
                <br>ההגרלה מטה מציעה 35% סיכוי לזכות ב-₪18 
                <br>&emsp;&emsp;&emsp;&emsp;&emsp;&emsp;&emsp;&emsp;&ensp;65% סיכוי לזכות ב-₪0.</p>
        
                <p style=""text-align: center;"">₪18<br>35%</p>
                <p id=""wtp"" style=""text-align:center; margin-top: 0px; margin-bottom: 0px; font-size: 40px"";>מוכנים לשלם: <span id=""c_p_y""></span></p>","8","example","77","","","","","","","","","","","","","","","","","","",""
"","","","","","html-keyboard-response","8","92912","0.0-8.0","0515c162-d4c4-4d6d-88d6-80d2de1765c9","null","<p>הייתם מוכנים לשלם  ₪8 כדי להשתתף בהגרלה:
                <p style=""text-align: center;"">₪18<br>35%</p>
                <p>כעת נניח שהמחשב בחר את ההגרלה הזו בסוף הניסוי, וקבע עבורה מחיר.
                <br><br>לחצו על העכבר כדי להמשיך.</p>","1","instructions","","","","","","","","","","","","","","","","","","","",""
"","","","","","html-keyboard-response","9","110152","0.0-9.0","0515c162-d4c4-4d6d-88d6-80d2de1765c9","null","<p>המחשב קבע מחיר להגרלה: ₪3<br>ואתם בחרתם לשלם לכל היותר: ₪8
                <br><br>כעת המחיר שנקבע נמוך מזה שבחרתם, אז תשלמו את המחיר שקבע המחשב (₪3) ותשתתפו בהגרלה.
                <br>במקרה כזה, תסיימו את הניסוי עם תקציב של ₪77 ועם סיכוי לזכות ב-₪18 נוספים מההגרלה.
                <br>כלומר, תוכלו לקבל ₪77 אם לא תזכו בהגרלה, או ₪95 אם תזכו בהגרלה.
                <br><br>לחצו על העכבר להמשך.</p>","1","example","","","","","","","","","","","","","","","","","","","",""
"","","","","","html-keyboard-response","10","119408","0.0-10.0","0515c162-d4c4-4d6d-88d6-80d2de1765c9","null","<p>במהלך הניסוי, קודם תראו את ההגרלה ורק לאחר מכן תוכלו לבחור.
                <p>כמו כן, יהיו לכם מספר שניות מוגבל להגיב.
                <p>בואו ננסה זאת עם ההגרלה הקודמת.
                <br>לחצו על העכבר כדי להמשיך.</p>","1","instructions","","","","","","","","","","","","","","","","","","","",""
"","","","","","html-slider-response","11","120662","0.0-11.0","0515c162-d4c4-4d6d-88d6-80d2de1765c9","1000","
                    <p style=""text-align: center;"">₪18<br>35%</p>
                    <p id=""wtp"" style=""text-align:center; margin-top: 0px; margin-bottom: 0px; font-size: 40px"";>&ensp;</p>","19","instructions","0","","","","","","","","","","","","","","","","","","",""
"","","","","","html-slider-response","12","122888","0.0-12.0","0515c162-d4c4-4d6d-88d6-80d2de1765c9","1974","
                    <p style=""text-align: center;"">₪18<br>35%</p>
                    <p id=""wtp"" style=""text-align:center; margin-top: 0px; margin-bottom: 0px; font-size: 40px"";>מוכנים לשלם: <span id=""c_p_y""></span></p>","16","instructions","69","","","","","","","","","","","","","","","","","","",""
"","","","","","html-keyboard-response","13","125416","0.0-13.0","0515c162-d4c4-4d6d-88d6-80d2de1765c9","null","<p>יפה. הפעם בחרתם לשלם לכל היותר ₪16.
                <br><br>לחצו על העכבר כדי להמשיך.</p>","1","instructions","","","","","","","","","","","","","","","","","","","",""
"","","","","","html-keyboard-response","14","132032","0.0-15.0","0515c162-d4c4-4d6d-88d6-80d2de1765c9","null","<p>כעת נתחיל את הניסוי.
                <br><br>אתם תראו הגרלות ותתבקשו לבחור כמה תהיו מוכנים לשלם כדי להשתתף בהן.
                <br>יש לכם תקציב של ₪80 עבור כל הגרלה.
                <br>בסוף הניסוי הגרלה אחת תבחר באקראי ותשוחק.
                <br><br>לחצו על העכבר כדי להתחיל את הניסוי.</p>","1","instructions","","","","","","","","","","","","","","","","","","","",""
"","","","","","html-keyboard-response","15","133306","0.0-16.0","0515c162-d4c4-4d6d-88d6-80d2de1765c9","null","<p style=""text-align: center;"">+</p>","null","fixation","","","","","","","","","","","","","","","","","","","",""
"","","","","","html-slider-response","16","134310","0.0-17.0-0.0","0515c162-d4c4-4d6d-88d6-80d2de1765c9","1000","
                  <p style=""text-align: center;"">₪64
                                                <br>50%</p>
                  <p id=""wtp"" style=""text-align:center; margin-top: 0px; margin-bottom: 0px; font-size: 40px"";>&ensp;</p>","-","viewing","0","25","1B,3B,4A","","","","","","","","","","","","","","","","",""
"","","","","","html-slider-response","17","138323","0.0-17.0-1.0","0515c162-d4c4-4d6d-88d6-80d2de1765c9","null","
                  <p style=""text-align: center;"">₪64
                                                <br>50%</p>
                  <p id=""wtp"" style=""text-align:center; margin-top: 0px; margin-bottom: 0px; font-size: 40px"";>מוכנים לשלם: <span id=""c_p_y""></span></p>","null","evaluation","79","25","1B,3B,4A","50","64","34","","","","","","","","","","","","","",""
"","","","","","html-keyboard-response","18","139141","0.0-17.0-2.0","0515c162-d4c4-4d6d-88d6-80d2de1765c9","null","<p style=""text-align: center;"">+</p>","null","fixation","","","","","","","","","","","","","","","","","","","",""
"","","","","","html-slider-response","19","140151","0.0-17.0-0.1","0515c162-d4c4-4d6d-88d6-80d2de1765c9","1000","
                  <p style=""text-align: center;"">₪71
                                                <br>75%</p>
                  <p id=""wtp"" style=""text-align:center; margin-top: 0px; margin-bottom: 0px; font-size: 40px"";>&ensp;</p>","-","viewing","0","28","8B","","","","","","","","","","","","","","","","",""
"","","","","","html-slider-response","20","142432","0.0-17.0-1.1","0515c162-d4c4-4d6d-88d6-80d2de1765c9","2280","
                  <p style=""text-align: center;"">₪71
                                                <br>75%</p>
                  <p id=""wtp"" style=""text-align:center; margin-top: 0px; margin-bottom: 0px; font-size: 40px"";>מוכנים לשלם: <span id=""c_p_y""></span></p>","36","evaluation","53","28","8B","75","71","36","","","","","","","","","","","","","",""
"","","","","","html-keyboard-response","21","143555","0.0-17.0-2.1","0515c162-d4c4-4d6d-88d6-80d2de1765c9","null","<p style=""text-align: center;"">+</p>","null","fixation","","","","","","","","","","","","","","","","","","","",""
"","","","","","html-slider-response","22","144558","0.0-17.0-0.2","0515c162-d4c4-4d6d-88d6-80d2de1765c9","1000","
                  <p style=""text-align: center;"">₪43
                                                <br>75%</p>
                  <p id=""wtp"" style=""text-align:center; margin-top: 0px; margin-bottom: 0px; font-size: 40px"";>&ensp;</p>","-","viewing","0","18","11B,19B,24A,26A","","","","","","","","","","","","","","","","",""
"","","","","","html-slider-response","23","145488","0.0-17.0-1.2","0515c162-d4c4-4d6d-88d6-80d2de1765c9","928","
                  <p style=""text-align: center;"">₪43
                                                <br>75%</p>
                  <p id=""wtp"" style=""text-align:center; margin-top: 0px; margin-bottom: 0px; font-size: 40px"";>מוכנים לשלם: <span id=""c_p_y""></span></p>","20","evaluation","20","18","11B,19B,24A,26A","75","43","20","","","","","","","","","","","","","",""
"","","","","","html-keyboard-response","24","146988","0.0-17.0-2.2","0515c162-d4c4-4d6d-88d6-80d2de1765c9","null","<p style=""text-align: center;"">+</p>","null","fixation","","","","","","","","","","","","","","","","","","","",""
"","","","","","html-slider-response","25","147999","0.0-17.0-0.3","0515c162-d4c4-4d6d-88d6-80d2de1765c9","1000","
                  <p style=""text-align: center;"">₪16
                                                <br>20%</p>
                  <p id=""wtp"" style=""text-align:center; margin-top: 0px; margin-bottom: 0px; font-size: 40px"";>&ensp;</p>","-","viewing","0","8","14C,17A,20C,27A","","","","","","","","","","","","","","","","",""
"","","","","","html-slider-response","26","149480","0.0-17.0-1.3","0515c162-d4c4-4d6d-88d6-80d2de1765c9","1479","
                  <p style=""text-align: center;"">₪16
                                                <br>20%</p>
                  <p id=""wtp"" style=""text-align:center; margin-top: 0px; margin-bottom: 0px; font-size: 40px"";>מוכנים לשלם: <span id=""c_p_y""></span></p>","9","evaluation","79","8","14C,17A,20C,27A","20","16","10","","","","","","","","","","","","","",""
"","","","","","html-keyboard-response","27","150539","0.0-17.0-2.3","0515c162-d4c4-4d6d-88d6-80d2de1765c9","null","<p style=""text-align: center;"">+</p>","null","fixation","","","","","","","","","","","","","","","","","","","",""
"","","","","","html-slider-response","28","151555","0.0-17.0-0.4","0515c162-d4c4-4d6d-88d6-80d2de1765c9","1000","
                  <p style=""text-align: center;"">₪11
                                                <br>75%</p>
                  <p id=""wtp"" style=""text-align:center; margin-top: 0px; margin-bottom: 0px; font-size: 40px"";>&ensp;</p>","-","viewing","0","7","6B,18B,22C,24C,29A","","","","","","","","","","","","","","","","",""
"","","","","","html-slider-response","29","154120","0.0-17.0-1.4","0515c162-d4c4-4d6d-88d6-80d2de1765c9","2563","
                  <p style=""text-align: center;"">₪11
                                                <br>75%</p>
                  <p id=""wtp"" style=""text-align:center; margin-top: 0px; margin-bottom: 0px; font-size: 40px"";>מוכנים לשלם: <span id=""c_p_y""></span></p>","8","evaluation","66","7","6B,18B,22C,24C,29A","75","11","8","","","","","","","","","","","","","",""
"","","","","","html-keyboard-response","30","155315","0.0-17.0-2.4","0515c162-d4c4-4d6d-88d6-80d2de1765c9","null","<p style=""text-align: center;"">+</p>","null","fixation","","","","","","","","","","","","","","","","","","","",""
"","","","","","html-slider-response","31","156317","0.0-17.0-0.5","0515c162-d4c4-4d6d-88d6-80d2de1765c9","1000","
                  <p style=""text-align: center;"">₪58
                                                <br>45%</p>
                  <p id=""wtp"" style=""text-align:center; margin-top: 0px; margin-bottom: 0px; font-size: 40px"";>&ensp;</p>","-","viewing","0","21","11C,18C,25A","","","","","","","","","","","","","","","","",""
"","","","","","html-slider-response","32","158440","0.0-17.0-1.5","0515c162-d4c4-4d6d-88d6-80d2de1765c9","2122","
                  <p style=""text-align: center;"">₪58
                                                <br>45%</p>
                  <p id=""wtp"" style=""text-align:center; margin-top: 0px; margin-bottom: 0px; font-size: 40px"";>מוכנים לשלם: <span id=""c_p_y""></span></p>","40","evaluation","70","21","11C,18C,25A","45","58","40","","","","","","","","","","","","","",""
"","","","","","html-keyboard-response","33","159474","0.0-17.0-2.5","0515c162-d4c4-4d6d-88d6-80d2de1765c9","null","<p style=""text-align: center;"">+</p>","null","fixation","","","","","","","","","","","","","","","","","","","",""
"","","","","","html-slider-response","34","160482","0.0-17.0-0.6","0515c162-d4c4-4d6d-88d6-80d2de1765c9","1000","
                  <p style=""text-align: center;"">₪4
                                                <br>50%</p>
                  <p id=""wtp"" style=""text-align:center; margin-top: 0px; margin-bottom: 0px; font-size: 40px"";>&ensp;</p>","-","viewing","0","2","4C,17B","","","","","","","","","","","","","","","","",""
"","","","","","html-slider-response","35","162560","0.0-17.0-1.6","0515c162-d4c4-4d6d-88d6-80d2de1765c9","2077","
                  <p style=""text-align: center;"">₪4
                                                <br>50%</p>
                  <p id=""wtp"" style=""text-align:center; margin-top: 0px; margin-bottom: 0px; font-size: 40px"";>מוכנים לשלם: <span id=""c_p_y""></span></p>","1","evaluation","5","2","4C,17B","50","4","2","","","","","","","","","","","","","",""
"","","","","","html-keyboard-response","36","163590","0.0-17.0-2.6","0515c162-d4c4-4d6d-88d6-80d2de1765c9","null","<p style=""text-align: center;"">+</p>","null","fixation","","","","","","","","","","","","","","","","","","","",""
"","","","","","html-slider-response","37","164593","0.0-17.0-0.7","0515c162-d4c4-4d6d-88d6-80d2de1765c9","1000","
                  <p style=""text-align: center;"">₪36
                                                <br>30%</p>
                  <p id=""wtp"" style=""text-align:center; margin-top: 0px; margin-bottom: 0px; font-size: 40px"";>&ensp;</p>","-","viewing","0","11","3C,20A,22A","","","","","","","","","","","","","","","","",""
"","","","","","html-slider-response","38","167232","0.0-17.0-1.7","0515c162-d4c4-4d6d-88d6-80d2de1765c9","2638","
                  <p style=""text-align: center;"">₪36
                                                <br>30%</p>
                  <p id=""wtp"" style=""text-align:center; margin-top: 0px; margin-bottom: 0px; font-size: 40px"";>מוכנים לשלם: <span id=""c_p_y""></span></p>","20","evaluation","28","11","3C,20A,22A","30","36","20","","","","","","","","","","","","","",""
"","","","","","html-keyboard-response","39","167762","0.0-17.0-2.7","0515c162-d4c4-4d6d-88d6-80d2de1765c9","null","<p style=""text-align: center;"">+</p>","null","fixation","","","","","","","","","","","","","","","","","","","",""
"","","","","","html-slider-response","40","168763","0.0-17.0-0.8","0515c162-d4c4-4d6d-88d6-80d2de1765c9","1000","
                  <p style=""text-align: center;"">₪61
                                                <br>45%</p>
                  <p id=""wtp"" style=""text-align:center; margin-top: 0px; margin-bottom: 0px; font-size: 40px"";>&ensp;</p>","-","viewing","0","22","10A,11A","","","","","","","","","","","","","","","","",""
"","","","","","html-slider-response","41","171576","0.0-17.0-1.8","0515c162-d4c4-4d6d-88d6-80d2de1765c9","2811","
                  <p style=""text-align: center;"">₪61
                                                <br>45%</p>
                  <p id=""wtp"" style=""text-align:center; margin-top: 0px; margin-bottom: 0px; font-size: 40px"";>מוכנים לשלם: <span id=""c_p_y""></span></p>","29","evaluation","75","22","10A,11A","45","61","29","","","","","","","","","","","","","",""
"","","","","","html-keyboard-response","42","173054","0.0-17.0-2.8","0515c162-d4c4-4d6d-88d6-80d2de1765c9","null","<p style=""text-align: center;"">+</p>","null","fixation","","","","","","","","","","","","","","","","","","","",""
"","","","","","html-slider-response","43","174056","0.0-17.0-0.9","0515c162-d4c4-4d6d-88d6-80d2de1765c9","1000","
                  <p style=""text-align: center;"">₪18
                                                <br>50%</p>
                  <p id=""wtp"" style=""text-align:center; margin-top: 0px; margin-bottom: 0px; font-size: 40px"";>&ensp;</p>","-","viewing","0","10","2C,16C,22B,28A","","","","","","","","","","","","","","","","",""
"","","","","","html-slider-response","44","176216","0.0-17.0-1.9","0515c162-d4c4-4d6d-88d6-80d2de1765c9","2158","
                  <p style=""text-align: center;"">₪18
                                                <br>50%</p>
                  <p id=""wtp"" style=""text-align:center; margin-top: 0px; margin-bottom: 0px; font-size: 40px"";>מוכנים לשלם: <span id=""c_p_y""></span></p>","17","evaluation","46","10","2C,16C,22B,28A","50","18","17","","","","","","","","","","","","","",""
"","","","","","html-keyboard-response","45","176864","0.0-17.0-2.9","0515c162-d4c4-4d6d-88d6-80d2de1765c9","null","<p style=""text-align: center;"">+</p>","null","fixation","","","","","","","","","","","","","","","","","","","",""
"","","","","","html-slider-response","46","177869","0.0-17.0-0.10","0515c162-d4c4-4d6d-88d6-80d2de1765c9","1000","
                  <p style=""text-align: center;"">₪4
                                                <br>75%</p>
                  <p id=""wtp"" style=""text-align:center; margin-top: 0px; margin-bottom: 0px; font-size: 40px"";>&ensp;</p>","-","viewing","0","3","12B,20B,23B,27C,29C","","","","","","","","","","","","","","","","",""
"","","","","","html-slider-response","47","181816","0.0-17.0-1.10","0515c162-d4c4-4d6d-88d6-80d2de1765c9","3946","
                  <p style=""text-align: center;"">₪4
                                                <br>75%</p>
                  <p id=""wtp"" style=""text-align:center; margin-top: 0px; margin-bottom: 0px; font-size: 40px"";>מוכנים לשלם: <span id=""c_p_y""></span></p>","1","evaluation","43","3","12B,20B,23B,27C,29C","75","4","2","","","","","","","","","","","","","",""
"","","","","","html-keyboard-response","48","183326","0.0-17.0-2.10","0515c162-d4c4-4d6d-88d6-80d2de1765c9","null","<p style=""text-align: center;"">+</p>","null","fixation","","","","","","","","","","","","","","","","","","","",""
"","","","","","html-slider-response","49","184328","0.0-17.0-0.11","0515c162-d4c4-4d6d-88d6-80d2de1765c9","1000","
                  <p style=""text-align: center;"">₪36
                                                <br>60%</p>
                  <p id=""wtp"" style=""text-align:center; margin-top: 0px; margin-bottom: 0px; font-size: 40px"";>&ensp;</p>","-","viewing","0","12","1C,7C,15C","","","","","","","","","","","","","","","","",""
"","","","","","html-slider-response","50","187336","0.0-17.0-1.11","0515c162-d4c4-4d6d-88d6-80d2de1765c9","3007","
                  <p style=""text-align: center;"">₪36
                                                <br>60%</p>
                  <p id=""wtp"" style=""text-align:center; margin-top: 0px; margin-bottom: 0px; font-size: 40px"";>מוכנים לשלם: <span id=""c_p_y""></span></p>","30","evaluation","63","12","1C,7C,15C","60","36","30","","","","","","","","","","","","","",""
"","","","","","html-keyboard-response","51","188252","0.0-17.0-2.11","0515c162-d4c4-4d6d-88d6-80d2de1765c9","null","<p style=""text-align: center;"">+</p>","null","fixation","","","","","","","","","","","","","","","","","","","",""
"","","","","","html-slider-response","52","189256","0.0-17.0-0.12","0515c162-d4c4-4d6d-88d6-80d2de1765c9","1000","
                  <p style=""text-align: center;"">₪64
                                                <br>25%</p>
                  <p id=""wtp"" style=""text-align:center; margin-top: 0px; margin-bottom: 0px; font-size: 40px"";>&ensp;</p>","-","viewing","0","24","6A,21A","","","","","","","","","","","","","","","","",""
"","","","","","html-slider-response","53","192968","0.0-17.0-1.12","0515c162-d4c4-4d6d-88d6-80d2de1765c9","3710","
                  <p style=""text-align: center;"">₪64
                                                <br>25%</p>
                  <p id=""wtp"" style=""text-align:center; margin-top: 0px; margin-bottom: 0px; font-size: 40px"";>מוכנים לשלם: <span id=""c_p_y""></span></p>","60","evaluation","43","24","6A,21A","25","64","60","","","","","","","","","","","","","",""
"","","","","","html-keyboard-response","54","194312","0.0-17.0-2.12","0515c162-d4c4-4d6d-88d6-80d2de1765c9","null","<p style=""text-align: center;"">+</p>","null","fixation","","","","","","","","","","","","","","","","","","","",""
"","","","","","html-slider-response","55","195314","0.0-17.0-0.13","0515c162-d4c4-4d6d-88d6-80d2de1765c9","1000","
                  <p style=""text-align: center;"">₪11
                                                <br>20%</p>
                  <p id=""wtp"" style=""text-align:center; margin-top: 0px; margin-bottom: 0px; font-size: 40px"";>&ensp;</p>","-","viewing","0","4","12C,17C,23C,28C","","","","","","","","","","","","","","","","",""
"","","","","","html-slider-response","56","199323","0.0-17.0-1.13","0515c162-d4c4-4d6d-88d6-80d2de1765c9","null","
                  <p style=""text-align: center;"">₪11
                                                <br>20%</p>
                  <p id=""wtp"" style=""text-align:center; margin-top: 0px; margin-bottom: 0px; font-size: 40px"";>מוכנים לשלם: <span id=""c_p_y""></span></p>","null","evaluation","7","4","12C,17C,23C,28C","20","11","5","","","","","","","","","","","","","",""
"","","","","","html-keyboard-response","57","200237","0.0-17.0-2.13","0515c162-d4c4-4d6d-88d6-80d2de1765c9","null","<p style=""text-align: center;"">+</p>","null","fixation","","","","","","","","","","","","","","","","","","","",""
"","","","","","html-slider-response","58","201239","0.0-17.0-0.14","0515c162-d4c4-4d6d-88d6-80d2de1765c9","1000","
                  <p style=""text-align: center;"">₪43
                                                <br>60%</p>
                  <p id=""wtp"" style=""text-align:center; margin-top: 0px; margin-bottom: 0px; font-size: 40px"";>&ensp;</p>","-","viewing","0","17","2A,7A,9A,15B","","","","","","","","","","","","","","","","",""
"","","","","","html-slider-response","59","202240","0.0-17.0-1.14","0515c162-d4c4-4d6d-88d6-80d2de1765c9","999","
                  <p style=""text-align: center;"">₪43
                                                <br>60%</p>
                  <p id=""wtp"" style=""text-align:center; margin-top: 0px; margin-bottom: 0px; font-size: 40px"";>מוכנים לשלם: <span id=""c_p_y""></span></p>","29","evaluation","2","17","2A,7A,9A,15B","60","43","29","","","","","","","","","","","","","",""
"","","","","","html-keyboard-response","60","203305","0.0-17.0-2.14","0515c162-d4c4-4d6d-88d6-80d2de1765c9","null","<p style=""text-align: center;"">+</p>","null","fixation","","","","","","","","","","","","","","","","","","","",""
"","","","","","html-slider-response","61","204313","0.0-17.0-0.15","0515c162-d4c4-4d6d-88d6-80d2de1765c9","1000","
                  <p style=""text-align: center;"">₪61
                                                <br>55%</p>
                  <p id=""wtp"" style=""text-align:center; margin-top: 0px; margin-bottom: 0px; font-size: 40px"";>&ensp;</p>","-","viewing","0","23","7B,26B","","","","","","","","","","","","","","","","",""
"","","","","","html-slider-response","62","205400","0.0-17.0-1.15","0515c162-d4c4-4d6d-88d6-80d2de1765c9","1086","
                  <p style=""text-align: center;"">₪61
                                                <br>55%</p>
                  <p id=""wtp"" style=""text-align:center; margin-top: 0px; margin-bottom: 0px; font-size: 40px"";>מוכנים לשלם: <span id=""c_p_y""></span></p>","40","evaluation","55","23","7B,26B","55","61","40","","","","","","","","","","","","","",""
"","","","","","html-keyboard-response","63","206618","0.0-17.0-2.15","0515c162-d4c4-4d6d-88d6-80d2de1765c9","null","<p style=""text-align: center;"">+</p>","null","fixation","","","","","","","","","","","","","","","","","","","",""
"","","","","","html-slider-response","64","207622","0.0-17.0-0.16","0515c162-d4c4-4d6d-88d6-80d2de1765c9","1000","
                  <p style=""text-align: center;"">₪71
                                                <br>55%</p>
                  <p id=""wtp"" style=""text-align:center; margin-top: 0px; margin-bottom: 0px; font-size: 40px"";>&ensp;</p>","-","viewing","0","27","5B,18A","","","","","","","","","","","","","","","","",""
"","","","","","html-slider-response","65","209712","0.0-17.0-1.16","0515c162-d4c4-4d6d-88d6-80d2de1765c9","2089","
                  <p style=""text-align: center;"">₪71
                                                <br>55%</p>
                  <p id=""wtp"" style=""text-align:center; margin-top: 0px; margin-bottom: 0px; font-size: 40px"";>מוכנים לשלם: <span id=""c_p_y""></span></p>","59","evaluation","74","27","5B,18A","55","71","59","","","","","","","","","","","","","",""
"","","","","","html-keyboard-response","66","210571","0.0-17.0-2.16","0515c162-d4c4-4d6d-88d6-80d2de1765c9","null","<p style=""text-align: center;"">+</p>","null","fixation","","","","","","","","","","","","","","","","","","","",""
"","","","","","html-slider-response","67","211580","0.0-17.0-0.17","0515c162-d4c4-4d6d-88d6-80d2de1765c9","1000","
                  <p style=""text-align: center;"">₪76
                                                <br>65%</p>
                  <p id=""wtp"" style=""text-align:center; margin-top: 0px; margin-bottom: 0px; font-size: 40px"";>&ensp;</p>","-","viewing","0","29","8C,19A,24B","","","","","","","","","","","","","","","","",""
"","","","","","html-slider-response","68","212648","0.0-17.0-1.17","0515c162-d4c4-4d6d-88d6-80d2de1765c9","1066","
                  <p style=""text-align: center;"">₪76
                                                <br>65%</p>
                  <p id=""wtp"" style=""text-align:center; margin-top: 0px; margin-bottom: 0px; font-size: 40px"";>מוכנים לשלם: <span id=""c_p_y""></span></p>","60","evaluation","72","29","8C,19A,24B","65","76","60","","","","","","","","","","","","","",""
"","","","","","html-keyboard-response","69","213317","0.0-17.0-2.17","0515c162-d4c4-4d6d-88d6-80d2de1765c9","null","<p style=""text-align: center;"">+</p>","null","fixation","","","","","","","","","","","","","","","","","","","",""
"","","","","","html-slider-response","70","214320","0.0-17.0-0.18","0515c162-d4c4-4d6d-88d6-80d2de1765c9","1000","
                  <p style=""text-align: center;"">₪36
                                                <br>70%</p>
                  <p id=""wtp"" style=""text-align:center; margin-top: 0px; margin-bottom: 0px; font-size: 40px"";>&ensp;</p>","-","viewing","0","13","3A,5C,10B","","","","","","","","","","","","","","","","",""
"","","","","","html-slider-response","71","215576","0.0-17.0-1.18","0515c162-d4c4-4d6d-88d6-80d2de1765c9","1255","
                  <p style=""text-align: center;"">₪36
                                                <br>70%</p>
                  <p id=""wtp"" style=""text-align:center; margin-top: 0px; margin-bottom: 0px; font-size: 40px"";>מוכנים לשלם: <span id=""c_p_y""></span></p>","31","evaluation","42","13","3A,5C,10B","70","36","31","","","","","","","","","","","","","",""
"","","","","","html-keyboard-response","72","216537","0.0-17.0-2.18","0515c162-d4c4-4d6d-88d6-80d2de1765c9","null","<p style=""text-align: center;"">+</p>","null","fixation","","","","","","","","","","","","","","","","","","","",""
"","","","","","html-slider-response","73","217554","0.0-17.0-0.19","0515c162-d4c4-4d6d-88d6-80d2de1765c9","1000","
                  <p style=""text-align: center;"">₪11
                                                <br>25%</p>
                  <p id=""wtp"" style=""text-align:center; margin-top: 0px; margin-bottom: 0px; font-size: 40px"";>&ensp;</p>","-","viewing","0","5","12A,27B,28B,30B","","","","","","","","","","","","","","","","",""
"","","","","","html-slider-response","74","219640","0.0-17.0-1.19","0515c162-d4c4-4d6d-88d6-80d2de1765c9","2085","
                  <p style=""text-align: center;"">₪11
                                                <br>25%</p>
                  <p id=""wtp"" style=""text-align:center; margin-top: 0px; margin-bottom: 0px; font-size: 40px"";>מוכנים לשלם: <span id=""c_p_y""></span></p>","8","evaluation","62","5","12A,27B,28B,30B","25","11","8","","","","","","","","","","","","","",""
"","","","","","html-keyboard-response","75","220485","0.0-17.0-2.19","0515c162-d4c4-4d6d-88d6-80d2de1765c9","null","<p style=""text-align: center;"">+</p>","null","fixation","","","","","","","","","","","","","","","","","","","",""
"","","","","","html-slider-response","76","221487","0.0-17.0-0.20","0515c162-d4c4-4d6d-88d6-80d2de1765c9","1000","
                  <p style=""text-align: center;"">₪11
                                                <br>45%</p>
                  <p id=""wtp"" style=""text-align:center; margin-top: 0px; margin-bottom: 0px; font-size: 40px"";>&ensp;</p>","-","viewing","0","6","14B,21C,25C","","","","","","","","","","","","","","","","",""
"","","","","","html-slider-response","77","222904","0.0-17.0-1.20","0515c162-d4c4-4d6d-88d6-80d2de1765c9","1416","
                  <p style=""text-align: center;"">₪11
                                                <br>45%</p>
                  <p id=""wtp"" style=""text-align:center; margin-top: 0px; margin-bottom: 0px; font-size: 40px"";>מוכנים לשלם: <span id=""c_p_y""></span></p>","6","evaluation","35","6","14B,21C,25C","45","11","6","","","","","","","","","","","","","",""
"","","","","","html-keyboard-response","78","223433","0.0-17.0-2.20","0515c162-d4c4-4d6d-88d6-80d2de1765c9","null","<p style=""text-align: center;"">+</p>","null","fixation","","","","","","","","","","","","","","","","","","","",""
"","","","","","html-slider-response","79","224441","0.0-17.0-0.21","0515c162-d4c4-4d6d-88d6-80d2de1765c9","1000","
                  <p style=""text-align: center;"">₪79
                                                <br>40%</p>
                  <p id=""wtp"" style=""text-align:center; margin-top: 0px; margin-bottom: 0px; font-size: 40px"";>&ensp;</p>","-","viewing","0","30","9B","","","","","","","","","","","","","","","","",""
"","","","","","html-slider-response","80","226696","0.0-17.0-1.21","0515c162-d4c4-4d6d-88d6-80d2de1765c9","2255","
                  <p style=""text-align: center;"">₪79
                                                <br>40%</p>
                  <p id=""wtp"" style=""text-align:center; margin-top: 0px; margin-bottom: 0px; font-size: 40px"";>מוכנים לשלם: <span id=""c_p_y""></span></p>","60","evaluation","32","30","9B","40","79","60","","","","","","","","","","","","","",""
"","","","","","html-keyboard-response","81","227750","0.0-17.0-2.21","0515c162-d4c4-4d6d-88d6-80d2de1765c9","null","<p style=""text-align: center;"">+</p>","null","fixation","","","","","","","","","","","","","","","","","","","",""
"","","","","","html-slider-response","82","228752","0.0-17.0-0.22","0515c162-d4c4-4d6d-88d6-80d2de1765c9","1000","
                  <p style=""text-align: center;"">₪58
                                                <br>40%</p>
                  <p id=""wtp"" style=""text-align:center; margin-top: 0px; margin-bottom: 0px; font-size: 40px"";>&ensp;</p>","-","viewing","0","20","10C,13A,19C,21B","","","","","","","","","","","","","","","","",""
"","","","","","html-slider-response","83","230400","0.0-17.0-1.22","0515c162-d4c4-4d6d-88d6-80d2de1765c9","1647","
                  <p style=""text-align: center;"">₪58
                                                <br>40%</p>
                  <p id=""wtp"" style=""text-align:center; margin-top: 0px; margin-bottom: 0px; font-size: 40px"";>מוכנים לשלם: <span id=""c_p_y""></span></p>","47","evaluation","61","20","10C,13A,19C,21B","40","58","47","","","","","","","","","","","","","",""
"","","","","","html-keyboard-response","84","231746","0.0-17.0-2.22","0515c162-d4c4-4d6d-88d6-80d2de1765c9","null","<p style=""text-align: center;"">+</p>","null","fixation","","","","","","","","","","","","","","","","","","","",""
"","","","","","html-slider-response","85","232748","0.0-17.0-0.23","0515c162-d4c4-4d6d-88d6-80d2de1765c9","1000","
                  <p style=""text-align: center;"">₪39
                                                <br>60%</p>
                  <p id=""wtp"" style=""text-align:center; margin-top: 0px; margin-bottom: 0px; font-size: 40px"";>&ensp;</p>","-","viewing","0","15","9C,25B","","","","","","","","","","","","","","","","",""
"","","","","","html-slider-response","86","234016","0.0-17.0-1.23","0515c162-d4c4-4d6d-88d6-80d2de1765c9","1267","
                  <p style=""text-align: center;"">₪39
                                                <br>60%</p>
                  <p id=""wtp"" style=""text-align:center; margin-top: 0px; margin-bottom: 0px; font-size: 40px"";>מוכנים לשלם: <span id=""c_p_y""></span></p>","31","evaluation","74","15","9C,25B","60","39","31","","","","","","","","","","","","","",""
"","","","","","html-keyboard-response","87","235448","0.0-17.0-2.23","0515c162-d4c4-4d6d-88d6-80d2de1765c9","null","<p style=""text-align: center;"">+</p>","null","fixation","","","","","","","","","","","","","","","","","","","",""
"","","","","","html-slider-response","88","236465","0.0-17.0-0.24","0515c162-d4c4-4d6d-88d6-80d2de1765c9","1000","
                  <p style=""text-align: center;"">₪36
                                                <br>75%</p>
                  <p id=""wtp"" style=""text-align:center; margin-top: 0px; margin-bottom: 0px; font-size: 40px"";>&ensp;</p>","-","viewing","0","14","4B,5A,13B,16B","","","","","","","","","","","","","","","","",""
"","","","","","html-slider-response","89","237784","0.0-17.0-1.24","0515c162-d4c4-4d6d-88d6-80d2de1765c9","1318","
                  <p style=""text-align: center;"">₪36
                                                <br>75%</p>
                  <p id=""wtp"" style=""text-align:center; margin-top: 0px; margin-bottom: 0px; font-size: 40px"";>מוכנים לשלם: <span id=""c_p_y""></span></p>","30","evaluation","37","14","4B,5A,13B,16B","75","36","30","","","","","","","","","","","","","",""
"","","","","","html-keyboard-response","90","239250","0.0-17.0-2.24","0515c162-d4c4-4d6d-88d6-80d2de1765c9","null","<p style=""text-align: center;"">+</p>","null","fixation","","","","","","","","","","","","","","","","","","","",""
"","","","","","html-slider-response","91","240253","0.0-17.0-0.25","0515c162-d4c4-4d6d-88d6-80d2de1765c9","1000","
                  <p style=""text-align: center;"">₪71
                                                <br>45%</p>
                  <p id=""wtp"" style=""text-align:center; margin-top: 0px; margin-bottom: 0px; font-size: 40px"";>&ensp;</p>","-","viewing","0","26","2B,16A","","","","","","","","","","","","","","","","",""
"","","","","","html-slider-response","92","241912","0.0-17.0-1.25","0515c162-d4c4-4d6d-88d6-80d2de1765c9","1659","
                  <p style=""text-align: center;"">₪71
                                                <br>45%</p>
                  <p id=""wtp"" style=""text-align:center; margin-top: 0px; margin-bottom: 0px; font-size: 40px"";>מוכנים לשלם: <span id=""c_p_y""></span></p>","61","evaluation","28","26","2B,16A","45","71","61","","","","","","","","","","","","","",""
"","","","","","html-keyboard-response","93","242847","0.0-17.0-2.25","0515c162-d4c4-4d6d-88d6-80d2de1765c9","null","<p style=""text-align: center;"">+</p>","null","fixation","","","","","","","","","","","","","","","","","","","",""
"","","","","","html-slider-response","94","243859","0.0-17.0-0.26","0515c162-d4c4-4d6d-88d6-80d2de1765c9","1000","
                  <p style=""text-align: center;"">₪58
                                                <br>30%</p>
                  <p id=""wtp"" style=""text-align:center; margin-top: 0px; margin-bottom: 0px; font-size: 40px"";>&ensp;</p>","-","viewing","0","19","13C,30A","","","","","","","","","","","","","","","","",""
"","","","","","html-slider-response","95","245800","0.0-17.0-1.26","0515c162-d4c4-4d6d-88d6-80d2de1765c9","1940","
                  <p style=""text-align: center;"">₪58
                                                <br>30%</p>
                  <p id=""wtp"" style=""text-align:center; margin-top: 0px; margin-bottom: 0px; font-size: 40px"";>מוכנים לשלם: <span id=""c_p_y""></span></p>","54","evaluation","67","19","13C,30A","30","58","54","","","","","","","","","","","","","",""
"","","","","","html-keyboard-response","96","247243","0.0-17.0-2.26","0515c162-d4c4-4d6d-88d6-80d2de1765c9","null","<p style=""text-align: center;"">+</p>","null","fixation","","","","","","","","","","","","","","","","","","","",""
"","","","","","html-slider-response","97","248248","0.0-17.0-0.27","0515c162-d4c4-4d6d-88d6-80d2de1765c9","1000","
                  <p style=""text-align: center;"">₪79
                                                <br>65%</p>
                  <p id=""wtp"" style=""text-align:center; margin-top: 0px; margin-bottom: 0px; font-size: 40px"";>&ensp;</p>","-","viewing","0","31","8A","","","","","","","","","","","","","","","","",""
"","","","","","html-slider-response","98","249128","0.0-17.0-1.27","0515c162-d4c4-4d6d-88d6-80d2de1765c9","879","
                  <p style=""text-align: center;"">₪79
                                                <br>65%</p>
                  <p id=""wtp"" style=""text-align:center; margin-top: 0px; margin-bottom: 0px; font-size: 40px"";>מוכנים לשלם: <span id=""c_p_y""></span></p>","64","evaluation","53","31","8A","65","79","63","","","","","","","","","","","","","",""
"","","","","","html-keyboard-response","99","250340","0.0-17.0-2.27","0515c162-d4c4-4d6d-88d6-80d2de1765c9","null","<p style=""text-align: center;"">+</p>","null","fixation","","","","","","","","","","","","","","","","","","","",""
"","","","","","html-slider-response","100","251343","0.0-17.0-0.28","0515c162-d4c4-4d6d-88d6-80d2de1765c9","1000","
                  <p style=""text-align: center;"">₪18
                                                <br>25%</p>
                  <p id=""wtp"" style=""text-align:center; margin-top: 0px; margin-bottom: 0px; font-size: 40px"";>&ensp;</p>","-","viewing","0","9","14A,23A","","","","","","","","","","","","","","","","",""
"","","","","","html-slider-response","101","252768","0.0-17.0-1.28","0515c162-d4c4-4d6d-88d6-80d2de1765c9","1424","
                  <p style=""text-align: center;"">₪18
                                                <br>25%</p>
                  <p id=""wtp"" style=""text-align:center; margin-top: 0px; margin-bottom: 0px; font-size: 40px"";>מוכנים לשלם: <span id=""c_p_y""></span></p>","11","evaluation","72","9","14A,23A","25","18","11","","","","","","","","","","","","","",""
"","","","","","html-keyboard-response","102","253681","0.0-17.0-2.28","0515c162-d4c4-4d6d-88d6-80d2de1765c9","null","<p style=""text-align: center;"">+</p>","null","fixation","","","","","","","","","","","","","","","","","","","",""
"","","","","","html-slider-response","103","254694","0.0-17.0-0.29","0515c162-d4c4-4d6d-88d6-80d2de1765c9","1000","
                  <p style=""text-align: center;"">₪39
                                                <br>65%</p>
                  <p id=""wtp"" style=""text-align:center; margin-top: 0px; margin-bottom: 0px; font-size: 40px"";>&ensp;</p>","-","viewing","0","16","1A,15A,26C","","","","","","","","","","","","","","","","",""
"","","","","","html-slider-response","104","255864","0.0-17.0-1.29","0515c162-d4c4-4d6d-88d6-80d2de1765c9","1169","
                  <p style=""text-align: center;"">₪39
                                                <br>65%</p>
                  <p id=""wtp"" style=""text-align:center; margin-top: 0px; margin-bottom: 0px; font-size: 40px"";>מוכנים לשלם: <span id=""c_p_y""></span></p>","35","evaluation","19","16","1A,15A,26C","65","39","35","","","","","","","","","","","","","",""
"","","","","","html-keyboard-response","105","257255","0.0-17.0-2.29","0515c162-d4c4-4d6d-88d6-80d2de1765c9","null","<p style=""text-align: center;"">+</p>","null","fixation","","","","","","","","","","","","","","","","","","","",""
"","","","","","html-slider-response","106","258257","0.0-17.0-0.30","0515c162-d4c4-4d6d-88d6-80d2de1765c9","1000","
                  <p style=""text-align: center;"">₪4
                                                <br>25%</p>
                  <p id=""wtp"" style=""text-align:center; margin-top: 0px; margin-bottom: 0px; font-size: 40px"";>&ensp;</p>","-","viewing","0","1","6C,29B,30C","","","","","","","","","","","","","","","","",""
"","","","","","html-slider-response","107","259040","0.0-17.0-1.30","0515c162-d4c4-4d6d-88d6-80d2de1765c9","782","
                  <p style=""text-align: center;"">₪4
                                                <br>25%</p>
                  <p id=""wtp"" style=""text-align:center; margin-top: 0px; margin-bottom: 0px; font-size: 40px"";>מוכנים לשלם: <span id=""c_p_y""></span></p>","1","evaluation","2","1","6C,29B,30C","25","4","1","","","","","","","","","","","","","",""
"","","","","","html-keyboard-response","108","260403","0.0-17.0-2.30","0515c162-d4c4-4d6d-88d6-80d2de1765c9","null","<p style=""text-align: center;"">+</p>","null","fixation","","","","","","","","","","","","","","","","","","","",""
"","","","","","html-keyboard-response","109","261408","0.0-18.0","0515c162-d4c4-4d6d-88d6-80d2de1765c9","null","<p style=""text-align: center;"">+</p>","null","fixation","","","","","","","","","","","","","","","","","","","",""
"","","","","","html-keyboard-response","110","261448","0.0-19.0","0515c162-d4c4-4d6d-88d6-80d2de1765c9","null","<p>הפסקה.
          <br>לחצו כדי להמשיך.</p>","1","scan_wait","","","","","","","","","","","","","","","","","","","",""
"","","","","","html-keyboard-response","111","262449","0.0-20.0","0515c162-d4c4-4d6d-88d6-80d2de1765c9","null","<p style=""text-align: center;"">+</p>","null","fixation","","","","","","","","","","","","","","","","","","","",""
"","","","","","html-slider-response","112","263459","0.0-21.0-0.0","0515c162-d4c4-4d6d-88d6-80d2de1765c9","1000","
                  <p style=""text-align: center;"">₪64
                                                <br>50%</p>
                  <p id=""wtp"" style=""text-align:center; margin-top: 0px; margin-bottom: 0px; font-size: 40px"";>&ensp;</p>","-","viewing","0","25","1B,3B,4A","","","","","","","","","","","","","","","","",""
"","","","","","html-slider-response","113","265528","0.0-21.0-1.0","0515c162-d4c4-4d6d-88d6-80d2de1765c9","2068","
                  <p style=""text-align: center;"">₪64
                                                <br>50%</p>
                  <p id=""wtp"" style=""text-align:center; margin-top: 0px; margin-bottom: 0px; font-size: 40px"";>מוכנים לשלם: <span id=""c_p_y""></span></p>","50","evaluation","10","25","1B,3B,4A","50","64","50","","","","","","","","","","","","","",""
"","","","","","html-keyboard-response","114","266191","0.0-21.0-2.0","0515c162-d4c4-4d6d-88d6-80d2de1765c9","null","<p style=""text-align: center;"">+</p>","null","fixation","","","","","","","","","","","","","","","","","","","",""
"","","","","","html-slider-response","115","267193","0.0-21.0-0.1","0515c162-d4c4-4d6d-88d6-80d2de1765c9","1000","
                  <p style=""text-align: center;"">₪43
                                                <br>75%</p>
                  <p id=""wtp"" style=""text-align:center; margin-top: 0px; margin-bottom: 0px; font-size: 40px"";>&ensp;</p>","-","viewing","0","18","11B,19B,24A,26A","","","","","","","","","","","","","","","","",""
"","","","","","html-slider-response","116","268064","0.0-21.0-1.1","0515c162-d4c4-4d6d-88d6-80d2de1765c9","870","
                  <p style=""text-align: center;"">₪43
                                                <br>75%</p>
                  <p id=""wtp"" style=""text-align:center; margin-top: 0px; margin-bottom: 0px; font-size: 40px"";>מוכנים לשלם: <span id=""c_p_y""></span></p>","38","evaluation","44","18","11B,19B,24A,26A","75","43","38","","","","","","","","","","","","","",""
"","","","","","html-keyboard-response","117","269149","0.0-21.0-2.1","0515c162-d4c4-4d6d-88d6-80d2de1765c9","null","<p style=""text-align: center;"">+</p>","null","fixation","","","","","","","","","","","","","","","","","","","",""
"","","","","","html-slider-response","118","270151","0.0-21.0-0.2","0515c162-d4c4-4d6d-88d6-80d2de1765c9","1000","
                  <p style=""text-align: center;"">₪4
                                                <br>50%</p>
                  <p id=""wtp"" style=""text-align:center; margin-top: 0px; margin-bottom: 0px; font-size: 40px"";>&ensp;</p>","-","viewing","0","2","4C,17B","","","","","","","","","","","","","","","","",""
"","","","","","html-slider-response","119","271528","0.0-21.0-1.2","0515c162-d4c4-4d6d-88d6-80d2de1765c9","1376","
                  <p style=""text-align: center;"">₪4
                                                <br>50%</p>
                  <p id=""wtp"" style=""text-align:center; margin-top: 0px; margin-bottom: 0px; font-size: 40px"";>מוכנים לשלם: <span id=""c_p_y""></span></p>","3","evaluation","48","2","4C,17B","50","4","3","","","","","","","","","","","","","",""
"","","","","","html-keyboard-response","120","272561","0.0-21.0-2.2","0515c162-d4c4-4d6d-88d6-80d2de1765c9","null","<p style=""text-align: center;"">+</p>","null","fixation","","","","","","","","","","","","","","","","","","","",""
"","","","","","html-slider-response","121","273563","0.0-21.0-0.3","0515c162-d4c4-4d6d-88d6-80d2de1765c9","1000","
                  <p style=""text-align: center;"">₪39
                                                <br>65%</p>
                  <p id=""wtp"" style=""text-align:center; margin-top: 0px; margin-bottom: 0px; font-size: 40px"";>&ensp;</p>","-","viewing","0","16","1A,15A,26C","","","","","","","","","","","","","","","","",""
"","","","","","html-slider-response","122","275008","0.0-21.0-1.3","0515c162-d4c4-4d6d-88d6-80d2de1765c9","1444","
                  <p style=""text-align: center;"">₪39
                                                <br>65%</p>
                  <p id=""wtp"" style=""text-align:center; margin-top: 0px; margin-bottom: 0px; font-size: 40px"";>מוכנים לשלם: <span id=""c_p_y""></span></p>","35","evaluation","65","16","1A,15A,26C","65","39","35","","","","","","","","","","","","","",""
"","","","","","html-keyboard-response","123","275533","0.0-21.0-2.3","0515c162-d4c4-4d6d-88d6-80d2de1765c9","null","<p style=""text-align: center;"">+</p>","null","fixation","","","","","","","","","","","","","","","","","","","",""
"","","","","","html-slider-response","124","276539","0.0-21.0-0.4","0515c162-d4c4-4d6d-88d6-80d2de1765c9","1000","
                  <p style=""text-align: center;"">₪58
                                                <br>30%</p>
                  <p id=""wtp"" style=""text-align:center; margin-top: 0px; margin-bottom: 0px; font-size: 40px"";>&ensp;</p>","-","viewing","0","19","13C,30A","","","","","","","","","","","","","","","","",""
"","","","","","html-slider-response","125","278432","0.0-21.0-1.4","0515c162-d4c4-4d6d-88d6-80d2de1765c9","1891","
                  <p style=""text-align: center;"">₪58
                                                <br>30%</p>
                  <p id=""wtp"" style=""text-align:center; margin-top: 0px; margin-bottom: 0px; font-size: 40px"";>מוכנים לשלם: <span id=""c_p_y""></span></p>","47","evaluation","10","19","13C,30A","30","58","47","","","","","","","","","","","","","",""
"","","","","","html-keyboard-response","126","279323","0.0-21.0-2.4","0515c162-d4c4-4d6d-88d6-80d2de1765c9","null","<p style=""text-align: center;"">+</p>","null","fixation","","","","","","","","","","","","","","","","","","","",""
"","","","","","html-slider-response","127","280324","0.0-21.0-0.5","0515c162-d4c4-4d6d-88d6-80d2de1765c9","1000","
                  <p style=""text-align: center;"">₪11
                                                <br>75%</p>
                  <p id=""wtp"" style=""text-align:center; margin-top: 0px; margin-bottom: 0px; font-size: 40px"";>&ensp;</p>","-","viewing","0","7","6B,18B,22C,24C,29A","","","","","","","","","","","","","","","","",""
"","","","","","html-slider-response","128","282472","0.0-21.0-1.5","0515c162-d4c4-4d6d-88d6-80d2de1765c9","2147","
                  <p style=""text-align: center;"">₪11
                                                <br>75%</p>
                  <p id=""wtp"" style=""text-align:center; margin-top: 0px; margin-bottom: 0px; font-size: 40px"";>מוכנים לשלם: <span id=""c_p_y""></span></p>","8","evaluation","9","7","6B,18B,22C,24C,29A","75","11","8","","","","","","","","","","","","","",""
"","","","","","html-keyboard-response","129","283800","0.0-21.0-2.5","0515c162-d4c4-4d6d-88d6-80d2de1765c9","null","<p style=""text-align: center;"">+</p>","null","fixation","","","","","","","","","","","","","","","","","","","",""
"","","","","","html-slider-response","130","284802","0.0-21.0-0.6","0515c162-d4c4-4d6d-88d6-80d2de1765c9","1000","
                  <p style=""text-align: center;"">₪39
                                                <br>60%</p>
                  <p id=""wtp"" style=""text-align:center; margin-top: 0px; margin-bottom: 0px; font-size: 40px"";>&ensp;</p>","-","viewing","0","15","9C,25B","","","","","","","","","","","","","","","","",""
"","","","","","html-slider-response","131","286216","0.0-21.0-1.6","0515c162-d4c4-4d6d-88d6-80d2de1765c9","1413","
                  <p style=""text-align: center;"">₪39
                                                <br>60%</p>
                  <p id=""wtp"" style=""text-align:center; margin-top: 0px; margin-bottom: 0px; font-size: 40px"";>מוכנים לשלם: <span id=""c_p_y""></span></p>","34","evaluation","72","15","9C,25B","60","39","34","","","","","","","","","","","","","",""
"","","","","","html-keyboard-response","132","286778","0.0-21.0-2.6","0515c162-d4c4-4d6d-88d6-80d2de1765c9","null","<p style=""text-align: center;"">+</p>","null","fixation","","","","","","","","","","","","","","","","","","","",""
"","","","","","html-slider-response","133","287785","0.0-21.0-0.7","0515c162-d4c4-4d6d-88d6-80d2de1765c9","1000","
                  <p style=""text-align: center;"">₪4
                                                <br>25%</p>
                  <p id=""wtp"" style=""text-align:center; margin-top: 0px; margin-bottom: 0px; font-size: 40px"";>&ensp;</p>","-","viewing","0","1","6C,29B,30C","","","","","","","","","","","","","","","","",""
"","","","","","html-slider-response","134","289128","0.0-21.0-1.7","0515c162-d4c4-4d6d-88d6-80d2de1765c9","1342","
                  <p style=""text-align: center;"">₪4
                                                <br>25%</p>
                  <p id=""wtp"" style=""text-align:center; margin-top: 0px; margin-bottom: 0px; font-size: 40px"";>מוכנים לשלם: <span id=""c_p_y""></span></p>","1","evaluation","17","1","6C,29B,30C","25","4","1","","","","","","","","","","","","","",""
"","","","","","html-keyboard-response","135","290047","0.0-21.0-2.7","0515c162-d4c4-4d6d-88d6-80d2de1765c9","null","<p style=""text-align: center;"">+</p>","null","fixation","","","","","","","","","","","","","","","","","","","",""
"","","","","","html-slider-response","136","291052","0.0-21.0-0.8","0515c162-d4c4-4d6d-88d6-80d2de1765c9","1000","
                  <p style=""text-align: center;"">₪11
                                                <br>25%</p>
                  <p id=""wtp"" style=""text-align:center; margin-top: 0px; margin-bottom: 0px; font-size: 40px"";>&ensp;</p>","-","viewing","0","5","12A,27B,28B,30B","","","","","","","","","","","","","","","","",""
"","","","","","html-slider-response","137","293312","0.0-21.0-1.8","0515c162-d4c4-4d6d-88d6-80d2de1765c9","2259","
                  <p style=""text-align: center;"">₪11
                                                <br>25%</p>
                  <p id=""wtp"" style=""text-align:center; margin-top: 0px; margin-bottom: 0px; font-size: 40px"";>מוכנים לשלם: <span id=""c_p_y""></span></p>","9","evaluation","9","5","12A,27B,28B,30B","25","11","9","","","","","","","","","","","","","",""
"","","","","","html-keyboard-response","138","294660","0.0-21.0-2.8","0515c162-d4c4-4d6d-88d6-80d2de1765c9","null","<p style=""text-align: center;"">+</p>","null","fixation","","","","","","","","","","","","","","","","","","","",""
"","","","","","html-slider-response","139","295668","0.0-21.0-0.9","0515c162-d4c4-4d6d-88d6-80d2de1765c9","1000","
                  <p style=""text-align: center;"">₪61
                                                <br>45%</p>
                  <p id=""wtp"" style=""text-align:center; margin-top: 0px; margin-bottom: 0px; font-size: 40px"";>&ensp;</p>","-","viewing","0","22","10A,11A","","","","","","","","","","","","","","","","",""
"","","","","","html-slider-response","140","297296","0.0-21.0-1.9","0515c162-d4c4-4d6d-88d6-80d2de1765c9","1628","
                  <p style=""text-align: center;"">₪61
                                                <br>45%</p>
                  <p id=""wtp"" style=""text-align:center; margin-top: 0px; margin-bottom: 0px; font-size: 40px"";>מוכנים לשלם: <span id=""c_p_y""></span></p>","52","evaluation","31","22","10A,11A","45","61","52","","","","","","","","","","","","","",""
"","","","","","html-keyboard-response","141","298507","0.0-21.0-2.9","0515c162-d4c4-4d6d-88d6-80d2de1765c9","null","<p style=""text-align: center;"">+</p>","null","fixation","","","","","","","","","","","","","","","","","","","",""
"","","","","","html-slider-response","142","299521","0.0-21.0-0.10","0515c162-d4c4-4d6d-88d6-80d2de1765c9","1000","
                  <p style=""text-align: center;"">₪18
                                                <br>25%</p>
                  <p id=""wtp"" style=""text-align:center; margin-top: 0px; margin-bottom: 0px; font-size: 40px"";>&ensp;</p>","-","viewing","0","9","14A,23A","","","","","","","","","","","","","","","","",""
"","","","","","html-slider-response","143","300944","0.0-21.0-1.10","0515c162-d4c4-4d6d-88d6-80d2de1765c9","1422","
                  <p style=""text-align: center;"">₪18
                                                <br>25%</p>
                  <p id=""wtp"" style=""text-align:center; margin-top: 0px; margin-bottom: 0px; font-size: 40px"";>מוכנים לשלם: <span id=""c_p_y""></span></p>","15","evaluation","20","9","14A,23A","25","18","15","","","","","","","","","","","","","",""
"","","","","","html-keyboard-response","144","301573","0.0-21.0-2.10","0515c162-d4c4-4d6d-88d6-80d2de1765c9","null","<p style=""text-align: center;"">+</p>","null","fixation","","","","","","","","","","","","","","","","","","","",""
"","","","","","html-slider-response","145","302586","0.0-21.0-0.11","0515c162-d4c4-4d6d-88d6-80d2de1765c9","1000","
                  <p style=""text-align: center;"">₪11
                                                <br>20%</p>
                  <p id=""wtp"" style=""text-align:center; margin-top: 0px; margin-bottom: 0px; font-size: 40px"";>&ensp;</p>","-","viewing","0","4","12C,17C,23C,28C","","","","","","","","","","","","","","","","",""
"","","","","","html-slider-response","146","304057","0.0-21.0-1.11","0515c162-d4c4-4d6d-88d6-80d2de1765c9","1469","
                  <p style=""text-align: center;"">₪11
                                                <br>20%</p>
                  <p id=""wtp"" style=""text-align:center; margin-top: 0px; margin-bottom: 0px; font-size: 40px"";>מוכנים לשלם: <span id=""c_p_y""></span></p>","4","evaluation","58","4","12C,17C,23C,28C","20","11","5","","","","","","","","","","","","","",""
"","","","","","html-keyboard-response","147","305492","0.0-21.0-2.11","0515c162-d4c4-4d6d-88d6-80d2de1765c9","null","<p style=""text-align: center;"">+</p>","null","fixation","","","","","","","","","","","","","","","","","","","",""
"","","","","","html-slider-response","148","306497","0.0-21.0-0.12","0515c162-d4c4-4d6d-88d6-80d2de1765c9","1000","
                  <p style=""text-align: center;"">₪4
                                                <br>75%</p>
                  <p id=""wtp"" style=""text-align:center; margin-top: 0px; margin-bottom: 0px; font-size: 40px"";>&ensp;</p>","-","viewing","0","3","12B,20B,23B,27C,29C","","","","","","","","","","","","","","","","",""
"","","","","","html-slider-response","149","307544","0.0-21.0-1.12","0515c162-d4c4-4d6d-88d6-80d2de1765c9","1046","
                  <p style=""text-align: center;"">₪4
                                                <br>75%</p>
                  <p id=""wtp"" style=""text-align:center; margin-top: 0px; margin-bottom: 0px; font-size: 40px"";>מוכנים לשלם: <span id=""c_p_y""></span></p>","0","evaluation","50","3","12B,20B,23B,27C,29C","75","4","1","","","","","","","","","","","","","",""
"","","","","","html-keyboard-response","150","308973","0.0-21.0-2.12","0515c162-d4c4-4d6d-88d6-80d2de1765c9","null","<p style=""text-align: center;"">+</p>","null","fixation","","","","","","","","","","","","","","","","","","","",""
"","","","","","html-slider-response","151","309989","0.0-21.0-0.13","0515c162-d4c4-4d6d-88d6-80d2de1765c9","1000","
                  <p style=""text-align: center;"">₪36
                                                <br>70%</p>
                  <p id=""wtp"" style=""text-align:center; margin-top: 0px; margin-bottom: 0px; font-size: 40px"";>&ensp;</p>","-","viewing","0","13","3A,5C,10B","","","","","","","","","","","","","","","","",""
"","","","","","html-slider-response","152","311440","0.0-21.0-1.13","0515c162-d4c4-4d6d-88d6-80d2de1765c9","1451","
                  <p style=""text-align: center;"">₪36
                                                <br>70%</p>
                  <p id=""wtp"" style=""text-align:center; margin-top: 0px; margin-bottom: 0px; font-size: 40px"";>מוכנים לשלם: <span id=""c_p_y""></span></p>","32","evaluation","69","13","3A,5C,10B","70","36","32","","","","","","","","","","","","","",""
"","","","","","html-keyboard-response","153","312709","0.0-21.0-2.13","0515c162-d4c4-4d6d-88d6-80d2de1765c9","null","<p style=""text-align: center;"">+</p>","null","fixation","","","","","","","","","","","","","","","","","","","",""
"","","","","","html-slider-response","154","313711","0.0-21.0-0.14","0515c162-d4c4-4d6d-88d6-80d2de1765c9","1000","
                  <p style=""text-align: center;"">₪71
                                                <br>45%</p>
                  <p id=""wtp"" style=""text-align:center; margin-top: 0px; margin-bottom: 0px; font-size: 40px"";>&ensp;</p>","-","viewing","0","26","2B,16A","","","","","","","","","","","","","","","","",""
"","","","","","html-slider-response","155","314744","0.0-21.0-1.14","0515c162-d4c4-4d6d-88d6-80d2de1765c9","1032","
                  <p style=""text-align: center;"">₪71
                                                <br>45%</p>
                  <p id=""wtp"" style=""text-align:center; margin-top: 0px; margin-bottom: 0px; font-size: 40px"";>מוכנים לשלם: <span id=""c_p_y""></span></p>","60","evaluation","3","26","2B,16A","45","71","60","","","","","","","","","","","","","",""
"","","","","","html-keyboard-response","156","316044","0.0-21.0-2.14","0515c162-d4c4-4d6d-88d6-80d2de1765c9","null","<p style=""text-align: center;"">+</p>","null","fixation","","","","","","","","","","","","","","","","","","","",""
"","","","","","html-slider-response","157","317053","0.0-21.0-0.15","0515c162-d4c4-4d6d-88d6-80d2de1765c9","1000","
                  <p style=""text-align: center;"">₪58
                                                <br>40%</p>
                  <p id=""wtp"" style=""text-align:center; margin-top: 0px; margin-bottom: 0px; font-size: 40px"";>&ensp;</p>","-","viewing","0","20","10C,13A,19C,21B","","","","","","","","","","","","","","","","",""
"","","","","","html-slider-response","158","318457","0.0-21.0-1.15","0515c162-d4c4-4d6d-88d6-80d2de1765c9","1402","
                  <p style=""text-align: center;"">₪58
                                                <br>40%</p>
                  <p id=""wtp"" style=""text-align:center; margin-top: 0px; margin-bottom: 0px; font-size: 40px"";>מוכנים לשלם: <span id=""c_p_y""></span></p>","52","evaluation","58","20","10C,13A,19C,21B","40","58","52","","","","","","","","","","","","","",""
"","","","","","html-keyboard-response","159","319171","0.0-21.0-2.15","0515c162-d4c4-4d6d-88d6-80d2de1765c9","null","<p style=""text-align: center;"">+</p>","null","fixation","","","","","","","","","","","","","","","","","","","",""
"","","","","","html-slider-response","160","320173","0.0-21.0-0.16","0515c162-d4c4-4d6d-88d6-80d2de1765c9","1000","
                  <p style=""text-align: center;"">₪71
                                                <br>55%</p>
                  <p id=""wtp"" style=""text-align:center; margin-top: 0px; margin-bottom: 0px; font-size: 40px"";>&ensp;</p>","-","viewing","0","27","5B,18A","","","","","","","","","","","","","","","","",""
"","","","","","html-slider-response","161","321624","0.0-21.0-1.16","0515c162-d4c4-4d6d-88d6-80d2de1765c9","1450","
                  <p style=""text-align: center;"">₪71
                                                <br>55%</p>
                  <p id=""wtp"" style=""text-align:center; margin-top: 0px; margin-bottom: 0px; font-size: 40px"";>מוכנים לשלם: <span id=""c_p_y""></span></p>","60","evaluation","11","27","5B,18A","55","71","60","","","","","","","","","","","","","",""
"","","","","","html-keyboard-response","162","322582","0.0-21.0-2.16","0515c162-d4c4-4d6d-88d6-80d2de1765c9","null","<p style=""text-align: center;"">+</p>","null","fixation","","","","","","","","","","","","","","","","","","","",""
"","","","","","html-slider-response","163","323584","0.0-21.0-0.17","0515c162-d4c4-4d6d-88d6-80d2de1765c9","1000","
                  <p style=""text-align: center;"">₪18
                                                <br>50%</p>
                  <p id=""wtp"" style=""text-align:center; margin-top: 0px; margin-bottom: 0px; font-size: 40px"";>&ensp;</p>","-","viewing","0","10","2C,16C,22B,28A","","","","","","","","","","","","","","","","",""
"","","","","","html-slider-response","164","324600","0.0-21.0-1.17","0515c162-d4c4-4d6d-88d6-80d2de1765c9","1015","
                  <p style=""text-align: center;"">₪18
                                                <br>50%</p>
                  <p id=""wtp"" style=""text-align:center; margin-top: 0px; margin-bottom: 0px; font-size: 40px"";>מוכנים לשלם: <span id=""c_p_y""></span></p>","11","evaluation","59","10","2C,16C,22B,28A","50","18","11","","","","","","","","","","","","","",""
"","","","","","html-keyboard-response","165","325351","0.0-21.0-2.17","0515c162-d4c4-4d6d-88d6-80d2de1765c9","null","<p style=""text-align: center;"">+</p>","null","fixation","","","","","","","","","","","","","","","","","","","",""
"","","","","","html-slider-response","166","326358","0.0-21.0-0.18","0515c162-d4c4-4d6d-88d6-80d2de1765c9","1000","
                  <p style=""text-align: center;"">₪64
                                                <br>25%</p>
                  <p id=""wtp"" style=""text-align:center; margin-top: 0px; margin-bottom: 0px; font-size: 40px"";>&ensp;</p>","-","viewing","0","24","6A,21A","","","","","","","","","","","","","","","","",""
"","","","","","html-slider-response","167","327576","0.0-21.0-1.18","0515c162-d4c4-4d6d-88d6-80d2de1765c9","1217","
                  <p style=""text-align: center;"">₪64
                                                <br>25%</p>
                  <p id=""wtp"" style=""text-align:center; margin-top: 0px; margin-bottom: 0px; font-size: 40px"";>מוכנים לשלם: <span id=""c_p_y""></span></p>","59","evaluation","6","24","6A,21A","25","64","59","","","","","","","","","","","","","",""
"","","","","","html-keyboard-response","168","328171","0.0-21.0-2.18","0515c162-d4c4-4d6d-88d6-80d2de1765c9","null","<p style=""text-align: center;"">+</p>","null","fixation","","","","","","","","","","","","","","","","","","","",""
"","","","","","html-slider-response","169","329183","0.0-21.0-0.19","0515c162-d4c4-4d6d-88d6-80d2de1765c9","1000","
                  <p style=""text-align: center;"">₪11
                                                <br>45%</p>
                  <p id=""wtp"" style=""text-align:center; margin-top: 0px; margin-bottom: 0px; font-size: 40px"";>&ensp;</p>","-","viewing","0","6","14B,21C,25C","","","","","","","","","","","","","","","","",""
"","","","","","html-slider-response","170","331160","0.0-21.0-1.19","0515c162-d4c4-4d6d-88d6-80d2de1765c9","1976","
                  <p style=""text-align: center;"">₪11
                                                <br>45%</p>
                  <p id=""wtp"" style=""text-align:center; margin-top: 0px; margin-bottom: 0px; font-size: 40px"";>מוכנים לשלם: <span id=""c_p_y""></span></p>","12","evaluation","76","6","14B,21C,25C","45","11","13","","","","","","","","","","","","","",""
"","","","","","html-keyboard-response","171","331776","0.0-21.0-2.19","0515c162-d4c4-4d6d-88d6-80d2de1765c9","null","<p style=""text-align: center;"">+</p>","null","fixation","","","","","","","","","","","","","","","","","","","",""
"","","","","","html-slider-response","172","332782","0.0-21.0-0.20","0515c162-d4c4-4d6d-88d6-80d2de1765c9","1000","
                  <p style=""text-align: center;"">₪79
                                                <br>40%</p>
                  <p id=""wtp"" style=""text-align:center; margin-top: 0px; margin-bottom: 0px; font-size: 40px"";>&ensp;</p>","-","viewing","0","30","9B","","","","","","","","","","","","","","","","",""
"","","","","","html-slider-response","173","334768","0.0-21.0-1.20","0515c162-d4c4-4d6d-88d6-80d2de1765c9","1985","
                  <p style=""text-align: center;"">₪79
                                                <br>40%</p>
                  <p id=""wtp"" style=""text-align:center; margin-top: 0px; margin-bottom: 0px; font-size: 40px"";>מוכנים לשלם: <span id=""c_p_y""></span></p>","59","evaluation","19","30","9B","40","79","59","","","","","","","","","","","","","",""
"","","","","","html-keyboard-response","174","336162","0.0-21.0-2.20","0515c162-d4c4-4d6d-88d6-80d2de1765c9","null","<p style=""text-align: center;"">+</p>","null","fixation","","","","","","","","","","","","","","","","","","","",""
"","","","","","html-slider-response","175","337164","0.0-21.0-0.21","0515c162-d4c4-4d6d-88d6-80d2de1765c9","1000","
                  <p style=""text-align: center;"">₪36
                                                <br>30%</p>
                  <p id=""wtp"" style=""text-align:center; margin-top: 0px; margin-bottom: 0px; font-size: 40px"";>&ensp;</p>","-","viewing","0","11","3C,20A,22A","","","","","","","","","","","","","","","","",""
"","","","","","html-slider-response","176","338744","0.0-21.0-1.21","0515c162-d4c4-4d6d-88d6-80d2de1765c9","1579","
                  <p style=""text-align: center;"">₪36
                                                <br>30%</p>
                  <p id=""wtp"" style=""text-align:center; margin-top: 0px; margin-bottom: 0px; font-size: 40px"";>מוכנים לשלם: <span id=""c_p_y""></span></p>","32","evaluation","62","11","3C,20A,22A","30","36","32","","","","","","","","","","","","","",""
"","","","","","html-keyboard-response","177","340059","0.0-21.0-2.21","0515c162-d4c4-4d6d-88d6-80d2de1765c9","null","<p style=""text-align: center;"">+</p>","null","fixation","","","","","","","","","","","","","","","","","","","",""
"","","","","","html-slider-response","178","341061","0.0-21.0-0.22","0515c162-d4c4-4d6d-88d6-80d2de1765c9","1000","
                  <p style=""text-align: center;"">₪43
                                                <br>60%</p>
                  <p id=""wtp"" style=""text-align:center; margin-top: 0px; margin-bottom: 0px; font-size: 40px"";>&ensp;</p>","-","viewing","0","17","2A,7A,9A,15B","","","","","","","","","","","","","","","","",""
"","","","","","html-slider-response","179","342368","0.0-21.0-1.22","0515c162-d4c4-4d6d-88d6-80d2de1765c9","1306","
                  <p style=""text-align: center;"">₪43
                                                <br>60%</p>
                  <p id=""wtp"" style=""text-align:center; margin-top: 0px; margin-bottom: 0px; font-size: 40px"";>מוכנים לשלם: <span id=""c_p_y""></span></p>","34","evaluation","29","17","2A,7A,9A,15B","60","43","34","","","","","","","","","","","","","",""
"","","","","","html-keyboard-response","180","343679","0.0-21.0-2.22","0515c162-d4c4-4d6d-88d6-80d2de1765c9","null","<p style=""text-align: center;"">+</p>","null","fixation","","","","","","","","","","","","","","","","","","","",""
"","","","","","html-slider-response","181","344695","0.0-21.0-0.23","0515c162-d4c4-4d6d-88d6-80d2de1765c9","1000","
                  <p style=""text-align: center;"">₪36
                                                <br>60%</p>
                  <p id=""wtp"" style=""text-align:center; margin-top: 0px; margin-bottom: 0px; font-size: 40px"";>&ensp;</p>","-","viewing","0","12","1C,7C,15C","","","","","","","","","","","","","","","","",""
"","","","","","html-slider-response","182","345560","0.0-21.0-1.23","0515c162-d4c4-4d6d-88d6-80d2de1765c9","864","
                  <p style=""text-align: center;"">₪36
                                                <br>60%</p>
                  <p id=""wtp"" style=""text-align:center; margin-top: 0px; margin-bottom: 0px; font-size: 40px"";>מוכנים לשלם: <span id=""c_p_y""></span></p>","34","evaluation","48","12","1C,7C,15C","60","36","34","","","","","","","","","","","","","",""
"","","","","","html-keyboard-response","183","346881","0.0-21.0-2.23","0515c162-d4c4-4d6d-88d6-80d2de1765c9","null","<p style=""text-align: center;"">+</p>","null","fixation","","","","","","","","","","","","","","","","","","","",""
"","","","","","html-slider-response","184","347884","0.0-21.0-0.24","0515c162-d4c4-4d6d-88d6-80d2de1765c9","1000","
                  <p style=""text-align: center;"">₪76
                                                <br>65%</p>
                  <p id=""wtp"" style=""text-align:center; margin-top: 0px; margin-bottom: 0px; font-size: 40px"";>&ensp;</p>","-","viewing","0","29","8C,19A,24B","","","","","","","","","","","","","","","","",""
"","","","","","html-slider-response","185","350232","0.0-21.0-1.24","0515c162-d4c4-4d6d-88d6-80d2de1765c9","2347","
                  <p style=""text-align: center;"">₪76
                                                <br>65%</p>
                  <p id=""wtp"" style=""text-align:center; margin-top: 0px; margin-bottom: 0px; font-size: 40px"";>מוכנים לשלם: <span id=""c_p_y""></span></p>","61","evaluation","39","29","8C,19A,24B","65","76","61","","","","","","","","","","","","","",""
"","","","","","html-keyboard-response","186","351120","0.0-21.0-2.24","0515c162-d4c4-4d6d-88d6-80d2de1765c9","null","<p style=""text-align: center;"">+</p>","null","fixation","","","","","","","","","","","","","","","","","","","",""
"","","","","","html-slider-response","187","352138","0.0-21.0-0.25","0515c162-d4c4-4d6d-88d6-80d2de1765c9","1000","
                  <p style=""text-align: center;"">₪71
                                                <br>75%</p>
                  <p id=""wtp"" style=""text-align:center; margin-top: 0px; margin-bottom: 0px; font-size: 40px"";>&ensp;</p>","-","viewing","0","28","8B","","","","","","","","","","","","","","","","",""
"","","","","","html-slider-response","188","353016","0.0-21.0-1.25","0515c162-d4c4-4d6d-88d6-80d2de1765c9","877","
                  <p style=""text-align: center;"">₪71
                                                <br>75%</p>
                  <p id=""wtp"" style=""text-align:center; margin-top: 0px; margin-bottom: 0px; font-size: 40px"";>מוכנים לשלם: <span id=""c_p_y""></span></p>","61","evaluation","18","28","8B","75","71","61","","","","","","","","","","","","","",""
"","","","","","html-keyboard-response","189","354129","0.0-21.0-2.25","0515c162-d4c4-4d6d-88d6-80d2de1765c9","null","<p style=""text-align: center;"">+</p>","null","fixation","","","","","","","","","","","","","","","","","","","",""
"","","","","","html-slider-response","190","355131","0.0-21.0-0.26","0515c162-d4c4-4d6d-88d6-80d2de1765c9","1000","
                  <p style=""text-align: center;"">₪36
                                                <br>75%</p>
                  <p id=""wtp"" style=""text-align:center; margin-top: 0px; margin-bottom: 0px; font-size: 40px"";>&ensp;</p>","-","viewing","0","14","4B,5A,13B,16B","","","","","","","","","","","","","","","","",""
"","","","","","html-slider-response","191","356424","0.0-21.0-1.26","0515c162-d4c4-4d6d-88d6-80d2de1765c9","1293","
                  <p style=""text-align: center;"">₪36
                                                <br>75%</p>
                  <p id=""wtp"" style=""text-align:center; margin-top: 0px; margin-bottom: 0px; font-size: 40px"";>מוכנים לשלם: <span id=""c_p_y""></span></p>","39","evaluation","69","14","4B,5A,13B,16B","75","36","39","","","","","","","","","","","","","",""
"","","","","","html-keyboard-response","192","357012","0.0-21.0-2.26","0515c162-d4c4-4d6d-88d6-80d2de1765c9","null","<p style=""text-align: center;"">+</p>","null","fixation","","","","","","","","","","","","","","","","","","","",""
"","","","","","html-slider-response","193","358023","0.0-21.0-0.27","0515c162-d4c4-4d6d-88d6-80d2de1765c9","1000","
                  <p style=""text-align: center;"">₪79
                                                <br>65%</p>
                  <p id=""wtp"" style=""text-align:center; margin-top: 0px; margin-bottom: 0px; font-size: 40px"";>&ensp;</p>","-","viewing","0","31","8A","","","","","","","","","","","","","","","","",""
"","","","","","html-slider-response","194","360728","0.0-21.0-1.27","0515c162-d4c4-4d6d-88d6-80d2de1765c9","2704","
                  <p style=""text-align: center;"">₪79
                                                <br>65%</p>
                  <p id=""wtp"" style=""text-align:center; margin-top: 0px; margin-bottom: 0px; font-size: 40px"";>מוכנים לשלם: <span id=""c_p_y""></span></p>","55","evaluation","10","31","8A","65","79","55","","","","","","","","","","","","","",""
"","","","","","html-keyboard-response","195","361435","0.0-21.0-2.27","0515c162-d4c4-4d6d-88d6-80d2de1765c9","null","<p style=""text-align: center;"">+</p>","null","fixation","","","","","","","","","","","","","","","","","","","",""
"","","","","","html-slider-response","196","362445","0.0-21.0-0.28","0515c162-d4c4-4d6d-88d6-80d2de1765c9","1000","
                  <p style=""text-align: center;"">₪58
                                                <br>45%</p>
                  <p id=""wtp"" style=""text-align:center; margin-top: 0px; margin-bottom: 0px; font-size: 40px"";>&ensp;</p>","-","viewing","0","21","11C,18C,25A","","","","","","","","","","","","","","","","",""
"","","","","","html-slider-response","197","365152","0.0-21.0-1.28","0515c162-d4c4-4d6d-88d6-80d2de1765c9","2705","
                  <p style=""text-align: center;"">₪58
                                                <br>45%</p>
                  <p id=""wtp"" style=""text-align:center; margin-top: 0px; margin-bottom: 0px; font-size: 40px"";>מוכנים לשלם: <span id=""c_p_y""></span></p>","50","evaluation","51","21","11C,18C,25A","45","58","50","","","","","","","","","","","","","",""
"","","","","","html-keyboard-response","198","365676","0.0-21.0-2.28","0515c162-d4c4-4d6d-88d6-80d2de1765c9","null","<p style=""text-align: center;"">+</p>","null","fixation","","","","","","","","","","","","","","","","","","","",""
"","","","","","html-slider-response","199","366679","0.0-21.0-0.29","0515c162-d4c4-4d6d-88d6-80d2de1765c9","1000","
                  <p style=""text-align: center;"">₪61
                                                <br>55%</p>
                  <p id=""wtp"" style=""text-align:center; margin-top: 0px; margin-bottom: 0px; font-size: 40px"";>&ensp;</p>","-","viewing","0","23","7B,26B","","","","","","","","","","","","","","","","",""
"","","","","","html-slider-response","200","368536","0.0-21.0-1.29","0515c162-d4c4-4d6d-88d6-80d2de1765c9","1856","
                  <p style=""text-align: center;"">₪61
                                                <br>55%</p>
                  <p id=""wtp"" style=""text-align:center; margin-top: 0px; margin-bottom: 0px; font-size: 40px"";>מוכנים לשלם: <span id=""c_p_y""></span></p>","56","evaluation","37","23","7B,26B","55","61","55","","","","","","","","","","","","","",""
"","","","","","html-keyboard-response","201","369143","0.0-21.0-2.29","0515c162-d4c4-4d6d-88d6-80d2de1765c9","null","<p style=""text-align: center;"">+</p>","null","fixation","","","","","","","","","","","","","","","","","","","",""
"","","","","","html-slider-response","202","370148","0.0-21.0-0.30","0515c162-d4c4-4d6d-88d6-80d2de1765c9","1000","
                  <p style=""text-align: center;"">₪16
                                                <br>20%</p>
                  <p id=""wtp"" style=""text-align:center; margin-top: 0px; margin-bottom: 0px; font-size: 40px"";>&ensp;</p>","-","viewing","0","8","14C,17A,20C,27A","","","","","","","","","","","","","","","","",""
"","","","","","html-slider-response","203","372560","0.0-21.0-1.30","0515c162-d4c4-4d6d-88d6-80d2de1765c9","2411","
                  <p style=""text-align: center;"">₪16
                                                <br>20%</p>
                  <p id=""wtp"" style=""text-align:center; margin-top: 0px; margin-bottom: 0px; font-size: 40px"";>מוכנים לשלם: <span id=""c_p_y""></span></p>","18","evaluation","63","8","14C,17A,20C,27A","20","16","18","","","","","","","","","","","","","",""
"","","","","","html-keyboard-response","204","373416","0.0-21.0-2.30","0515c162-d4c4-4d6d-88d6-80d2de1765c9","null","<p style=""text-align: center;"">+</p>","null","fixation","","","","","","","","","","","","","","","","","","","",""
"","","","","","html-keyboard-response","205","374430","0.0-22.0","0515c162-d4c4-4d6d-88d6-80d2de1765c9","null","<p style=""text-align: center;"">+</p>","null","fixation","","","","","","","","","","","","","","","","","","","",""
"","","","","","html-keyboard-response","206","375616","0.0-23.0","0515c162-d4c4-4d6d-88d6-80d2de1765c9","null","<p>הפסקה.
          <br>לחצו כדי להמשיך.</p>","1","scan_wait","","","","","","","","","","","","","","","","","","","",""
"","","","","","html-keyboard-response","207","376617","0.0-24.0","0515c162-d4c4-4d6d-88d6-80d2de1765c9","null","<p style=""text-align: center;"">+</p>","null","fixation","","","","","","","","","","","","","","","","","","","",""
"","","","","","html-slider-response","208","377628","0.0-25.0-0.0","0515c162-d4c4-4d6d-88d6-80d2de1765c9","1000","
                  <p style=""text-align: center;"">₪79
                                                <br>65%</p>
                  <p id=""wtp"" style=""text-align:center; margin-top: 0px; margin-bottom: 0px; font-size: 40px"";>&ensp;</p>","-","viewing","0","31","8A","","","","","","","","","","","","","","","","",""
"","","","","","html-slider-response","209","379224","0.0-25.0-1.0","0515c162-d4c4-4d6d-88d6-80d2de1765c9","1595","
                  <p style=""text-align: center;"">₪79
                                                <br>65%</p>
                  <p id=""wtp"" style=""text-align:center; margin-top: 0px; margin-bottom: 0px; font-size: 40px"";>מוכנים לשלם: <span id=""c_p_y""></span></p>","60","evaluation","46","31","8A","65","79","60","","","","","","","","","","","","","",""
"","","","","","html-keyboard-response","210","379801","0.0-25.0-2.0","0515c162-d4c4-4d6d-88d6-80d2de1765c9","null","<p style=""text-align: center;"">+</p>","null","fixation","","","","","","","","","","","","","","","","","","","",""
"","","","","","html-slider-response","211","380806","0.0-25.0-0.1","0515c162-d4c4-4d6d-88d6-80d2de1765c9","1000","
                  <p style=""text-align: center;"">₪76
                                                <br>65%</p>
                  <p id=""wtp"" style=""text-align:center; margin-top: 0px; margin-bottom: 0px; font-size: 40px"";>&ensp;</p>","-","viewing","0","29","8C,19A,24B","","","","","","","","","","","","","","","","",""
"","","","","","html-slider-response","212","383464","0.0-25.0-1.1","0515c162-d4c4-4d6d-88d6-80d2de1765c9","2657","
                  <p style=""text-align: center;"">₪76
                                                <br>65%</p>
                  <p id=""wtp"" style=""text-align:center; margin-top: 0px; margin-bottom: 0px; font-size: 40px"";>מוכנים לשלם: <span id=""c_p_y""></span></p>","54","evaluation","23","29","8C,19A,24B","65","76","54","","","","","","","","","","","","","",""
"","","","","","html-keyboard-response","213","383983","0.0-25.0-2.1","0515c162-d4c4-4d6d-88d6-80d2de1765c9","null","<p style=""text-align: center;"">+</p>","null","fixation","","","","","","","","","","","","","","","","","","","",""
"","","","","","html-slider-response","214","384998","0.0-25.0-0.2","0515c162-d4c4-4d6d-88d6-80d2de1765c9","1000","
                  <p style=""text-align: center;"">₪58
                                                <br>40%</p>
                  <p id=""wtp"" style=""text-align:center; margin-top: 0px; margin-bottom: 0px; font-size: 40px"";>&ensp;</p>","-","viewing","0","20","10C,13A,19C,21B","","","","","","","","","","","","","","","","",""
"","","","","","html-slider-response","215","387152","0.0-25.0-1.2","0515c162-d4c4-4d6d-88d6-80d2de1765c9","2153","
                  <p style=""text-align: center;"">₪58
                                                <br>40%</p>
                  <p id=""wtp"" style=""text-align:center; margin-top: 0px; margin-bottom: 0px; font-size: 40px"";>מוכנים לשלם: <span id=""c_p_y""></span></p>","52","evaluation","11","20","10C,13A,19C,21B","40","58","52","","","","","","","","","","","","","",""
"","","","","","html-keyboard-response","216","388399","0.0-25.0-2.2","0515c162-d4c4-4d6d-88d6-80d2de1765c9","null","<p style=""text-align: center;"">+</p>","null","fixation","","","","","","","","","","","","","","","","","","","",""
"","","","","","html-slider-response","217","389413","0.0-25.0-0.3","0515c162-d4c4-4d6d-88d6-80d2de1765c9","1000","
                  <p style=""text-align: center;"">₪18
                                                <br>25%</p>
                  <p id=""wtp"" style=""text-align:center; margin-top: 0px; margin-bottom: 0px; font-size: 40px"";>&ensp;</p>","-","viewing","0","9","14A,23A","","","","","","","","","","","","","","","","",""
"","","","","","html-slider-response","218","391824","0.0-25.0-1.3","0515c162-d4c4-4d6d-88d6-80d2de1765c9","2410","
                  <p style=""text-align: center;"">₪18
                                                <br>25%</p>
                  <p id=""wtp"" style=""text-align:center; margin-top: 0px; margin-bottom: 0px; font-size: 40px"";>מוכנים לשלם: <span id=""c_p_y""></span></p>","24","evaluation","67","9","14A,23A","25","18","24","","","","","","","","","","","","","",""
"","","","","","html-keyboard-response","219","393193","0.0-25.0-2.3","0515c162-d4c4-4d6d-88d6-80d2de1765c9","null","<p style=""text-align: center;"">+</p>","null","fixation","","","","","","","","","","","","","","","","","","","",""
"","","","","","html-slider-response","220","394204","0.0-25.0-0.4","0515c162-d4c4-4d6d-88d6-80d2de1765c9","1000","
                  <p style=""text-align: center;"">₪39
                                                <br>60%</p>
                  <p id=""wtp"" style=""text-align:center; margin-top: 0px; margin-bottom: 0px; font-size: 40px"";>&ensp;</p>","-","viewing","0","15","9C,25B","","","","","","","","","","","","","","","","",""
"","","","","","html-slider-response","221","396632","0.0-25.0-1.4","0515c162-d4c4-4d6d-88d6-80d2de1765c9","2427","
                  <p style=""text-align: center;"">₪39
                                                <br>60%</p>
                  <p id=""wtp"" style=""text-align:center; margin-top: 0px; margin-bottom: 0px; font-size: 40px"";>מוכנים לשלם: <span id=""c_p_y""></span></p>","37","evaluation","50","15","9C,25B","60","39","37","","","","","","","","","","","","","",""
"","","","","","html-keyboard-response","222","397758","0.0-25.0-2.4","0515c162-d4c4-4d6d-88d6-80d2de1765c9","null","<p style=""text-align: center;"">+</p>","null","fixation","","","","","","","","","","","","","","","","","","","",""
"","","","","","html-slider-response","223","398773","0.0-25.0-0.5","0515c162-d4c4-4d6d-88d6-80d2de1765c9","1000","
                  <p style=""text-align: center;"">₪64
                                                <br>50%</p>
                  <p id=""wtp"" style=""text-align:center; margin-top: 0px; margin-bottom: 0px; font-size: 40px"";>&ensp;</p>","-","viewing","0","25","1B,3B,4A","","","","","","","","","","","","","","","","",""
"","","","","","html-slider-response","224","400536","0.0-25.0-1.5","0515c162-d4c4-4d6d-88d6-80d2de1765c9","1762","
                  <p style=""text-align: center;"">₪64
                                                <br>50%</p>
                  <p id=""wtp"" style=""text-align:center; margin-top: 0px; margin-bottom: 0px; font-size: 40px"";>מוכנים לשלם: <span id=""c_p_y""></span></p>","60","evaluation","4","25","1B,3B,4A","50","64","59","","","","","","","","","","","","","",""
"","","","","","html-keyboard-response","225","401373","0.0-25.0-2.5","0515c162-d4c4-4d6d-88d6-80d2de1765c9","null","<p style=""text-align: center;"">+</p>","null","fixation","","","","","","","","","","","","","","","","","","","",""
"","","","","","html-slider-response","226","402376","0.0-25.0-0.6","0515c162-d4c4-4d6d-88d6-80d2de1765c9","1000","
                  <p style=""text-align: center;"">₪79
                                                <br>40%</p>
                  <p id=""wtp"" style=""text-align:center; margin-top: 0px; margin-bottom: 0px; font-size: 40px"";>&ensp;</p>","-","viewing","0","30","9B","","","","","","","","","","","","","","","","",""
"","","","","","html-slider-response","227","405072","0.0-25.0-1.6","0515c162-d4c4-4d6d-88d6-80d2de1765c9","2695","
                  <p style=""text-align: center;"">₪79
                                                <br>40%</p>
                  <p id=""wtp"" style=""text-align:center; margin-top: 0px; margin-bottom: 0px; font-size: 40px"";>מוכנים לשלם: <span id=""c_p_y""></span></p>","68","evaluation","24","30","9B","40","79","68","","","","","","","","","","","","","",""
"","","","","","html-keyboard-response","228","405622","0.0-25.0-2.6","0515c162-d4c4-4d6d-88d6-80d2de1765c9","null","<p style=""text-align: center;"">+</p>","null","fixation","","","","","","","","","","","","","","","","","","","",""
"","","","","","html-slider-response","229","406629","0.0-25.0-0.7","0515c162-d4c4-4d6d-88d6-80d2de1765c9","1000","
                  <p style=""text-align: center;"">₪4
                                                <br>50%</p>
                  <p id=""wtp"" style=""text-align:center; margin-top: 0px; margin-bottom: 0px; font-size: 40px"";>&ensp;</p>","-","viewing","0","2","4C,17B","","","","","","","","","","","","","","","","",""
"","","","","","html-slider-response","230","408384","0.0-25.0-1.7","0515c162-d4c4-4d6d-88d6-80d2de1765c9","1754","
                  <p style=""text-align: center;"">₪4
                                                <br>50%</p>
                  <p id=""wtp"" style=""text-align:center; margin-top: 0px; margin-bottom: 0px; font-size: 40px"";>מוכנים לשלם: <span id=""c_p_y""></span></p>","1","evaluation","38","2","4C,17B","50","4","1","","","","","","","","","","","","","",""
"","","","","","html-keyboard-response","231","408904","0.0-25.0-2.7","0515c162-d4c4-4d6d-88d6-80d2de1765c9","null","<p style=""text-align: center;"">+</p>","null","fixation","","","","","","","","","","","","","","","","","","","",""
"","","","","","html-slider-response","232","409913","0.0-25.0-0.8","0515c162-d4c4-4d6d-88d6-80d2de1765c9","1000","
                  <p style=""text-align: center;"">₪61
                                                <br>45%</p>
                  <p id=""wtp"" style=""text-align:center; margin-top: 0px; margin-bottom: 0px; font-size: 40px"";>&ensp;</p>","-","viewing","0","22","10A,11A","","","","","","","","","","","","","","","","",""
"","","","","","html-slider-response","233","411784","0.0-25.0-1.8","0515c162-d4c4-4d6d-88d6-80d2de1765c9","1870","
                  <p style=""text-align: center;"">₪61
                                                <br>45%</p>
                  <p id=""wtp"" style=""text-align:center; margin-top: 0px; margin-bottom: 0px; font-size: 40px"";>מוכנים לשלם: <span id=""c_p_y""></span></p>","57","evaluation","31","22","10A,11A","45","61","57","","","","","","","","","","","","","",""
"","","","","","html-keyboard-response","234","413122","0.0-25.0-2.8","0515c162-d4c4-4d6d-88d6-80d2de1765c9","null","<p style=""text-align: center;"">+</p>","null","fixation","","","","","","","","","","","","","","","","","","","",""
"","","","","","html-slider-response","235","414128","0.0-25.0-0.9","0515c162-d4c4-4d6d-88d6-80d2de1765c9","1000","
                  <p style=""text-align: center;"">₪36
                                                <br>70%</p>
                  <p id=""wtp"" style=""text-align:center; margin-top: 0px; margin-bottom: 0px; font-size: 40px"";>&ensp;</p>","-","viewing","0","13","3A,5C,10B","","","","","","","","","","","","","","","","",""
"","","","","","html-slider-response","236","415112","0.0-25.0-1.9","0515c162-d4c4-4d6d-88d6-80d2de1765c9","983","
                  <p style=""text-align: center;"">₪36
                                                <br>70%</p>
                  <p id=""wtp"" style=""text-align:center; margin-top: 0px; margin-bottom: 0px; font-size: 40px"";>מוכנים לשלם: <span id=""c_p_y""></span></p>","32","evaluation","48","13","3A,5C,10B","70","36","32","","","","","","","","","","","","","",""
"","","","","","html-keyboard-response","237","416356","0.0-25.0-2.9","0515c162-d4c4-4d6d-88d6-80d2de1765c9","null","<p style=""text-align: center;"">+</p>","null","fixation","","","","","","","","","","","","","","","","","","","",""
"","","","","","html-slider-response","238","417357","0.0-25.0-0.10","0515c162-d4c4-4d6d-88d6-80d2de1765c9","1000","
                  <p style=""text-align: center;"">₪58
                                                <br>45%</p>
                  <p id=""wtp"" style=""text-align:center; margin-top: 0px; margin-bottom: 0px; font-size: 40px"";>&ensp;</p>","-","viewing","0","21","11C,18C,25A","","","","","","","","","","","","","","","","",""
"","","","","","html-slider-response","239","419872","0.0-25.0-1.10","0515c162-d4c4-4d6d-88d6-80d2de1765c9","2514","
                  <p style=""text-align: center;"">₪58
                                                <br>45%</p>
                  <p id=""wtp"" style=""text-align:center; margin-top: 0px; margin-bottom: 0px; font-size: 40px"";>מוכנים לשלם: <span id=""c_p_y""></span></p>","56","evaluation","43","21","11C,18C,25A","45","58","56","","","","","","","","","","","","","",""
"","","","","","html-keyboard-response","240","421161","0.0-25.0-2.10","0515c162-d4c4-4d6d-88d6-80d2de1765c9","null","<p style=""text-align: center;"">+</p>","null","fixation","","","","","","","","","","","","","","","","","","","",""
"","","","","","html-slider-response","241","422172","0.0-25.0-0.11","0515c162-d4c4-4d6d-88d6-80d2de1765c9","1000","
                  <p style=""text-align: center;"">₪43
                                                <br>75%</p>
                  <p id=""wtp"" style=""text-align:center; margin-top: 0px; margin-bottom: 0px; font-size: 40px"";>&ensp;</p>","-","viewing","0","18","11B,19B,24A,26A","","","","","","","","","","","","","","","","",""
"","","","","","html-slider-response","242","423824","0.0-25.0-1.11","0515c162-d4c4-4d6d-88d6-80d2de1765c9","1651","
                  <p style=""text-align: center;"">₪43
                                                <br>75%</p>
                  <p id=""wtp"" style=""text-align:center; margin-top: 0px; margin-bottom: 0px; font-size: 40px"";>מוכנים לשלם: <span id=""c_p_y""></span></p>","46","evaluation","59","18","11B,19B,24A,26A","75","43","46","","","","","","","","","","","","","",""
"","","","","","html-keyboard-response","243","425273","0.0-25.0-2.11","0515c162-d4c4-4d6d-88d6-80d2de1765c9","null","<p style=""text-align: center;"">+</p>","null","fixation","","","","","","","","","","","","","","","","","","","",""
"","","","","","html-slider-response","244","426277","0.0-25.0-0.12","0515c162-d4c4-4d6d-88d6-80d2de1765c9","1000","
                  <p style=""text-align: center;"">₪16
                                                <br>20%</p>
                  <p id=""wtp"" style=""text-align:center; margin-top: 0px; margin-bottom: 0px; font-size: 40px"";>&ensp;</p>","-","viewing","0","8","14C,17A,20C,27A","","","","","","","","","","","","","","","","",""
"","","","","","html-slider-response","245","427920","0.0-25.0-1.12","0515c162-d4c4-4d6d-88d6-80d2de1765c9","1642","
                  <p style=""text-align: center;"">₪16
                                                <br>20%</p>
                  <p id=""wtp"" style=""text-align:center; margin-top: 0px; margin-bottom: 0px; font-size: 40px"";>מוכנים לשלם: <span id=""c_p_y""></span></p>","14","evaluation","64","8","14C,17A,20C,27A","20","16","14","","","","","","","","","","","","","",""
"","","","","","html-keyboard-response","246","428752","0.0-25.0-2.12","0515c162-d4c4-4d6d-88d6-80d2de1765c9","null","<p style=""text-align: center;"">+</p>","null","fixation","","","","","","","","","","","","","","","","","","","",""
"","","","","","html-slider-response","247","429766","0.0-25.0-0.13","0515c162-d4c4-4d6d-88d6-80d2de1765c9","1000","
                  <p style=""text-align: center;"">₪4
                                                <br>25%</p>
                  <p id=""wtp"" style=""text-align:center; margin-top: 0px; margin-bottom: 0px; font-size: 40px"";>&ensp;</p>","-","viewing","0","1","6C,29B,30C","","","","","","","","","","","","","","","","",""
"","","","","","html-slider-response","248","431257","0.0-25.0-1.13","0515c162-d4c4-4d6d-88d6-80d2de1765c9","1490","
                  <p style=""text-align: center;"">₪4
                                                <br>25%</p>
                  <p id=""wtp"" style=""text-align:center; margin-top: 0px; margin-bottom: 0px; font-size: 40px"";>מוכנים לשלם: <span id=""c_p_y""></span></p>","0","evaluation","55","1","6C,29B,30C","25","4","1","","","","","","","","","","","","","",""
"","","","","","html-keyboard-response","249","432488","0.0-25.0-2.13","0515c162-d4c4-4d6d-88d6-80d2de1765c9","null","<p style=""text-align: center;"">+</p>","null","fixation","","","","","","","","","","","","","","","","","","","",""
"","","","","","html-slider-response","250","433490","0.0-25.0-0.14","0515c162-d4c4-4d6d-88d6-80d2de1765c9","1000","
                  <p style=""text-align: center;"">₪18
                                                <br>50%</p>
                  <p id=""wtp"" style=""text-align:center; margin-top: 0px; margin-bottom: 0px; font-size: 40px"";>&ensp;</p>","-","viewing","0","10","2C,16C,22B,28A","","","","","","","","","","","","","","","","",""
"","","","","","html-slider-response","251","435688","0.0-25.0-1.14","0515c162-d4c4-4d6d-88d6-80d2de1765c9","2198","
                  <p style=""text-align: center;"">₪18
                                                <br>50%</p>
                  <p id=""wtp"" style=""text-align:center; margin-top: 0px; margin-bottom: 0px; font-size: 40px"";>מוכנים לשלם: <span id=""c_p_y""></span></p>","11","evaluation","53","10","2C,16C,22B,28A","50","18","12","","","","","","","","","","","","","",""
"","","","","","html-keyboard-response","252","436751","0.0-25.0-2.14","0515c162-d4c4-4d6d-88d6-80d2de1765c9","null","<p style=""text-align: center;"">+</p>","null","fixation","","","","","","","","","","","","","","","","","","","",""
"","","","","","html-slider-response","253","437758","0.0-25.0-0.15","0515c162-d4c4-4d6d-88d6-80d2de1765c9","1000","
                  <p style=""text-align: center;"">₪71
                                                <br>45%</p>
                  <p id=""wtp"" style=""text-align:center; margin-top: 0px; margin-bottom: 0px; font-size: 40px"";>&ensp;</p>","-","viewing","0","26","2B,16A","","","","","","","","","","","","","","","","",""
"","","","","","html-slider-response","254","439344","0.0-25.0-1.15","0515c162-d4c4-4d6d-88d6-80d2de1765c9","1585","
                  <p style=""text-align: center;"">₪71
                                                <br>45%</p>
