"success","timeout","failed_images","failed_audio","failed_video","trial_type","trial_index","time_elapsed","internal_node_id","subject_id","rt","stimulus","response","part","slider_start","ID","set_ID","prob","amount","last_location","actual_choice","actual_EV","binary_id","trinary_id","catch","direction","A_key","S_key","D_key","choice_prob","choice_amount","won_prize","potential_prize_amount","potential_prize_prob","total_prize","accuracy"
"true","false","[]","[]","[]","preload","0","9","0.0-0.0","aac2844d-7b66-416c-a659-bc5f1fe458a3","","","","","","","","","","","","","","","","","","","","","","","","","",""
"","","","","","html-keyboard-response","1","11930","0.0-1.0","aac2844d-7b66-416c-a659-bc5f1fe458a3","null","
          <h1>שלום וברוכים הבאים!</h1>
          <p>לפניכם ניסוי בקבלת החלטות עם שני חלקים.
          <br><br>לחצו על העכבר כדי להמשיך.</p>","0","example","","","","","","","","","","","","","","","","","","","","","",""
"","","","","","html-keyboard-response","2","20186","0.0-2.0","aac2844d-7b66-416c-a659-bc5f1fe458a3","null","
        <h1>חלק 1</h1>
        <p>בקרוב יוצגו בפניכם הגרלות.
        <br>עליכם לבחור את המחיר המירבי שתהיו מוכנים לשלם כדי להשתתף בהגרלה שתוצג.
        <br>יש לכם תקציב של ₪80 לכל הגרלה. 
        <br>נסו להעריך כל הגרלה בנפרד ולחשוב כמה היא שווה עבורכם, ₪80 זמינים לכל הגרלה בנפרד.
        <br><br>לחצו על העכבר כדי להמשיך.</p>","1","instructions","","","","","","","","","","","","","","","","","","","","","",""
"","","","","","html-keyboard-response","3","30098","0.0-3.0","aac2844d-7b66-416c-a659-bc5f1fe458a3","null","
        <p>בסוף הניסוי, המחשב יבחר את אחת ההגרלות ויקבע מחיר לכרטיס עבורה. 
        <br>במידה והמחיר שבחרתם נמוך מהמחיר שנבחר על ידי המחשב, לא תשתתפו בהגרלה ותשארו עם מלוא התקציב.
        <br>במידה והמחיר שבחרתם גבוה מהמחיר שנבחר על ידי המחשב, תשלמו את המחיר שנקבע ותשתתפו בהגרלה.
        <br><br>לחצו על העכבר כדי להמשיך.</p>","1","instructions","","","","","","","","","","","","","","","","","","","","","",""
"","","","","","html-slider-response","4","41794","0.0-4.0","aac2844d-7b66-416c-a659-bc5f1fe458a3","11584","
        <p style=""font-size: 42px;"">נתחיל עם דוגמא: 
        <br>ההגרלה מטה מציעה 65% סיכוי לזכות ב-₪40 
        <br>&emsp;&emsp;&emsp;&emsp;&emsp;&emsp;&emsp;&emsp;&ensp;35% סיכוי לזכות ב-₪0.
        <br><br>מה המחיר המירבי שתהיו מוכנים לשלם על כרטיס להגרלה זו בין 0 ל-₪80?
        <br>הזיזו את העכבר על פני המלבן ולחצו כדי לבצע בחירה.</p>
        
        <p style=""text-align: center;"">₪40<br>65%</p>

        <p id=""wtp"" style=""text-align:center; margin-top: 0px; margin-bottom: 0px; font-size: 40px"";>מוכנים לשלם: <span id=""c_p_y""></span></p>","5","example","52","","","","","","","","","","","","","","","","","","","","",""
"","","","","","html-keyboard-response","5","48570","0.0-5.0","aac2844d-7b66-416c-a659-bc5f1fe458a3","null","<p>יפה מאוד!
                <br> בחרתם שתהיו מוכנים לשלם ₪5 כדי להשתתף בהגרלה:
                <br><p style=""text-align: center;"">₪40<br>65%</p>
                <p>נשמע נכון?
                <br>נניח שהגרלה זו נבחרה בסוף הניסוי.
                <br>כעת המחשב יקבע מחיר עבורה באקראי.
                <br>לחצו על העכבר להמשך.</p>","1","example","","","","","","","","","","","","","","","","","","","","","",""
"","","","","","html-keyboard-response","6","53874","0.0-6.0","aac2844d-7b66-416c-a659-bc5f1fe458a3","null","<p>המחשב קבע מחיר: ₪20
                <br>ואתם בחרתם לשלם לכל היותר: ₪5
                <br><br>מכיוון שהמחיר שבחרתם נמוך מהמחיר שנקבע, לא תתשתתפו בהגרלה.
                <br>במקרה כזה, בסוף הניסוי תקבלו את כל התקציב ההתחלתי של ₪80.
                <br><br>לחצו על העכבר להמשך.</p>","1","example","","","","","","","","","","","","","","","","","","","","","",""
"","","","","","html-slider-response","7","57674","0.0-7.0","aac2844d-7b66-416c-a659-bc5f1fe458a3","3543","<p style=""font-size: 42px;"">הנה עוד דוגמא:
                <br>ההגרלה מטה מציעה 35% סיכוי לזכות ב-₪18 
                <br>&emsp;&emsp;&emsp;&emsp;&emsp;&emsp;&emsp;&emsp;&ensp;65% סיכוי לזכות ב-₪0.</p>
        
                <p style=""text-align: center;"">₪18<br>35%</p>
                <p id=""wtp"" style=""text-align:center; margin-top: 0px; margin-bottom: 0px; font-size: 40px"";>מוכנים לשלם: <span id=""c_p_y""></span></p>","0","example","26","","","","","","","","","","","","","","","","","","","","",""
"","","","","","html-keyboard-response","8","64162","0.0-8.0","aac2844d-7b66-416c-a659-bc5f1fe458a3","null","<p>הייתם מוכנים לשלם  ₪0 כדי להשתתף בהגרלה:
                <p style=""text-align: center;"">₪18<br>35%</p>
                <p>כעת נניח שהמחשב בחר את ההגרלה הזו בסוף הניסוי, וקבע עבורה מחיר.
                <br><br>לחצו על העכבר כדי להמשיך.</p>","1","instructions","","","","","","","","","","","","","","","","","","","","","",""
"","","","","","html-keyboard-response","9","77818","0.0-9.0","aac2844d-7b66-416c-a659-bc5f1fe458a3","null","<p>המחשב קבע מחיר להגרלה: ₪0
                <br>ואתם בחרתם לשלם לכל היותר: ₪0
                <br><br>כעת המחיר שנקבע זהה לזה שבחרתם, אז תשלמו את המחיר שקבע המחשב (₪0) ותשתתפו בהגרלה.
                <br>במקרה כזה, תסיימו את הניסוי עם תקציב של ₪80 ועם סיכוי לזכות ב-₪18 נוספים מההגרלה.
                <br>כלומר, תוכלו לקבל ₪80 אם לא תזכו בהגרלה, או ₪98 אם תזכו בהגרלה.
                <br><br>לחצו על העכבר להמשך.</p>","1","example","","","","","","","","","","","","","","","","","","","","","",""
"","","","","","html-keyboard-response","10","90682","0.0-10.0","aac2844d-7b66-416c-a659-bc5f1fe458a3","null","<p>במהלך הניסוי, קודם תראו את ההגרלה ורק לאחר מכן תוכלו לבחור.
                <p>כמו כן, יהיו לכם מספר שניות מוגבל להגיב.
                <p>בואו ננסה זאת עם ההגרלה הקודמת.
                <br>לחצו על העכבר כדי להמשיך.</p>","1","instructions","","","","","","","","","","","","","","","","","","","","","",""
"","","","","","html-slider-response","11","91951","0.0-11.0","aac2844d-7b66-416c-a659-bc5f1fe458a3","1000","
                    <p style=""text-align: center;"">₪18<br>35%</p>
                    <p id=""wtp"" style=""text-align:center; margin-top: 0px; margin-bottom: 0px; font-size: 40px"";>&ensp;</p>","80","instructions","0","","","","","","","","","","","","","","","","","","","","",""
"","","","","","html-slider-response","12","94322","0.0-12.0","aac2844d-7b66-416c-a659-bc5f1fe458a3","2116","
                    <p style=""text-align: center;"">₪18<br>35%</p>
                    <p id=""wtp"" style=""text-align:center; margin-top: 0px; margin-bottom: 0px; font-size: 40px"";>מוכנים לשלם: <span id=""c_p_y""></span></p>","0","instructions","13","","","","","","","","","","","","","","","","","","","","",""
"","","","","","html-keyboard-response","13","97282","0.0-13.0","aac2844d-7b66-416c-a659-bc5f1fe458a3","null","<p>יפה. הפעם בחרתם לשלם לכל היותר ₪0.
                <br><br>לחצו על העכבר כדי להמשיך.</p>","1","instructions","","","","","","","","","","","","","","","","","","","","","",""
"","","","","","html-keyboard-response","14","102082","0.0-15.0","aac2844d-7b66-416c-a659-bc5f1fe458a3","null","<p>כעת נתחיל את הניסוי.
                <br><br>אתם תראו הגרלות ותתבקשו לבחור כמה תהיו מוכנים לשלם כדי להשתתף בהן.
                <br>יש לכם תקציב של ₪80 עבור כל הגרלה.
                <br>בסוף הניסוי הגרלה אחת תבחר באקראי ותשוחק.
                <br><br>לחצו על העכבר כדי להתחיל את הניסוי.</p>","1","instructions","","","","","","","","","","","","","","","","","","","","","",""
"","","","","","html-keyboard-response","15","103349","0.0-16.0","aac2844d-7b66-416c-a659-bc5f1fe458a3","null","<p style=""text-align: center;"">+</p>","null","fixation","","","","","","","","","","","","","","","","","","","","","",""
"","","","","","html-slider-response","16","104355","0.0-17.0-0.0","aac2844d-7b66-416c-a659-bc5f1fe458a3","1000","
                  <p style=""text-align: center;"">₪11
                                                <br>45%</p>
                  <p id=""wtp"" style=""text-align:center; margin-top: 0px; margin-bottom: 0px; font-size: 40px"";>&ensp;</p>","-","viewing","0","6","14B,21C,25C","","","","","","","","","","","","","","","","","","",""
"","","","","","html-slider-response","17","107659","0.0-17.0-1.0","aac2844d-7b66-416c-a659-bc5f1fe458a3","3302","
                  <p style=""text-align: center;"">₪11
                                                <br>45%</p>
                  <p id=""wtp"" style=""text-align:center; margin-top: 0px; margin-bottom: 0px; font-size: 40px"";>מוכנים לשלם: <span id=""c_p_y""></span></p>","1","evaluation","47","6","14B,21C,25C","45","11","1","","","","","","","","","","","","","","","",""
"","","","","","html-keyboard-response","18","108814","0.0-17.0-2.0","aac2844d-7b66-416c-a659-bc5f1fe458a3","null","<p style=""text-align: center;"">+</p>","null","fixation","","","","","","","","","","","","","","","","","","","","","",""
"","","","","","html-slider-response","19","109818","0.0-17.0-0.1","aac2844d-7b66-416c-a659-bc5f1fe458a3","1000","
                  <p style=""text-align: center;"">₪36
                                                <br>70%</p>
                  <p id=""wtp"" style=""text-align:center; margin-top: 0px; margin-bottom: 0px; font-size: 40px"";>&ensp;</p>","-","viewing","0","13","3A,5C,10B","","","","","","","","","","","","","","","","","","",""
"","","","","","html-slider-response","20","113820","0.0-17.0-1.1","aac2844d-7b66-416c-a659-bc5f1fe458a3","null","
                  <p style=""text-align: center;"">₪36
                                                <br>70%</p>
                  <p id=""wtp"" style=""text-align:center; margin-top: 0px; margin-bottom: 0px; font-size: 40px"";>מוכנים לשלם: <span id=""c_p_y""></span></p>","null","evaluation","67","13","3A,5C,10B","70","36","15","","","","","","","","","","","","","","","",""
"","","","","","html-keyboard-response","21","114729","0.0-17.0-2.1","aac2844d-7b66-416c-a659-bc5f1fe458a3","null","<p style=""text-align: center;"">+</p>","null","fixation","","","","","","","","","","","","","","","","","","","","","",""
"","","","","","html-slider-response","22","115746","0.0-17.0-0.2","aac2844d-7b66-416c-a659-bc5f1fe458a3","1000","
                  <p style=""text-align: center;"">₪71
                                                <br>55%</p>
                  <p id=""wtp"" style=""text-align:center; margin-top: 0px; margin-bottom: 0px; font-size: 40px"";>&ensp;</p>","-","viewing","0","27","5B,18A","","","","","","","","","","","","","","","","","","",""
"","","","","","html-slider-response","23","118250","0.0-17.0-1.2","aac2844d-7b66-416c-a659-bc5f1fe458a3","2504","
                  <p style=""text-align: center;"">₪71
                                                <br>55%</p>
                  <p id=""wtp"" style=""text-align:center; margin-top: 0px; margin-bottom: 0px; font-size: 40px"";>מוכנים לשלם: <span id=""c_p_y""></span></p>","35","evaluation","17","27","5B,18A","55","71","35","","","","","","","","","","","","","","","",""
"","","","","","html-keyboard-response","24","118845","0.0-17.0-2.2","aac2844d-7b66-416c-a659-bc5f1fe458a3","null","<p style=""text-align: center;"">+</p>","null","fixation","","","","","","","","","","","","","","","","","","","","","",""
"","","","","","html-slider-response","25","119852","0.0-17.0-0.3","aac2844d-7b66-416c-a659-bc5f1fe458a3","1000","
                  <p style=""text-align: center;"">₪18
                                                <br>25%</p>
                  <p id=""wtp"" style=""text-align:center; margin-top: 0px; margin-bottom: 0px; font-size: 40px"";>&ensp;</p>","-","viewing","0","9","14A,23A","","","","","","","","","","","","","","","","","","",""
"","","","","","html-slider-response","26","121746","0.0-17.0-1.3","aac2844d-7b66-416c-a659-bc5f1fe458a3","1894","
                  <p style=""text-align: center;"">₪18
                                                <br>25%</p>
                  <p id=""wtp"" style=""text-align:center; margin-top: 0px; margin-bottom: 0px; font-size: 40px"";>מוכנים לשלם: <span id=""c_p_y""></span></p>","3","evaluation","18","9","14A,23A","25","18","3","","","","","","","","","","","","","","","",""
"","","","","","html-keyboard-response","27","123235","0.0-17.0-2.3","aac2844d-7b66-416c-a659-bc5f1fe458a3","null","<p style=""text-align: center;"">+</p>","null","fixation","","","","","","","","","","","","","","","","","","","","","",""
"","","","","","html-slider-response","28","124241","0.0-17.0-0.4","aac2844d-7b66-416c-a659-bc5f1fe458a3","1000","
                  <p style=""text-align: center;"">₪16
                                                <br>20%</p>
                  <p id=""wtp"" style=""text-align:center; margin-top: 0px; margin-bottom: 0px; font-size: 40px"";>&ensp;</p>","-","viewing","0","8","14C,17A,20C,27A","","","","","","","","","","","","","","","","","","",""
"","","","","","html-slider-response","29","126050","0.0-17.0-1.4","aac2844d-7b66-416c-a659-bc5f1fe458a3","1808","
                  <p style=""text-align: center;"">₪16
                                                <br>20%</p>
                  <p id=""wtp"" style=""text-align:center; margin-top: 0px; margin-bottom: 0px; font-size: 40px"";>מוכנים לשלם: <span id=""c_p_y""></span></p>","2","evaluation","8","8","14C,17A,20C,27A","20","16","3","","","","","","","","","","","","","","","",""
"","","","","","html-keyboard-response","30","126854","0.0-17.0-2.4","aac2844d-7b66-416c-a659-bc5f1fe458a3","null","<p style=""text-align: center;"">+</p>","null","fixation","","","","","","","","","","","","","","","","","","","","","",""
"","","","","","html-slider-response","31","127862","0.0-17.0-0.5","aac2844d-7b66-416c-a659-bc5f1fe458a3","1000","
                  <p style=""text-align: center;"">₪71
                                                <br>45%</p>
                  <p id=""wtp"" style=""text-align:center; margin-top: 0px; margin-bottom: 0px; font-size: 40px"";>&ensp;</p>","-","viewing","0","26","2B,16A","","","","","","","","","","","","","","","","","","",""
"","","","","","html-slider-response","32","129794","0.0-17.0-1.5","aac2844d-7b66-416c-a659-bc5f1fe458a3","1931","
                  <p style=""text-align: center;"">₪71
                                                <br>45%</p>
                  <p id=""wtp"" style=""text-align:center; margin-top: 0px; margin-bottom: 0px; font-size: 40px"";>מוכנים לשלם: <span id=""c_p_y""></span></p>","20","evaluation","57","26","2B,16A","45","71","20","","","","","","","","","","","","","","","",""
"","","","","","html-keyboard-response","33","131141","0.0-17.0-2.5","aac2844d-7b66-416c-a659-bc5f1fe458a3","null","<p style=""text-align: center;"">+</p>","null","fixation","","","","","","","","","","","","","","","","","","","","","",""
"","","","","","html-slider-response","34","132155","0.0-17.0-0.6","aac2844d-7b66-416c-a659-bc5f1fe458a3","1000","
                  <p style=""text-align: center;"">₪36
                                                <br>60%</p>
                  <p id=""wtp"" style=""text-align:center; margin-top: 0px; margin-bottom: 0px; font-size: 40px"";>&ensp;</p>","-","viewing","0","12","1C,7C,15C","","","","","","","","","","","","","","","","","","",""
"","","","","","html-slider-response","35","134194","0.0-17.0-1.6","aac2844d-7b66-416c-a659-bc5f1fe458a3","2038","
                  <p style=""text-align: center;"">₪36
                                                <br>60%</p>
                  <p id=""wtp"" style=""text-align:center; margin-top: 0px; margin-bottom: 0px; font-size: 40px"";>מוכנים לשלם: <span id=""c_p_y""></span></p>","11","evaluation","28","12","1C,7C,15C","60","36","11","","","","","","","","","","","","","","","",""
"","","","","","html-keyboard-response","36","134745","0.0-17.0-2.6","aac2844d-7b66-416c-a659-bc5f1fe458a3","null","<p style=""text-align: center;"">+</p>","null","fixation","","","","","","","","","","","","","","","","","","","","","",""
"","","","","","html-slider-response","37","135749","0.0-17.0-0.7","aac2844d-7b66-416c-a659-bc5f1fe458a3","1000","
                  <p style=""text-align: center;"">₪61
                                                <br>55%</p>
                  <p id=""wtp"" style=""text-align:center; margin-top: 0px; margin-bottom: 0px; font-size: 40px"";>&ensp;</p>","-","viewing","0","23","7B,26B","","","","","","","","","","","","","","","","","","",""
"","","","","","html-slider-response","38","139752","0.0-17.0-1.7","aac2844d-7b66-416c-a659-bc5f1fe458a3","null","
                  <p style=""text-align: center;"">₪61
                                                <br>55%</p>
                  <p id=""wtp"" style=""text-align:center; margin-top: 0px; margin-bottom: 0px; font-size: 40px"";>מוכנים לשלם: <span id=""c_p_y""></span></p>","null","evaluation","29","23","7B,26B","55","61","14","","","","","","","","","","","","","","","",""
"","","","","","html-keyboard-response","39","140374","0.0-17.0-2.7","aac2844d-7b66-416c-a659-bc5f1fe458a3","null","<p style=""text-align: center;"">+</p>","null","fixation","","","","","","","","","","","","","","","","","","","","","",""
"","","","","","html-slider-response","40","141391","0.0-17.0-0.8","aac2844d-7b66-416c-a659-bc5f1fe458a3","1000","
                  <p style=""text-align: center;"">₪4
                                                <br>75%</p>
                  <p id=""wtp"" style=""text-align:center; margin-top: 0px; margin-bottom: 0px; font-size: 40px"";>&ensp;</p>","-","viewing","0","3","12B,20B,23B,27C,29C","","","","","","","","","","","","","","","","","","",""
"","","","","","html-slider-response","41","143146","0.0-17.0-1.8","aac2844d-7b66-416c-a659-bc5f1fe458a3","1753","
                  <p style=""text-align: center;"">₪4
                                                <br>75%</p>
                  <p id=""wtp"" style=""text-align:center; margin-top: 0px; margin-bottom: 0px; font-size: 40px"";>מוכנים לשלם: <span id=""c_p_y""></span></p>","0","evaluation","53","3","12B,20B,23B,27C,29C","75","4","0","","","","","","","","","","","","","","","",""
"","","","","","html-keyboard-response","42","143983","0.0-17.0-2.8","aac2844d-7b66-416c-a659-bc5f1fe458a3","null","<p style=""text-align: center;"">+</p>","null","fixation","","","","","","","","","","","","","","","","","","","","","",""
"","","","","","html-slider-response","43","144986","0.0-17.0-0.9","aac2844d-7b66-416c-a659-bc5f1fe458a3","1000","
                  <p style=""text-align: center;"">₪79
                                                <br>65%</p>
                  <p id=""wtp"" style=""text-align:center; margin-top: 0px; margin-bottom: 0px; font-size: 40px"";>&ensp;</p>","-","viewing","0","31","8A","","","","","","","","","","","","","","","","","","",""
"","","","","","html-slider-response","44","148642","0.0-17.0-1.9","aac2844d-7b66-416c-a659-bc5f1fe458a3","3655","
                  <p style=""text-align: center;"">₪79
                                                <br>65%</p>
                  <p id=""wtp"" style=""text-align:center; margin-top: 0px; margin-bottom: 0px; font-size: 40px"";>מוכנים לשלם: <span id=""c_p_y""></span></p>","24","evaluation","74","31","8A","65","79","24","","","","","","","","","","","","","","","",""
"","","","","","html-keyboard-response","45","149809","0.0-17.0-2.9","aac2844d-7b66-416c-a659-bc5f1fe458a3","null","<p style=""text-align: center;"">+</p>","null","fixation","","","","","","","","","","","","","","","","","","","","","",""
"","","","","","html-slider-response","46","150814","0.0-17.0-0.10","aac2844d-7b66-416c-a659-bc5f1fe458a3","1000","
                  <p style=""text-align: center;"">₪39
                                                <br>60%</p>
                  <p id=""wtp"" style=""text-align:center; margin-top: 0px; margin-bottom: 0px; font-size: 40px"";>&ensp;</p>","-","viewing","0","15","9C,25B","","","","","","","","","","","","","","","","","","",""
"","","","","","html-slider-response","47","152610","0.0-17.0-1.10","aac2844d-7b66-416c-a659-bc5f1fe458a3","1794","
                  <p style=""text-align: center;"">₪39
                                                <br>60%</p>
                  <p id=""wtp"" style=""text-align:center; margin-top: 0px; margin-bottom: 0px; font-size: 40px"";>מוכנים לשלם: <span id=""c_p_y""></span></p>","7","evaluation","79","15","9C,25B","60","39","7","","","","","","","","","","","","","","","",""
"","","","","","html-keyboard-response","48","153887","0.0-17.0-2.10","aac2844d-7b66-416c-a659-bc5f1fe458a3","null","<p style=""text-align: center;"">+</p>","null","fixation","","","","","","","","","","","","","","","","","","","","","",""
"","","","","","html-slider-response","49","154889","0.0-17.0-0.11","aac2844d-7b66-416c-a659-bc5f1fe458a3","1000","
                  <p style=""text-align: center;"">₪58
                                                <br>45%</p>
                  <p id=""wtp"" style=""text-align:center; margin-top: 0px; margin-bottom: 0px; font-size: 40px"";>&ensp;</p>","-","viewing","0","21","11C,18C,25A","","","","","","","","","","","","","","","","","","",""
"","","","","","html-slider-response","50","156898","0.0-17.0-1.11","aac2844d-7b66-416c-a659-bc5f1fe458a3","2007","
                  <p style=""text-align: center;"">₪58
                                                <br>45%</p>
                  <p id=""wtp"" style=""text-align:center; margin-top: 0px; margin-bottom: 0px; font-size: 40px"";>מוכנים לשלם: <span id=""c_p_y""></span></p>","8","evaluation","25","21","11C,18C,25A","45","58","8","","","","","","","","","","","","","","","",""
"","","","","","html-keyboard-response","51","157413","0.0-17.0-2.11","aac2844d-7b66-416c-a659-bc5f1fe458a3","null","<p style=""text-align: center;"">+</p>","null","fixation","","","","","","","","","","","","","","","","","","","","","",""
"","","","","","html-slider-response","52","158430","0.0-17.0-0.12","aac2844d-7b66-416c-a659-bc5f1fe458a3","1000","
                  <p style=""text-align: center;"">₪36
                                                <br>75%</p>
                  <p id=""wtp"" style=""text-align:center; margin-top: 0px; margin-bottom: 0px; font-size: 40px"";>&ensp;</p>","-","viewing","0","14","4B,5A,13B,16B","","","","","","","","","","","","","","","","","","",""
"","","","","","html-slider-response","53","161010","0.0-17.0-1.12","aac2844d-7b66-416c-a659-bc5f1fe458a3","2579","
                  <p style=""text-align: center;"">₪36
                                                <br>75%</p>
                  <p id=""wtp"" style=""text-align:center; margin-top: 0px; margin-bottom: 0px; font-size: 40px"";>מוכנים לשלם: <span id=""c_p_y""></span></p>","27","evaluation","36","14","4B,5A,13B,16B","75","36","27","","","","","","","","","","","","","","","",""
"","","","","","html-keyboard-response","54","161855","0.0-17.0-2.12","aac2844d-7b66-416c-a659-bc5f1fe458a3","null","<p style=""text-align: center;"">+</p>","null","fixation","","","","","","","","","","","","","","","","","","","","","",""
"","","","","","html-slider-response","55","162859","0.0-17.0-0.13","aac2844d-7b66-416c-a659-bc5f1fe458a3","1000","
                  <p style=""text-align: center;"">₪61
                                                <br>45%</p>
                  <p id=""wtp"" style=""text-align:center; margin-top: 0px; margin-bottom: 0px; font-size: 40px"";>&ensp;</p>","-","viewing","0","22","10A,11A","","","","","","","","","","","","","","","","","","",""
"","","","","","html-slider-response","56","166026","0.0-17.0-1.13","aac2844d-7b66-416c-a659-bc5f1fe458a3","3165","
                  <p style=""text-align: center;"">₪61
                                                <br>45%</p>
                  <p id=""wtp"" style=""text-align:center; margin-top: 0px; margin-bottom: 0px; font-size: 40px"";>מוכנים לשלם: <span id=""c_p_y""></span></p>","14","evaluation","62","22","10A,11A","45","61","14","","","","","","","","","","","","","","","",""
"","","","","","html-keyboard-response","57","166610","0.0-17.0-2.13","aac2844d-7b66-416c-a659-bc5f1fe458a3","null","<p style=""text-align: center;"">+</p>","null","fixation","","","","","","","","","","","","","","","","","","","","","",""
"","","","","","html-slider-response","58","167626","0.0-17.0-0.14","aac2844d-7b66-416c-a659-bc5f1fe458a3","1000","
                  <p style=""text-align: center;"">₪58
                                                <br>30%</p>
                  <p id=""wtp"" style=""text-align:center; margin-top: 0px; margin-bottom: 0px; font-size: 40px"";>&ensp;</p>","-","viewing","0","19","13C,30A","","","","","","","","","","","","","","","","","","",""
"","","","","","html-slider-response","59","169954","0.0-17.0-1.14","aac2844d-7b66-416c-a659-bc5f1fe458a3","2326","
                  <p style=""text-align: center;"">₪58
                                                <br>30%</p>
                  <p id=""wtp"" style=""text-align:center; margin-top: 0px; margin-bottom: 0px; font-size: 40px"";>מוכנים לשלם: <span id=""c_p_y""></span></p>","2","evaluation","61","19","13C,30A","30","58","2","","","","","","","","","","","","","","","",""
"","","","","","html-keyboard-response","60","171165","0.0-17.0-2.14","aac2844d-7b66-416c-a659-bc5f1fe458a3","null","<p style=""text-align: center;"">+</p>","null","fixation","","","","","","","","","","","","","","","","","","","","","",""
"","","","","","html-slider-response","61","172171","0.0-17.0-0.15","aac2844d-7b66-416c-a659-bc5f1fe458a3","1000","
                  <p style=""text-align: center;"">₪4
                                                <br>50%</p>
                  <p id=""wtp"" style=""text-align:center; margin-top: 0px; margin-bottom: 0px; font-size: 40px"";>&ensp;</p>","-","viewing","0","2","4C,17B","","","","","","","","","","","","","","","","","","",""
"","","","","","html-slider-response","62","173138","0.0-17.0-1.15","aac2844d-7b66-416c-a659-bc5f1fe458a3","966","
                  <p style=""text-align: center;"">₪4
                                                <br>50%</p>
                  <p id=""wtp"" style=""text-align:center; margin-top: 0px; margin-bottom: 0px; font-size: 40px"";>מוכנים לשלם: <span id=""c_p_y""></span></p>","0","evaluation","43","2","4C,17B","50","4","0","","","","","","","","","","","","","","","",""
"","","","","","html-keyboard-response","63","173694","0.0-17.0-2.15","aac2844d-7b66-416c-a659-bc5f1fe458a3","null","<p style=""text-align: center;"">+</p>","null","fixation","","","","","","","","","","","","","","","","","","","","","",""
"","","","","","html-slider-response","64","174696","0.0-17.0-0.16","aac2844d-7b66-416c-a659-bc5f1fe458a3","1000","
                  <p style=""text-align: center;"">₪71
                                                <br>75%</p>
                  <p id=""wtp"" style=""text-align:center; margin-top: 0px; margin-bottom: 0px; font-size: 40px"";>&ensp;</p>","-","viewing","0","28","8B","","","","","","","","","","","","","","","","","","",""
"","","","","","html-slider-response","65","176818","0.0-17.0-1.16","aac2844d-7b66-416c-a659-bc5f1fe458a3","2121","
                  <p style=""text-align: center;"">₪71
                                                <br>75%</p>
                  <p id=""wtp"" style=""text-align:center; margin-top: 0px; margin-bottom: 0px; font-size: 40px"";>מוכנים לשלם: <span id=""c_p_y""></span></p>","13","evaluation","69","28","8B","75","71","13","","","","","","","","","","","","","","","",""
"","","","","","html-keyboard-response","66","178319","0.0-17.0-2.16","aac2844d-7b66-416c-a659-bc5f1fe458a3","null","<p style=""text-align: center;"">+</p>","null","fixation","","","","","","","","","","","","","","","","","","","","","",""
"","","","","","html-slider-response","67","179328","0.0-17.0-0.17","aac2844d-7b66-416c-a659-bc5f1fe458a3","1000","
                  <p style=""text-align: center;"">₪36
                                                <br>30%</p>
                  <p id=""wtp"" style=""text-align:center; margin-top: 0px; margin-bottom: 0px; font-size: 40px"";>&ensp;</p>","-","viewing","0","11","3C,20A,22A","","","","","","","","","","","","","","","","","","",""
"","","","","","html-slider-response","68","180706","0.0-17.0-1.17","aac2844d-7b66-416c-a659-bc5f1fe458a3","1377","
                  <p style=""text-align: center;"">₪36
                                                <br>30%</p>
                  <p id=""wtp"" style=""text-align:center; margin-top: 0px; margin-bottom: 0px; font-size: 40px"";>מוכנים לשלם: <span id=""c_p_y""></span></p>","5","evaluation","9","11","3C,20A,22A","30","36","5","","","","","","","","","","","","","","","",""
"","","","","","html-keyboard-response","69","181839","0.0-17.0-2.17","aac2844d-7b66-416c-a659-bc5f1fe458a3","null","<p style=""text-align: center;"">+</p>","null","fixation","","","","","","","","","","","","","","","","","","","","","",""
"","","","","","html-slider-response","70","182853","0.0-17.0-0.18","aac2844d-7b66-416c-a659-bc5f1fe458a3","1000","
                  <p style=""text-align: center;"">₪4
                                                <br>25%</p>
                  <p id=""wtp"" style=""text-align:center; margin-top: 0px; margin-bottom: 0px; font-size: 40px"";>&ensp;</p>","-","viewing","0","1","6C,29B,30C","","","","","","","","","","","","","","","","","","",""
"","","","","","html-slider-response","71","184811","0.0-17.0-1.18","aac2844d-7b66-416c-a659-bc5f1fe458a3","1957","
                  <p style=""text-align: center;"">₪4
                                                <br>25%</p>
                  <p id=""wtp"" style=""text-align:center; margin-top: 0px; margin-bottom: 0px; font-size: 40px"";>מוכנים לשלם: <span id=""c_p_y""></span></p>","2","evaluation","77","1","6C,29B,30C","25","4","2","","","","","","","","","","","","","","","",""
"","","","","","html-keyboard-response","72","185907","0.0-17.0-2.18","aac2844d-7b66-416c-a659-bc5f1fe458a3","null","<p style=""text-align: center;"">+</p>","null","fixation","","","","","","","","","","","","","","","","","","","","","",""
"","","","","","html-slider-response","73","186914","0.0-17.0-0.19","aac2844d-7b66-416c-a659-bc5f1fe458a3","1000","
                  <p style=""text-align: center;"">₪11
                                                <br>20%</p>
                  <p id=""wtp"" style=""text-align:center; margin-top: 0px; margin-bottom: 0px; font-size: 40px"";>&ensp;</p>","-","viewing","0","4","12C,17C,23C,28C","","","","","","","","","","","","","","","","","","",""
"","","","","","html-slider-response","74","188899","0.0-17.0-1.19","aac2844d-7b66-416c-a659-bc5f1fe458a3","1984","
                  <p style=""text-align: center;"">₪11
                                                <br>20%</p>
                  <p id=""wtp"" style=""text-align:center; margin-top: 0px; margin-bottom: 0px; font-size: 40px"";>מוכנים לשלם: <span id=""c_p_y""></span></p>","2","evaluation","60","4","12C,17C,23C,28C","20","11","2","","","","","","","","","","","","","","","",""
"","","","","","html-keyboard-response","75","190127","0.0-17.0-2.19","aac2844d-7b66-416c-a659-bc5f1fe458a3","null","<p style=""text-align: center;"">+</p>","null","fixation","","","","","","","","","","","","","","","","","","","","","",""
"","","","","","html-slider-response","76","191132","0.0-17.0-0.20","aac2844d-7b66-416c-a659-bc5f1fe458a3","1000","
                  <p style=""text-align: center;"">₪64
                                                <br>50%</p>
                  <p id=""wtp"" style=""text-align:center; margin-top: 0px; margin-bottom: 0px; font-size: 40px"";>&ensp;</p>","-","viewing","0","25","1B,3B,4A","","","","","","","","","","","","","","","","","","",""
"","","","","","html-slider-response","77","192419","0.0-17.0-1.20","aac2844d-7b66-416c-a659-bc5f1fe458a3","1286","
                  <p style=""text-align: center;"">₪64
                                                <br>50%</p>
                  <p id=""wtp"" style=""text-align:center; margin-top: 0px; margin-bottom: 0px; font-size: 40px"";>מוכנים לשלם: <span id=""c_p_y""></span></p>","6","evaluation","76","25","1B,3B,4A","50","64","6","","","","","","","","","","","","","","","",""
"","","","","","html-keyboard-response","78","193852","0.0-17.0-2.20","aac2844d-7b66-416c-a659-bc5f1fe458a3","null","<p style=""text-align: center;"">+</p>","null","fixation","","","","","","","","","","","","","","","","","","","","","",""
"","","","","","html-slider-response","79","194854","0.0-17.0-0.21","aac2844d-7b66-416c-a659-bc5f1fe458a3","1000","
                  <p style=""text-align: center;"">₪39
                                                <br>65%</p>
                  <p id=""wtp"" style=""text-align:center; margin-top: 0px; margin-bottom: 0px; font-size: 40px"";>&ensp;</p>","-","viewing","0","16","1A,15A,26C","","","","","","","","","","","","","","","","","","",""
"","","","","","html-slider-response","80","197003","0.0-17.0-1.21","aac2844d-7b66-416c-a659-bc5f1fe458a3","2148","
                  <p style=""text-align: center;"">₪39
                                                <br>65%</p>
                  <p id=""wtp"" style=""text-align:center; margin-top: 0px; margin-bottom: 0px; font-size: 40px"";>מוכנים לשלם: <span id=""c_p_y""></span></p>","14","evaluation","40","16","1A,15A,26C","65","39","14","","","","","","","","","","","","","","","",""
"","","","","","html-keyboard-response","81","197747","0.0-17.0-2.21","aac2844d-7b66-416c-a659-bc5f1fe458a3","null","<p style=""text-align: center;"">+</p>","null","fixation","","","","","","","","","","","","","","","","","","","","","",""
"","","","","","html-slider-response","82","198758","0.0-17.0-0.22","aac2844d-7b66-416c-a659-bc5f1fe458a3","1000","
                  <p style=""text-align: center;"">₪11
                                                <br>75%</p>
                  <p id=""wtp"" style=""text-align:center; margin-top: 0px; margin-bottom: 0px; font-size: 40px"";>&ensp;</p>","-","viewing","0","7","6B,18B,22C,24C,29A","","","","","","","","","","","","","","","","","","",""
"","","","","","html-slider-response","83","202761","0.0-17.0-1.22","aac2844d-7b66-416c-a659-bc5f1fe458a3","null","
                  <p style=""text-align: center;"">₪11
                                                <br>75%</p>
                  <p id=""wtp"" style=""text-align:center; margin-top: 0px; margin-bottom: 0px; font-size: 40px"";>מוכנים לשלם: <span id=""c_p_y""></span></p>","null","evaluation","15","7","6B,18B,22C,24C,29A","75","11","0","","","","","","","","","","","","","","","",""
"","","","","","html-keyboard-response","84","203373","0.0-17.0-2.22","aac2844d-7b66-416c-a659-bc5f1fe458a3","null","<p style=""text-align: center;"">+</p>","null","fixation","","","","","","","","","","","","","","","","","","","","","",""
"","","","","","html-slider-response","85","204380","0.0-17.0-0.23","aac2844d-7b66-416c-a659-bc5f1fe458a3","1000","
                  <p style=""text-align: center;"">₪18
                                                <br>50%</p>
                  <p id=""wtp"" style=""text-align:center; margin-top: 0px; margin-bottom: 0px; font-size: 40px"";>&ensp;</p>","-","viewing","0","10","2C,16C,22B,28A","","","","","","","","","","","","","","","","","","",""
"","","","","","html-slider-response","86","205747","0.0-17.0-1.23","aac2844d-7b66-416c-a659-bc5f1fe458a3","1366","
                  <p style=""text-align: center;"">₪18
                                                <br>50%</p>
                  <p id=""wtp"" style=""text-align:center; margin-top: 0px; margin-bottom: 0px; font-size: 40px"";>מוכנים לשלם: <span id=""c_p_y""></span></p>","3","evaluation","28","10","2C,16C,22B,28A","50","18","3","","","","","","","","","","","","","","","",""
"","","","","","html-keyboard-response","87","206592","0.0-17.0-2.23","aac2844d-7b66-416c-a659-bc5f1fe458a3","null","<p style=""text-align: center;"">+</p>","null","fixation","","","","","","","","","","","","","","","","","","","","","",""
"","","","","","html-slider-response","88","207594","0.0-17.0-0.24","aac2844d-7b66-416c-a659-bc5f1fe458a3","1000","
                  <p style=""text-align: center;"">₪79
                                                <br>40%</p>
                  <p id=""wtp"" style=""text-align:center; margin-top: 0px; margin-bottom: 0px; font-size: 40px"";>&ensp;</p>","-","viewing","0","30","9B","","","","","","","","","","","","","","","","","","",""
"","","","","","html-slider-response","89","209115","0.0-17.0-1.24","aac2844d-7b66-416c-a659-bc5f1fe458a3","1519","
                  <p style=""text-align: center;"">₪79
                                                <br>40%</p>
                  <p id=""wtp"" style=""text-align:center; margin-top: 0px; margin-bottom: 0px; font-size: 40px"";>מוכנים לשלם: <span id=""c_p_y""></span></p>","1","evaluation","57","30","9B","40","79","1","","","","","","","","","","","","","","","",""
"","","","","","html-keyboard-response","90","210171","0.0-17.0-2.24","aac2844d-7b66-416c-a659-bc5f1fe458a3","null","<p style=""text-align: center;"">+</p>","null","fixation","","","","","","","","","","","","","","","","","","","","","",""
"","","","","","html-slider-response","91","211175","0.0-17.0-0.25","aac2844d-7b66-416c-a659-bc5f1fe458a3","1000","
                  <p style=""text-align: center;"">₪43
                                                <br>60%</p>
                  <p id=""wtp"" style=""text-align:center; margin-top: 0px; margin-bottom: 0px; font-size: 40px"";>&ensp;</p>","-","viewing","0","17","2A,7A,9A,15B","","","","","","","","","","","","","","","","","","",""
"","","","","","html-slider-response","92","212395","0.0-17.0-1.25","aac2844d-7b66-416c-a659-bc5f1fe458a3","1219","
                  <p style=""text-align: center;"">₪43
                                                <br>60%</p>
                  <p id=""wtp"" style=""text-align:center; margin-top: 0px; margin-bottom: 0px; font-size: 40px"";>מוכנים לשלם: <span id=""c_p_y""></span></p>","8","evaluation","17","17","2A,7A,9A,15B","60","43","8","","","","","","","","","","","","","","","",""
"","","","","","html-keyboard-response","93","212999","0.0-17.0-2.25","aac2844d-7b66-416c-a659-bc5f1fe458a3","null","<p style=""text-align: center;"">+</p>","null","fixation","","","","","","","","","","","","","","","","","","","","","",""
"","","","","","html-slider-response","94","214012","0.0-17.0-0.26","aac2844d-7b66-416c-a659-bc5f1fe458a3","1000","
                  <p style=""text-align: center;"">₪11
                                                <br>25%</p>
                  <p id=""wtp"" style=""text-align:center; margin-top: 0px; margin-bottom: 0px; font-size: 40px"";>&ensp;</p>","-","viewing","0","5","12A,27B,28B,30B","","","","","","","","","","","","","","","","","","",""
"","","","","","html-slider-response","95","215907","0.0-17.0-1.26","aac2844d-7b66-416c-a659-bc5f1fe458a3","1894","
                  <p style=""text-align: center;"">₪11
                                                <br>25%</p>
                  <p id=""wtp"" style=""text-align:center; margin-top: 0px; margin-bottom: 0px; font-size: 40px"";>מוכנים לשלם: <span id=""c_p_y""></span></p>","0","evaluation","10","5","12A,27B,28B,30B","25","11","0","","","","","","","","","","","","","","","",""
"","","","","","html-keyboard-response","96","216849","0.0-17.0-2.26","aac2844d-7b66-416c-a659-bc5f1fe458a3","null","<p style=""text-align: center;"">+</p>","null","fixation","","","","","","","","","","","","","","","","","","","","","",""
"","","","","","html-slider-response","97","217866","0.0-17.0-0.27","aac2844d-7b66-416c-a659-bc5f1fe458a3","1000","
                  <p style=""text-align: center;"">₪43
                                                <br>75%</p>
                  <p id=""wtp"" style=""text-align:center; margin-top: 0px; margin-bottom: 0px; font-size: 40px"";>&ensp;</p>","-","viewing","0","18","11B,19B,24A,26A","","","","","","","","","","","","","","","","","","",""
"","","","","","html-slider-response","98","220227","0.0-17.0-1.27","aac2844d-7b66-416c-a659-bc5f1fe458a3","2359","
                  <p style=""text-align: center;"">₪43
                                                <br>75%</p>
                  <p id=""wtp"" style=""text-align:center; margin-top: 0px; margin-bottom: 0px; font-size: 40px"";>מוכנים לשלם: <span id=""c_p_y""></span></p>","5","evaluation","73","18","11B,19B,24A,26A","75","43","5","","","","","","","","","","","","","","","",""
"","","","","","html-keyboard-response","99","220826","0.0-17.0-2.27","aac2844d-7b66-416c-a659-bc5f1fe458a3","null","<p style=""text-align: center;"">+</p>","null","fixation","","","","","","","","","","","","","","","","","","","","","",""
"","","","","","html-slider-response","100","221836","0.0-17.0-0.28","aac2844d-7b66-416c-a659-bc5f1fe458a3","1000","
                  <p style=""text-align: center;"">₪58
                                                <br>40%</p>
                  <p id=""wtp"" style=""text-align:center; margin-top: 0px; margin-bottom: 0px; font-size: 40px"";>&ensp;</p>","-","viewing","0","20","10C,13A,19C,21B","","","","","","","","","","","","","","","","","","",""
"","","","","","html-slider-response","101","223299","0.0-17.0-1.28","aac2844d-7b66-416c-a659-bc5f1fe458a3","1461","
                  <p style=""text-align: center;"">₪58
                                                <br>40%</p>
                  <p id=""wtp"" style=""text-align:center; margin-top: 0px; margin-bottom: 0px; font-size: 40px"";>מוכנים לשלם: <span id=""c_p_y""></span></p>","3","evaluation","58","20","10C,13A,19C,21B","40","58","3","","","","","","","","","","","","","","","",""
"","","","","","html-keyboard-response","102","224002","0.0-17.0-2.28","aac2844d-7b66-416c-a659-bc5f1fe458a3","null","<p style=""text-align: center;"">+</p>","null","fixation","","","","","","","","","","","","","","","","","","","","","",""
"","","","","","html-slider-response","103","225006","0.0-17.0-0.29","aac2844d-7b66-416c-a659-bc5f1fe458a3","1000","
                  <p style=""text-align: center;"">₪64
                                                <br>25%</p>
                  <p id=""wtp"" style=""text-align:center; margin-top: 0px; margin-bottom: 0px; font-size: 40px"";>&ensp;</p>","-","viewing","0","24","6A,21A","","","","","","","","","","","","","","","","","","",""
"","","","","","html-slider-response","104","226427","0.0-17.0-1.29","aac2844d-7b66-416c-a659-bc5f1fe458a3","1419","
                  <p style=""text-align: center;"">₪64
                                                <br>25%</p>
                  <p id=""wtp"" style=""text-align:center; margin-top: 0px; margin-bottom: 0px; font-size: 40px"";>מוכנים לשלם: <span id=""c_p_y""></span></p>","2","evaluation","19","24","6A,21A","25","64","2","","","","","","","","","","","","","","","",""
"","","","","","html-keyboard-response","105","227105","0.0-17.0-2.29","aac2844d-7b66-416c-a659-bc5f1fe458a3","null","<p style=""text-align: center;"">+</p>","null","fixation","","","","","","","","","","","","","","","","","","","","","",""
"","","","","","html-slider-response","106","228108","0.0-17.0-0.30","aac2844d-7b66-416c-a659-bc5f1fe458a3","1000","
                  <p style=""text-align: center;"">₪76
                                                <br>65%</p>
                  <p id=""wtp"" style=""text-align:center; margin-top: 0px; margin-bottom: 0px; font-size: 40px"";>&ensp;</p>","-","viewing","0","29","8C,19A,24B","","","","","","","","","","","","","","","","","","",""
"","","","","","html-slider-response","107","230251","0.0-17.0-1.30","aac2844d-7b66-416c-a659-bc5f1fe458a3","2142","
                  <p style=""text-align: center;"">₪76
                                                <br>65%</p>
                  <p id=""wtp"" style=""text-align:center; margin-top: 0px; margin-bottom: 0px; font-size: 40px"";>מוכנים לשלם: <span id=""c_p_y""></span></p>","15","evaluation","80","29","8C,19A,24B","65","76","15","","","","","","","","","","","","","","","",""
"","","","","","html-keyboard-response","108","231146","0.0-17.0-2.30","aac2844d-7b66-416c-a659-bc5f1fe458a3","null","<p style=""text-align: center;"">+</p>","null","fixation","","","","","","","","","","","","","","","","","","","","","",""
"","","","","","html-keyboard-response","109","232155","0.0-18.0","aac2844d-7b66-416c-a659-bc5f1fe458a3","null","<p style=""text-align: center;"">+</p>","null","fixation","","","","","","","","","","","","","","","","","","","","","",""
"","","","","","html-keyboard-response","110","234435","0.0-19.0","aac2844d-7b66-416c-a659-bc5f1fe458a3","null","<p>הפסקה.
          <br>לחצו כדי להמשיך.</p>","1","scan_wait","","","","","","","","","","","","","","","","","","","","","",""
"","","","","","html-keyboard-response","111","235449","0.0-20.0","aac2844d-7b66-416c-a659-bc5f1fe458a3","null","<p style=""text-align: center;"">+</p>","null","fixation","","","","","","","","","","","","","","","","","","","","","",""
"","","","","","html-slider-response","112","236452","0.0-21.0-0.0","aac2844d-7b66-416c-a659-bc5f1fe458a3","1000","
                  <p style=""text-align: center;"">₪36
                                                <br>60%</p>
                  <p id=""wtp"" style=""text-align:center; margin-top: 0px; margin-bottom: 0px; font-size: 40px"";>&ensp;</p>","-","viewing","0","12","1C,7C,15C","","","","","","","","","","","","","","","","","","",""
"","","","","","html-slider-response","113","237651","0.0-21.0-1.0","aac2844d-7b66-416c-a659-bc5f1fe458a3","1198","
                  <p style=""text-align: center;"">₪36
                                                <br>60%</p>
                  <p id=""wtp"" style=""text-align:center; margin-top: 0px; margin-bottom: 0px; font-size: 40px"";>מוכנים לשלם: <span id=""c_p_y""></span></p>","4","evaluation","2","12","1C,7C,15C","60","36","5","","","","","","","","","","","","","","","",""
"","","","","","html-keyboard-response","114","238985","0.0-21.0-2.0","aac2844d-7b66-416c-a659-bc5f1fe458a3","null","<p style=""text-align: center;"">+</p>","null","fixation","","","","","","","","","","","","","","","","","","","","","",""
"","","","","","html-slider-response","115","239987","0.0-21.0-0.1","aac2844d-7b66-416c-a659-bc5f1fe458a3","1000","
                  <p style=""text-align: center;"">₪36
                                                <br>70%</p>
                  <p id=""wtp"" style=""text-align:center; margin-top: 0px; margin-bottom: 0px; font-size: 40px"";>&ensp;</p>","-","viewing","0","13","3A,5C,10B","","","","","","","","","","","","","","","","","","",""
"","","","","","html-slider-response","116","241394","0.0-21.0-1.1","aac2844d-7b66-416c-a659-bc5f1fe458a3","1406","
                  <p style=""text-align: center;"">₪36
                                                <br>70%</p>
                  <p id=""wtp"" style=""text-align:center; margin-top: 0px; margin-bottom: 0px; font-size: 40px"";>מוכנים לשלם: <span id=""c_p_y""></span></p>","5","evaluation","24","13","3A,5C,10B","70","36","5","","","","","","","","","","","","","","","",""
"","","","","","html-keyboard-response","117","242257","0.0-21.0-2.1","aac2844d-7b66-416c-a659-bc5f1fe458a3","null","<p style=""text-align: center;"">+</p>","null","fixation","","","","","","","","","","","","","","","","","","","","","",""
"","","","","","html-slider-response","118","243265","0.0-21.0-0.2","aac2844d-7b66-416c-a659-bc5f1fe458a3","1000","
                  <p style=""text-align: center;"">₪61
                                                <br>45%</p>
                  <p id=""wtp"" style=""text-align:center; margin-top: 0px; margin-bottom: 0px; font-size: 40px"";>&ensp;</p>","-","viewing","0","22","10A,11A","","","","","","","","","","","","","","","","","","",""
"","","","","","html-slider-response","119","244651","0.0-21.0-1.2","aac2844d-7b66-416c-a659-bc5f1fe458a3","1384","
                  <p style=""text-align: center;"">₪61
                                                <br>45%</p>
                  <p id=""wtp"" style=""text-align:center; margin-top: 0px; margin-bottom: 0px; font-size: 40px"";>מוכנים לשלם: <span id=""c_p_y""></span></p>","11","evaluation","46","22","10A,11A","45","61","11","","","","","","","","","","","","","","","",""
"","","","","","html-keyboard-response","120","245344","0.0-21.0-2.2","aac2844d-7b66-416c-a659-bc5f1fe458a3","null","<p style=""text-align: center;"">+</p>","null","fixation","","","","","","","","","","","","","","","","","","","","","",""
"","","","","","html-slider-response","121","246350","0.0-21.0-0.3","aac2844d-7b66-416c-a659-bc5f1fe458a3","1000","
                  <p style=""text-align: center;"">₪43
                                                <br>60%</p>
                  <p id=""wtp"" style=""text-align:center; margin-top: 0px; margin-bottom: 0px; font-size: 40px"";>&ensp;</p>","-","viewing","0","17","2A,7A,9A,15B","","","","","","","","","","","","","","","","","","",""
"","","","","","html-slider-response","122","247915","0.0-21.0-1.3","aac2844d-7b66-416c-a659-bc5f1fe458a3","1563","
                  <p style=""text-align: center;"">₪43
                                                <br>60%</p>
                  <p id=""wtp"" style=""text-align:center; margin-top: 0px; margin-bottom: 0px; font-size: 40px"";>מוכנים לשלם: <span id=""c_p_y""></span></p>","10","evaluation","3","17","2A,7A,9A,15B","60","43","10","","","","","","","","","","","","","","","",""
"","","","","","html-keyboard-response","123","249086","0.0-21.0-2.3","aac2844d-7b66-416c-a659-bc5f1fe458a3","null","<p style=""text-align: center;"">+</p>","null","fixation","","","","","","","","","","","","","","","","","","","","","",""
"","","","","","html-slider-response","124","250091","0.0-21.0-0.4","aac2844d-7b66-416c-a659-bc5f1fe458a3","1000","
                  <p style=""text-align: center;"">₪79
                                                <br>40%</p>
                  <p id=""wtp"" style=""text-align:center; margin-top: 0px; margin-bottom: 0px; font-size: 40px"";>&ensp;</p>","-","viewing","0","30","9B","","","","","","","","","","","","","","","","","","",""
"","","","","","html-slider-response","125","251035","0.0-21.0-1.4","aac2844d-7b66-416c-a659-bc5f1fe458a3","943","
                  <p style=""text-align: center;"">₪79
                                                <br>40%</p>
                  <p id=""wtp"" style=""text-align:center; margin-top: 0px; margin-bottom: 0px; font-size: 40px"";>מוכנים לשלם: <span id=""c_p_y""></span></p>","5","evaluation","18","30","9B","40","79","5","","","","","","","","","","","","","","","",""
"","","","","","html-keyboard-response","126","251882","0.0-21.0-2.4","aac2844d-7b66-416c-a659-bc5f1fe458a3","null","<p style=""text-align: center;"">+</p>","null","fixation","","","","","","","","","","","","","","","","","","","","","",""
"","","","","","html-slider-response","127","252884","0.0-21.0-0.5","aac2844d-7b66-416c-a659-bc5f1fe458a3","1000","
                  <p style=""text-align: center;"">₪79
                                                <br>65%</p>
                  <p id=""wtp"" style=""text-align:center; margin-top: 0px; margin-bottom: 0px; font-size: 40px"";>&ensp;</p>","-","viewing","0","31","8A","","","","","","","","","","","","","","","","","","",""
"","","","","","html-slider-response","128","254531","0.0-21.0-1.5","aac2844d-7b66-416c-a659-bc5f1fe458a3","1646","
                  <p style=""text-align: center;"">₪79
                                                <br>65%</p>
                  <p id=""wtp"" style=""text-align:center; margin-top: 0px; margin-bottom: 0px; font-size: 40px"";>מוכנים לשלם: <span id=""c_p_y""></span></p>","17","evaluation","62","31","8A","65","79","17","","","","","","","","","","","","","","","",""
"","","","","","html-keyboard-response","129","255157","0.0-21.0-2.5","aac2844d-7b66-416c-a659-bc5f1fe458a3","null","<p style=""text-align: center;"">+</p>","null","fixation","","","","","","","","","","","","","","","","","","","","","",""
"","","","","","html-slider-response","130","256159","0.0-21.0-0.6","aac2844d-7b66-416c-a659-bc5f1fe458a3","1000","
                  <p style=""text-align: center;"">₪58
                                                <br>30%</p>
                  <p id=""wtp"" style=""text-align:center; margin-top: 0px; margin-bottom: 0px; font-size: 40px"";>&ensp;</p>","-","viewing","0","19","13C,30A","","","","","","","","","","","","","","","","","","",""
"","","","","","html-slider-response","131","257835","0.0-21.0-1.6","aac2844d-7b66-416c-a659-bc5f1fe458a3","1675","
                  <p style=""text-align: center;"">₪58
                                                <br>30%</p>
                  <p id=""wtp"" style=""text-align:center; margin-top: 0px; margin-bottom: 0px; font-size: 40px"";>מוכנים לשלם: <span id=""c_p_y""></span></p>","5","evaluation","6","19","13C,30A","30","58","5","","","","","","","","","","","","","","","",""
"","","","","","html-keyboard-response","132","258563","0.0-21.0-2.6","aac2844d-7b66-416c-a659-bc5f1fe458a3","null","<p style=""text-align: center;"">+</p>","null","fixation","","","","","","","","","","","","","","","","","","","","","",""
"","","","","","html-slider-response","133","259574","0.0-21.0-0.7","aac2844d-7b66-416c-a659-bc5f1fe458a3","1000","
                  <p style=""text-align: center;"">₪71
                                                <br>45%</p>
                  <p id=""wtp"" style=""text-align:center; margin-top: 0px; margin-bottom: 0px; font-size: 40px"";>&ensp;</p>","-","viewing","0","26","2B,16A","","","","","","","","","","","","","","","","","","",""
"","","","","","html-slider-response","134","262547","0.0-21.0-1.7","aac2844d-7b66-416c-a659-bc5f1fe458a3","2972","
                  <p style=""text-align: center;"">₪71
                                                <br>45%</p>
                  <p id=""wtp"" style=""text-align:center; margin-top: 0px; margin-bottom: 0px; font-size: 40px"";>מוכנים לשלם: <span id=""c_p_y""></span></p>","9","evaluation","79","26","2B,16A","45","71","9","","","","","","","","","","","","","","","",""
"","","","","","html-keyboard-response","135","263679","0.0-21.0-2.7","aac2844d-7b66-416c-a659-bc5f1fe458a3","null","<p style=""text-align: center;"">+</p>","null","fixation","","","","","","","","","","","","","","","","","","","","","",""
"","","","","","html-slider-response","136","264695","0.0-21.0-0.8","aac2844d-7b66-416c-a659-bc5f1fe458a3","1000","
                  <p style=""text-align: center;"">₪4
                                                <br>75%</p>
                  <p id=""wtp"" style=""text-align:center; margin-top: 0px; margin-bottom: 0px; font-size: 40px"";>&ensp;</p>","-","viewing","0","3","12B,20B,23B,27C,29C","","","","","","","","","","","","","","","","","","",""
"","","","","","html-slider-response","137","265731","0.0-21.0-1.8","aac2844d-7b66-416c-a659-bc5f1fe458a3","1033","
                  <p style=""text-align: center;"">₪4
                                                <br>75%</p>
                  <p id=""wtp"" style=""text-align:center; margin-top: 0px; margin-bottom: 0px; font-size: 40px"";>מוכנים לשלם: <span id=""c_p_y""></span></p>","0","evaluation","74","3","12B,20B,23B,27C,29C","75","4","0","","","","","","","","","","","","","","","",""
"","","","","","html-keyboard-response","138","266540","0.0-21.0-2.8","aac2844d-7b66-416c-a659-bc5f1fe458a3","null","<p style=""text-align: center;"">+</p>","null","fixation","","","","","","","","","","","","","","","","","","","","","",""
"","","","","","html-slider-response","139","267542","0.0-21.0-0.9","aac2844d-7b66-416c-a659-bc5f1fe458a3","1000","
                  <p style=""text-align: center;"">₪36
                                                <br>30%</p>
                  <p id=""wtp"" style=""text-align:center; margin-top: 0px; margin-bottom: 0px; font-size: 40px"";>&ensp;</p>","-","viewing","0","11","3C,20A,22A","","","","","","","","","","","","","","","","","","",""
"","","","","","html-slider-response","140","268211","0.0-21.0-1.9","aac2844d-7b66-416c-a659-bc5f1fe458a3","668","
                  <p style=""text-align: center;"">₪36
                                                <br>30%</p>
                  <p id=""wtp"" style=""text-align:center; margin-top: 0px; margin-bottom: 0px; font-size: 40px"";>מוכנים לשלם: <span id=""c_p_y""></span></p>","3","evaluation","67","11","3C,20A,22A","30","36","3","","","","","","","","","","","","","","","",""
"","","","","","html-keyboard-response","141","269065","0.0-21.0-2.9","aac2844d-7b66-416c-a659-bc5f1fe458a3","null","<p style=""text-align: center;"">+</p>","null","fixation","","","","","","","","","","","","","","","","","","","","","",""
"","","","","","html-slider-response","142","270081","0.0-21.0-0.10","aac2844d-7b66-416c-a659-bc5f1fe458a3","1000","
                  <p style=""text-align: center;"">₪39
                                                <br>60%</p>
                  <p id=""wtp"" style=""text-align:center; margin-top: 0px; margin-bottom: 0px; font-size: 40px"";>&ensp;</p>","-","viewing","0","15","9C,25B","","","","","","","","","","","","","","","","","","",""
"","","","","","html-slider-response","143","272027","0.0-21.0-1.10","aac2844d-7b66-416c-a659-bc5f1fe458a3","1944","
                  <p style=""text-align: center;"">₪39
                                                <br>60%</p>
                  <p id=""wtp"" style=""text-align:center; margin-top: 0px; margin-bottom: 0px; font-size: 40px"";>מוכנים לשלם: <span id=""c_p_y""></span></p>","5","evaluation","8","15","9C,25B","60","39","5","","","","","","","","","","","","","","","",""
"","","","","","html-keyboard-response","144","273063","0.0-21.0-2.10","aac2844d-7b66-416c-a659-bc5f1fe458a3","null","<p style=""text-align: center;"">+</p>","null","fixation","","","","","","","","","","","","","","","","","","","","","",""
"","","","","","html-slider-response","145","274071","0.0-21.0-0.11","aac2844d-7b66-416c-a659-bc5f1fe458a3","1000","
                  <p style=""text-align: center;"">₪11
                                                <br>45%</p>
                  <p id=""wtp"" style=""text-align:center; margin-top: 0px; margin-bottom: 0px; font-size: 40px"";>&ensp;</p>","-","viewing","0","6","14B,21C,25C","","","","","","","","","","","","","","","","","","",""
"","","","","","html-slider-response","146","275083","0.0-21.0-1.11","aac2844d-7b66-416c-a659-bc5f1fe458a3","1010","
                  <p style=""text-align: center;"">₪11
                                                <br>45%</p>
                  <p id=""wtp"" style=""text-align:center; margin-top: 0px; margin-bottom: 0px; font-size: 40px"";>מוכנים לשלם: <span id=""c_p_y""></span></p>","3","evaluation","45","6","14B,21C,25C","45","11","3","","","","","","","","","","","","","","","",""
"","","","","","html-keyboard-response","147","275628","0.0-21.0-2.11","aac2844d-7b66-416c-a659-bc5f1fe458a3","null","<p style=""text-align: center;"">+</p>","null","fixation","","","","","","","","","","","","","","","","","","","","","",""
"","","","","","html-slider-response","148","276632","0.0-21.0-0.12","aac2844d-7b66-416c-a659-bc5f1fe458a3","1000","
                  <p style=""text-align: center;"">₪64
                                                <br>25%</p>
                  <p id=""wtp"" style=""text-align:center; margin-top: 0px; margin-bottom: 0px; font-size: 40px"";>&ensp;</p>","-","viewing","0","24","6A,21A","","","","","","","","","","","","","","","","","","",""
"","","","","","html-slider-response","149","278003","0.0-21.0-1.12","aac2844d-7b66-416c-a659-bc5f1fe458a3","1369","
                  <p style=""text-align: center;"">₪64
                                                <br>25%</p>
                  <p id=""wtp"" style=""text-align:center; margin-top: 0px; margin-bottom: 0px; font-size: 40px"";>מוכנים לשלם: <span id=""c_p_y""></span></p>","0","evaluation","47","24","6A,21A","25","64","0","","","","","","","","","","","","","","","",""
"","","","","","html-keyboard-response","150","278889","0.0-21.0-2.12","aac2844d-7b66-416c-a659-bc5f1fe458a3","null","<p style=""text-align: center;"">+</p>","null","fixation","","","","","","","","","","","","","","","","","","","","","",""
"","","","","","html-slider-response","151","279902","0.0-21.0-0.13","aac2844d-7b66-416c-a659-bc5f1fe458a3","1000","
                  <p style=""text-align: center;"">₪18
                                                <br>50%</p>
                  <p id=""wtp"" style=""text-align:center; margin-top: 0px; margin-bottom: 0px; font-size: 40px"";>&ensp;</p>","-","viewing","0","10","2C,16C,22B,28A","","","","","","","","","","","","","","","","","","",""
"","","","","","html-slider-response","152","281699","0.0-21.0-1.13","aac2844d-7b66-416c-a659-bc5f1fe458a3","1796","
                  <p style=""text-align: center;"">₪18
                                                <br>50%</p>
                  <p id=""wtp"" style=""text-align:center; margin-top: 0px; margin-bottom: 0px; font-size: 40px"";>מוכנים לשלם: <span id=""c_p_y""></span></p>","2","evaluation","70","10","2C,16C,22B,28A","50","18","2","","","","","","","","","","","","","","","",""
"","","","","","html-keyboard-response","153","283020","0.0-21.0-2.13","aac2844d-7b66-416c-a659-bc5f1fe458a3","null","<p style=""text-align: center;"">+</p>","null","fixation","","","","","","","","","","","","","","","","","","","","","",""
"","","","","","html-slider-response","154","284035","0.0-21.0-0.14","aac2844d-7b66-416c-a659-bc5f1fe458a3","1000","
                  <p style=""text-align: center;"">₪43
                                                <br>75%</p>
                  <p id=""wtp"" style=""text-align:center; margin-top: 0px; margin-bottom: 0px; font-size: 40px"";>&ensp;</p>","-","viewing","0","18","11B,19B,24A,26A","","","","","","","","","","","","","","","","","","",""
"","","","","","html-slider-response","155","286259","0.0-21.0-1.14","aac2844d-7b66-416c-a659-bc5f1fe458a3","2222","
                  <p style=""text-align: center;"">₪43
                                                <br>75%</p>
                  <p id=""wtp"" style=""text-align:center; margin-top: 0px; margin-bottom: 0px; font-size: 40px"";>מוכנים לשלם: <span id=""c_p_y""></span></p>","8","evaluation","19","18","11B,19B,24A,26A","75","43","8","","","","","","","","","","","","","","","",""
"","","","","","html-keyboard-response","156","287185","0.0-21.0-2.14","aac2844d-7b66-416c-a659-bc5f1fe458a3","null","<p style=""text-align: center;"">+</p>","null","fixation","","","","","","","","","","","","","","","","","","","","","",""
"","","","","","html-slider-response","157","288202","0.0-21.0-0.15","aac2844d-7b66-416c-a659-bc5f1fe458a3","1000","
                  <p style=""text-align: center;"">₪4
                                                <br>50%</p>
                  <p id=""wtp"" style=""text-align:center; margin-top: 0px; margin-bottom: 0px; font-size: 40px"";>&ensp;</p>","-","viewing","0","2","4C,17B","","","","","","","","","","","","","","","","","","",""
"","","","","","html-slider-response","158","290251","0.0-21.0-1.15","aac2844d-7b66-416c-a659-bc5f1fe458a3","2048","
                  <p style=""text-align: center;"">₪4
                                                <br>50%</p>
                  <p id=""wtp"" style=""text-align:center; margin-top: 0px; margin-bottom: 0px; font-size: 40px"";>מוכנים לשלם: <span id=""c_p_y""></span></p>","0","evaluation","8","2","4C,17B","50","4","0","","","","","","","","","","","","","","","",""
"","","","","","html-keyboard-response","159","291457","0.0-21.0-2.15","aac2844d-7b66-416c-a659-bc5f1fe458a3","null","<p style=""text-align: center;"">+</p>","null","fixation","","","","","","","","","","","","","","","","","","","","","",""
"","","","","","html-slider-response","160","292473","0.0-21.0-0.16","aac2844d-7b66-416c-a659-bc5f1fe458a3","1000","
                  <p style=""text-align: center;"">₪76
                                                <br>65%</p>
                  <p id=""wtp"" style=""text-align:center; margin-top: 0px; margin-bottom: 0px; font-size: 40px"";>&ensp;</p>","-","viewing","0","29","8C,19A,24B","","","","","","","","","","","","","","","","","","",""
"","","","","","html-slider-response","161","294131","0.0-21.0-1.16","aac2844d-7b66-416c-a659-bc5f1fe458a3","1657","
                  <p style=""text-align: center;"">₪76
                                                <br>65%</p>
                  <p id=""wtp"" style=""text-align:center; margin-top: 0px; margin-bottom: 0px; font-size: 40px"";>מוכנים לשלם: <span id=""c_p_y""></span></p>","17","evaluation","14","29","8C,19A,24B","65","76","17","","","","","","","","","","","","","","","",""
"","","","","","html-keyboard-response","162","295335","0.0-21.0-2.16","aac2844d-7b66-416c-a659-bc5f1fe458a3","null","<p style=""text-align: center;"">+</p>","null","fixation","","","","","","","","","","","","","","","","","","","","","",""
"","","","","","html-slider-response","163","296351","0.0-21.0-0.17","aac2844d-7b66-416c-a659-bc5f1fe458a3","1000","
                  <p style=""text-align: center;"">₪11
                                                <br>75%</p>
                  <p id=""wtp"" style=""text-align:center; margin-top: 0px; margin-bottom: 0px; font-size: 40px"";>&ensp;</p>","-","viewing","0","7","6B,18B,22C,24C,29A","","","","","","","","","","","","","","","","","","",""
"","","","","","html-slider-response","164","297691","0.0-21.0-1.17","aac2844d-7b66-416c-a659-bc5f1fe458a3","1339","
                  <p style=""text-align: center;"">₪11
                                                <br>75%</p>
                  <p id=""wtp"" style=""text-align:center; margin-top: 0px; margin-bottom: 0px; font-size: 40px"";>מוכנים לשלם: <span id=""c_p_y""></span></p>","1","evaluation","36","7","6B,18B,22C,24C,29A","75","11","1","","","","","","","","","","","","","","","",""
"","","","","","html-keyboard-response","165","298244","0.0-21.0-2.17","aac2844d-7b66-416c-a659-bc5f1fe458a3","null","<p style=""text-align: center;"">+</p>","null","fixation","","","","","","","","","","","","","","","","","","","","","",""
"","","","","","html-slider-response","166","299259","0.0-21.0-0.18","aac2844d-7b66-416c-a659-bc5f1fe458a3","1000","
                  <p style=""text-align: center;"">₪61
                                                <br>55%</p>
                  <p id=""wtp"" style=""text-align:center; margin-top: 0px; margin-bottom: 0px; font-size: 40px"";>&ensp;</p>","-","viewing","0","23","7B,26B","","","","","","","","","","","","","","","","","","",""
"","","","","","html-slider-response","167","300451","0.0-21.0-1.18","aac2844d-7b66-416c-a659-bc5f1fe458a3","1191","
                  <p style=""text-align: center;"">₪61
                                                <br>55%</p>
                  <p id=""wtp"" style=""text-align:center; margin-top: 0px; margin-bottom: 0px; font-size: 40px"";>מוכנים לשלם: <span id=""c_p_y""></span></p>","17","evaluation","72","23","7B,26B","55","61","17","","","","","","","","","","","","","","","",""
"","","","","","html-keyboard-response","168","301244","0.0-21.0-2.18","aac2844d-7b66-416c-a659-bc5f1fe458a3","null","<p style=""text-align: center;"">+</p>","null","fixation","","","","","","","","","","","","","","","","","","","","","",""
"","","","","","html-slider-response","169","302251","0.0-21.0-0.19","aac2844d-7b66-416c-a659-bc5f1fe458a3","1000","
                  <p style=""text-align: center;"">₪4
                                                <br>25%</p>
                  <p id=""wtp"" style=""text-align:center; margin-top: 0px; margin-bottom: 0px; font-size: 40px"";>&ensp;</p>","-","viewing","0","1","6C,29B,30C","","","","","","","","","","","","","","","","","","",""
"","","","","","html-slider-response","170","303106","0.0-21.0-1.19","aac2844d-7b66-416c-a659-bc5f1fe458a3","854","
                  <p style=""text-align: center;"">₪4
                                                <br>25%</p>
                  <p id=""wtp"" style=""text-align:center; margin-top: 0px; margin-bottom: 0px; font-size: 40px"";>מוכנים לשלם: <span id=""c_p_y""></span></p>","0","evaluation","80","1","6C,29B,30C","25","4","0","","","","","","","","","","","","","","","",""
"","","","","","html-keyboard-response","171","303994","0.0-21.0-2.19","aac2844d-7b66-416c-a659-bc5f1fe458a3","null","<p style=""text-align: center;"">+</p>","null","fixation","","","","","","","","","","","","","","","","","","","","","",""
"","","","","","html-slider-response","172","304998","0.0-21.0-0.20","aac2844d-7b66-416c-a659-bc5f1fe458a3","1000","
                  <p style=""text-align: center;"">₪39
                                                <br>65%</p>
                  <p id=""wtp"" style=""text-align:center; margin-top: 0px; margin-bottom: 0px; font-size: 40px"";>&ensp;</p>","-","viewing","0","16","1A,15A,26C","","","","","","","","","","","","","","","","","","",""
"","","","","","html-slider-response","173","307874","0.0-21.0-1.20","aac2844d-7b66-416c-a659-bc5f1fe458a3","2875","
                  <p style=""text-align: center;"">₪39
                                                <br>65%</p>
                  <p id=""wtp"" style=""text-align:center; margin-top: 0px; margin-bottom: 0px; font-size: 40px"";>מוכנים לשלם: <span id=""c_p_y""></span></p>","8","evaluation","59","16","1A,15A,26C","65","39","8","","","","","","","","","","","","","","","",""
"","","","","","html-keyboard-response","174","309039","0.0-21.0-2.20","aac2844d-7b66-416c-a659-bc5f1fe458a3","null","<p style=""text-align: center;"">+</p>","null","fixation","","","","","","","","","","","","","","","","","","","","","",""
"","","","","","html-slider-response","175","310056","0.0-21.0-0.21","aac2844d-7b66-416c-a659-bc5f1fe458a3","1000","
                  <p style=""text-align: center;"">₪58
                                                <br>40%</p>
                  <p id=""wtp"" style=""text-align:center; margin-top: 0px; margin-bottom: 0px; font-size: 40px"";>&ensp;</p>","-","viewing","0","20","10C,13A,19C,21B","","","","","","","","","","","","","","","","","","",""
"","","","","","html-slider-response","176","311931","0.0-21.0-1.21","aac2844d-7b66-416c-a659-bc5f1fe458a3","1874","
                  <p style=""text-align: center;"">₪58
                                                <br>40%</p>
                  <p id=""wtp"" style=""text-align:center; margin-top: 0px; margin-bottom: 0px; font-size: 40px"";>מוכנים לשלם: <span id=""c_p_y""></span></p>","6","evaluation","65","20","10C,13A,19C,21B","40","58","6","","","","","","","","","","","","","","","",""
"","","","","","html-keyboard-response","177","313313","0.0-21.0-2.21","aac2844d-7b66-416c-a659-bc5f1fe458a3","null","<p style=""text-align: center;"">+</p>","null","fixation","","","","","","","","","","","","","","","","","","","","","",""
"","","","","","html-slider-response","178","314315","0.0-21.0-0.22","aac2844d-7b66-416c-a659-bc5f1fe458a3","1000","
                  <p style=""text-align: center;"">₪11
                                                <br>20%</p>
                  <p id=""wtp"" style=""text-align:center; margin-top: 0px; margin-bottom: 0px; font-size: 40px"";>&ensp;</p>","-","viewing","0","4","12C,17C,23C,28C","","","","","","","","","","","","","","","","","","",""
"","","","","","html-slider-response","179","315275","0.0-21.0-1.22","aac2844d-7b66-416c-a659-bc5f1fe458a3","959","
                  <p style=""text-align: center;"">₪11
                                                <br>20%</p>
                  <p id=""wtp"" style=""text-align:center; margin-top: 0px; margin-bottom: 0px; font-size: 40px"";>מוכנים לשלם: <span id=""c_p_y""></span></p>","0","evaluation","77","4","12C,17C,23C,28C","20","11","0","","","","","","","","","","","","","","","",""
"","","","","","html-keyboard-response","180","315937","0.0-21.0-2.22","aac2844d-7b66-416c-a659-bc5f1fe458a3","null","<p style=""text-align: center;"">+</p>","null","fixation","","","","","","","","","","","","","","","","","","","","","",""
"","","","","","html-slider-response","181","316947","0.0-21.0-0.23","aac2844d-7b66-416c-a659-bc5f1fe458a3","1000","
                  <p style=""text-align: center;"">₪18
                                                <br>25%</p>
                  <p id=""wtp"" style=""text-align:center; margin-top: 0px; margin-bottom: 0px; font-size: 40px"";>&ensp;</p>","-","viewing","0","9","14A,23A","","","","","","","","","","","","","","","","","","",""
"","","","","","html-slider-response","182","317947","0.0-21.0-1.23","aac2844d-7b66-416c-a659-bc5f1fe458a3","999","
                  <p style=""text-align: center;"">₪18
                                                <br>25%</p>
                  <p id=""wtp"" style=""text-align:center; margin-top: 0px; margin-bottom: 0px; font-size: 40px"";>מוכנים לשלם: <span id=""c_p_y""></span></p>","0","evaluation","49","9","14A,23A","25","18","0","","","","","","","","","","","","","","","",""
"","","","","","html-keyboard-response","183","318778","0.0-21.0-2.23","aac2844d-7b66-416c-a659-bc5f1fe458a3","null","<p style=""text-align: center;"">+</p>","null","fixation","","","","","","","","","","","","","","","","","","","","","",""
"","","","","","html-slider-response","184","319781","0.0-21.0-0.24","aac2844d-7b66-416c-a659-bc5f1fe458a3","1000","
                  <p style=""text-align: center;"">₪64
                                                <br>50%</p>
                  <p id=""wtp"" style=""text-align:center; margin-top: 0px; margin-bottom: 0px; font-size: 40px"";>&ensp;</p>","-","viewing","0","25","1B,3B,4A","","","","","","","","","","","","","","","","","","",""
"","","","","","html-slider-response","185","320619","0.0-21.0-1.24","aac2844d-7b66-416c-a659-bc5f1fe458a3","837","
                  <p style=""text-align: center;"">₪64
                                                <br>50%</p>
                  <p id=""wtp"" style=""text-align:center; margin-top: 0px; margin-bottom: 0px; font-size: 40px"";>מוכנים לשלם: <span id=""c_p_y""></span></p>","10","evaluation","77","25","1B,3B,4A","50","64","10","","","","","","","","","","","","","","","",""
"","","","","","html-keyboard-response","186","321728","0.0-21.0-2.24","aac2844d-7b66-416c-a659-bc5f1fe458a3","null","<p style=""text-align: center;"">+</p>","null","fixation","","","","","","","","","","","","","","","","","","","","","",""
"","","","","","html-slider-response","187","322744","0.0-21.0-0.25","aac2844d-7b66-416c-a659-bc5f1fe458a3","1000","
                  <p style=""text-align: center;"">₪58
                                                <br>45%</p>
                  <p id=""wtp"" style=""text-align:center; margin-top: 0px; margin-bottom: 0px; font-size: 40px"";>&ensp;</p>","-","viewing","0","21","11C,18C,25A","","","","","","","","","","","","","","","","","","",""
"","","","","","html-slider-response","188","324563","0.0-21.0-1.25","aac2844d-7b66-416c-a659-bc5f1fe458a3","1817","
                  <p style=""text-align: center;"">₪58
                                                <br>45%</p>
                  <p id=""wtp"" style=""text-align:center; margin-top: 0px; margin-bottom: 0px; font-size: 40px"";>מוכנים לשלם: <span id=""c_p_y""></span></p>","1","evaluation","30","21","11C,18C,25A","45","58","1","","","","","","","","","","","","","","","",""
"","","","","","html-keyboard-response","189","325457","0.0-21.0-2.25","aac2844d-7b66-416c-a659-bc5f1fe458a3","null","<p style=""text-align: center;"">+</p>","null","fixation","","","","","","","","","","","","","","","","","","","","","",""
"","","","","","html-slider-response","190","326460","0.0-21.0-0.26","aac2844d-7b66-416c-a659-bc5f1fe458a3","1000","
                  <p style=""text-align: center;"">₪16
                                                <br>20%</p>
                  <p id=""wtp"" style=""text-align:center; margin-top: 0px; margin-bottom: 0px; font-size: 40px"";>&ensp;</p>","-","viewing","0","8","14C,17A,20C,27A","","","","","","","","","","","","","","","","","","",""
"","","","","","html-slider-response","191","327923","0.0-21.0-1.26","aac2844d-7b66-416c-a659-bc5f1fe458a3","1462","
                  <p style=""text-align: center;"">₪16
                                                <br>20%</p>
                  <p id=""wtp"" style=""text-align:center; margin-top: 0px; margin-bottom: 0px; font-size: 40px"";>מוכנים לשלם: <span id=""c_p_y""></span></p>","2","evaluation","50","8","14C,17A,20C,27A","20","16","2","","","","","","","","","","","","","","","",""
"","","","","","html-keyboard-response","192","328774","0.0-21.0-2.26","aac2844d-7b66-416c-a659-bc5f1fe458a3","null","<p style=""text-align: center;"">+</p>","null","fixation","","","","","","","","","","","","","","","","","","","","","",""
"","","","","","html-slider-response","193","329780","0.0-21.0-0.27","aac2844d-7b66-416c-a659-bc5f1fe458a3","1000","
                  <p style=""text-align: center;"">₪36
                                                <br>75%</p>
                  <p id=""wtp"" style=""text-align:center; margin-top: 0px; margin-bottom: 0px; font-size: 40px"";>&ensp;</p>","-","viewing","0","14","4B,5A,13B,16B","","","","","","","","","","","","","","","","","","",""
"","","","","","html-slider-response","194","332971","0.0-21.0-1.27","aac2844d-7b66-416c-a659-bc5f1fe458a3","3189","
                  <p style=""text-align: center;"">₪36
                                                <br>75%</p>
                  <p id=""wtp"" style=""text-align:center; margin-top: 0px; margin-bottom: 0px; font-size: 40px"";>מוכנים לשלם: <span id=""c_p_y""></span></p>","20","evaluation","9","14","4B,5A,13B,16B","75","36","20","","","","","","","","","","","","","","","",""
"","","","","","html-keyboard-response","195","334388","0.0-21.0-2.27","aac2844d-7b66-416c-a659-bc5f1fe458a3","null","<p style=""text-align: center;"">+</p>","null","fixation","","","","","","","","","","","","","","","","","","","","","",""
"","","","","","html-slider-response","196","335390","0.0-21.0-0.28","aac2844d-7b66-416c-a659-bc5f1fe458a3","1000","
                  <p style=""text-align: center;"">₪11
                                                <br>25%</p>
                  <p id=""wtp"" style=""text-align:center; margin-top: 0px; margin-bottom: 0px; font-size: 40px"";>&ensp;</p>","-","viewing","0","5","12A,27B,28B,30B","","","","","","","","","","","","","","","","","","",""
"","","","","","html-slider-response","197","337019","0.0-21.0-1.28","aac2844d-7b66-416c-a659-bc5f1fe458a3","1627","
                  <p style=""text-align: center;"">₪11
                                                <br>25%</p>
                  <p id=""wtp"" style=""text-align:center; margin-top: 0px; margin-bottom: 0px; font-size: 40px"";>מוכנים לשלם: <span id=""c_p_y""></span></p>","1","evaluation","9","5","12A,27B,28B,30B","25","11","1","","","","","","","","","","","","","","","",""
"","","","","","html-keyboard-response","198","337895","0.0-21.0-2.28","aac2844d-7b66-416c-a659-bc5f1fe458a3","null","<p style=""text-align: center;"">+</p>","null","fixation","","","","","","","","","","","","","","","","","","","","","",""
"","","","","","html-slider-response","199","338899","0.0-21.0-0.29","aac2844d-7b66-416c-a659-bc5f1fe458a3","1000","
                  <p style=""text-align: center;"">₪71
                                                <br>55%</p>
                  <p id=""wtp"" style=""text-align:center; margin-top: 0px; margin-bottom: 0px; font-size: 40px"";>&ensp;</p>","-","viewing","0","27","5B,18A","","","","","","","","","","","","","","","","","","",""
"","","","","","html-slider-response","200","339923","0.0-21.0-1.29","aac2844d-7b66-416c-a659-bc5f1fe458a3","1023","
                  <p style=""text-align: center;"">₪71
                                                <br>55%</p>
                  <p id=""wtp"" style=""text-align:center; margin-top: 0px; margin-bottom: 0px; font-size: 40px"";>מוכנים לשלם: <span id=""c_p_y""></span></p>","18","evaluation","33","27","5B,18A","55","71","18","","","","","","","","","","","","","","","",""
"","","","","","html-keyboard-response","201","340798","0.0-21.0-2.29","aac2844d-7b66-416c-a659-bc5f1fe458a3","null","<p style=""text-align: center;"">+</p>","null","fixation","","","","","","","","","","","","","","","","","","","","","",""
"","","","","","html-slider-response","202","341802","0.0-21.0-0.30","aac2844d-7b66-416c-a659-bc5f1fe458a3","1000","
                  <p style=""text-align: center;"">₪71
                                                <br>75%</p>
                  <p id=""wtp"" style=""text-align:center; margin-top: 0px; margin-bottom: 0px; font-size: 40px"";>&ensp;</p>","-","viewing","0","28","8B","","","","","","","","","","","","","","","","","","",""
"","","","","","html-slider-response","203","345186","0.0-21.0-1.30","aac2844d-7b66-416c-a659-bc5f1fe458a3","3383","
                  <p style=""text-align: center;"">₪71
                                                <br>75%</p>
                  <p id=""wtp"" style=""text-align:center; margin-top: 0px; margin-bottom: 0px; font-size: 40px"";>מוכנים לשלם: <span id=""c_p_y""></span></p>","40","evaluation","70","28","8B","75","71","40","","","","","","","","","","","","","","","",""
"","","","","","html-keyboard-response","204","346416","0.0-21.0-2.30","aac2844d-7b66-416c-a659-bc5f1fe458a3","null","<p style=""text-align: center;"">+</p>","null","fixation","","","","","","","","","","","","","","","","","","","","","",""
"","","","","","html-keyboard-response","205","347418","0.0-22.0","aac2844d-7b66-416c-a659-bc5f1fe458a3","null","<p style=""text-align: center;"">+</p>","null","fixation","","","","","","","","","","","","","","","","","","","","","",""
"","","","","","html-keyboard-response","206","348475","0.0-23.0","aac2844d-7b66-416c-a659-bc5f1fe458a3","null","<p>הפסקה.
          <br>לחצו כדי להמשיך.</p>","1","scan_wait","","","","","","","","","","","","","","","","","","","","","",""
"","","","","","html-keyboard-response","207","349482","0.0-24.0","aac2844d-7b66-416c-a659-bc5f1fe458a3","null","<p style=""text-align: center;"">+</p>","null","fixation","","","","","","","","","","","","","","","","","","","","","",""
"","","","","","html-slider-response","208","350489","0.0-25.0-0.0","aac2844d-7b66-416c-a659-bc5f1fe458a3","1000","
                  <p style=""text-align: center;"">₪39
                                                <br>60%</p>
                  <p id=""wtp"" style=""text-align:center; margin-top: 0px; margin-bottom: 0px; font-size: 40px"";>&ensp;</p>","-","viewing","0","15","9C,25B","","","","","","","","","","","","","","","","","","",""
"","","","","","html-slider-response","209","351851","0.0-25.0-1.0","aac2844d-7b66-416c-a659-bc5f1fe458a3","1360","
                  <p style=""text-align: center;"">₪39
                                                <br>60%</p>
                  <p id=""wtp"" style=""text-align:center; margin-top: 0px; margin-bottom: 0px; font-size: 40px"";>מוכנים לשלם: <span id=""c_p_y""></span></p>","20","evaluation","14","15","9C,25B","60","39","20","","","","","","","","","","","","","","","",""
"","","","","","html-keyboard-response","210","352533","0.0-25.0-2.0","aac2844d-7b66-416c-a659-bc5f1fe458a3","null","<p style=""text-align: center;"">+</p>","null","fixation","","","","","","","","","","","","","","","","","","","","","",""
"","","","","","html-slider-response","211","353534","0.0-25.0-0.1","aac2844d-7b66-416c-a659-bc5f1fe458a3","1000","
                  <p style=""text-align: center;"">₪11
                                                <br>25%</p>
                  <p id=""wtp"" style=""text-align:center; margin-top: 0px; margin-bottom: 0px; font-size: 40px"";>&ensp;</p>","-","viewing","0","5","12A,27B,28B,30B","","","","","","","","","","","","","","","","","","",""
"","","","","","html-slider-response","212","355651","0.0-25.0-1.1","aac2844d-7b66-416c-a659-bc5f1fe458a3","2115","
                  <p style=""text-align: center;"">₪11
                                                <br>25%</p>
                  <p id=""wtp"" style=""text-align:center; margin-top: 0px; margin-bottom: 0px; font-size: 40px"";>מוכנים לשלם: <span id=""c_p_y""></span></p>","2","evaluation","43","5","12A,27B,28B,30B","25","11","2","","","","","","","","","","","","","","","",""
"","","","","","html-keyboard-response","213","356697","0.0-25.0-2.1","aac2844d-7b66-416c-a659-bc5f1fe458a3","null","<p style=""text-align: center;"">+</p>","null","fixation","","","","","","","","","","","","","","","","","","","","","",""
"","","","","","html-slider-response","214","357714","0.0-25.0-0.2","aac2844d-7b66-416c-a659-bc5f1fe458a3","1000","
                  <p style=""text-align: center;"">₪11
                                                <br>20%</p>
                  <p id=""wtp"" style=""text-align:center; margin-top: 0px; margin-bottom: 0px; font-size: 40px"";>&ensp;</p>","-","viewing","0","4","12C,17C,23C,28C","","","","","","","","","","","","","","","","","","",""
"","","","","","html-slider-response","215","359163","0.0-25.0-1.2","aac2844d-7b66-416c-a659-bc5f1fe458a3","1447","
                  <p style=""text-align: center;"">₪11
                                                <br>20%</p>
                  <p id=""wtp"" style=""text-align:center; margin-top: 0px; margin-bottom: 0px; font-size: 40px"";>מוכנים לשלם: <span id=""c_p_y""></span></p>","1","evaluation","78","4","12C,17C,23C,28C","20","11","1","","","","","","","","","","","","","","","",""
"","","","","","html-keyboard-response","216","359955","0.0-25.0-2.2","aac2844d-7b66-416c-a659-bc5f1fe458a3","null","<p style=""text-align: center;"">+</p>","null","fixation","","","","","","","","","","","","","","","","","","","","","",""
"","","","","","html-slider-response","217","360962","0.0-25.0-0.3","aac2844d-7b66-416c-a659-bc5f1fe458a3","1000","
                  <p style=""text-align: center;"">₪76
                                                <br>65%</p>
                  <p id=""wtp"" style=""text-align:center; margin-top: 0px; margin-bottom: 0px; font-size: 40px"";>&ensp;</p>","-","viewing","0","29","8C,19A,24B","","","","","","","","","","","","","","","","","","",""
"","","","","","html-slider-response","218","362091","0.0-25.0-1.3","aac2844d-7b66-416c-a659-bc5f1fe458a3","1128","
                  <p style=""text-align: center;"">₪76
                                                <br>65%</p>
                  <p id=""wtp"" style=""text-align:center; margin-top: 0px; margin-bottom: 0px; font-size: 40px"";>מוכנים לשלם: <span id=""c_p_y""></span></p>","31","evaluation","26","29","8C,19A,24B","65","76","31","","","","","","","","","","","","","","","",""
"","","","","","html-keyboard-response","219","363126","0.0-25.0-2.3","aac2844d-7b66-416c-a659-bc5f1fe458a3","null","<p style=""text-align: center;"">+</p>","null","fixation","","","","","","","","","","","","","","","","","","","","","",""
"","","","","","html-slider-response","220","364131","0.0-25.0-0.4","aac2844d-7b66-416c-a659-bc5f1fe458a3","1000","
                  <p style=""text-align: center;"">₪64
                                                <br>25%</p>
                  <p id=""wtp"" style=""text-align:center; margin-top: 0px; margin-bottom: 0px; font-size: 40px"";>&ensp;</p>","-","viewing","0","24","6A,21A","","","","","","","","","","","","","","","","","","",""
"","","","","","html-slider-response","221","365090","0.0-25.0-1.4","aac2844d-7b66-416c-a659-bc5f1fe458a3","957","
                  <p style=""text-align: center;"">₪64
                                                <br>25%</p>
                  <p id=""wtp"" style=""text-align:center; margin-top: 0px; margin-bottom: 0px; font-size: 40px"";>מוכנים לשלם: <span id=""c_p_y""></span></p>","2","evaluation","59","24","6A,21A","25","64","2","","","","","","","","","","","","","","","",""
"","","","","","html-keyboard-response","222","366168","0.0-25.0-2.4","aac2844d-7b66-416c-a659-bc5f1fe458a3","null","<p style=""text-align: center;"">+</p>","null","fixation","","","","","","","","","","","","","","","","","","","","","",""
"","","","","","html-slider-response","223","367174","0.0-25.0-0.5","aac2844d-7b66-416c-a659-bc5f1fe458a3","1000","
                  <p style=""text-align: center;"">₪4
                                                <br>25%</p>
                  <p id=""wtp"" style=""text-align:center; margin-top: 0px; margin-bottom: 0px; font-size: 40px"";>&ensp;</p>","-","viewing","0","1","6C,29B,30C","","","","","","","","","","","","","","","","","","",""
"","","","","","html-slider-response","224","367914","0.0-25.0-1.5","aac2844d-7b66-416c-a659-bc5f1fe458a3","739","
                  <p style=""text-align: center;"">₪4
                                                <br>25%</p>
                  <p id=""wtp"" style=""text-align:center; margin-top: 0px; margin-bottom: 0px; font-size: 40px"";>מוכנים לשלם: <span id=""c_p_y""></span></p>","0","evaluation","51","1","6C,29B,30C","25","4","0","","","","","","","","","","","","","","","",""
"","","","","","html-keyboard-response","225","369158","0.0-25.0-2.5","aac2844d-7b66-416c-a659-bc5f1fe458a3","null","<p style=""text-align: center;"">+</p>","null","fixation","","","","","","","","","","","","","","","","","","","","","",""
"","","","","","html-slider-response","226","370163","0.0-25.0-0.6","aac2844d-7b66-416c-a659-bc5f1fe458a3","1000","
                  <p style=""text-align: center;"">₪36
                                                <br>70%</p>
                  <p id=""wtp"" style=""text-align:center; margin-top: 0px; margin-bottom: 0px; font-size: 40px"";>&ensp;</p>","-","viewing","0","13","3A,5C,10B","","","","","","","","","","","","","","","","","","",""
"","","","","","html-slider-response","227","370738","0.0-25.0-1.6","aac2844d-7b66-416c-a659-bc5f1fe458a3","575","
                  <p style=""text-align: center;"">₪36
                                                <br>70%</p>
                  <p id=""wtp"" style=""text-align:center; margin-top: 0px; margin-bottom: 0px; font-size: 40px"";>מוכנים לשלם: <span id=""c_p_y""></span></p>","13","evaluation","62","13","3A,5C,10B","70","36","13","","","","","","","","","","","","","","","",""
"","","","","","html-keyboard-response","228","371500","0.0-25.0-2.6","aac2844d-7b66-416c-a659-bc5f1fe458a3","null","<p style=""text-align: center;"">+</p>","null","fixation","","","","","","","","","","","","","","","","","","","","","",""
"","","","","","html-slider-response","229","372516","0.0-25.0-0.7","aac2844d-7b66-416c-a659-bc5f1fe458a3","1000","
                  <p style=""text-align: center;"">₪71
                                                <br>45%</p>
                  <p id=""wtp"" style=""text-align:center; margin-top: 0px; margin-bottom: 0px; font-size: 40px"";>&ensp;</p>","-","viewing","0","26","2B,16A","","","","","","","","","","","","","","","","","","",""
"","","","","","html-slider-response","230","373698","0.0-25.0-1.7","aac2844d-7b66-416c-a659-bc5f1fe458a3","1181","
                  <p style=""text-align: center;"">₪71
                                                <br>45%</p>
                  <p id=""wtp"" style=""text-align:center; margin-top: 0px; margin-bottom: 0px; font-size: 40px"";>מוכנים לשלם: <span id=""c_p_y""></span></p>","16","evaluation","53","26","2B,16A","45","71","16","","","","","","","","","","","","","","","",""
"","","","","","html-keyboard-response","231","375089","0.0-25.0-2.7","aac2844d-7b66-416c-a659-bc5f1fe458a3","null","<p style=""text-align: center;"">+</p>","null","fixation","","","","","","","","","","","","","","","","","","","","","",""
"","","","","","html-slider-response","232","376104","0.0-25.0-0.8","aac2844d-7b66-416c-a659-bc5f1fe458a3","1000","
                  <p style=""text-align: center;"">₪11
                                                <br>75%</p>
                  <p id=""wtp"" style=""text-align:center; margin-top: 0px; margin-bottom: 0px; font-size: 40px"";>&ensp;</p>","-","viewing","0","7","6B,18B,22C,24C,29A","","","","","","","","","","","","","","","","","","",""
"","","","","","html-slider-response","233","377306","0.0-25.0-1.8","aac2844d-7b66-416c-a659-bc5f1fe458a3","1200","
                  <p style=""text-align: center;"">₪11
                                                <br>75%</p>
                  <p id=""wtp"" style=""text-align:center; margin-top: 0px; margin-bottom: 0px; font-size: 40px"";>מוכנים לשלם: <span id=""c_p_y""></span></p>","1","evaluation","45","7","6B,18B,22C,24C,29A","75","11","1","","","","","","","","","","","","","","","",""
"","","","","","html-keyboard-response","234","377814","0.0-25.0-2.8","aac2844d-7b66-416c-a659-bc5f1fe458a3","null","<p style=""text-align: center;"">+</p>","null","fixation","","","","","","","","","","","","","","","","","","","","","",""
"","","","","","html-slider-response","235","378821","0.0-25.0-0.9","aac2844d-7b66-416c-a659-bc5f1fe458a3","1000","
                  <p style=""text-align: center;"">₪36
                                                <br>60%</p>
                  <p id=""wtp"" style=""text-align:center; margin-top: 0px; margin-bottom: 0px; font-size: 40px"";>&ensp;</p>","-","viewing","0","12","1C,7C,15C","","","","","","","","","","","","","","","","","","",""
"","","","","","html-slider-response","236","379786","0.0-25.0-1.9","aac2844d-7b66-416c-a659-bc5f1fe458a3","964","
                  <p style=""text-align: center;"">₪36
                                                <br>60%</p>
                  <p id=""wtp"" style=""text-align:center; margin-top: 0px; margin-bottom: 0px; font-size: 40px"";>מוכנים לשלם: <span id=""c_p_y""></span></p>","16","evaluation","5","12","1C,7C,15C","60","36","16","","","","","","","","","","","","","","","",""
"","","","","","html-keyboard-response","237","381176","0.0-25.0-2.9","aac2844d-7b66-416c-a659-bc5f1fe458a3","null","<p style=""text-align: center;"">+</p>","null","fixation","","","","","","","","","","","","","","","","","","","","","",""
"","","","","","html-slider-response","238","382182","0.0-25.0-0.10","aac2844d-7b66-416c-a659-bc5f1fe458a3","1000","
                  <p style=""text-align: center;"">₪58
                                                <br>45%</p>
                  <p id=""wtp"" style=""text-align:center; margin-top: 0px; margin-bottom: 0px; font-size: 40px"";>&ensp;</p>","-","viewing","0","21","11C,18C,25A","","","","","","","","","","","","","","","","","","",""
"","","","","","html-slider-response","239","383130","0.0-25.0-1.10","aac2844d-7b66-416c-a659-bc5f1fe458a3","947","
                  <p style=""text-align: center;"">₪58
                                                <br>45%</p>
                  <p id=""wtp"" style=""text-align:center; margin-top: 0px; margin-bottom: 0px; font-size: 40px"";>מוכנים לשלם: <span id=""c_p_y""></span></p>","7","evaluation","54","21","11C,18C,25A","45","58","7","","","","","","","","","","","","","","","",""
"","","","","","html-keyboard-response","240","384344","0.0-25.0-2.10","aac2844d-7b66-416c-a659-bc5f1fe458a3","null","<p style=""text-align: center;"">+</p>","null","fixation","","","","","","","","","","","","","","","","","","","","","",""
"","","","","","html-slider-response","241","385357","0.0-25.0-0.11","aac2844d-7b66-416c-a659-bc5f1fe458a3","1000","
                  <p style=""text-align: center;"">₪36
                                                <br>30%</p>
                  <p id=""wtp"" style=""text-align:center; margin-top: 0px; margin-bottom: 0px; font-size: 40px"";>&ensp;</p>","-","viewing","0","11","3C,20A,22A","","","","","","","","","","","","","","","","","","",""
"","","","","","html-slider-response","242","386458","0.0-25.0-1.11","aac2844d-7b66-416c-a659-bc5f1fe458a3","1099","
                  <p style=""text-align: center;"">₪36
                                                <br>30%</p>
                  <p id=""wtp"" style=""text-align:center; margin-top: 0px; margin-bottom: 0px; font-size: 40px"";>מוכנים לשלם: <span id=""c_p_y""></span></p>","1","evaluation","35","11","3C,20A,22A","30","36","1","","","","","","","","","","","","","","","",""
"","","","","","html-keyboard-response","243","387392","0.0-25.0-2.11","aac2844d-7b66-416c-a659-bc5f1fe458a3","null","<p style=""text-align: center;"">+</p>","null","fixation","","","","","","","","","","","","","","","","","","","","","",""
"","","","","","html-slider-response","244","388394","0.0-25.0-0.12","aac2844d-7b66-416c-a659-bc5f1fe458a3","1000","
                  <p style=""text-align: center;"">₪43
                                                <br>60%</p>
                  <p id=""wtp"" style=""text-align:center; margin-top: 0px; margin-bottom: 0px; font-size: 40px"";>&ensp;</p>","-","viewing","0","17","2A,7A,9A,15B","","","","","","","","","","","","","","","","","","",""
"","","","","","html-slider-response","245","390858","0.0-25.0-1.12","aac2844d-7b66-416c-a659-bc5f1fe458a3","2462","
                  <p style=""text-align: center;"">₪43
                                                <br>60%</p>
                  <p id=""wtp"" style=""text-align:center; margin-top: 0px; margin-bottom: 0px; font-size: 40px"";>מוכנים לשלם: <span id=""c_p_y""></span></p>","11","evaluation","21","17","2A,7A,9A,15B","60","43","11","","","","","","","","","","","","","","","",""
"","","","","","html-keyboard-response","246","391889","0.0-25.0-2.12","aac2844d-7b66-416c-a659-bc5f1fe458a3","null","<p style=""text-align: center;"">+</p>","null","fixation","","","","","","","","","","","","","","","","","","","","","",""
"","","","","","html-slider-response","247","392899","0.0-25.0-0.13","aac2844d-7b66-416c-a659-bc5f1fe458a3","1000","
                  <p style=""text-align: center;"">₪39
                                                <br>65%</p>
                  <p id=""wtp"" style=""text-align:center; margin-top: 0px; margin-bottom: 0px; font-size: 40px"";>&ensp;</p>","-","viewing","0","16","1A,15A,26C","","","","","","","","","","","","","","","","","","",""
"","","","","","html-slider-response","248","395618","0.0-25.0-1.13","aac2844d-7b66-416c-a659-bc5f1fe458a3","2718","
                  <p style=""text-align: center;"">₪39
                                                <br>65%</p>
                  <p id=""wtp"" style=""text-align:center; margin-top: 0px; margin-bottom: 0px; font-size: 40px"";>מוכנים לשלם: <span id=""c_p_y""></span></p>","9","evaluation","42","16","1A,15A,26C","65","39","9","","","","","","","","","","","","","","","",""
"","","","","","html-keyboard-response","249","396522","0.0-25.0-2.13","aac2844d-7b66-416c-a659-bc5f1fe458a3","null","<p style=""text-align: center;"">+</p>","null","fixation","","","","","","","","","","","","","","","","","","","","","",""
"","","","","","html-slider-response","250","397537","0.0-25.0-0.14","aac2844d-7b66-416c-a659-bc5f1fe458a3","1000","
                  <p style=""text-align: center;"">₪18
                                                <br>50%</p>
                  <p id=""wtp"" style=""text-align:center; margin-top: 0px; margin-bottom: 0px; font-size: 40px"";>&ensp;</p>","-","viewing","0","10","2C,16C,22B,28A","","","","","","","","","","","","","","","","","","",""
