"success","timeout","failed_images","failed_audio","failed_video","trial_type","trial_index","time_elapsed","internal_node_id","subject_id","rt","stimulus","response","part","slider_start","ID","set_ID","prob","amount","last_location","actual_choice","actual_EV","binary_id","trinary_id","catch","direction","A_key","S_key","D_key","choice_prob","choice_amount","chosen_part","won_prize","potential_prize_amount","potential_prize_prob","total_prize","accuracy"
"true","false","[]","[]","[]","preload","0","130","0.0-0.0","23f0d474-21db-40ae-975c-dda11190e33a","","","","","","","","","","","","","","","","","","","","","","","","","","",""
"","","","","","html-keyboard-response","1","3967","0.0-1.0","23f0d474-21db-40ae-975c-dda11190e33a","null","
          <h1>שלום וברוכים הבאים!</h1>
          <p>לפניכם ניסוי בקבלת החלטות עם שני חלקים.
          <br><br>לחצו על העכבר כדי להמשיך.</p>","0","example","","","","","","","","","","","","","","","","","","","","","","",""
"","","","","","html-keyboard-response","2","8759","0.0-2.0","23f0d474-21db-40ae-975c-dda11190e33a","null","
        <h1>חלק 1</h1>
        <p>בקרוב יוצגו בפניכם הגרלות.
        <br>עליכם לבחור את המחיר המירבי שתהיו מוכנים לשלם כדי להשתתף בהגרלה שתוצג.
        <br>יש לכם תקציב של ₪80 לכל הגרלה. 
        <br>נסו להעריך כל הגרלה בנפרד ולחשוב כמה היא שווה עבורכם, ₪80 זמינים לכל הגרלה בנפרד.
        <br><br>לחצו על העכבר כדי להמשיך.</p>","1","instructions","","","","","","","","","","","","","","","","","","","","","","",""
"","","","","","html-keyboard-response","3","10103","0.0-3.0","23f0d474-21db-40ae-975c-dda11190e33a","null","
        <p>בסוף הניסוי, המחשב יבחר את אחת ההגרלות ויקבע מחיר לכרטיס עבורה. 
        <br>במידה והמחיר שבחרתם נמוך מהמחיר שנבחר על ידי המחשב, לא תשתתפו בהגרלה ותשארו עם מלוא התקציב.
        <br>במידה והמחיר שבחרתם גבוה מהמחיר שנבחר על ידי המחשב, תשלמו את המחיר שנקבע ותשתתפו בהגרלה.
        <br><br>לחצו על העכבר כדי להמשיך.</p>","1","instructions","","","","","","","","","","","","","","","","","","","","","","",""
"","","","","","html-slider-response","4","19310","0.0-4.0","23f0d474-21db-40ae-975c-dda11190e33a","9097","
        <p style=""font-size: 42px;"">נתחיל עם דוגמא: 
        <br>ההגרלה מטה מציעה 65% סיכוי לזכות ב-₪40 
        <br>&emsp;&emsp;&emsp;&emsp;&emsp;&emsp;&emsp;&emsp;&ensp;35% סיכוי לזכות ב-₪0.
        <br><br>מה המחיר המירבי שתהיו מוכנים לשלם על כרטיס להגרלה זו בין 0 ל-₪80?
        <br>הזיזו את העכבר על פני המלבן ולחצו כדי לבצע בחירה.</p>
        
        <p style=""text-align: center;"">₪40<br>65%</p>

        <p id=""wtp"" style=""text-align:center; margin-top: 0px; margin-bottom: 0px; font-size: 40px"";>מוכנים לשלם: <span id=""c_p_y""></span></p>","23","example","58","","","","","","","","","","","","","","","","","","","","","",""
"","","","","","html-keyboard-response","5","31855","0.0-5.0","23f0d474-21db-40ae-975c-dda11190e33a","null","<p>יפה מאוד!
                <br> בחרתם שתהיו מוכנים לשלם ₪23 כדי להשתתף בהגרלה:
                <br><p style=""text-align: center;"">₪40<br>65%</p>
                <p>נשמע נכון?
                <br>נניח שהגרלה זו נבחרה בסוף הניסוי.
                <br>כעת המחשב יקבע מחיר עבורה באקראי.
                <br>לחצו על העכבר להמשך.</p>","1","example","","","","","","","","","","","","","","","","","","","","","","",""
"","","","","","html-keyboard-response","6","44503","0.0-6.0","23f0d474-21db-40ae-975c-dda11190e33a","null","<p>המחשב קבע מחיר: ₪78
                <br>ואתם בחרתם לשלם לכל היותר: ₪23
                <br><br>מכיוון שהמחיר שבחרתם נמוך מהמחיר שנקבע, לא תתשתתפו בהגרלה.
                <br>במקרה כזה, בסוף הניסוי תקבלו את כל התקציב ההתחלתי של ₪80.
                <br><br>לחצו על העכבר להמשך.</p>","1","example","","","","","","","","","","","","","","","","","","","","","","",""
"","","","","","html-slider-response","7","50907","0.0-7.0","23f0d474-21db-40ae-975c-dda11190e33a","6150","<p style=""font-size: 42px;"">הנה עוד דוגמא:
                <br>ההגרלה מטה מציעה 35% סיכוי לזכות ב-₪18 
                <br>&emsp;&emsp;&emsp;&emsp;&emsp;&emsp;&emsp;&emsp;&ensp;65% סיכוי לזכות ב-₪0.</p>
        
                <p style=""text-align: center;"">₪18<br>35%</p>
                <p id=""wtp"" style=""text-align:center; margin-top: 0px; margin-bottom: 0px; font-size: 40px"";>מוכנים לשלם: <span id=""c_p_y""></span></p>","8","example","72","","","","","","","","","","","","","","","","","","","","","",""
"","","","","","html-keyboard-response","8","53555","0.0-8.0","23f0d474-21db-40ae-975c-dda11190e33a","null","<p>הייתם מוכנים לשלם  ₪8 כדי להשתתף בהגרלה:
                <p style=""text-align: center;"">₪18<br>35%</p>
                <p>כעת נניח שהמחשב בחר את ההגרלה הזו בסוף הניסוי, וקבע עבורה מחיר.
                <br><br>לחצו על העכבר כדי להמשיך.</p>","1","instructions","","","","","","","","","","","","","","","","","","","","","","",""
"","","","","","html-keyboard-response","9","75043","0.0-9.0","23f0d474-21db-40ae-975c-dda11190e33a","null","<p>המחשב קבע מחיר להגרלה: ₪8
                <br>ואתם בחרתם לשלם לכל היותר: ₪8
                <br><br>כעת המחיר שנקבע זהה לזה שבחרתם, אז תשלמו את המחיר שקבע המחשב (₪8) ותשתתפו בהגרלה.
                <br>במקרה כזה, תסיימו את הניסוי עם תקציב של ₪72 ועם סיכוי לזכות ב-₪18 נוספים מההגרלה.
                <br>כלומר, תוכלו לקבל ₪72 אם לא תזכו בהגרלה, או ₪90 אם תזכו בהגרלה.
                <br><br>לחצו על העכבר להמשך.</p>","1","example","","","","","","","","","","","","","","","","","","","","","","",""
"","","","","","html-keyboard-response","10","93347","0.0-10.0","23f0d474-21db-40ae-975c-dda11190e33a","null","<p>במהלך הניסוי, קודם תראו את ההגרלה ורק לאחר מכן תוכלו לבחור.
                <p>כמו כן, יהיו לכם מספר שניות מוגבל להגיב.
                <p>בואו ננסה זאת עם ההגרלה הקודמת.
                <br>לחצו על העכבר כדי להמשיך.</p>","1","instructions","","","","","","","","","","","","","","","","","","","","","","",""
"","","","","","html-slider-response","11","94615","0.0-11.0","23f0d474-21db-40ae-975c-dda11190e33a","1000","
                    <p style=""text-align: center;"">₪18<br>35%</p>
                    <p id=""wtp"" style=""text-align:center; margin-top: 0px; margin-bottom: 0px; font-size: 40px"";>&ensp;</p>","58","instructions","0","","","","","","","","","","","","","","","","","","","","","",""
"","","","","","html-slider-response","12","97274","0.0-12.0","23f0d474-21db-40ae-975c-dda11190e33a","2394","
                    <p style=""text-align: center;"">₪18<br>35%</p>
                    <p id=""wtp"" style=""text-align:center; margin-top: 0px; margin-bottom: 0px; font-size: 40px"";>מוכנים לשלם: <span id=""c_p_y""></span></p>","7","instructions","73","","","","","","","","","","","","","","","","","","","","","",""
"","","","","","html-keyboard-response","13","100579","0.0-13.0","23f0d474-21db-40ae-975c-dda11190e33a","null","<p>יפה. הפעם בחרתם לשלם לכל היותר ₪7.
                <br><br>לחצו על העכבר כדי להמשיך.</p>","1","instructions","","","","","","","","","","","","","","","","","","","","","","",""
"","","","","","html-keyboard-response","14","112112","0.0-15.0","23f0d474-21db-40ae-975c-dda11190e33a","null","<p>כעת נתחיל את הניסוי.
                <br><br>אתם תראו הגרלות ותתבקשו לבחור כמה תהיו מוכנים לשלם כדי להשתתף בהן.
                <br>יש לכם תקציב של ₪80 עבור כל הגרלה.
                <br>בסוף הניסוי הגרלה אחת תבחר באקראי ותשוחק.
                <br><br>לחצו על העכבר כדי להתחיל את הניסוי.</p>","1","instructions","","","","","","","","","","","","","","","","","","","","","","",""
"","","","","","html-keyboard-response","15","113369","0.0-16.0","23f0d474-21db-40ae-975c-dda11190e33a","null","<p style=""text-align: center;"">+</p>","null","fixation","","","","","","","","","","","","","","","","","","","","","","",""
"","","","","","html-slider-response","16","114378","0.0-17.0-0.0","23f0d474-21db-40ae-975c-dda11190e33a","1000","
                  <p style=""text-align: center;"">₪4
                                                <br>25%</p>
                  <p id=""wtp"" style=""text-align:center; margin-top: 0px; margin-bottom: 0px; font-size: 40px"";>&ensp;</p>","-","viewing","0","1","6C,29B,30C","","","","","","","","","","","","","","","","","","","",""
"","","","","","html-slider-response","17","115880","0.0-17.0-1.0","23f0d474-21db-40ae-975c-dda11190e33a","1500","
                  <p style=""text-align: center;"">₪4
                                                <br>25%</p>
                  <p id=""wtp"" style=""text-align:center; margin-top: 0px; margin-bottom: 0px; font-size: 40px"";>מוכנים לשלם: <span id=""c_p_y""></span></p>","2","evaluation","30","1","6C,29B,30C","25","4","3","","","","","","","","","","","","","","","","",""
"","","","","","html-keyboard-response","18","116458","0.0-17.0-2.0","23f0d474-21db-40ae-975c-dda11190e33a","null","<p style=""text-align: center;"">+</p>","null","fixation","","","","","","","","","","","","","","","","","","","","","","",""
"","","","","","html-slider-response","19","117466","0.0-17.0-0.1","23f0d474-21db-40ae-975c-dda11190e33a","1000","
                  <p style=""text-align: center;"">₪36
                                                <br>75%</p>
                  <p id=""wtp"" style=""text-align:center; margin-top: 0px; margin-bottom: 0px; font-size: 40px"";>&ensp;</p>","-","viewing","0","14","4B,5A,13B,16B","","","","","","","","","","","","","","","","","","","",""
"","","","","","html-slider-response","20","120744","0.0-17.0-1.1","23f0d474-21db-40ae-975c-dda11190e33a","3276","
                  <p style=""text-align: center;"">₪36
                                                <br>75%</p>
                  <p id=""wtp"" style=""text-align:center; margin-top: 0px; margin-bottom: 0px; font-size: 40px"";>מוכנים לשלם: <span id=""c_p_y""></span></p>","25","evaluation","62","14","4B,5A,13B,16B","75","36","25","","","","","","","","","","","","","","","","",""
"","","","","","html-keyboard-response","21","121524","0.0-17.0-2.1","23f0d474-21db-40ae-975c-dda11190e33a","null","<p style=""text-align: center;"">+</p>","null","fixation","","","","","","","","","","","","","","","","","","","","","","",""
"","","","","","html-slider-response","22","122532","0.0-17.0-0.2","23f0d474-21db-40ae-975c-dda11190e33a","1000","
                  <p style=""text-align: center;"">₪71
                                                <br>45%</p>
                  <p id=""wtp"" style=""text-align:center; margin-top: 0px; margin-bottom: 0px; font-size: 40px"";>&ensp;</p>","-","viewing","0","26","2B,16A","","","","","","","","","","","","","","","","","","","",""
"","","","","","html-slider-response","23","125824","0.0-17.0-1.2","23f0d474-21db-40ae-975c-dda11190e33a","3290","
                  <p style=""text-align: center;"">₪71
                                                <br>45%</p>
                  <p id=""wtp"" style=""text-align:center; margin-top: 0px; margin-bottom: 0px; font-size: 40px"";>מוכנים לשלם: <span id=""c_p_y""></span></p>","30","evaluation","75","26","2B,16A","45","71","30","","","","","","","","","","","","","","","","",""
"","","","","","html-keyboard-response","24","126643","0.0-17.0-2.2","23f0d474-21db-40ae-975c-dda11190e33a","null","<p style=""text-align: center;"">+</p>","null","fixation","","","","","","","","","","","","","","","","","","","","","","",""
"","","","","","html-slider-response","25","127646","0.0-17.0-0.3","23f0d474-21db-40ae-975c-dda11190e33a","1000","
                  <p style=""text-align: center;"">₪39
                                                <br>65%</p>
                  <p id=""wtp"" style=""text-align:center; margin-top: 0px; margin-bottom: 0px; font-size: 40px"";>&ensp;</p>","-","viewing","0","16","1A,15A,26C","","","","","","","","","","","","","","","","","","","",""
"","","","","","html-slider-response","26","130024","0.0-17.0-1.3","23f0d474-21db-40ae-975c-dda11190e33a","2377","
                  <p style=""text-align: center;"">₪39
                                                <br>65%</p>
                  <p id=""wtp"" style=""text-align:center; margin-top: 0px; margin-bottom: 0px; font-size: 40px"";>מוכנים לשלם: <span id=""c_p_y""></span></p>","20","evaluation","47","16","1A,15A,26C","65","39","20","","","","","","","","","","","","","","","","",""
"","","","","","html-keyboard-response","27","130954","0.0-17.0-2.3","23f0d474-21db-40ae-975c-dda11190e33a","null","<p style=""text-align: center;"">+</p>","null","fixation","","","","","","","","","","","","","","","","","","","","","","",""
"","","","","","html-slider-response","28","131969","0.0-17.0-0.4","23f0d474-21db-40ae-975c-dda11190e33a","1000","
                  <p style=""text-align: center;"">₪4
                                                <br>75%</p>
                  <p id=""wtp"" style=""text-align:center; margin-top: 0px; margin-bottom: 0px; font-size: 40px"";>&ensp;</p>","-","viewing","0","3","12B,20B,23B,27C,29C","","","","","","","","","","","","","","","","","","","",""
"","","","","","html-slider-response","29","135973","0.0-17.0-1.4","23f0d474-21db-40ae-975c-dda11190e33a","null","
                  <p style=""text-align: center;"">₪4
                                                <br>75%</p>
                  <p id=""wtp"" style=""text-align:center; margin-top: 0px; margin-bottom: 0px; font-size: 40px"";>מוכנים לשלם: <span id=""c_p_y""></span></p>","null","evaluation","72","3","12B,20B,23B,27C,29C","75","4","3","","","","","","","","","","","","","","","","",""
"","","","","","html-keyboard-response","30","136566","0.0-17.0-2.4","23f0d474-21db-40ae-975c-dda11190e33a","null","<p style=""text-align: center;"">+</p>","null","fixation","","","","","","","","","","","","","","","","","","","","","","",""
"","","","","","html-slider-response","31","137572","0.0-17.0-0.5","23f0d474-21db-40ae-975c-dda11190e33a","1000","
                  <p style=""text-align: center;"">₪58
                                                <br>40%</p>
                  <p id=""wtp"" style=""text-align:center; margin-top: 0px; margin-bottom: 0px; font-size: 40px"";>&ensp;</p>","-","viewing","0","20","10C,13A,19C,21B","","","","","","","","","","","","","","","","","","","",""
"","","","","","html-slider-response","32","140912","0.0-17.0-1.5","23f0d474-21db-40ae-975c-dda11190e33a","3339","
                  <p style=""text-align: center;"">₪58
                                                <br>40%</p>
                  <p id=""wtp"" style=""text-align:center; margin-top: 0px; margin-bottom: 0px; font-size: 40px"";>מוכנים לשלם: <span id=""c_p_y""></span></p>","26","evaluation","59","20","10C,13A,19C,21B","40","58","26","","","","","","","","","","","","","","","","",""
"","","","","","html-keyboard-response","33","141551","0.0-17.0-2.5","23f0d474-21db-40ae-975c-dda11190e33a","null","<p style=""text-align: center;"">+</p>","null","fixation","","","","","","","","","","","","","","","","","","","","","","",""
"","","","","","html-slider-response","34","142558","0.0-17.0-0.6","23f0d474-21db-40ae-975c-dda11190e33a","1000","
                  <p style=""text-align: center;"">₪71
                                                <br>55%</p>
                  <p id=""wtp"" style=""text-align:center; margin-top: 0px; margin-bottom: 0px; font-size: 40px"";>&ensp;</p>","-","viewing","0","27","5B,18A","","","","","","","","","","","","","","","","","","","",""
"","","","","","html-slider-response","35","146024","0.0-17.0-1.6","23f0d474-21db-40ae-975c-dda11190e33a","3465","
                  <p style=""text-align: center;"">₪71
                                                <br>55%</p>
                  <p id=""wtp"" style=""text-align:center; margin-top: 0px; margin-bottom: 0px; font-size: 40px"";>מוכנים לשלם: <span id=""c_p_y""></span></p>","30","evaluation","64","27","5B,18A","55","71","30","","","","","","","","","","","","","","","","",""
"","","","","","html-keyboard-response","36","146661","0.0-17.0-2.6","23f0d474-21db-40ae-975c-dda11190e33a","null","<p style=""text-align: center;"">+</p>","null","fixation","","","","","","","","","","","","","","","","","","","","","","",""
"","","","","","html-slider-response","37","147664","0.0-17.0-0.7","23f0d474-21db-40ae-975c-dda11190e33a","1000","
                  <p style=""text-align: center;"">₪36
                                                <br>30%</p>
                  <p id=""wtp"" style=""text-align:center; margin-top: 0px; margin-bottom: 0px; font-size: 40px"";>&ensp;</p>","-","viewing","0","11","3C,20A,22A","","","","","","","","","","","","","","","","","","","",""
"","","","","","html-slider-response","38","151064","0.0-17.0-1.7","23f0d474-21db-40ae-975c-dda11190e33a","3399","
                  <p style=""text-align: center;"">₪36
                                                <br>30%</p>
                  <p id=""wtp"" style=""text-align:center; margin-top: 0px; margin-bottom: 0px; font-size: 40px"";>מוכנים לשלם: <span id=""c_p_y""></span></p>","15","evaluation","27","11","3C,20A,22A","30","36","15","","","","","","","","","","","","","","","","",""
"","","","","","html-keyboard-response","39","151741","0.0-17.0-2.7","23f0d474-21db-40ae-975c-dda11190e33a","null","<p style=""text-align: center;"">+</p>","null","fixation","","","","","","","","","","","","","","","","","","","","","","",""
"","","","","","html-slider-response","40","152751","0.0-17.0-0.8","23f0d474-21db-40ae-975c-dda11190e33a","1000","
                  <p style=""text-align: center;"">₪43
                                                <br>75%</p>
                  <p id=""wtp"" style=""text-align:center; margin-top: 0px; margin-bottom: 0px; font-size: 40px"";>&ensp;</p>","-","viewing","0","18","11B,19B,24A,26A","","","","","","","","","","","","","","","","","","","",""
"","","","","","html-slider-response","41","155768","0.0-17.0-1.8","23f0d474-21db-40ae-975c-dda11190e33a","3016","
                  <p style=""text-align: center;"">₪43
                                                <br>75%</p>
                  <p id=""wtp"" style=""text-align:center; margin-top: 0px; margin-bottom: 0px; font-size: 40px"";>מוכנים לשלם: <span id=""c_p_y""></span></p>","25","evaluation","21","18","11B,19B,24A,26A","75","43","25","","","","","","","","","","","","","","","","",""
"","","","","","html-keyboard-response","42","157053","0.0-17.0-2.8","23f0d474-21db-40ae-975c-dda11190e33a","null","<p style=""text-align: center;"">+</p>","null","fixation","","","","","","","","","","","","","","","","","","","","","","",""
"","","","","","html-slider-response","43","158067","0.0-17.0-0.9","23f0d474-21db-40ae-975c-dda11190e33a","1000","
                  <p style=""text-align: center;"">₪64
                                                <br>25%</p>
                  <p id=""wtp"" style=""text-align:center; margin-top: 0px; margin-bottom: 0px; font-size: 40px"";>&ensp;</p>","-","viewing","0","24","6A,21A","","","","","","","","","","","","","","","","","","","",""
"","","","","","html-slider-response","44","160504","0.0-17.0-1.9","23f0d474-21db-40ae-975c-dda11190e33a","2436","
                  <p style=""text-align: center;"">₪64
                                                <br>25%</p>
                  <p id=""wtp"" style=""text-align:center; margin-top: 0px; margin-bottom: 0px; font-size: 40px"";>מוכנים לשלם: <span id=""c_p_y""></span></p>","13","evaluation","42","24","6A,21A","25","64","13","","","","","","","","","","","","","","","","",""
"","","","","","html-keyboard-response","45","161148","0.0-17.0-2.9","23f0d474-21db-40ae-975c-dda11190e33a","null","<p style=""text-align: center;"">+</p>","null","fixation","","","","","","","","","","","","","","","","","","","","","","",""
"","","","","","html-slider-response","46","162162","0.0-17.0-0.10","23f0d474-21db-40ae-975c-dda11190e33a","1000","
                  <p style=""text-align: center;"">₪11
                                                <br>25%</p>
                  <p id=""wtp"" style=""text-align:center; margin-top: 0px; margin-bottom: 0px; font-size: 40px"";>&ensp;</p>","-","viewing","0","5","12A,27B,28B,30B","","","","","","","","","","","","","","","","","","","",""
"","","","","","html-slider-response","47","165056","0.0-17.0-1.10","23f0d474-21db-40ae-975c-dda11190e33a","2893","
                  <p style=""text-align: center;"">₪11
                                                <br>25%</p>
                  <p id=""wtp"" style=""text-align:center; margin-top: 0px; margin-bottom: 0px; font-size: 40px"";>מוכנים לשלם: <span id=""c_p_y""></span></p>","1","evaluation","49","5","12A,27B,28B,30B","25","11","2","","","","","","","","","","","","","","","","",""
"","","","","","html-keyboard-response","48","166332","0.0-17.0-2.10","23f0d474-21db-40ae-975c-dda11190e33a","null","<p style=""text-align: center;"">+</p>","null","fixation","","","","","","","","","","","","","","","","","","","","","","",""
"","","","","","html-slider-response","49","167348","0.0-17.0-0.11","23f0d474-21db-40ae-975c-dda11190e33a","1000","
                  <p style=""text-align: center;"">₪36
                                                <br>60%</p>
                  <p id=""wtp"" style=""text-align:center; margin-top: 0px; margin-bottom: 0px; font-size: 40px"";>&ensp;</p>","-","viewing","0","12","1C,7C,15C","","","","","","","","","","","","","","","","","","","",""
"","","","","","html-slider-response","50","170476","0.0-17.0-1.11","23f0d474-21db-40ae-975c-dda11190e33a","3128","
                  <p style=""text-align: center;"">₪36
                                                <br>60%</p>
                  <p id=""wtp"" style=""text-align:center; margin-top: 0px; margin-bottom: 0px; font-size: 40px"";>מוכנים לשלם: <span id=""c_p_y""></span></p>","20","evaluation","33","12","1C,7C,15C","60","36","20","","","","","","","","","","","","","","","","",""
"","","","","","html-keyboard-response","51","171539","0.0-17.0-2.11","23f0d474-21db-40ae-975c-dda11190e33a","null","<p style=""text-align: center;"">+</p>","null","fixation","","","","","","","","","","","","","","","","","","","","","","",""
"","","","","","html-slider-response","52","172553","0.0-17.0-0.12","23f0d474-21db-40ae-975c-dda11190e33a","1000","
                  <p style=""text-align: center;"">₪16
                                                <br>20%</p>
                  <p id=""wtp"" style=""text-align:center; margin-top: 0px; margin-bottom: 0px; font-size: 40px"";>&ensp;</p>","-","viewing","0","8","14C,17A,20C,27A","","","","","","","","","","","","","","","","","","","",""
"","","","","","html-slider-response","53","175309","0.0-17.0-1.12","23f0d474-21db-40ae-975c-dda11190e33a","2755","
                  <p style=""text-align: center;"">₪16
                                                <br>20%</p>
                  <p id=""wtp"" style=""text-align:center; margin-top: 0px; margin-bottom: 0px; font-size: 40px"";>מוכנים לשלם: <span id=""c_p_y""></span></p>","7","evaluation","71","8","14C,17A,20C,27A","20","16","8","","","","","","","","","","","","","","","","",""
"","","","","","html-keyboard-response","54","176659","0.0-17.0-2.12","23f0d474-21db-40ae-975c-dda11190e33a","null","<p style=""text-align: center;"">+</p>","null","fixation","","","","","","","","","","","","","","","","","","","","","","",""
"","","","","","html-slider-response","55","177667","0.0-17.0-0.13","23f0d474-21db-40ae-975c-dda11190e33a","1000","
                  <p style=""text-align: center;"">₪11
                                                <br>45%</p>
                  <p id=""wtp"" style=""text-align:center; margin-top: 0px; margin-bottom: 0px; font-size: 40px"";>&ensp;</p>","-","viewing","0","6","14B,21C,25C","","","","","","","","","","","","","","","","","","","",""
"","","","","","html-slider-response","56","180173","0.0-17.0-1.13","23f0d474-21db-40ae-975c-dda11190e33a","2504","
                  <p style=""text-align: center;"">₪11
                                                <br>45%</p>
                  <p id=""wtp"" style=""text-align:center; margin-top: 0px; margin-bottom: 0px; font-size: 40px"";>מוכנים לשלם: <span id=""c_p_y""></span></p>","15","evaluation","17","6","14B,21C,25C","45","11","15","","","","","","","","","","","","","","","","",""
"","","","","","html-keyboard-response","57","181553","0.0-17.0-2.13","23f0d474-21db-40ae-975c-dda11190e33a","null","<p style=""text-align: center;"">+</p>","null","fixation","","","","","","","","","","","","","","","","","","","","","","",""
"","","","","","html-slider-response","58","182563","0.0-17.0-0.14","23f0d474-21db-40ae-975c-dda11190e33a","1000","
                  <p style=""text-align: center;"">₪79
                                                <br>40%</p>
                  <p id=""wtp"" style=""text-align:center; margin-top: 0px; margin-bottom: 0px; font-size: 40px"";>&ensp;</p>","-","viewing","0","30","9B","","","","","","","","","","","","","","","","","","","",""
"","","","","","html-slider-response","59","186566","0.0-17.0-1.14","23f0d474-21db-40ae-975c-dda11190e33a","null","
                  <p style=""text-align: center;"">₪79
                                                <br>40%</p>
                  <p id=""wtp"" style=""text-align:center; margin-top: 0px; margin-bottom: 0px; font-size: 40px"";>מוכנים לשלם: <span id=""c_p_y""></span></p>","null","evaluation","49","30","9B","40","79","41","","","","","","","","","","","","","","","","",""
"","","","","","html-keyboard-response","60","187425","0.0-17.0-2.14","23f0d474-21db-40ae-975c-dda11190e33a","null","<p style=""text-align: center;"">+</p>","null","fixation","","","","","","","","","","","","","","","","","","","","","","",""
"","","","","","html-slider-response","61","188435","0.0-17.0-0.15","23f0d474-21db-40ae-975c-dda11190e33a","1000","
                  <p style=""text-align: center;"">₪4
                                                <br>50%</p>
                  <p id=""wtp"" style=""text-align:center; margin-top: 0px; margin-bottom: 0px; font-size: 40px"";>&ensp;</p>","-","viewing","0","2","4C,17B","","","","","","","","","","","","","","","","","","","",""
"","","","","","html-slider-response","62","189909","0.0-17.0-1.15","23f0d474-21db-40ae-975c-dda11190e33a","1472","
                  <p style=""text-align: center;"">₪4
                                                <br>50%</p>
                  <p id=""wtp"" style=""text-align:center; margin-top: 0px; margin-bottom: 0px; font-size: 40px"";>מוכנים לשלם: <span id=""c_p_y""></span></p>","0","evaluation","24","2","4C,17B","50","4","1","","","","","","","","","","","","","","","","",""
"","","","","","html-keyboard-response","63","191390","0.0-17.0-2.15","23f0d474-21db-40ae-975c-dda11190e33a","null","<p style=""text-align: center;"">+</p>","null","fixation","","","","","","","","","","","","","","","","","","","","","","",""
"","","","","","html-slider-response","64","192406","0.0-17.0-0.16","23f0d474-21db-40ae-975c-dda11190e33a","1000","
                  <p style=""text-align: center;"">₪79
                                                <br>65%</p>
                  <p id=""wtp"" style=""text-align:center; margin-top: 0px; margin-bottom: 0px; font-size: 40px"";>&ensp;</p>","-","viewing","0","31","8A","","","","","","","","","","","","","","","","","","","",""
"","","","","","html-slider-response","65","194820","0.0-17.0-1.16","23f0d474-21db-40ae-975c-dda11190e33a","2414","
                  <p style=""text-align: center;"">₪79
                                                <br>65%</p>
                  <p id=""wtp"" style=""text-align:center; margin-top: 0px; margin-bottom: 0px; font-size: 40px"";>מוכנים לשלם: <span id=""c_p_y""></span></p>","51","evaluation","64","31","8A","65","79","51","","","","","","","","","","","","","","","","",""
"","","","","","html-keyboard-response","66","196219","0.0-17.0-2.16","23f0d474-21db-40ae-975c-dda11190e33a","null","<p style=""text-align: center;"">+</p>","null","fixation","","","","","","","","","","","","","","","","","","","","","","",""
"","","","","","html-slider-response","67","197229","0.0-17.0-0.17","23f0d474-21db-40ae-975c-dda11190e33a","1000","
                  <p style=""text-align: center;"">₪36
                                                <br>70%</p>
                  <p id=""wtp"" style=""text-align:center; margin-top: 0px; margin-bottom: 0px; font-size: 40px"";>&ensp;</p>","-","viewing","0","13","3A,5C,10B","","","","","","","","","","","","","","","","","","","",""
"","","","","","html-slider-response","68","200052","0.0-17.0-1.17","23f0d474-21db-40ae-975c-dda11190e33a","2823","
                  <p style=""text-align: center;"">₪36
                                                <br>70%</p>
                  <p id=""wtp"" style=""text-align:center; margin-top: 0px; margin-bottom: 0px; font-size: 40px"";>מוכנים לשלם: <span id=""c_p_y""></span></p>","23","evaluation","58","13","3A,5C,10B","70","36","23","","","","","","","","","","","","","","","","",""
"","","","","","html-keyboard-response","69","200811","0.0-17.0-2.17","23f0d474-21db-40ae-975c-dda11190e33a","null","<p style=""text-align: center;"">+</p>","null","fixation","","","","","","","","","","","","","","","","","","","","","","",""
"","","","","","html-slider-response","70","201812","0.0-17.0-0.18","23f0d474-21db-40ae-975c-dda11190e33a","1000","
                  <p style=""text-align: center;"">₪18
                                                <br>50%</p>
                  <p id=""wtp"" style=""text-align:center; margin-top: 0px; margin-bottom: 0px; font-size: 40px"";>&ensp;</p>","-","viewing","0","10","2C,16C,22B,28A","","","","","","","","","","","","","","","","","","","",""
"","","","","","html-slider-response","71","204461","0.0-17.0-1.18","23f0d474-21db-40ae-975c-dda11190e33a","2648","
                  <p style=""text-align: center;"">₪18
                                                <br>50%</p>
                  <p id=""wtp"" style=""text-align:center; margin-top: 0px; margin-bottom: 0px; font-size: 40px"";>מוכנים לשלם: <span id=""c_p_y""></span></p>","7","evaluation","32","10","2C,16C,22B,28A","50","18","7","","","","","","","","","","","","","","","","",""
"","","","","","html-keyboard-response","72","205762","0.0-17.0-2.18","23f0d474-21db-40ae-975c-dda11190e33a","null","<p style=""text-align: center;"">+</p>","null","fixation","","","","","","","","","","","","","","","","","","","","","","",""
"","","","","","html-slider-response","73","206769","0.0-17.0-0.19","23f0d474-21db-40ae-975c-dda11190e33a","1000","
                  <p style=""text-align: center;"">₪11
                                                <br>20%</p>
                  <p id=""wtp"" style=""text-align:center; margin-top: 0px; margin-bottom: 0px; font-size: 40px"";>&ensp;</p>","-","viewing","0","4","12C,17C,23C,28C","","","","","","","","","","","","","","","","","","","",""
"","","","","","html-slider-response","74","208781","0.0-17.0-1.19","23f0d474-21db-40ae-975c-dda11190e33a","2010","
                  <p style=""text-align: center;"">₪11
                                                <br>20%</p>
                  <p id=""wtp"" style=""text-align:center; margin-top: 0px; margin-bottom: 0px; font-size: 40px"";>מוכנים לשלם: <span id=""c_p_y""></span></p>","6","evaluation","32","4","12C,17C,23C,28C","20","11","7","","","","","","","","","","","","","","","","",""
"","","","","","html-keyboard-response","75","209915","0.0-17.0-2.19","23f0d474-21db-40ae-975c-dda11190e33a","null","<p style=""text-align: center;"">+</p>","null","fixation","","","","","","","","","","","","","","","","","","","","","","",""
"","","","","","html-slider-response","76","210924","0.0-17.0-0.20","23f0d474-21db-40ae-975c-dda11190e33a","1000","
                  <p style=""text-align: center;"">₪71
                                                <br>75%</p>
                  <p id=""wtp"" style=""text-align:center; margin-top: 0px; margin-bottom: 0px; font-size: 40px"";>&ensp;</p>","-","viewing","0","28","8B","","","","","","","","","","","","","","","","","","","",""
"","","","","","html-slider-response","77","213812","0.0-17.0-1.20","23f0d474-21db-40ae-975c-dda11190e33a","2887","
                  <p style=""text-align: center;"">₪71
                                                <br>75%</p>
                  <p id=""wtp"" style=""text-align:center; margin-top: 0px; margin-bottom: 0px; font-size: 40px"";>מוכנים לשלם: <span id=""c_p_y""></span></p>","59","evaluation","71","28","8B","75","71","59","","","","","","","","","","","","","","","","",""
"","","","","","html-keyboard-response","78","214938","0.0-17.0-2.20","23f0d474-21db-40ae-975c-dda11190e33a","null","<p style=""text-align: center;"">+</p>","null","fixation","","","","","","","","","","","","","","","","","","","","","","",""
"","","","","","html-slider-response","79","215946","0.0-17.0-0.21","23f0d474-21db-40ae-975c-dda11190e33a","1000","
                  <p style=""text-align: center;"">₪61
                                                <br>45%</p>
                  <p id=""wtp"" style=""text-align:center; margin-top: 0px; margin-bottom: 0px; font-size: 40px"";>&ensp;</p>","-","viewing","0","22","10A,11A","","","","","","","","","","","","","","","","","","","",""
"","","","","","html-slider-response","80","218421","0.0-17.0-1.21","23f0d474-21db-40ae-975c-dda11190e33a","2474","
                  <p style=""text-align: center;"">₪61
                                                <br>45%</p>
                  <p id=""wtp"" style=""text-align:center; margin-top: 0px; margin-bottom: 0px; font-size: 40px"";>מוכנים לשלם: <span id=""c_p_y""></span></p>","36","evaluation","62","22","10A,11A","45","61","36","","","","","","","","","","","","","","","","",""
"","","","","","html-keyboard-response","81","219871","0.0-17.0-2.21","23f0d474-21db-40ae-975c-dda11190e33a","null","<p style=""text-align: center;"">+</p>","null","fixation","","","","","","","","","","","","","","","","","","","","","","",""
"","","","","","html-slider-response","82","220873","0.0-17.0-0.22","23f0d474-21db-40ae-975c-dda11190e33a","1000","
                  <p style=""text-align: center;"">₪11
                                                <br>75%</p>
                  <p id=""wtp"" style=""text-align:center; margin-top: 0px; margin-bottom: 0px; font-size: 40px"";>&ensp;</p>","-","viewing","0","7","6B,18B,22C,24C,29A","","","","","","","","","","","","","","","","","","","",""
"","","","","","html-slider-response","83","223660","0.0-17.0-1.22","23f0d474-21db-40ae-975c-dda11190e33a","2786","
                  <p style=""text-align: center;"">₪11
                                                <br>75%</p>
                  <p id=""wtp"" style=""text-align:center; margin-top: 0px; margin-bottom: 0px; font-size: 40px"";>מוכנים לשלם: <span id=""c_p_y""></span></p>","19","evaluation","15","7","6B,18B,22C,24C,29A","75","11","19","","","","","","","","","","","","","","","","",""
"","","","","","html-keyboard-response","84","224390","0.0-17.0-2.22","23f0d474-21db-40ae-975c-dda11190e33a","null","<p style=""text-align: center;"">+</p>","null","fixation","","","","","","","","","","","","","","","","","","","","","","",""
"","","","","","html-slider-response","85","225405","0.0-17.0-0.23","23f0d474-21db-40ae-975c-dda11190e33a","1000","
                  <p style=""text-align: center;"">₪76
                                                <br>65%</p>
                  <p id=""wtp"" style=""text-align:center; margin-top: 0px; margin-bottom: 0px; font-size: 40px"";>&ensp;</p>","-","viewing","0","29","8C,19A,24B","","","","","","","","","","","","","","","","","","","",""
"","","","","","html-slider-response","86","228162","0.0-17.0-1.23","23f0d474-21db-40ae-975c-dda11190e33a","2758","
                  <p style=""text-align: center;"">₪76
                                                <br>65%</p>
                  <p id=""wtp"" style=""text-align:center; margin-top: 0px; margin-bottom: 0px; font-size: 40px"";>מוכנים לשלם: <span id=""c_p_y""></span></p>","52","evaluation","78","29","8C,19A,24B","65","76","52","","","","","","","","","","","","","","","","",""
"","","","","","html-keyboard-response","87","229095","0.0-17.0-2.23","23f0d474-21db-40ae-975c-dda11190e33a","null","<p style=""text-align: center;"">+</p>","null","fixation","","","","","","","","","","","","","","","","","","","","","","",""
"","","","","","html-slider-response","88","230107","0.0-17.0-0.24","23f0d474-21db-40ae-975c-dda11190e33a","1000","
                  <p style=""text-align: center;"">₪18
                                                <br>25%</p>
                  <p id=""wtp"" style=""text-align:center; margin-top: 0px; margin-bottom: 0px; font-size: 40px"";>&ensp;</p>","-","viewing","0","9","14A,23A","","","","","","","","","","","","","","","","","","","",""
"","","","","","html-slider-response","89","232402","0.0-17.0-1.24","23f0d474-21db-40ae-975c-dda11190e33a","2294","
                  <p style=""text-align: center;"">₪18
                                                <br>25%</p>
                  <p id=""wtp"" style=""text-align:center; margin-top: 0px; margin-bottom: 0px; font-size: 40px"";>מוכנים לשלם: <span id=""c_p_y""></span></p>","7","evaluation","1","9","14A,23A","25","18","7","","","","","","","","","","","","","","","","",""
"","","","","","html-keyboard-response","90","233346","0.0-17.0-2.24","23f0d474-21db-40ae-975c-dda11190e33a","null","<p style=""text-align: center;"">+</p>","null","fixation","","","","","","","","","","","","","","","","","","","","","","",""
"","","","","","html-slider-response","91","234355","0.0-17.0-0.25","23f0d474-21db-40ae-975c-dda11190e33a","1000","
                  <p style=""text-align: center;"">₪58
                                                <br>45%</p>
                  <p id=""wtp"" style=""text-align:center; margin-top: 0px; margin-bottom: 0px; font-size: 40px"";>&ensp;</p>","-","viewing","0","21","11C,18C,25A","","","","","","","","","","","","","","","","","","","",""
"","","","","","html-slider-response","92","236898","0.0-17.0-1.25","23f0d474-21db-40ae-975c-dda11190e33a","2541","
                  <p style=""text-align: center;"">₪58
                                                <br>45%</p>
                  <p id=""wtp"" style=""text-align:center; margin-top: 0px; margin-bottom: 0px; font-size: 40px"";>מוכנים לשלם: <span id=""c_p_y""></span></p>","16","evaluation","23","21","11C,18C,25A","45","58","16","","","","","","","","","","","","","","","","",""
"","","","","","html-keyboard-response","93","237711","0.0-17.0-2.25","23f0d474-21db-40ae-975c-dda11190e33a","null","<p style=""text-align: center;"">+</p>","null","fixation","","","","","","","","","","","","","","","","","","","","","","",""
"","","","","","html-slider-response","94","238715","0.0-17.0-0.26","23f0d474-21db-40ae-975c-dda11190e33a","1000","
                  <p style=""text-align: center;"">₪39
                                                <br>60%</p>
                  <p id=""wtp"" style=""text-align:center; margin-top: 0px; margin-bottom: 0px; font-size: 40px"";>&ensp;</p>","-","viewing","0","15","9C,25B","","","","","","","","","","","","","","","","","","","",""
"","","","","","html-slider-response","95","241034","0.0-17.0-1.26","23f0d474-21db-40ae-975c-dda11190e33a","2318","
                  <p style=""text-align: center;"">₪39
                                                <br>60%</p>
                  <p id=""wtp"" style=""text-align:center; margin-top: 0px; margin-bottom: 0px; font-size: 40px"";>מוכנים לשלם: <span id=""c_p_y""></span></p>","23","evaluation","47","15","9C,25B","60","39","23","","","","","","","","","","","","","","","","",""
"","","","","","html-keyboard-response","96","242162","0.0-17.0-2.26","23f0d474-21db-40ae-975c-dda11190e33a","null","<p style=""text-align: center;"">+</p>","null","fixation","","","","","","","","","","","","","","","","","","","","","","",""
"","","","","","html-slider-response","97","243170","0.0-17.0-0.27","23f0d474-21db-40ae-975c-dda11190e33a","1000","
                  <p style=""text-align: center;"">₪61
                                                <br>55%</p>
                  <p id=""wtp"" style=""text-align:center; margin-top: 0px; margin-bottom: 0px; font-size: 40px"";>&ensp;</p>","-","viewing","0","23","7B,26B","","","","","","","","","","","","","","","","","","","",""
"","","","","","html-slider-response","98","246370","0.0-17.0-1.27","23f0d474-21db-40ae-975c-dda11190e33a","3199","
                  <p style=""text-align: center;"">₪61
                                                <br>55%</p>
                  <p id=""wtp"" style=""text-align:center; margin-top: 0px; margin-bottom: 0px; font-size: 40px"";>מוכנים לשלם: <span id=""c_p_y""></span></p>","51","evaluation","53","23","7B,26B","55","61","51","","","","","","","","","","","","","","","","",""
"","","","","","html-keyboard-response","99","247000","0.0-17.0-2.27","23f0d474-21db-40ae-975c-dda11190e33a","null","<p style=""text-align: center;"">+</p>","null","fixation","","","","","","","","","","","","","","","","","","","","","","",""
"","","","","","html-slider-response","100","248012","0.0-17.0-0.28","23f0d474-21db-40ae-975c-dda11190e33a","1000","
                  <p style=""text-align: center;"">₪43
                                                <br>60%</p>
                  <p id=""wtp"" style=""text-align:center; margin-top: 0px; margin-bottom: 0px; font-size: 40px"";>&ensp;</p>","-","viewing","0","17","2A,7A,9A,15B","","","","","","","","","","","","","","","","","","","",""
"","","","","","html-slider-response","101","250418","0.0-17.0-1.28","23f0d474-21db-40ae-975c-dda11190e33a","2404","
                  <p style=""text-align: center;"">₪43
                                                <br>60%</p>
                  <p id=""wtp"" style=""text-align:center; margin-top: 0px; margin-bottom: 0px; font-size: 40px"";>מוכנים לשלם: <span id=""c_p_y""></span></p>","33","evaluation","37","17","2A,7A,9A,15B","60","43","33","","","","","","","","","","","","","","","","",""
"","","","","","html-keyboard-response","102","251908","0.0-17.0-2.28","23f0d474-21db-40ae-975c-dda11190e33a","null","<p style=""text-align: center;"">+</p>","null","fixation","","","","","","","","","","","","","","","","","","","","","","",""
"","","","","","html-slider-response","103","252921","0.0-17.0-0.29","23f0d474-21db-40ae-975c-dda11190e33a","1000","
                  <p style=""text-align: center;"">₪64
                                                <br>50%</p>
                  <p id=""wtp"" style=""text-align:center; margin-top: 0px; margin-bottom: 0px; font-size: 40px"";>&ensp;</p>","-","viewing","0","25","1B,3B,4A","","","","","","","","","","","","","","","","","","","",""
"","","","","","html-slider-response","104","255170","0.0-17.0-1.29","23f0d474-21db-40ae-975c-dda11190e33a","2248","
                  <p style=""text-align: center;"">₪64
                                                <br>50%</p>
                  <p id=""wtp"" style=""text-align:center; margin-top: 0px; margin-bottom: 0px; font-size: 40px"";>מוכנים לשלם: <span id=""c_p_y""></span></p>","51","evaluation","16","25","1B,3B,4A","50","64","51","","","","","","","","","","","","","","","","",""
"","","","","","html-keyboard-response","105","256356","0.0-17.0-2.29","23f0d474-21db-40ae-975c-dda11190e33a","null","<p style=""text-align: center;"">+</p>","null","fixation","","","","","","","","","","","","","","","","","","","","","","",""
"","","","","","html-slider-response","106","257368","0.0-17.0-0.30","23f0d474-21db-40ae-975c-dda11190e33a","1000","
                  <p style=""text-align: center;"">₪58
                                                <br>30%</p>
                  <p id=""wtp"" style=""text-align:center; margin-top: 0px; margin-bottom: 0px; font-size: 40px"";>&ensp;</p>","-","viewing","0","19","13C,30A","","","","","","","","","","","","","","","","","","","",""
"","","","","","html-slider-response","107","259378","0.0-17.0-1.30","23f0d474-21db-40ae-975c-dda11190e33a","2009","
                  <p style=""text-align: center;"">₪58
                                                <br>30%</p>
                  <p id=""wtp"" style=""text-align:center; margin-top: 0px; margin-bottom: 0px; font-size: 40px"";>מוכנים לשלם: <span id=""c_p_y""></span></p>","16","evaluation","8","19","13C,30A","30","58","16","","","","","","","","","","","","","","","","",""
"","","","","","html-keyboard-response","108","260229","0.0-17.0-2.30","23f0d474-21db-40ae-975c-dda11190e33a","null","<p style=""text-align: center;"">+</p>","null","fixation","","","","","","","","","","","","","","","","","","","","","","",""
"","","","","","html-keyboard-response","109","261238","0.0-18.0","23f0d474-21db-40ae-975c-dda11190e33a","null","<p style=""text-align: center;"">+</p>","null","fixation","","","","","","","","","","","","","","","","","","","","","","",""
"","","","","","html-keyboard-response","110","263698","0.0-19.0","23f0d474-21db-40ae-975c-dda11190e33a","null","<p>הפסקה.
          <br>לחצו כדי להמשיך.</p>","1","scan_wait","","","","","","","","","","","","","","","","","","","","","","",""
"","","","","","html-keyboard-response","111","264709","0.0-20.0","23f0d474-21db-40ae-975c-dda11190e33a","null","<p style=""text-align: center;"">+</p>","null","fixation","","","","","","","","","","","","","","","","","","","","","","",""
"","","","","","html-slider-response","112","265711","0.0-21.0-0.0","23f0d474-21db-40ae-975c-dda11190e33a","1000","
                  <p style=""text-align: center;"">₪36
                                                <br>60%</p>
                  <p id=""wtp"" style=""text-align:center; margin-top: 0px; margin-bottom: 0px; font-size: 40px"";>&ensp;</p>","-","viewing","0","12","1C,7C,15C","","","","","","","","","","","","","","","","","","","",""
"","","","","","html-slider-response","113","267594","0.0-21.0-1.0","23f0d474-21db-40ae-975c-dda11190e33a","1882","
                  <p style=""text-align: center;"">₪36
                                                <br>60%</p>
                  <p id=""wtp"" style=""text-align:center; margin-top: 0px; margin-bottom: 0px; font-size: 40px"";>מוכנים לשלם: <span id=""c_p_y""></span></p>","34","evaluation","5","12","1C,7C,15C","60","36","34","","","","","","","","","","","","","","","","",""
"","","","","","html-keyboard-response","114","268941","0.0-21.0-2.0","23f0d474-21db-40ae-975c-dda11190e33a","null","<p style=""text-align: center;"">+</p>","null","fixation","","","","","","","","","","","","","","","","","","","","","","",""
"","","","","","html-slider-response","115","269948","0.0-21.0-0.1","23f0d474-21db-40ae-975c-dda11190e33a","1000","
                  <p style=""text-align: center;"">₪11
                                                <br>25%</p>
                  <p id=""wtp"" style=""text-align:center; margin-top: 0px; margin-bottom: 0px; font-size: 40px"";>&ensp;</p>","-","viewing","0","5","12A,27B,28B,30B","","","","","","","","","","","","","","","","","","","",""
"","","","","","html-slider-response","116","271738","0.0-21.0-1.1","23f0d474-21db-40ae-975c-dda11190e33a","1789","
                  <p style=""text-align: center;"">₪11
                                                <br>25%</p>
                  <p id=""wtp"" style=""text-align:center; margin-top: 0px; margin-bottom: 0px; font-size: 40px"";>מוכנים לשלם: <span id=""c_p_y""></span></p>","7","evaluation","65","5","12A,27B,28B,30B","25","11","7","","","","","","","","","","","","","","","","",""
"","","","","","html-keyboard-response","117","272744","0.0-21.0-2.1","23f0d474-21db-40ae-975c-dda11190e33a","null","<p style=""text-align: center;"">+</p>","null","fixation","","","","","","","","","","","","","","","","","","","","","","",""
"","","","","","html-slider-response","118","273750","0.0-21.0-0.2","23f0d474-21db-40ae-975c-dda11190e33a","1000","
                  <p style=""text-align: center;"">₪4
                                                <br>50%</p>
                  <p id=""wtp"" style=""text-align:center; margin-top: 0px; margin-bottom: 0px; font-size: 40px"";>&ensp;</p>","-","viewing","0","2","4C,17B","","","","","","","","","","","","","","","","","","","",""
"","","","","","html-slider-response","119","275042","0.0-21.0-1.2","23f0d474-21db-40ae-975c-dda11190e33a","1291","
                  <p style=""text-align: center;"">₪4
                                                <br>50%</p>
                  <p id=""wtp"" style=""text-align:center; margin-top: 0px; margin-bottom: 0px; font-size: 40px"";>מוכנים לשלם: <span id=""c_p_y""></span></p>","0","evaluation","61","2","4C,17B","50","4","0","","","","","","","","","","","","","","","","",""
"","","","","","html-keyboard-response","120","276462","0.0-21.0-2.2","23f0d474-21db-40ae-975c-dda11190e33a","null","<p style=""text-align: center;"">+</p>","null","fixation","","","","","","","","","","","","","","","","","","","","","","",""
"","","","","","html-slider-response","121","277466","0.0-21.0-0.3","23f0d474-21db-40ae-975c-dda11190e33a","1000","
                  <p style=""text-align: center;"">₪58
                                                <br>45%</p>
                  <p id=""wtp"" style=""text-align:center; margin-top: 0px; margin-bottom: 0px; font-size: 40px"";>&ensp;</p>","-","viewing","0","21","11C,18C,25A","","","","","","","","","","","","","","","","","","","",""
"","","","","","html-slider-response","122","279850","0.0-21.0-1.3","23f0d474-21db-40ae-975c-dda11190e33a","2384","
                  <p style=""text-align: center;"">₪58
                                                <br>45%</p>
                  <p id=""wtp"" style=""text-align:center; margin-top: 0px; margin-bottom: 0px; font-size: 40px"";>מוכנים לשלם: <span id=""c_p_y""></span></p>","24","evaluation","37","21","11C,18C,25A","45","58","24","","","","","","","","","","","","","","","","",""
"","","","","","html-keyboard-response","123","281168","0.0-21.0-2.3","23f0d474-21db-40ae-975c-dda11190e33a","null","<p style=""text-align: center;"">+</p>","null","fixation","","","","","","","","","","","","","","","","","","","","","","",""
"","","","","","html-slider-response","124","282172","0.0-21.0-0.4","23f0d474-21db-40ae-975c-dda11190e33a","1000","
                  <p style=""text-align: center;"">₪71
                                                <br>75%</p>
                  <p id=""wtp"" style=""text-align:center; margin-top: 0px; margin-bottom: 0px; font-size: 40px"";>&ensp;</p>","-","viewing","0","28","8B","","","","","","","","","","","","","","","","","","","",""
"","","","","","html-slider-response","125","284538","0.0-21.0-1.4","23f0d474-21db-40ae-975c-dda11190e33a","2365","
                  <p style=""text-align: center;"">₪71
                                                <br>75%</p>
                  <p id=""wtp"" style=""text-align:center; margin-top: 0px; margin-bottom: 0px; font-size: 40px"";>מוכנים לשלם: <span id=""c_p_y""></span></p>","65","evaluation","26","28","8B","75","71","64","","","","","","","","","","","","","","","","",""
"","","","","","html-keyboard-response","126","285850","0.0-21.0-2.4","23f0d474-21db-40ae-975c-dda11190e33a","null","<p style=""text-align: center;"">+</p>","null","fixation","","","","","","","","","","","","","","","","","","","","","","",""
"","","","","","html-slider-response","127","286862","0.0-21.0-0.5","23f0d474-21db-40ae-975c-dda11190e33a","1000","
                  <p style=""text-align: center;"">₪18
                                                <br>25%</p>
                  <p id=""wtp"" style=""text-align:center; margin-top: 0px; margin-bottom: 0px; font-size: 40px"";>&ensp;</p>","-","viewing","0","9","14A,23A","","","","","","","","","","","","","","","","","","","",""
"","","","","","html-slider-response","128","288863","0.0-21.0-1.5","23f0d474-21db-40ae-975c-dda11190e33a","2000","
                  <p style=""text-align: center;"">₪18
                                                <br>25%</p>
                  <p id=""wtp"" style=""text-align:center; margin-top: 0px; margin-bottom: 0px; font-size: 40px"";>מוכנים לשלם: <span id=""c_p_y""></span></p>","9","evaluation","44","9","14A,23A","25","18","9","","","","","","","","","","","","","","","","",""
"","","","","","html-keyboard-response","129","289630","0.0-21.0-2.5","23f0d474-21db-40ae-975c-dda11190e33a","null","<p style=""text-align: center;"">+</p>","null","fixation","","","","","","","","","","","","","","","","","","","","","","",""
"","","","","","html-slider-response","130","290632","0.0-21.0-0.6","23f0d474-21db-40ae-975c-dda11190e33a","1000","
                  <p style=""text-align: center;"">₪18
                                                <br>50%</p>
                  <p id=""wtp"" style=""text-align:center; margin-top: 0px; margin-bottom: 0px; font-size: 40px"";>&ensp;</p>","-","viewing","0","10","2C,16C,22B,28A","","","","","","","","","","","","","","","","","","","",""
"","","","","","html-slider-response","131","292583","0.0-21.0-1.6","23f0d474-21db-40ae-975c-dda11190e33a","1950","
                  <p style=""text-align: center;"">₪18
                                                <br>50%</p>
                  <p id=""wtp"" style=""text-align:center; margin-top: 0px; margin-bottom: 0px; font-size: 40px"";>מוכנים לשלם: <span id=""c_p_y""></span></p>","11","evaluation","69","10","2C,16C,22B,28A","50","18","12","","","","","","","","","","","","","","","","",""
"","","","","","html-keyboard-response","132","293133","0.0-21.0-2.6","23f0d474-21db-40ae-975c-dda11190e33a","null","<p style=""text-align: center;"">+</p>","null","fixation","","","","","","","","","","","","","","","","","","","","","","",""
"","","","","","html-slider-response","133","294137","0.0-21.0-0.7","23f0d474-21db-40ae-975c-dda11190e33a","1000","
                  <p style=""text-align: center;"">₪58
                                                <br>30%</p>
                  <p id=""wtp"" style=""text-align:center; margin-top: 0px; margin-bottom: 0px; font-size: 40px"";>&ensp;</p>","-","viewing","0","19","13C,30A","","","","","","","","","","","","","","","","","","","",""
"","","","","","html-slider-response","134","296871","0.0-21.0-1.7","23f0d474-21db-40ae-975c-dda11190e33a","2733","
                  <p style=""text-align: center;"">₪58
                                                <br>30%</p>
                  <p id=""wtp"" style=""text-align:center; margin-top: 0px; margin-bottom: 0px; font-size: 40px"";>מוכנים לשלם: <span id=""c_p_y""></span></p>","24","evaluation","10","19","13C,30A","30","58","24","","","","","","","","","","","","","","","","",""
"","","","","","html-keyboard-response","135","297836","0.0-21.0-2.7","23f0d474-21db-40ae-975c-dda11190e33a","null","<p style=""text-align: center;"">+</p>","null","fixation","","","","","","","","","","","","","","","","","","","","","","",""
"","","","","","html-slider-response","136","298842","0.0-21.0-0.8","23f0d474-21db-40ae-975c-dda11190e33a","1000","
                  <p style=""text-align: center;"">₪36
                                                <br>30%</p>
                  <p id=""wtp"" style=""text-align:center; margin-top: 0px; margin-bottom: 0px; font-size: 40px"";>&ensp;</p>","-","viewing","0","11","3C,20A,22A","","","","","","","","","","","","","","","","","","","",""
"","","","","","html-slider-response","137","301047","0.0-21.0-1.8","23f0d474-21db-40ae-975c-dda11190e33a","2204","
                  <p style=""text-align: center;"">₪36
                                                <br>30%</p>
                  <p id=""wtp"" style=""text-align:center; margin-top: 0px; margin-bottom: 0px; font-size: 40px"";>מוכנים לשלם: <span id=""c_p_y""></span></p>","20","evaluation","34","11","3C,20A,22A","30","36","20","","","","","","","","","","","","","","","","",""
"","","","","","html-keyboard-response","138","302077","0.0-21.0-2.8","23f0d474-21db-40ae-975c-dda11190e33a","null","<p style=""text-align: center;"">+</p>","null","fixation","","","","","","","","","","","","","","","","","","","","","","",""
"","","","","","html-slider-response","139","303081","0.0-21.0-0.9","23f0d474-21db-40ae-975c-dda11190e33a","1000","
                  <p style=""text-align: center;"">₪58
                                                <br>40%</p>
                  <p id=""wtp"" style=""text-align:center; margin-top: 0px; margin-bottom: 0px; font-size: 40px"";>&ensp;</p>","-","viewing","0","20","10C,13A,19C,21B","","","","","","","","","","","","","","","","","","","",""
"","","","","","html-slider-response","140","305447","0.0-21.0-1.9","23f0d474-21db-40ae-975c-dda11190e33a","2365","
                  <p style=""text-align: center;"">₪58
                                                <br>40%</p>
                  <p id=""wtp"" style=""text-align:center; margin-top: 0px; margin-bottom: 0px; font-size: 40px"";>מוכנים לשלם: <span id=""c_p_y""></span></p>","25","evaluation","29","20","10C,13A,19C,21B","40","58","25","","","","","","","","","","","","","","","","",""
"","","","","","html-keyboard-response","141","306186","0.0-21.0-2.9","23f0d474-21db-40ae-975c-dda11190e33a","null","<p style=""text-align: center;"">+</p>","null","fixation","","","","","","","","","","","","","","","","","","","","","","",""
"","","","","","html-slider-response","142","307199","0.0-21.0-0.10","23f0d474-21db-40ae-975c-dda11190e33a","1000","
                  <p style=""text-align: center;"">₪71
                                                <br>55%</p>
                  <p id=""wtp"" style=""text-align:center; margin-top: 0px; margin-bottom: 0px; font-size: 40px"";>&ensp;</p>","-","viewing","0","27","5B,18A","","","","","","","","","","","","","","","","","","","",""
"","","","","","html-slider-response","143","308743","0.0-21.0-1.10","23f0d474-21db-40ae-975c-dda11190e33a","1544","
                  <p style=""text-align: center;"">₪71
                                                <br>55%</p>
                  <p id=""wtp"" style=""text-align:center; margin-top: 0px; margin-bottom: 0px; font-size: 40px"";>מוכנים לשלם: <span id=""c_p_y""></span></p>","57","evaluation","48","27","5B,18A","55","71","57","","","","","","","","","","","","","","","","",""
"","","","","","html-keyboard-response","144","309533","0.0-21.0-2.10","23f0d474-21db-40ae-975c-dda11190e33a","null","<p style=""text-align: center;"">+</p>","null","fixation","","","","","","","","","","","","","","","","","","","","","","",""
"","","","","","html-slider-response","145","310548","0.0-21.0-0.11","23f0d474-21db-40ae-975c-dda11190e33a","1000","
                  <p style=""text-align: center;"">₪43
                                                <br>75%</p>
                  <p id=""wtp"" style=""text-align:center; margin-top: 0px; margin-bottom: 0px; font-size: 40px"";>&ensp;</p>","-","viewing","0","18","11B,19B,24A,26A","","","","","","","","","","","","","","","","","","","",""
"","","","","","html-slider-response","146","313047","0.0-21.0-1.11","23f0d474-21db-40ae-975c-dda11190e33a","2498","
                  <p style=""text-align: center;"">₪43
                                                <br>75%</p>
                  <p id=""wtp"" style=""text-align:center; margin-top: 0px; margin-bottom: 0px; font-size: 40px"";>מוכנים לשלם: <span id=""c_p_y""></span></p>","28","evaluation","45","18","11B,19B,24A,26A","75","43","28","","","","","","","","","","","","","","","","",""
"","","","","","html-keyboard-response","147","314317","0.0-21.0-2.11","23f0d474-21db-40ae-975c-dda11190e33a","null","<p style=""text-align: center;"">+</p>","null","fixation","","","","","","","","","","","","","","","","","","","","","","",""
"","","","","","html-slider-response","148","315317","0.0-21.0-0.12","23f0d474-21db-40ae-975c-dda11190e33a","1000","
                  <p style=""text-align: center;"">₪36
                                                <br>70%</p>
                  <p id=""wtp"" style=""text-align:center; margin-top: 0px; margin-bottom: 0px; font-size: 40px"";>&ensp;</p>","-","viewing","0","13","3A,5C,10B","","","","","","","","","","","","","","","","","","","",""
"","","","","","html-slider-response","149","317895","0.0-21.0-1.12","23f0d474-21db-40ae-975c-dda11190e33a","2577","
                  <p style=""text-align: center;"">₪36
                                                <br>70%</p>
                  <p id=""wtp"" style=""text-align:center; margin-top: 0px; margin-bottom: 0px; font-size: 40px"";>מוכנים לשלם: <span id=""c_p_y""></span></p>","22","evaluation","11","13","3A,5C,10B","70","36","22","","","","","","","","","","","","","","","","",""
"","","","","","html-keyboard-response","150","319020","0.0-21.0-2.12","23f0d474-21db-40ae-975c-dda11190e33a","null","<p style=""text-align: center;"">+</p>","null","fixation","","","","","","","","","","","","","","","","","","","","","","",""
"","","","","","html-slider-response","151","320027","0.0-21.0-0.13","23f0d474-21db-40ae-975c-dda11190e33a","1000","
                  <p style=""text-align: center;"">₪11
                                                <br>45%</p>
                  <p id=""wtp"" style=""text-align:center; margin-top: 0px; margin-bottom: 0px; font-size: 40px"";>&ensp;</p>","-","viewing","0","6","14B,21C,25C","","","","","","","","","","","","","","","","","","","",""
"","","","","","html-slider-response","152","322367","0.0-21.0-1.13","23f0d474-21db-40ae-975c-dda11190e33a","2339","
                  <p style=""text-align: center;"">₪11
                                                <br>45%</p>
                  <p id=""wtp"" style=""text-align:center; margin-top: 0px; margin-bottom: 0px; font-size: 40px"";>מוכנים לשלם: <span id=""c_p_y""></span></p>","4","evaluation","71","6","14B,21C,25C","45","11","5","","","","","","","","","","","","","","","","",""
"","","","","","html-keyboard-response","153","323123","0.0-21.0-2.13","23f0d474-21db-40ae-975c-dda11190e33a","null","<p style=""text-align: center;"">+</p>","null","fixation","","","","","","","","","","","","","","","","","","","","","","",""
"","","","","","html-slider-response","154","324130","0.0-21.0-0.14","23f0d474-21db-40ae-975c-dda11190e33a","1000","
                  <p style=""text-align: center;"">₪16
                                                <br>20%</p>
                  <p id=""wtp"" style=""text-align:center; margin-top: 0px; margin-bottom: 0px; font-size: 40px"";>&ensp;</p>","-","viewing","0","8","14C,17A,20C,27A","","","","","","","","","","","","","","","","","","","",""
"","","","","","html-slider-response","155","326623","0.0-21.0-1.14","23f0d474-21db-40ae-975c-dda11190e33a","2492","
                  <p style=""text-align: center;"">₪16
                                                <br>20%</p>
                  <p id=""wtp"" style=""text-align:center; margin-top: 0px; margin-bottom: 0px; font-size: 40px"";>מוכנים לשלם: <span id=""c_p_y""></span></p>","12","evaluation","52","8","14C,17A,20C,27A","20","16","12","","","","","","","","","","","","","","","","",""
"","","","","","html-keyboard-response","156","327472","0.0-21.0-2.14","23f0d474-21db-40ae-975c-dda11190e33a","null","<p style=""text-align: center;"">+</p>","null","fixation","","","","","","","","","","","","","","","","","","","","","","",""
"","","","","","html-slider-response","157","328474","0.0-21.0-0.15","23f0d474-21db-40ae-975c-dda11190e33a","1000","
                  <p style=""text-align: center;"">₪64
                                                <br>25%</p>
                  <p id=""wtp"" style=""text-align:center; margin-top: 0px; margin-bottom: 0px; font-size: 40px"";>&ensp;</p>","-","viewing","0","24","6A,21A","","","","","","","","","","","","","","","","","","","",""
"","","","","","html-slider-response","158","330319","0.0-21.0-1.15","23f0d474-21db-40ae-975c-dda11190e33a","1844","
                  <p style=""text-align: center;"">₪64
                                                <br>25%</p>
                  <p id=""wtp"" style=""text-align:center; margin-top: 0px; margin-bottom: 0px; font-size: 40px"";>מוכנים לשלם: <span id=""c_p_y""></span></p>","26","evaluation","15","24","6A,21A","25","64","26","","","","","","","","","","","","","","","","",""
"","","","","","html-keyboard-response","159","331559","0.0-21.0-2.15","23f0d474-21db-40ae-975c-dda11190e33a","null","<p style=""text-align: center;"">+</p>","null","fixation","","","","","","","","","","","","","","","","","","","","","","",""
"","","","","","html-slider-response","160","332574","0.0-21.0-0.16","23f0d474-21db-40ae-975c-dda11190e33a","1000","
                  <p style=""text-align: center;"">₪79
                                                <br>65%</p>
                  <p id=""wtp"" style=""text-align:center; margin-top: 0px; margin-bottom: 0px; font-size: 40px"";>&ensp;</p>","-","viewing","0","31","8A","","","","","","","","","","","","","","","","","","","",""
"","","","","","html-slider-response","161","335191","0.0-21.0-1.16","23f0d474-21db-40ae-975c-dda11190e33a","2617","
                  <p style=""text-align: center;"">₪79
                                                <br>65%</p>
                  <p id=""wtp"" style=""text-align:center; margin-top: 0px; margin-bottom: 0px; font-size: 40px"";>מוכנים לשלם: <span id=""c_p_y""></span></p>","57","evaluation","20","31","8A","65","79","57","","","","","","","","","","","","","","","","",""
"","","","","","html-keyboard-response","162","335821","0.0-21.0-2.16","23f0d474-21db-40ae-975c-dda11190e33a","null","<p style=""text-align: center;"">+</p>","null","fixation","","","","","","","","","","","","","","","","","","","","","","",""
"","","","","","html-slider-response","163","336827","0.0-21.0-0.17","23f0d474-21db-40ae-975c-dda11190e33a","1000","
                  <p style=""text-align: center;"">₪71
                                                <br>45%</p>
                  <p id=""wtp"" style=""text-align:center; margin-top: 0px; margin-bottom: 0px; font-size: 40px"";>&ensp;</p>","-","viewing","0","26","2B,16A","","","","","","","","","","","","","","","","","","","",""
"","","","","","html-slider-response","164","339343","0.0-21.0-1.17","23f0d474-21db-40ae-975c-dda11190e33a","2515","
                  <p style=""text-align: center;"">₪71
                                                <br>45%</p>
                  <p id=""wtp"" style=""text-align:center; margin-top: 0px; margin-bottom: 0px; font-size: 40px"";>מוכנים לשלם: <span id=""c_p_y""></span></p>","40","evaluation","48","26","2B,16A","45","71","40","","","","","","","","","","","","","","","","",""
"","","","","","html-keyboard-response","165","339913","0.0-21.0-2.17","23f0d474-21db-40ae-975c-dda11190e33a","null","<p style=""text-align: center;"">+</p>","null","fixation","","","","","","","","","","","","","","","","","","","","","","",""
"","","","","","html-slider-response","166","340917","0.0-21.0-0.18","23f0d474-21db-40ae-975c-dda11190e33a","1000","
                  <p style=""text-align: center;"">₪11
                                                <br>75%</p>
                  <p id=""wtp"" style=""text-align:center; margin-top: 0px; margin-bottom: 0px; font-size: 40px"";>&ensp;</p>","-","viewing","0","7","6B,18B,22C,24C,29A","","","","","","","","","","","","","","","","","","","",""
"","","","","","html-slider-response","167","343255","0.0-21.0-1.18","23f0d474-21db-40ae-975c-dda11190e33a","2337","
                  <p style=""text-align: center;"">₪11
                                                <br>75%</p>
                  <p id=""wtp"" style=""text-align:center; margin-top: 0px; margin-bottom: 0px; font-size: 40px"";>מוכנים לשלם: <span id=""c_p_y""></span></p>","3","evaluation","59","7","6B,18B,22C,24C,29A","75","11","3","","","","","","","","","","","","","","","","",""
"","","","","","html-keyboard-response","168","344446","0.0-21.0-2.18","23f0d474-21db-40ae-975c-dda11190e33a","null","<p style=""text-align: center;"">+</p>","null","fixation","","","","","","","","","","","","","","","","","","","","","","",""
"","","","","","html-slider-response","169","345455","0.0-21.0-0.19","23f0d474-21db-40ae-975c-dda11190e33a","1000","
                  <p style=""text-align: center;"">₪11
                                                <br>20%</p>
                  <p id=""wtp"" style=""text-align:center; margin-top: 0px; margin-bottom: 0px; font-size: 40px"";>&ensp;</p>","-","viewing","0","4","12C,17C,23C,28C","","","","","","","","","","","","","","","","","","","",""
"","","","","","html-slider-response","170","348284","0.0-21.0-1.19","23f0d474-21db-40ae-975c-dda11190e33a","2831","
                  <p style=""text-align: center;"">₪11
                                                <br>20%</p>
                  <p id=""wtp"" style=""text-align:center; margin-top: 0px; margin-bottom: 0px; font-size: 40px"";>מוכנים לשלם: <span id=""c_p_y""></span></p>","1","evaluation","24","4","12C,17C,23C,28C","20","11","1","","","","","","","","","","","","","","","","",""
"","","","","","html-keyboard-response","171","349259","0.0-21.0-2.19","23f0d474-21db-40ae-975c-dda11190e33a","null","<p style=""text-align: center;"">+</p>","null","fixation","","","","","","","","","","","","","","","","","","","","","","",""
"","","","","","html-slider-response","172","350269","0.0-21.0-0.20","23f0d474-21db-40ae-975c-dda11190e33a","1000","
                  <p style=""text-align: center;"">₪4
                                                <br>75%</p>
                  <p id=""wtp"" style=""text-align:center; margin-top: 0px; margin-bottom: 0px; font-size: 40px"";>&ensp;</p>","-","viewing","0","3","12B,20B,23B,27C,29C","","","","","","","","","","","","","","","","","","","",""
"","","","","","html-slider-response","173","353484","0.0-21.0-1.20","23f0d474-21db-40ae-975c-dda11190e33a","3214","
                  <p style=""text-align: center;"">₪4
                                                <br>75%</p>
                  <p id=""wtp"" style=""text-align:center; margin-top: 0px; margin-bottom: 0px; font-size: 40px"";>מוכנים לשלם: <span id=""c_p_y""></span></p>","5","evaluation","39","3","12B,20B,23B,27C,29C","75","4","5","","","","","","","","","","","","","","","","",""
"","","","","","html-keyboard-response","174","354040","0.0-21.0-2.20","23f0d474-21db-40ae-975c-dda11190e33a","null","<p style=""text-align: center;"">+</p>","null","fixation","","","","","","","","","","","","","","","","","","","","","","",""
"","","","","","html-slider-response","175","355045","0.0-21.0-0.21","23f0d474-21db-40ae-975c-dda11190e33a","1000","
                  <p style=""text-align: center;"">₪64
                                                <br>50%</p>
                  <p id=""wtp"" style=""text-align:center; margin-top: 0px; margin-bottom: 0px; font-size: 40px"";>&ensp;</p>","-","viewing","0","25","1B,3B,4A","","","","","","","","","","","","","","","","","","","",""
"","","","","","html-slider-response","176","358284","0.0-21.0-1.21","23f0d474-21db-40ae-975c-dda11190e33a","3238","
                  <p style=""text-align: center;"">₪64
                                                <br>50%</p>
                  <p id=""wtp"" style=""text-align:center; margin-top: 0px; margin-bottom: 0px; font-size: 40px"";>מוכנים לשלם: <span id=""c_p_y""></span></p>","38","evaluation","22","25","1B,3B,4A","50","64","38","","","","","","","","","","","","","","","","",""
"","","","","","html-keyboard-response","177","358845","0.0-21.0-2.21","23f0d474-21db-40ae-975c-dda11190e33a","null","<p style=""text-align: center;"">+</p>","null","fixation","","","","","","","","","","","","","","","","","","","","","","",""
"","","","","","html-slider-response","178","359846","0.0-21.0-0.22","23f0d474-21db-40ae-975c-dda11190e33a","1000","
                  <p style=""text-align: center;"">₪61
                                                <br>45%</p>
                  <p id=""wtp"" style=""text-align:center; margin-top: 0px; margin-bottom: 0px; font-size: 40px"";>&ensp;</p>","-","viewing","0","22","10A,11A","","","","","","","","","","","","","","","","","","","",""
"","","","","","html-slider-response","179","362276","0.0-21.0-1.22","23f0d474-21db-40ae-975c-dda11190e33a","2429","
                  <p style=""text-align: center;"">₪61
                                                <br>45%</p>
                  <p id=""wtp"" style=""text-align:center; margin-top: 0px; margin-bottom: 0px; font-size: 40px"";>מוכנים לשלם: <span id=""c_p_y""></span></p>","31","evaluation","10","22","10A,11A","45","61","31","","","","","","","","","","","","","","","","",""
"","","","","","html-keyboard-response","180","363707","0.0-21.0-2.22","23f0d474-21db-40ae-975c-dda11190e33a","null","<p style=""text-align: center;"">+</p>","null","fixation","","","","","","","","","","","","","","","","","","","","","","",""
"","","","","","html-slider-response","181","364710","0.0-21.0-0.23","23f0d474-21db-40ae-975c-dda11190e33a","1000","
                  <p style=""text-align: center;"">₪39
                                                <br>60%</p>
                  <p id=""wtp"" style=""text-align:center; margin-top: 0px; margin-bottom: 0px; font-size: 40px"";>&ensp;</p>","-","viewing","0","15","9C,25B","","","","","","","","","","","","","","","","","","","",""
"","","","","","html-slider-response","182","367117","0.0-21.0-1.23","23f0d474-21db-40ae-975c-dda11190e33a","2406","
                  <p style=""text-align: center;"">₪39
                                                <br>60%</p>
                  <p id=""wtp"" style=""text-align:center; margin-top: 0px; margin-bottom: 0px; font-size: 40px"";>מוכנים לשלם: <span id=""c_p_y""></span></p>","29","evaluation","72","15","9C,25B","60","39","29","","","","","","","","","","","","","","","","",""
"","","","","","html-keyboard-response","183","367936","0.0-21.0-2.23","23f0d474-21db-40ae-975c-dda11190e33a","null","<p style=""text-align: center;"">+</p>","null","fixation","","","","","","","","","","","","","","","","","","","","","","",""
"","","","","","html-slider-response","184","368942","0.0-21.0-0.24","23f0d474-21db-40ae-975c-dda11190e33a","1000","
                  <p style=""text-align: center;"">₪36
                                                <br>75%</p>
                  <p id=""wtp"" style=""text-align:center; margin-top: 0px; margin-bottom: 0px; font-size: 40px"";>&ensp;</p>","-","viewing","0","14","4B,5A,13B,16B","","","","","","","","","","","","","","","","","","","",""
"","","","","","html-slider-response","185","371484","0.0-21.0-1.24","23f0d474-21db-40ae-975c-dda11190e33a","2541","
                  <p style=""text-align: center;"">₪36
                                                <br>75%</p>
                  <p id=""wtp"" style=""text-align:center; margin-top: 0px; margin-bottom: 0px; font-size: 40px"";>מוכנים לשלם: <span id=""c_p_y""></span></p>","21","evaluation","41","14","4B,5A,13B,16B","75","36","21","","","","","","","","","","","","","","","","",""
"","","","","","html-keyboard-response","186","372229","0.0-21.0-2.24","23f0d474-21db-40ae-975c-dda11190e33a","null","<p style=""text-align: center;"">+</p>","null","fixation","","","","","","","","","","","","","","","","","","","","","","",""
"","","","","","html-slider-response","187","373245","0.0-21.0-0.25","23f0d474-21db-40ae-975c-dda11190e33a","1000","
                  <p style=""text-align: center;"">₪79
                                                <br>40%</p>
                  <p id=""wtp"" style=""text-align:center; margin-top: 0px; margin-bottom: 0px; font-size: 40px"";>&ensp;</p>","-","viewing","0","30","9B","","","","","","","","","","","","","","","","","","","",""
"","","","","","html-slider-response","188","376068","0.0-21.0-1.25","23f0d474-21db-40ae-975c-dda11190e33a","2823","
                  <p style=""text-align: center;"">₪79
                                                <br>40%</p>
                  <p id=""wtp"" style=""text-align:center; margin-top: 0px; margin-bottom: 0px; font-size: 40px"";>מוכנים לשלם: <span id=""c_p_y""></span></p>","25","evaluation","20","30","9B","40","79","25","","","","","","","","","","","","","","","","",""
"","","","","","html-keyboard-response","189","377303","0.0-21.0-2.25","23f0d474-21db-40ae-975c-dda11190e33a","null","<p style=""text-align: center;"">+</p>","null","fixation","","","","","","","","","","","","","","","","","","","","","","",""
"","","","","","html-slider-response","190","378317","0.0-21.0-0.26","23f0d474-21db-40ae-975c-dda11190e33a","1000","
                  <p style=""text-align: center;"">₪43
                                                <br>60%</p>
                  <p id=""wtp"" style=""text-align:center; margin-top: 0px; margin-bottom: 0px; font-size: 40px"";>&ensp;</p>","-","viewing","0","17","2A,7A,9A,15B","","","","","","","","","","","","","","","","","","","",""
"","","","","","html-slider-response","191","380716","0.0-21.0-1.26","23f0d474-21db-40ae-975c-dda11190e33a","2398","
                  <p style=""text-align: center;"">₪43
                                                <br>60%</p>
                  <p id=""wtp"" style=""text-align:center; margin-top: 0px; margin-bottom: 0px; font-size: 40px"";>מוכנים לשלם: <span id=""c_p_y""></span></p>","27","evaluation","5","17","2A,7A,9A,15B","60","43","27","","","","","","","","","","","","","","","","",""
"","","","","","html-keyboard-response","192","382159","0.0-21.0-2.26","23f0d474-21db-40ae-975c-dda11190e33a","null","<p style=""text-align: center;"">+</p>","null","fixation","","","","","","","","","","","","","","","","","","","","","","",""
"","","","","","html-slider-response","193","383165","0.0-21.0-0.27","23f0d474-21db-40ae-975c-dda11190e33a","1000","
                  <p style=""text-align: center;"">₪4
                                                <br>25%</p>
                  <p id=""wtp"" style=""text-align:center; margin-top: 0px; margin-bottom: 0px; font-size: 40px"";>&ensp;</p>","-","viewing","0","1","6C,29B,30C","","","","","","","","","","","","","","","","","","","",""
"","","","","","html-slider-response","194","384868","0.0-21.0-1.27","23f0d474-21db-40ae-975c-dda11190e33a","1702","
                  <p style=""text-align: center;"">₪4
                                                <br>25%</p>
                  <p id=""wtp"" style=""text-align:center; margin-top: 0px; margin-bottom: 0px; font-size: 40px"";>מוכנים לשלם: <span id=""c_p_y""></span></p>","1","evaluation","11","1","6C,29B,30C","25","4","2","","","","","","","","","","","","","","","","",""
"","","","","","html-keyboard-response","195","386226","0.0-21.0-2.27","23f0d474-21db-40ae-975c-dda11190e33a","null","<p style=""text-align: center;"">+</p>","null","fixation","","","","","","","","","","","","","","","","","","","","","","",""
"","","","","","html-slider-response","196","387229","0.0-21.0-0.28","23f0d474-21db-40ae-975c-dda11190e33a","1000","
                  <p style=""text-align: center;"">₪76
                                                <br>65%</p>
                  <p id=""wtp"" style=""text-align:center; margin-top: 0px; margin-bottom: 0px; font-size: 40px"";>&ensp;</p>","-","viewing","0","29","8C,19A,24B","","","","","","","","","","","","","","","","","","","",""
"","","","","","html-slider-response","197","389756","0.0-21.0-1.28","23f0d474-21db-40ae-975c-dda11190e33a","2527","
                  <p style=""text-align: center;"">₪76
                                                <br>65%</p>
                  <p id=""wtp"" style=""text-align:center; margin-top: 0px; margin-bottom: 0px; font-size: 40px"";>מוכנים לשלם: <span id=""c_p_y""></span></p>","56","evaluation","75","29","8C,19A,24B","65","76","56","","","","","","","","","","","","","","","","",""
"","","","","","html-keyboard-response","198","391107","0.0-21.0-2.28","23f0d474-21db-40ae-975c-dda11190e33a","null","<p style=""text-align: center;"">+</p>","null","fixation","","","","","","","","","","","","","","","","","","","","","","",""
"","","","","","html-slider-response","199","392113","0.0-21.0-0.29","23f0d474-21db-40ae-975c-dda11190e33a","1000","
                  <p style=""text-align: center;"">₪61
                                                <br>55%</p>
                  <p id=""wtp"" style=""text-align:center; margin-top: 0px; margin-bottom: 0px; font-size: 40px"";>&ensp;</p>","-","viewing","0","23","7B,26B","","","","","","","","","","","","","","","","","","","",""
"","","","","","html-slider-response","200","395588","0.0-21.0-1.29","23f0d474-21db-40ae-975c-dda11190e33a","3475","
                  <p style=""text-align: center;"">₪61
                                                <br>55%</p>
                  <p id=""wtp"" style=""text-align:center; margin-top: 0px; margin-bottom: 0px; font-size: 40px"";>מוכנים לשלם: <span id=""c_p_y""></span></p>","30","evaluation","21","23","7B,26B","55","61","30","","","","","","","","","","","","","","","","",""
"","","","","","html-keyboard-response","201","396509","0.0-21.0-2.29","23f0d474-21db-40ae-975c-dda11190e33a","null","<p style=""text-align: center;"">+</p>","null","fixation","","","","","","","","","","","","","","","","","","","","","","",""
"","","","","","html-slider-response","202","397520","0.0-21.0-0.30","23f0d474-21db-40ae-975c-dda11190e33a","1000","
                  <p style=""text-align: center;"">₪39
                                                <br>65%</p>
                  <p id=""wtp"" style=""text-align:center; margin-top: 0px; margin-bottom: 0px; font-size: 40px"";>&ensp;</p>","-","viewing","0","16","1A,15A,26C","","","","","","","","","","","","","","","","","","","",""
"","","","","","html-slider-response","203","400684","0.0-21.0-1.30","23f0d474-21db-40ae-975c-dda11190e33a","3164","
                  <p style=""text-align: center;"">₪39
                                                <br>65%</p>
                  <p id=""wtp"" style=""text-align:center; margin-top: 0px; margin-bottom: 0px; font-size: 40px"";>מוכנים לשלם: <span id=""c_p_y""></span></p>","28","evaluation","8","16","1A,15A,26C","65","39","28","","","","","","","","","","","","","","","","",""
"","","","","","html-keyboard-response","204","401603","0.0-21.0-2.30","23f0d474-21db-40ae-975c-dda11190e33a","null","<p style=""text-align: center;"">+</p>","null","fixation","","","","","","","","","","","","","","","","","","","","","","",""
"","","","","","html-keyboard-response","205","402604","0.0-22.0","23f0d474-21db-40ae-975c-dda11190e33a","null","<p style=""text-align: center;"">+</p>","null","fixation","","","","","","","","","","","","","","","","","","","","","","",""
"","","","","","html-keyboard-response","206","408082","0.0-23.0","23f0d474-21db-40ae-975c-dda11190e33a","null","<p>הפסקה.
          <br>לחצו כדי להמשיך.</p>","1","scan_wait","","","","","","","","","","","","","","","","","","","","","","",""
"","","","","","html-keyboard-response","207","409096","0.0-24.0","23f0d474-21db-40ae-975c-dda11190e33a","null","<p style=""text-align: center;"">+</p>","null","fixation","","","","","","","","","","","","","","","","","","","","","","",""
"","","","","","html-slider-response","208","410097","0.0-25.0-0.0","23f0d474-21db-40ae-975c-dda11190e33a","1000","
                  <p style=""text-align: center;"">₪76
                                                <br>65%</p>
                  <p id=""wtp"" style=""text-align:center; margin-top: 0px; margin-bottom: 0px; font-size: 40px"";>&ensp;</p>","-","viewing","0","29","8C,19A,24B","","","","","","","","","","","","","","","","","","","",""
"","","","","","html-slider-response","209","411810","0.0-25.0-1.0","23f0d474-21db-40ae-975c-dda11190e33a","1712","
                  <p style=""text-align: center;"">₪76
                                                <br>65%</p>
                  <p id=""wtp"" style=""text-align:center; margin-top: 0px; margin-bottom: 0px; font-size: 40px"";>מוכנים לשלם: <span id=""c_p_y""></span></p>","54","evaluation","39","29","8C,19A,24B","65","76","54","","","","","","","","","","","","","","","","",""
"","","","","","html-keyboard-response","210","413282","0.0-25.0-2.0","23f0d474-21db-40ae-975c-dda11190e33a","null","<p style=""text-align: center;"">+</p>","null","fixation","","","","","","","","","","","","","","","","","","","","","","",""
"","","","","","html-slider-response","211","414287","0.0-25.0-0.1","23f0d474-21db-40ae-975c-dda11190e33a","1000","
                  <p style=""text-align: center;"">₪71
                                                <br>75%</p>
                  <p id=""wtp"" style=""text-align:center; margin-top: 0px; margin-bottom: 0px; font-size: 40px"";>&ensp;</p>","-","viewing","0","28","8B","","","","","","","","","","","","","","","","","","","",""
"","","","","","html-slider-response","212","415594","0.0-25.0-1.1","23f0d474-21db-40ae-975c-dda11190e33a","1305","
                  <p style=""text-align: center;"">₪71
                                                <br>75%</p>
                  <p id=""wtp"" style=""text-align:center; margin-top: 0px; margin-bottom: 0px; font-size: 40px"";>מוכנים לשלם: <span id=""c_p_y""></span></p>","56","evaluation","18","28","8B","75","71","56","","","","","","","","","","","","","","","","",""
"","","","","","html-keyboard-response","213","416510","0.0-25.0-2.1","23f0d474-21db-40ae-975c-dda11190e33a","null","<p style=""text-align: center;"">+</p>","null","fixation","","","","","","","","","","","","","","","","","","","","","","",""
"","","","","","html-slider-response","214","417521","0.0-25.0-0.2","23f0d474-21db-40ae-975c-dda11190e33a","1000","
                  <p style=""text-align: center;"">₪71
                                                <br>55%</p>
                  <p id=""wtp"" style=""text-align:center; margin-top: 0px; margin-bottom: 0px; font-size: 40px"";>&ensp;</p>","-","viewing","0","27","5B,18A","","","","","","","","","","","","","","","","","","","",""
"","","","","","html-slider-response","215","419482","0.0-25.0-1.2","23f0d474-21db-40ae-975c-dda11190e33a","1960","
                  <p style=""text-align: center;"">₪71
                                                <br>55%</p>
                  <p id=""wtp"" style=""text-align:center; margin-top: 0px; margin-bottom: 0px; font-size: 40px"";>מוכנים לשלם: <span id=""c_p_y""></span></p>","49","evaluation","54","27","5B,18A","55","71","49","","","","","","","","","","","","","","","","",""
"","","","","","html-keyboard-response","216","420928","0.0-25.0-2.2","23f0d474-21db-40ae-975c-dda11190e33a","null","<p style=""text-align: center;"">+</p>","null","fixation","","","","","","","","","","","","","","","","","","","","","","",""
"","","","","","html-slider-response","217","421931","0.0-25.0-0.3","23f0d474-21db-40ae-975c-dda11190e33a","1000","
                  <p style=""text-align: center;"">₪18
                                                <br>25%</p>
                  <p id=""wtp"" style=""text-align:center; margin-top: 0px; margin-bottom: 0px; font-size: 40px"";>&ensp;</p>","-","viewing","0","9","14A,23A","","","","","","","","","","","","","","","","","","","",""
"","","","","","html-slider-response","218","423874","0.0-25.0-1.3","23f0d474-21db-40ae-975c-dda11190e33a","1942","
                  <p style=""text-align: center;"">₪18
                                                <br>25%</p>
                  <p id=""wtp"" style=""text-align:center; margin-top: 0px; margin-bottom: 0px; font-size: 40px"";>מוכנים לשלם: <span id=""c_p_y""></span></p>","12","evaluation","51","9","14A,23A","25","18","12","","","","","","","","","","","","","","","","",""
"","","","","","html-keyboard-response","219","425052","0.0-25.0-2.3","23f0d474-21db-40ae-975c-dda11190e33a","null","<p style=""text-align: center;"">+</p>","null","fixation","","","","","","","","","","","","","","","","","","","","","","",""
"","","","","","html-slider-response","220","426061","0.0-25.0-0.4","23f0d474-21db-40ae-975c-dda11190e33a","1000","
                  <p style=""text-align: center;"">₪39
                                                <br>60%</p>
                  <p id=""wtp"" style=""text-align:center; margin-top: 0px; margin-bottom: 0px; font-size: 40px"";>&ensp;</p>","-","viewing","0","15","9C,25B","","","","","","","","","","","","","","","","","","","",""
"","","","","","html-slider-response","221","427970","0.0-25.0-1.4","23f0d474-21db-40ae-975c-dda11190e33a","1908","
                  <p style=""text-align: center;"">₪39
                                                <br>60%</p>
                  <p id=""wtp"" style=""text-align:center; margin-top: 0px; margin-bottom: 0px; font-size: 40px"";>מוכנים לשלם: <span id=""c_p_y""></span></p>","20","evaluation","16","15","9C,25B","60","39","20","","","","","","","","","","","","","","","","",""
"","","","","","html-keyboard-response","222","429154","0.0-25.0-2.4","23f0d474-21db-40ae-975c-dda11190e33a","null","<p style=""text-align: center;"">+</p>","null","fixation","","","","","","","","","","","","","","","","","","","","","","",""
"","","","","","html-slider-response","223","430162","0.0-25.0-0.5","23f0d474-21db-40ae-975c-dda11190e33a","1000","
                  <p style=""text-align: center;"">₪36
                                                <br>70%</p>
                  <p id=""wtp"" style=""text-align:center; margin-top: 0px; margin-bottom: 0px; font-size: 40px"";>&ensp;</p>","-","viewing","0","13","3A,5C,10B","","","","","","","","","","","","","","","","","","","",""
"","","","","","html-slider-response","224","431954","0.0-25.0-1.5","23f0d474-21db-40ae-975c-dda11190e33a","1791","
                  <p style=""text-align: center;"">₪36
                                                <br>70%</p>
                  <p id=""wtp"" style=""text-align:center; margin-top: 0px; margin-bottom: 0px; font-size: 40px"";>מוכנים לשלם: <span id=""c_p_y""></span></p>","15","evaluation","3","13","3A,5C,10B","70","36","15","","","","","","","","","","","","","","","","",""
"","","","","","html-keyboard-response","225","433457","0.0-25.0-2.5","23f0d474-21db-40ae-975c-dda11190e33a","null","<p style=""text-align: center;"">+</p>","null","fixation","","","","","","","","","","","","","","","","","","","","","","",""
"","","","","","html-slider-response","226","434459","0.0-25.0-0.6","23f0d474-21db-40ae-975c-dda11190e33a","1000","
                  <p style=""text-align: center;"">₪11
                                                <br>75%</p>
                  <p id=""wtp"" style=""text-align:center; margin-top: 0px; margin-bottom: 0px; font-size: 40px"";>&ensp;</p>","-","viewing","0","7","6B,18B,22C,24C,29A","","","","","","","","","","","","","","","","","","","",""
"","","","","","html-slider-response","227","436922","0.0-25.0-1.6","23f0d474-21db-40ae-975c-dda11190e33a","2462","
                  <p style=""text-align: center;"">₪11
                                                <br>75%</p>
                  <p id=""wtp"" style=""text-align:center; margin-top: 0px; margin-bottom: 0px; font-size: 40px"";>מוכנים לשלם: <span id=""c_p_y""></span></p>","8","evaluation","19","7","6B,18B,22C,24C,29A","75","11","9","","","","","","","","","","","","","","","","",""
"","","","","","html-keyboard-response","228","438406","0.0-25.0-2.6","23f0d474-21db-40ae-975c-dda11190e33a","null","<p style=""text-align: center;"">+</p>","null","fixation","","","","","","","","","","","","","","","","","","","","","","",""
"","","","","","html-slider-response","229","439410","0.0-25.0-0.7","23f0d474-21db-40ae-975c-dda11190e33a","1000","
                  <p style=""text-align: center;"">₪79
                                                <br>65%</p>
                  <p id=""wtp"" style=""text-align:center; margin-top: 0px; margin-bottom: 0px; font-size: 40px"";>&ensp;</p>","-","viewing","0","31","8A","","","","","","","","","","","","","","","","","","","",""
"","","","","","html-slider-response","230","441754","0.0-25.0-1.7","23f0d474-21db-40ae-975c-dda11190e33a","2343","
                  <p style=""text-align: center;"">₪79
                                                <br>65%</p>
                  <p id=""wtp"" style=""text-align:center; margin-top: 0px; margin-bottom: 0px; font-size: 40px"";>מוכנים לשלם: <span id=""c_p_y""></span></p>","61","evaluation","43","31","8A","65","79","61","","","","","","","","","","","","","","","","",""
"","","","","","html-keyboard-response","231","442716","0.0-25.0-2.7","23f0d474-21db-40ae-975c-dda11190e33a","null","<p style=""text-align: center;"">+</p>","null","fixation","","","","","","","","","","","","","","","","","","","","","","",""
"","","","","","html-slider-response","232","443730","0.0-25.0-0.8","23f0d474-21db-40ae-975c-dda11190e33a","1000","
                  <p style=""text-align: center;"">₪43
                                                <br>60%</p>
                  <p id=""wtp"" style=""text-align:center; margin-top: 0px; margin-bottom: 0px; font-size: 40px"";>&ensp;</p>","-","viewing","0","17","2A,7A,9A,15B","","","","","","","","","","","","","","","","","","","",""
"","","","","","html-slider-response","233","447026","0.0-25.0-1.8","23f0d474-21db-40ae-975c-dda11190e33a","3295","
                  <p style=""text-align: center;"">₪43
                                                <br>60%</p>
                  <p id=""wtp"" style=""text-align:center; margin-top: 0px; margin-bottom: 0px; font-size: 40px"";>מוכנים לשלם: <span id=""c_p_y""></span></p>","37","evaluation","79","17","2A,7A,9A,15B","60","43","37","","","","","","","","","","","","","","","","",""
"","","","","","html-keyboard-response","234","447893","0.0-25.0-2.8","23f0d474-21db-40ae-975c-dda11190e33a","null","<p style=""text-align: center;"">+</p>","null","fixation","","","","","","","","","","","","","","","","","","","","","","",""
"","","","","","html-slider-response","235","448900","0.0-25.0-0.9","23f0d474-21db-40ae-975c-dda11190e33a","1000","
                  <p style=""text-align: center;"">₪4
                                                <br>75%</p>
                  <p id=""wtp"" style=""text-align:center; margin-top: 0px; margin-bottom: 0px; font-size: 40px"";>&ensp;</p>","-","viewing","0","3","12B,20B,23B,27C,29C","","","","","","","","","","","","","","","","","","","",""
"","","","","","html-slider-response","236","450570","0.0-25.0-1.9","23f0d474-21db-40ae-975c-dda11190e33a","1670","
                  <p style=""text-align: center;"">₪4
                                                <br>75%</p>
                  <p id=""wtp"" style=""text-align:center; margin-top: 0px; margin-bottom: 0px; font-size: 40px"";>מוכנים לשלם: <span id=""c_p_y""></span></p>","1","evaluation","56","3","12B,20B,23B,27C,29C","75","4","2","","","","","","","","","","","","","","","","",""
"","","","","","html-keyboard-response","237","451160","0.0-25.0-2.9","23f0d474-21db-40ae-975c-dda11190e33a","null","<p style=""text-align: center;"">+</p>","null","fixation","","","","","","","","","","","","","","","","","","","","","","",""
"","","","","","html-slider-response","238","452162","0.0-25.0-0.10","23f0d474-21db-40ae-975c-dda11190e33a","1000","
                  <p style=""text-align: center;"">₪64
                                                <br>25%</p>
                  <p id=""wtp"" style=""text-align:center; margin-top: 0px; margin-bottom: 0px; font-size: 40px"";>&ensp;</p>","-","viewing","0","24","6A,21A","","","","","","","","","","","","","","","","","","","",""
"","","","","","html-slider-response","239","454594","0.0-25.0-1.10","23f0d474-21db-40ae-975c-dda11190e33a","2432","
                  <p style=""text-align: center;"">₪64
                                                <br>25%</p>
                  <p id=""wtp"" style=""text-align:center; margin-top: 0px; margin-bottom: 0px; font-size: 40px"";>מוכנים לשלם: <span id=""c_p_y""></span></p>","33","evaluation","18","24","6A,21A","25","64","33","","","","","","","","","","","","","","","","",""
"","","","","","html-keyboard-response","240","455655","0.0-25.0-2.10","23f0d474-21db-40ae-975c-dda11190e33a","null","<p style=""text-align: center;"">+</p>","null","fixation","","","","","","","","","","","","","","","","","","","","","","",""
"","","","","","html-slider-response","241","456661","0.0-25.0-0.11","23f0d474-21db-40ae-975c-dda11190e33a","1000","
                  <p style=""text-align: center;"">₪43
                                                <br>75%</p>
                  <p id=""wtp"" style=""text-align:center; margin-top: 0px; margin-bottom: 0px; font-size: 40px"";>&ensp;</p>","-","viewing","0","18","11B,19B,24A,26A","","","","","","","","","","","","","","","","","","","",""
"","","","","","html-slider-response","242","459090","0.0-25.0-1.11","23f0d474-21db-40ae-975c-dda11190e33a","2428","
                  <p style=""text-align: center;"">₪43
                                                <br>75%</p>
                  <p id=""wtp"" style=""text-align:center; margin-top: 0px; margin-bottom: 0px; font-size: 40px"";>מוכנים לשלם: <span id=""c_p_y""></span></p>","28","evaluation","48","18","11B,19B,24A,26A","75","43","28","","","","","","","","","","","","","","","","",""
"","","","","","html-keyboard-response","243","459744","0.0-25.0-2.11","23f0d474-21db-40ae-975c-dda11190e33a","null","<p style=""text-align: center;"">+</p>","null","fixation","","","","","","","","","","","","","","","","","","","","","","",""
"","","","","","html-slider-response","244","460748","0.0-25.0-0.12","23f0d474-21db-40ae-975c-dda11190e33a","1000","
                  <p style=""text-align: center;"">₪4
                                                <br>25%</p>
                  <p id=""wtp"" style=""text-align:center; margin-top: 0px; margin-bottom: 0px; font-size: 40px"";>&ensp;</p>","-","viewing","0","1","6C,29B,30C","","","","","","","","","","","","","","","","","","","",""
"","","","","","html-slider-response","245","463618","0.0-25.0-1.12","23f0d474-21db-40ae-975c-dda11190e33a","2870","
                  <p style=""text-align: center;"">₪4
                                                <br>25%</p>
                  <p id=""wtp"" style=""text-align:center; margin-top: 0px; margin-bottom: 0px; font-size: 40px"";>מוכנים לשלם: <span id=""c_p_y""></span></p>","3","evaluation","8","1","6C,29B,30C","25","4","3","","","","","","","","","","","","","","","","",""
"","","","","","html-keyboard-response","246","464842","0.0-25.0-2.12","23f0d474-21db-40ae-975c-dda11190e33a","null","<p style=""text-align: center;"">+</p>","null","fixation","","","","","","","","","","","","","","","","","","","","","","",""
"","","","","","html-slider-response","247","465853","0.0-25.0-0.13","23f0d474-21db-40ae-975c-dda11190e33a","1000","
                  <p style=""text-align: center;"">₪58
                                                <br>45%</p>
                  <p id=""wtp"" style=""text-align:center; margin-top: 0px; margin-bottom: 0px; font-size: 40px"";>&ensp;</p>","-","viewing","0","21","11C,18C,25A","","","","","","","","","","","","","","","","","","","",""
"","","","","","html-slider-response","248","468632","0.0-25.0-1.13","23f0d474-21db-40ae-975c-dda11190e33a","2780","
                  <p style=""text-align: center;"">₪58
                                                <br>45%</p>
                  <p id=""wtp"" style=""text-align:center; margin-top: 0px; margin-bottom: 0px; font-size: 40px"";>מוכנים לשלם: <span id=""c_p_y""></span></p>","30","evaluation","57","21","11C,18C,25A","45","58","30","","","","","","","","","","","","","","","","",""
"","","","","","html-keyboard-response","249","470098","0.0-25.0-2.13","23f0d474-21db-40ae-975c-dda11190e33a","null","<p style=""text-align: center;"">+</p>","null","fixation","","","","","","","","","","","","","","","","","","","","","","",""
