"success","timeout","failed_images","failed_audio","failed_video","trial_type","trial_index","time_elapsed","internal_node_id","subject_id","rt","stimulus","response","part","slider_start","ID","set_ID","prob","amount","last_location","actual_choice","actual_EV","binary_id","trinary_id","catch","direction","A_key","S_key","D_key","choice_prob","choice_amount","potential_prize_prob","potential_prize_amount","won_prize","total_prize","remaining_budget","accuracy"
"true","false","[]","[]","[]","preload","0","12","0.0-0.0","cb5ce584-a459-42d8-9906-a854aab80827","","","","","","","","","","","","","","","","","","","","","","","","","","",""
"","","","","","html-keyboard-response","1","13242","0.0-1.0","cb5ce584-a459-42d8-9906-a854aab80827","null","
          <h1>שלום וברוכים הבאים!</h1>
          <p>לפניכם ניסוי בקבלת החלטות עם שני חלקים.
          <br><br>לחצו על העכבר כדי להמשיך.</p>","0","example","","","","","","","","","","","","","","","","","","","","","","",""
"","","","","","html-keyboard-response","2","24074","0.0-2.0","cb5ce584-a459-42d8-9906-a854aab80827","null","
        <h1>חלק 1</h1>
        <p>בקרוב יוצגו בפניכם הגרלות.
        <br>עליכם לבחור את המחיר המירבי שתהיו מוכנים לשלם כדי להשתתף בהגרלה שתוצג.
        <br>יש לכם תקציב של ₪80 לכל הגרלה. 
        <br>נסו להעריך כל הגרלה בנפרד ולחשוב כמה היא שווה עבורכם, ₪80 זמינים לכל הגרלה בנפרד.
        <br><br>לחצו על העכבר כדי להמשיך.</p>","1","instructions","","","","","","","","","","","","","","","","","","","","","","",""
"","","","","","html-keyboard-response","3","34730","0.0-3.0","cb5ce584-a459-42d8-9906-a854aab80827","null","
        <p>בסוף הניסוי, המחשב יבחר את אחת ההגרלות ויקבע מחיר לכרטיס עבורה. 
        <br>במידה והמחיר שבחרתם נמוך מהמחיר שנבחר על ידי המחשב, לא תשתתפו בהגרלה ותשארו עם מלוא התקציב.
        <br>במידה והמחיר שבחרתם גבוה מהמחיר שנבחר על ידי המחשב, תשלמו את המחיר שנקבע ותשתתפו בהגרלה.
        <br><br>לחצו על העכבר כדי להמשיך.</p>","1","instructions","","","","","","","","","","","","","","","","","","","","","","",""
"","","","","","html-slider-response","4","54643","0.0-4.0","cb5ce584-a459-42d8-9906-a854aab80827","19808","
        <p style=""font-size: 42px;"">נתחיל עם דוגמא: 
        <br>ההגרלה מטה מציעה 65% סיכוי לזכות ב-₪40 
        <br>&emsp;&emsp;&emsp;&emsp;&emsp;&emsp;&emsp;&emsp;&ensp;35% סיכוי לזכות ב-₪0.
        <br><br>מה המחיר המירבי שתהיו מוכנים לשלם על כרטיס להגרלה זו בין 0 ל-₪80?
        <br>הזיזו את העכבר על פני המלבן ולחצו כדי לבצע בחירה.</p>
        
        <p style=""text-align: center;"">₪40<br>65%</p>

        <p id=""wtp"" style=""text-align:center; margin-top: 0px; margin-bottom: 0px; font-size: 40px"";>מוכנים לשלם: <span id=""c_p_y""></span></p>","23","example","55","","","","","","","","","","","","","","","","","","","","","",""
"","","","","","html-keyboard-response","5","62891","0.0-5.0","cb5ce584-a459-42d8-9906-a854aab80827","null","<p>יפה מאוד!
                <br> בחרתם שתהיו מוכנים לשלם ₪23 כדי להשתתף בהגרלה:
                <br><p style=""text-align: center;"">₪40<br>65%</p>
                <p>נשמע נכון?
                <br>נניח שהגרלה זו נבחרה בסוף הניסוי.
                <br>כעת המחשב יקבע מחיר עבורה באקראי.
                <br>לחצו על העכבר להמשך.</p>","1","example","","","","","","","","","","","","","","","","","","","","","","",""
"","","","","","html-keyboard-response","6","68979","0.0-6.0","cb5ce584-a459-42d8-9906-a854aab80827","null","<p>המחשב קבע מחיר: ₪37
                <br>ואתם בחרתם לשלם לכל היותר: ₪23
                <br><br>מכיוון שהמחיר שבחרתם נמוך מהמחיר שנקבע, לא תתשתתפו בהגרלה.
                <br>במקרה כזה, בסוף הניסוי תקבלו את כל התקציב ההתחלתי של ₪80.
                <br><br>לחצו על העכבר להמשך.</p>","1","example","","","","","","","","","","","","","","","","","","","","","","",""
"","","","","","html-slider-response","7","77763","0.0-7.0","cb5ce584-a459-42d8-9906-a854aab80827","8532","<p style=""font-size: 42px;"">הנה עוד דוגמא:
                <br>ההגרלה מטה מציעה 35% סיכוי לזכות ב-₪18 
                <br>&emsp;&emsp;&emsp;&emsp;&emsp;&emsp;&emsp;&emsp;&ensp;65% סיכוי לזכות ב-₪0.</p>
        
                <p style=""text-align: center;"">₪18<br>35%</p>
                <p id=""wtp"" style=""text-align:center; margin-top: 0px; margin-bottom: 0px; font-size: 40px"";>מוכנים לשלם: <span id=""c_p_y""></span></p>","9","example","48","","","","","","","","","","","","","","","","","","","","","",""
"","","","","","html-keyboard-response","8","81811","0.0-8.0","cb5ce584-a459-42d8-9906-a854aab80827","null","<p>הייתם מוכנים לשלם  ₪9 כדי להשתתף בהגרלה:
                <p style=""text-align: center;"">₪18<br>35%</p>
                <p>כעת נניח שהמחשב בחר את ההגרלה הזו בסוף הניסוי, וקבע עבורה מחיר.
                <br><br>לחצו על העכבר כדי להמשיך.</p>","1","instructions","","","","","","","","","","","","","","","","","","","","","","",""
"","","","","","html-keyboard-response","9","90499","0.0-9.0","cb5ce584-a459-42d8-9906-a854aab80827","null","<p>המחשב קבע מחיר להגרלה: ₪7<br>ואתם בחרתם לשלם לכל היותר: ₪9
                <br><br>כעת המחיר שנקבע נמוך מזה שבחרתם, אז תשלמו את המחיר שקבע המחשב (₪7) ותשתתפו בהגרלה.
                <br>במקרה כזה, תסיימו את הניסוי עם תקציב של ₪73 ועם סיכוי לזכות ב-₪18 נוספים מההגרלה.
                <br>כלומר, תוכלו לקבל ₪73 אם לא תזכו בהגרלה, או ₪91 אם תזכו בהגרלה.
                <br><br>לחצו על העכבר להמשך.</p>","1","example","","","","","","","","","","","","","","","","","","","","","","",""
"","","","","","html-keyboard-response","10","96643","0.0-10.0","cb5ce584-a459-42d8-9906-a854aab80827","null","<p>במהלך הניסוי, קודם תראו את ההגרלה ורק לאחר מכן תוכלו לבחור.
                <p>כמו כן, יהיו לכם מספר שניות מוגבל להגיב.
                <p>בואו ננסה זאת עם ההגרלה הקודמת.
                <br>לחצו על העכבר כדי להמשיך.</p>","1","instructions","","","","","","","","","","","","","","","","","","","","","","",""
"","","","","","html-slider-response","11","97915","0.0-11.0","cb5ce584-a459-42d8-9906-a854aab80827","1000","
                    <p style=""text-align: center;"">₪18<br>35%</p>
                    <p id=""wtp"" style=""text-align:center; margin-top: 0px; margin-bottom: 0px; font-size: 40px"";>&ensp;</p>","50","instructions","0","","","","","","","","","","","","","","","","","","","","","",""
"","","","","","html-slider-response","12","100683","0.0-12.0","cb5ce584-a459-42d8-9906-a854aab80827","2501","
                    <p style=""text-align: center;"">₪18<br>35%</p>
                    <p id=""wtp"" style=""text-align:center; margin-top: 0px; margin-bottom: 0px; font-size: 40px"";>מוכנים לשלם: <span id=""c_p_y""></span></p>","9","instructions","71","","","","","","","","","","","","","","","","","","","","","",""
"","","","","","html-keyboard-response","13","102307","0.0-13.0","cb5ce584-a459-42d8-9906-a854aab80827","null","<p>יפה. הפעם בחרתם לשלם לכל היותר ₪9.
                <br><br>לחצו על העכבר כדי להמשיך.</p>","1","instructions","","","","","","","","","","","","","","","","","","","","","","",""
"","","","","","html-keyboard-response","14","105659","0.0-15.0","cb5ce584-a459-42d8-9906-a854aab80827","null","<p>כעת נתחיל את הניסוי.
                <br><br>אתם תראו הגרלות ותתבקשו לבחור כמה תהיו מוכנים לשלם כדי להשתתף בהן.
                <br>יש לכם תקציב של ₪80 עבור כל הגרלה.
                <br>בסוף הניסוי הגרלה אחת תבחר באקראי ותשוחק.
                <br><br>לחצו על העכבר כדי להתחיל את הניסוי.</p>","1","instructions","","","","","","","","","","","","","","","","","","","","","","",""
"","","","","","html-keyboard-response","15","106925","0.0-16.0","cb5ce584-a459-42d8-9906-a854aab80827","null","<p style=""text-align: center;"">+</p>","null","fixation","","","","","","","","","","","","","","","","","","","","","","",""
"","","","","","html-slider-response","16","107938","0.0-17.0-0.0","cb5ce584-a459-42d8-9906-a854aab80827","1000","
                  <p style=""text-align: center;"">₪11
                                                <br>75%</p>
                  <p id=""wtp"" style=""text-align:center; margin-top: 0px; margin-bottom: 0px; font-size: 40px"";>&ensp;</p>","-","viewing","0","7","6B,18B,22C,24C,29A","","","","","","","","","","","","","","","","","","","",""
"","","","","","html-slider-response","17","111949","0.0-17.0-1.0","cb5ce584-a459-42d8-9906-a854aab80827","null","
                  <p style=""text-align: center;"">₪11
                                                <br>75%</p>
                  <p id=""wtp"" style=""text-align:center; margin-top: 0px; margin-bottom: 0px; font-size: 40px"";>מוכנים לשלם: <span id=""c_p_y""></span></p>","null","evaluation","73","7","6B,18B,22C,24C,29A","75","11","6","","","","","","","","","","","","","","","","",""
"","","","","","html-keyboard-response","18","113270","0.0-17.0-2.0","cb5ce584-a459-42d8-9906-a854aab80827","null","<p style=""text-align: center;"">+</p>","null","fixation","","","","","","","","","","","","","","","","","","","","","","",""
"","","","","","html-slider-response","19","114283","0.0-17.0-0.1","cb5ce584-a459-42d8-9906-a854aab80827","1000","
                  <p style=""text-align: center;"">₪11
                                                <br>20%</p>
                  <p id=""wtp"" style=""text-align:center; margin-top: 0px; margin-bottom: 0px; font-size: 40px"";>&ensp;</p>","-","viewing","0","4","12C,17C,23C,28C","","","","","","","","","","","","","","","","","","","",""
"","","","","","html-slider-response","20","118285","0.0-17.0-1.1","cb5ce584-a459-42d8-9906-a854aab80827","null","
                  <p style=""text-align: center;"">₪11
                                                <br>20%</p>
                  <p id=""wtp"" style=""text-align:center; margin-top: 0px; margin-bottom: 0px; font-size: 40px"";>מוכנים לשלם: <span id=""c_p_y""></span></p>","null","evaluation","28","4","12C,17C,23C,28C","20","11","3","","","","","","","","","","","","","","","","",""
"","","","","","html-keyboard-response","21","118900","0.0-17.0-2.1","cb5ce584-a459-42d8-9906-a854aab80827","null","<p style=""text-align: center;"">+</p>","null","fixation","","","","","","","","","","","","","","","","","","","","","","",""
"","","","","","html-slider-response","22","119905","0.0-17.0-0.2","cb5ce584-a459-42d8-9906-a854aab80827","1000","
                  <p style=""text-align: center;"">₪39
                                                <br>65%</p>
                  <p id=""wtp"" style=""text-align:center; margin-top: 0px; margin-bottom: 0px; font-size: 40px"";>&ensp;</p>","-","viewing","0","16","1A,15A,26C","","","","","","","","","","","","","","","","","","","",""
"","","","","","html-slider-response","23","122618","0.0-17.0-1.2","cb5ce584-a459-42d8-9906-a854aab80827","2712","
                  <p style=""text-align: center;"">₪39
                                                <br>65%</p>
                  <p id=""wtp"" style=""text-align:center; margin-top: 0px; margin-bottom: 0px; font-size: 40px"";>מוכנים לשלם: <span id=""c_p_y""></span></p>","9","evaluation","55","16","1A,15A,26C","65","39","10","","","","","","","","","","","","","","","","",""
"","","","","","html-keyboard-response","24","123511","0.0-17.0-2.2","cb5ce584-a459-42d8-9906-a854aab80827","null","<p style=""text-align: center;"">+</p>","null","fixation","","","","","","","","","","","","","","","","","","","","","","",""
"","","","","","html-slider-response","25","124519","0.0-17.0-0.3","cb5ce584-a459-42d8-9906-a854aab80827","1000","
                  <p style=""text-align: center;"">₪61
                                                <br>55%</p>
                  <p id=""wtp"" style=""text-align:center; margin-top: 0px; margin-bottom: 0px; font-size: 40px"";>&ensp;</p>","-","viewing","0","23","7B,26B","","","","","","","","","","","","","","","","","","","",""
"","","","","","html-slider-response","26","126650","0.0-17.0-1.3","cb5ce584-a459-42d8-9906-a854aab80827","2130","
                  <p style=""text-align: center;"">₪61
                                                <br>55%</p>
                  <p id=""wtp"" style=""text-align:center; margin-top: 0px; margin-bottom: 0px; font-size: 40px"";>מוכנים לשלם: <span id=""c_p_y""></span></p>","27","evaluation","21","23","7B,26B","55","61","27","","","","","","","","","","","","","","","","",""
"","","","","","html-keyboard-response","27","128147","0.0-17.0-2.3","cb5ce584-a459-42d8-9906-a854aab80827","null","<p style=""text-align: center;"">+</p>","null","fixation","","","","","","","","","","","","","","","","","","","","","","",""
"","","","","","html-slider-response","28","129149","0.0-17.0-0.4","cb5ce584-a459-42d8-9906-a854aab80827","1000","
                  <p style=""text-align: center;"">₪4
                                                <br>75%</p>
                  <p id=""wtp"" style=""text-align:center; margin-top: 0px; margin-bottom: 0px; font-size: 40px"";>&ensp;</p>","-","viewing","0","3","12B,20B,23B,27C,29C","","","","","","","","","","","","","","","","","","","",""
"","","","","","html-slider-response","29","132354","0.0-17.0-1.4","cb5ce584-a459-42d8-9906-a854aab80827","3203","
                  <p style=""text-align: center;"">₪4
                                                <br>75%</p>
                  <p id=""wtp"" style=""text-align:center; margin-top: 0px; margin-bottom: 0px; font-size: 40px"";>מוכנים לשלם: <span id=""c_p_y""></span></p>","2","evaluation","71","3","12B,20B,23B,27C,29C","75","4","2","","","","","","","","","","","","","","","","",""
"","","","","","html-keyboard-response","30","132903","0.0-17.0-2.4","cb5ce584-a459-42d8-9906-a854aab80827","null","<p style=""text-align: center;"">+</p>","null","fixation","","","","","","","","","","","","","","","","","","","","","","",""
"","","","","","html-slider-response","31","133917","0.0-17.0-0.5","cb5ce584-a459-42d8-9906-a854aab80827","1000","
                  <p style=""text-align: center;"">₪18
                                                <br>25%</p>
                  <p id=""wtp"" style=""text-align:center; margin-top: 0px; margin-bottom: 0px; font-size: 40px"";>&ensp;</p>","-","viewing","0","9","14A,23A","","","","","","","","","","","","","","","","","","","",""
"","","","","","html-slider-response","32","136066","0.0-17.0-1.5","cb5ce584-a459-42d8-9906-a854aab80827","2148","
                  <p style=""text-align: center;"">₪18
                                                <br>25%</p>
                  <p id=""wtp"" style=""text-align:center; margin-top: 0px; margin-bottom: 0px; font-size: 40px"";>מוכנים לשלם: <span id=""c_p_y""></span></p>","4","evaluation","10","9","14A,23A","25","18","5","","","","","","","","","","","","","","","","",""
"","","","","","html-keyboard-response","33","137518","0.0-17.0-2.5","cb5ce584-a459-42d8-9906-a854aab80827","null","<p style=""text-align: center;"">+</p>","null","fixation","","","","","","","","","","","","","","","","","","","","","","",""
"","","","","","html-slider-response","34","138521","0.0-17.0-0.6","cb5ce584-a459-42d8-9906-a854aab80827","1000","
                  <p style=""text-align: center;"">₪58
                                                <br>45%</p>
                  <p id=""wtp"" style=""text-align:center; margin-top: 0px; margin-bottom: 0px; font-size: 40px"";>&ensp;</p>","-","viewing","0","21","11C,18C,25A","","","","","","","","","","","","","","","","","","","",""
"","","","","","html-slider-response","35","142523","0.0-17.0-1.6","cb5ce584-a459-42d8-9906-a854aab80827","null","
                  <p style=""text-align: center;"">₪58
                                                <br>45%</p>
                  <p id=""wtp"" style=""text-align:center; margin-top: 0px; margin-bottom: 0px; font-size: 40px"";>מוכנים לשלם: <span id=""c_p_y""></span></p>","null","evaluation","26","21","11C,18C,25A","45","58","23","","","","","","","","","","","","","","","","",""
"","","","","","html-keyboard-response","36","143331","0.0-17.0-2.6","cb5ce584-a459-42d8-9906-a854aab80827","null","<p style=""text-align: center;"">+</p>","null","fixation","","","","","","","","","","","","","","","","","","","","","","",""
"","","","","","html-slider-response","37","144347","0.0-17.0-0.7","cb5ce584-a459-42d8-9906-a854aab80827","1000","
                  <p style=""text-align: center;"">₪16
                                                <br>20%</p>
                  <p id=""wtp"" style=""text-align:center; margin-top: 0px; margin-bottom: 0px; font-size: 40px"";>&ensp;</p>","-","viewing","0","8","14C,17A,20C,27A","","","","","","","","","","","","","","","","","","","",""
"","","","","","html-slider-response","38","147234","0.0-17.0-1.7","cb5ce584-a459-42d8-9906-a854aab80827","2886","
                  <p style=""text-align: center;"">₪16
                                                <br>20%</p>
                  <p id=""wtp"" style=""text-align:center; margin-top: 0px; margin-bottom: 0px; font-size: 40px"";>מוכנים לשלם: <span id=""c_p_y""></span></p>","8","evaluation","49","8","14C,17A,20C,27A","20","16","8","","","","","","","","","","","","","","","","",""
"","","","","","html-keyboard-response","39","148569","0.0-17.0-2.7","cb5ce584-a459-42d8-9906-a854aab80827","null","<p style=""text-align: center;"">+</p>","null","fixation","","","","","","","","","","","","","","","","","","","","","","",""
"","","","","","html-slider-response","40","149572","0.0-17.0-0.8","cb5ce584-a459-42d8-9906-a854aab80827","1000","
                  <p style=""text-align: center;"">₪36
                                                <br>75%</p>
                  <p id=""wtp"" style=""text-align:center; margin-top: 0px; margin-bottom: 0px; font-size: 40px"";>&ensp;</p>","-","viewing","0","14","4B,5A,13B,16B","","","","","","","","","","","","","","","","","","","",""
"","","","","","html-slider-response","41","152098","0.0-17.0-1.8","cb5ce584-a459-42d8-9906-a854aab80827","2525","
                  <p style=""text-align: center;"">₪36
                                                <br>75%</p>
                  <p id=""wtp"" style=""text-align:center; margin-top: 0px; margin-bottom: 0px; font-size: 40px"";>מוכנים לשלם: <span id=""c_p_y""></span></p>","20","evaluation","13","14","4B,5A,13B,16B","75","36","20","","","","","","","","","","","","","","","","",""
"","","","","","html-keyboard-response","42","153066","0.0-17.0-2.8","cb5ce584-a459-42d8-9906-a854aab80827","null","<p style=""text-align: center;"">+</p>","null","fixation","","","","","","","","","","","","","","","","","","","","","","",""
"","","","","","html-slider-response","43","154068","0.0-17.0-0.9","cb5ce584-a459-42d8-9906-a854aab80827","1000","
                  <p style=""text-align: center;"">₪64
                                                <br>25%</p>
                  <p id=""wtp"" style=""text-align:center; margin-top: 0px; margin-bottom: 0px; font-size: 40px"";>&ensp;</p>","-","viewing","0","24","6A,21A","","","","","","","","","","","","","","","","","","","",""
"","","","","","html-slider-response","44","155490","0.0-17.0-1.9","cb5ce584-a459-42d8-9906-a854aab80827","1421","
                  <p style=""text-align: center;"">₪64
                                                <br>25%</p>
                  <p id=""wtp"" style=""text-align:center; margin-top: 0px; margin-bottom: 0px; font-size: 40px"";>מוכנים לשלם: <span id=""c_p_y""></span></p>","30","evaluation","58","24","6A,21A","25","64","30","","","","","","","","","","","","","","","","",""
"","","","","","html-keyboard-response","45","156328","0.0-17.0-2.9","cb5ce584-a459-42d8-9906-a854aab80827","null","<p style=""text-align: center;"">+</p>","null","fixation","","","","","","","","","","","","","","","","","","","","","","",""
"","","","","","html-slider-response","46","157341","0.0-17.0-0.10","cb5ce584-a459-42d8-9906-a854aab80827","1000","
                  <p style=""text-align: center;"">₪58
                                                <br>40%</p>
                  <p id=""wtp"" style=""text-align:center; margin-top: 0px; margin-bottom: 0px; font-size: 40px"";>&ensp;</p>","-","viewing","0","20","10C,13A,19C,21B","","","","","","","","","","","","","","","","","","","",""
"","","","","","html-slider-response","47","160490","0.0-17.0-1.10","cb5ce584-a459-42d8-9906-a854aab80827","3148","
                  <p style=""text-align: center;"">₪58
                                                <br>40%</p>
                  <p id=""wtp"" style=""text-align:center; margin-top: 0px; margin-bottom: 0px; font-size: 40px"";>מוכנים לשלם: <span id=""c_p_y""></span></p>","22","evaluation","54","20","10C,13A,19C,21B","40","58","22","","","","","","","","","","","","","","","","",""
"","","","","","html-keyboard-response","48","161065","0.0-17.0-2.10","cb5ce584-a459-42d8-9906-a854aab80827","null","<p style=""text-align: center;"">+</p>","null","fixation","","","","","","","","","","","","","","","","","","","","","","",""
"","","","","","html-slider-response","49","162082","0.0-17.0-0.11","cb5ce584-a459-42d8-9906-a854aab80827","1000","
                  <p style=""text-align: center;"">₪79
                                                <br>40%</p>
                  <p id=""wtp"" style=""text-align:center; margin-top: 0px; margin-bottom: 0px; font-size: 40px"";>&ensp;</p>","-","viewing","0","30","9B","","","","","","","","","","","","","","","","","","","",""
"","","","","","html-slider-response","50","163922","0.0-17.0-1.11","cb5ce584-a459-42d8-9906-a854aab80827","1839","
                  <p style=""text-align: center;"">₪79
                                                <br>40%</p>
                  <p id=""wtp"" style=""text-align:center; margin-top: 0px; margin-bottom: 0px; font-size: 40px"";>מוכנים לשלם: <span id=""c_p_y""></span></p>","30","evaluation","65","30","9B","40","79","30","","","","","","","","","","","","","","","","",""
"","","","","","html-keyboard-response","51","164618","0.0-17.0-2.11","cb5ce584-a459-42d8-9906-a854aab80827","null","<p style=""text-align: center;"">+</p>","null","fixation","","","","","","","","","","","","","","","","","","","","","","",""
"","","","","","html-slider-response","52","165620","0.0-17.0-0.12","cb5ce584-a459-42d8-9906-a854aab80827","1000","
                  <p style=""text-align: center;"">₪4
                                                <br>50%</p>
                  <p id=""wtp"" style=""text-align:center; margin-top: 0px; margin-bottom: 0px; font-size: 40px"";>&ensp;</p>","-","viewing","0","2","4C,17B","","","","","","","","","","","","","","","","","","","",""
"","","","","","html-slider-response","53","167874","0.0-17.0-1.12","cb5ce584-a459-42d8-9906-a854aab80827","2253","
                  <p style=""text-align: center;"">₪4
                                                <br>50%</p>
                  <p id=""wtp"" style=""text-align:center; margin-top: 0px; margin-bottom: 0px; font-size: 40px"";>מוכנים לשלם: <span id=""c_p_y""></span></p>","0","evaluation","48","2","4C,17B","50","4","1","","","","","","","","","","","","","","","","",""
"","","","","","html-keyboard-response","54","168462","0.0-17.0-2.12","cb5ce584-a459-42d8-9906-a854aab80827","null","<p style=""text-align: center;"">+</p>","null","fixation","","","","","","","","","","","","","","","","","","","","","","",""
"","","","","","html-slider-response","55","169471","0.0-17.0-0.13","cb5ce584-a459-42d8-9906-a854aab80827","1000","
                  <p style=""text-align: center;"">₪36
                                                <br>30%</p>
                  <p id=""wtp"" style=""text-align:center; margin-top: 0px; margin-bottom: 0px; font-size: 40px"";>&ensp;</p>","-","viewing","0","11","3C,20A,22A","","","","","","","","","","","","","","","","","","","",""
"","","","","","html-slider-response","56","171522","0.0-17.0-1.13","cb5ce584-a459-42d8-9906-a854aab80827","2050","
                  <p style=""text-align: center;"">₪36
                                                <br>30%</p>
                  <p id=""wtp"" style=""text-align:center; margin-top: 0px; margin-bottom: 0px; font-size: 40px"";>מוכנים לשלם: <span id=""c_p_y""></span></p>","8","evaluation","53","11","3C,20A,22A","30","36","8","","","","","","","","","","","","","","","","",""
"","","","","","html-keyboard-response","57","172470","0.0-17.0-2.13","cb5ce584-a459-42d8-9906-a854aab80827","null","<p style=""text-align: center;"">+</p>","null","fixation","","","","","","","","","","","","","","","","","","","","","","",""
"","","","","","html-slider-response","58","173471","0.0-17.0-0.14","cb5ce584-a459-42d8-9906-a854aab80827","1000","
                  <p style=""text-align: center;"">₪43
                                                <br>75%</p>
                  <p id=""wtp"" style=""text-align:center; margin-top: 0px; margin-bottom: 0px; font-size: 40px"";>&ensp;</p>","-","viewing","0","18","11B,19B,24A,26A","","","","","","","","","","","","","","","","","","","",""
"","","","","","html-slider-response","59","176842","0.0-17.0-1.14","cb5ce584-a459-42d8-9906-a854aab80827","3369","
                  <p style=""text-align: center;"">₪43
                                                <br>75%</p>
                  <p id=""wtp"" style=""text-align:center; margin-top: 0px; margin-bottom: 0px; font-size: 40px"";>מוכנים לשלם: <span id=""c_p_y""></span></p>","16","evaluation","58","18","11B,19B,24A,26A","75","43","16","","","","","","","","","","","","","","","","",""
"","","","","","html-keyboard-response","60","177681","0.0-17.0-2.14","cb5ce584-a459-42d8-9906-a854aab80827","null","<p style=""text-align: center;"">+</p>","null","fixation","","","","","","","","","","","","","","","","","","","","","","",""
"","","","","","html-slider-response","61","178698","0.0-17.0-0.15","cb5ce584-a459-42d8-9906-a854aab80827","1000","
                  <p style=""text-align: center;"">₪64
                                                <br>50%</p>
                  <p id=""wtp"" style=""text-align:center; margin-top: 0px; margin-bottom: 0px; font-size: 40px"";>&ensp;</p>","-","viewing","0","25","1B,3B,4A","","","","","","","","","","","","","","","","","","","",""
"","","","","","html-slider-response","62","181914","0.0-17.0-1.15","cb5ce584-a459-42d8-9906-a854aab80827","3214","
                  <p style=""text-align: center;"">₪64
                                                <br>50%</p>
                  <p id=""wtp"" style=""text-align:center; margin-top: 0px; margin-bottom: 0px; font-size: 40px"";>מוכנים לשלם: <span id=""c_p_y""></span></p>","28","evaluation","19","25","1B,3B,4A","50","64","28","","","","","","","","","","","","","","","","",""
"","","","","","html-keyboard-response","63","182874","0.0-17.0-2.15","cb5ce584-a459-42d8-9906-a854aab80827","null","<p style=""text-align: center;"">+</p>","null","fixation","","","","","","","","","","","","","","","","","","","","","","",""
"","","","","","html-slider-response","64","183887","0.0-17.0-0.16","cb5ce584-a459-42d8-9906-a854aab80827","1000","
                  <p style=""text-align: center;"">₪43
                                                <br>60%</p>
                  <p id=""wtp"" style=""text-align:center; margin-top: 0px; margin-bottom: 0px; font-size: 40px"";>&ensp;</p>","-","viewing","0","17","2A,7A,9A,15B","","","","","","","","","","","","","","","","","","","",""
"","","","","","html-slider-response","65","186922","0.0-17.0-1.16","cb5ce584-a459-42d8-9906-a854aab80827","3034","
                  <p style=""text-align: center;"">₪43
                                                <br>60%</p>
                  <p id=""wtp"" style=""text-align:center; margin-top: 0px; margin-bottom: 0px; font-size: 40px"";>מוכנים לשלם: <span id=""c_p_y""></span></p>","21","evaluation","5","17","2A,7A,9A,15B","60","43","22","","","","","","","","","","","","","","","","",""
"","","","","","html-keyboard-response","66","187984","0.0-17.0-2.16","cb5ce584-a459-42d8-9906-a854aab80827","null","<p style=""text-align: center;"">+</p>","null","fixation","","","","","","","","","","","","","","","","","","","","","","",""
"","","","","","html-slider-response","67","189002","0.0-17.0-0.17","cb5ce584-a459-42d8-9906-a854aab80827","1000","
                  <p style=""text-align: center;"">₪71
                                                <br>45%</p>
                  <p id=""wtp"" style=""text-align:center; margin-top: 0px; margin-bottom: 0px; font-size: 40px"";>&ensp;</p>","-","viewing","0","26","2B,16A","","","","","","","","","","","","","","","","","","","",""
"","","","","","html-slider-response","68","190426","0.0-17.0-1.17","cb5ce584-a459-42d8-9906-a854aab80827","1423","
                  <p style=""text-align: center;"">₪71
                                                <br>45%</p>
                  <p id=""wtp"" style=""text-align:center; margin-top: 0px; margin-bottom: 0px; font-size: 40px"";>מוכנים לשלם: <span id=""c_p_y""></span></p>","30","evaluation","32","26","2B,16A","45","71","30","","","","","","","","","","","","","","","","",""
"","","","","","html-keyboard-response","69","191532","0.0-17.0-2.17","cb5ce584-a459-42d8-9906-a854aab80827","null","<p style=""text-align: center;"">+</p>","null","fixation","","","","","","","","","","","","","","","","","","","","","","",""
"","","","","","html-slider-response","70","192549","0.0-17.0-0.18","cb5ce584-a459-42d8-9906-a854aab80827","1000","
                  <p style=""text-align: center;"">₪76
                                                <br>65%</p>
                  <p id=""wtp"" style=""text-align:center; margin-top: 0px; margin-bottom: 0px; font-size: 40px"";>&ensp;</p>","-","viewing","0","29","8C,19A,24B","","","","","","","","","","","","","","","","","","","",""
"","","","","","html-slider-response","71","195682","0.0-17.0-1.18","cb5ce584-a459-42d8-9906-a854aab80827","3132","
                  <p style=""text-align: center;"">₪76
                                                <br>65%</p>
                  <p id=""wtp"" style=""text-align:center; margin-top: 0px; margin-bottom: 0px; font-size: 40px"";>מוכנים לשלם: <span id=""c_p_y""></span></p>","35","evaluation","46","29","8C,19A,24B","65","76","35","","","","","","","","","","","","","","","","",""
"","","","","","html-keyboard-response","72","196886","0.0-17.0-2.18","cb5ce584-a459-42d8-9906-a854aab80827","null","<p style=""text-align: center;"">+</p>","null","fixation","","","","","","","","","","","","","","","","","","","","","","",""
"","","","","","html-slider-response","73","197888","0.0-17.0-0.19","cb5ce584-a459-42d8-9906-a854aab80827","1000","
                  <p style=""text-align: center;"">₪36
                                                <br>60%</p>
                  <p id=""wtp"" style=""text-align:center; margin-top: 0px; margin-bottom: 0px; font-size: 40px"";>&ensp;</p>","-","viewing","0","12","1C,7C,15C","","","","","","","","","","","","","","","","","","","",""
"","","","","","html-slider-response","74","201890","0.0-17.0-1.19","cb5ce584-a459-42d8-9906-a854aab80827","null","
                  <p style=""text-align: center;"">₪36
                                                <br>60%</p>
                  <p id=""wtp"" style=""text-align:center; margin-top: 0px; margin-bottom: 0px; font-size: 40px"";>מוכנים לשלם: <span id=""c_p_y""></span></p>","null","evaluation","35","12","1C,7C,15C","60","36","20","","","","","","","","","","","","","","","","",""
"","","","","","html-keyboard-response","75","203142","0.0-17.0-2.19","cb5ce584-a459-42d8-9906-a854aab80827","null","<p style=""text-align: center;"">+</p>","null","fixation","","","","","","","","","","","","","","","","","","","","","","",""
"","","","","","html-slider-response","76","204145","0.0-17.0-0.20","cb5ce584-a459-42d8-9906-a854aab80827","1000","
                  <p style=""text-align: center;"">₪11
                                                <br>25%</p>
                  <p id=""wtp"" style=""text-align:center; margin-top: 0px; margin-bottom: 0px; font-size: 40px"";>&ensp;</p>","-","viewing","0","5","12A,27B,28B,30B","","","","","","","","","","","","","","","","","","","",""
"","","","","","html-slider-response","77","207042","0.0-17.0-1.20","cb5ce584-a459-42d8-9906-a854aab80827","2895","
                  <p style=""text-align: center;"">₪11
                                                <br>25%</p>
                  <p id=""wtp"" style=""text-align:center; margin-top: 0px; margin-bottom: 0px; font-size: 40px"";>מוכנים לשלם: <span id=""c_p_y""></span></p>","3","evaluation","24","5","12A,27B,28B,30B","25","11","3","","","","","","","","","","","","","","","","",""
"","","","","","html-keyboard-response","78","207583","0.0-17.0-2.20","cb5ce584-a459-42d8-9906-a854aab80827","null","<p style=""text-align: center;"">+</p>","null","fixation","","","","","","","","","","","","","","","","","","","","","","",""
"","","","","","html-slider-response","79","208597","0.0-17.0-0.21","cb5ce584-a459-42d8-9906-a854aab80827","1000","
                  <p style=""text-align: center;"">₪11
                                                <br>45%</p>
                  <p id=""wtp"" style=""text-align:center; margin-top: 0px; margin-bottom: 0px; font-size: 40px"";>&ensp;</p>","-","viewing","0","6","14B,21C,25C","","","","","","","","","","","","","","","","","","","",""
"","","","","","html-slider-response","80","212610","0.0-17.0-1.21","cb5ce584-a459-42d8-9906-a854aab80827","null","
                  <p style=""text-align: center;"">₪11
                                                <br>45%</p>
                  <p id=""wtp"" style=""text-align:center; margin-top: 0px; margin-bottom: 0px; font-size: 40px"";>מוכנים לשלם: <span id=""c_p_y""></span></p>","null","evaluation","64","6","14B,21C,25C","45","11","2","","","","","","","","","","","","","","","","",""
"","","","","","html-keyboard-response","81","213710","0.0-17.0-2.21","cb5ce584-a459-42d8-9906-a854aab80827","null","<p style=""text-align: center;"">+</p>","null","fixation","","","","","","","","","","","","","","","","","","","","","","",""
"","","","","","html-slider-response","82","214712","0.0-17.0-0.22","cb5ce584-a459-42d8-9906-a854aab80827","1000","
                  <p style=""text-align: center;"">₪71
                                                <br>55%</p>
                  <p id=""wtp"" style=""text-align:center; margin-top: 0px; margin-bottom: 0px; font-size: 40px"";>&ensp;</p>","-","viewing","0","27","5B,18A","","","","","","","","","","","","","","","","","","","",""
"","","","","","html-slider-response","83","215874","0.0-17.0-1.22","cb5ce584-a459-42d8-9906-a854aab80827","1161","
                  <p style=""text-align: center;"">₪71
                                                <br>55%</p>
                  <p id=""wtp"" style=""text-align:center; margin-top: 0px; margin-bottom: 0px; font-size: 40px"";>מוכנים לשלם: <span id=""c_p_y""></span></p>","30","evaluation","69","27","5B,18A","55","71","30","","","","","","","","","","","","","","","","",""
"","","","","","html-keyboard-response","84","217304","0.0-17.0-2.22","cb5ce584-a459-42d8-9906-a854aab80827","null","<p style=""text-align: center;"">+</p>","null","fixation","","","","","","","","","","","","","","","","","","","","","","",""
"","","","","","html-slider-response","85","218314","0.0-17.0-0.23","cb5ce584-a459-42d8-9906-a854aab80827","1000","
                  <p style=""text-align: center;"">₪58
                                                <br>30%</p>
                  <p id=""wtp"" style=""text-align:center; margin-top: 0px; margin-bottom: 0px; font-size: 40px"";>&ensp;</p>","-","viewing","0","19","13C,30A","","","","","","","","","","","","","","","","","","","",""
"","","","","","html-slider-response","86","221018","0.0-17.0-1.23","cb5ce584-a459-42d8-9906-a854aab80827","2702","
                  <p style=""text-align: center;"">₪58
                                                <br>30%</p>
                  <p id=""wtp"" style=""text-align:center; margin-top: 0px; margin-bottom: 0px; font-size: 40px"";>מוכנים לשלם: <span id=""c_p_y""></span></p>","13","evaluation","62","19","13C,30A","30","58","13","","","","","","","","","","","","","","","","",""
"","","","","","html-keyboard-response","87","222075","0.0-17.0-2.23","cb5ce584-a459-42d8-9906-a854aab80827","null","<p style=""text-align: center;"">+</p>","null","fixation","","","","","","","","","","","","","","","","","","","","","","",""
"","","","","","html-slider-response","88","223077","0.0-17.0-0.24","cb5ce584-a459-42d8-9906-a854aab80827","1000","
                  <p style=""text-align: center;"">₪36
                                                <br>70%</p>
                  <p id=""wtp"" style=""text-align:center; margin-top: 0px; margin-bottom: 0px; font-size: 40px"";>&ensp;</p>","-","viewing","0","13","3A,5C,10B","","","","","","","","","","","","","","","","","","","",""
"","","","","","html-slider-response","89","227089","0.0-17.0-1.24","cb5ce584-a459-42d8-9906-a854aab80827","null","
                  <p style=""text-align: center;"">₪36
                                                <br>70%</p>
                  <p id=""wtp"" style=""text-align:center; margin-top: 0px; margin-bottom: 0px; font-size: 40px"";>מוכנים לשלם: <span id=""c_p_y""></span></p>","null","evaluation","22","13","3A,5C,10B","70","36","18","","","","","","","","","","","","","","","","",""
"","","","","","html-keyboard-response","90","228136","0.0-17.0-2.24","cb5ce584-a459-42d8-9906-a854aab80827","null","<p style=""text-align: center;"">+</p>","null","fixation","","","","","","","","","","","","","","","","","","","","","","",""
"","","","","","html-slider-response","91","229138","0.0-17.0-0.25","cb5ce584-a459-42d8-9906-a854aab80827","1000","
                  <p style=""text-align: center;"">₪4
                                                <br>25%</p>
                  <p id=""wtp"" style=""text-align:center; margin-top: 0px; margin-bottom: 0px; font-size: 40px"";>&ensp;</p>","-","viewing","0","1","6C,29B,30C","","","","","","","","","","","","","","","","","","","",""
"","","","","","html-slider-response","92","231178","0.0-17.0-1.25","cb5ce584-a459-42d8-9906-a854aab80827","2039","
                  <p style=""text-align: center;"">₪4
                                                <br>25%</p>
                  <p id=""wtp"" style=""text-align:center; margin-top: 0px; margin-bottom: 0px; font-size: 40px"";>מוכנים לשלם: <span id=""c_p_y""></span></p>","1","evaluation","16","1","6C,29B,30C","25","4","1","","","","","","","","","","","","","","","","",""
"","","","","","html-keyboard-response","93","232214","0.0-17.0-2.25","cb5ce584-a459-42d8-9906-a854aab80827","null","<p style=""text-align: center;"">+</p>","null","fixation","","","","","","","","","","","","","","","","","","","","","","",""
"","","","","","html-slider-response","94","233221","0.0-17.0-0.26","cb5ce584-a459-42d8-9906-a854aab80827","1000","
                  <p style=""text-align: center;"">₪39
                                                <br>60%</p>
                  <p id=""wtp"" style=""text-align:center; margin-top: 0px; margin-bottom: 0px; font-size: 40px"";>&ensp;</p>","-","viewing","0","15","9C,25B","","","","","","","","","","","","","","","","","","","",""
"","","","","","html-slider-response","95","234946","0.0-17.0-1.26","cb5ce584-a459-42d8-9906-a854aab80827","1723","
                  <p style=""text-align: center;"">₪39
                                                <br>60%</p>
                  <p id=""wtp"" style=""text-align:center; margin-top: 0px; margin-bottom: 0px; font-size: 40px"";>מוכנים לשלם: <span id=""c_p_y""></span></p>","15","evaluation","40","15","9C,25B","60","39","15","","","","","","","","","","","","","","","","",""
"","","","","","html-keyboard-response","96","235962","0.0-17.0-2.26","cb5ce584-a459-42d8-9906-a854aab80827","null","<p style=""text-align: center;"">+</p>","null","fixation","","","","","","","","","","","","","","","","","","","","","","",""
"","","","","","html-slider-response","97","236964","0.0-17.0-0.27","cb5ce584-a459-42d8-9906-a854aab80827","1000","
                  <p style=""text-align: center;"">₪71
                                                <br>75%</p>
                  <p id=""wtp"" style=""text-align:center; margin-top: 0px; margin-bottom: 0px; font-size: 40px"";>&ensp;</p>","-","viewing","0","28","8B","","","","","","","","","","","","","","","","","","","",""
"","","","","","html-slider-response","98","239770","0.0-17.0-1.27","cb5ce584-a459-42d8-9906-a854aab80827","2805","
                  <p style=""text-align: center;"">₪71
                                                <br>75%</p>
                  <p id=""wtp"" style=""text-align:center; margin-top: 0px; margin-bottom: 0px; font-size: 40px"";>מוכנים לשלם: <span id=""c_p_y""></span></p>","39","evaluation","63","28","8B","75","71","39","","","","","","","","","","","","","","","","",""
"","","","","","html-keyboard-response","99","240846","0.0-17.0-2.27","cb5ce584-a459-42d8-9906-a854aab80827","null","<p style=""text-align: center;"">+</p>","null","fixation","","","","","","","","","","","","","","","","","","","","","","",""
"","","","","","html-slider-response","100","241858","0.0-17.0-0.28","cb5ce584-a459-42d8-9906-a854aab80827","1000","
                  <p style=""text-align: center;"">₪61
                                                <br>45%</p>
                  <p id=""wtp"" style=""text-align:center; margin-top: 0px; margin-bottom: 0px; font-size: 40px"";>&ensp;</p>","-","viewing","0","22","10A,11A","","","","","","","","","","","","","","","","","","","",""
"","","","","","html-slider-response","101","245346","0.0-17.0-1.28","cb5ce584-a459-42d8-9906-a854aab80827","3488","
                  <p style=""text-align: center;"">₪61
                                                <br>45%</p>
                  <p id=""wtp"" style=""text-align:center; margin-top: 0px; margin-bottom: 0px; font-size: 40px"";>מוכנים לשלם: <span id=""c_p_y""></span></p>","33","evaluation","65","22","10A,11A","45","61","33","","","","","","","","","","","","","","","","",""
"","","","","","html-keyboard-response","102","246187","0.0-17.0-2.28","cb5ce584-a459-42d8-9906-a854aab80827","null","<p style=""text-align: center;"">+</p>","null","fixation","","","","","","","","","","","","","","","","","","","","","","",""
"","","","","","html-slider-response","103","247203","0.0-17.0-0.29","cb5ce584-a459-42d8-9906-a854aab80827","1000","
                  <p style=""text-align: center;"">₪18
                                                <br>50%</p>
                  <p id=""wtp"" style=""text-align:center; margin-top: 0px; margin-bottom: 0px; font-size: 40px"";>&ensp;</p>","-","viewing","0","10","2C,16C,22B,28A","","","","","","","","","","","","","","","","","","","",""
"","","","","","html-slider-response","104","250130","0.0-17.0-1.29","cb5ce584-a459-42d8-9906-a854aab80827","2927","
                  <p style=""text-align: center;"">₪18
                                                <br>50%</p>
                  <p id=""wtp"" style=""text-align:center; margin-top: 0px; margin-bottom: 0px; font-size: 40px"";>מוכנים לשלם: <span id=""c_p_y""></span></p>","4","evaluation","68","10","2C,16C,22B,28A","50","18","4","","","","","","","","","","","","","","","","",""
"","","","","","html-keyboard-response","105","250918","0.0-17.0-2.29","cb5ce584-a459-42d8-9906-a854aab80827","null","<p style=""text-align: center;"">+</p>","null","fixation","","","","","","","","","","","","","","","","","","","","","","",""
"","","","","","html-slider-response","106","251930","0.0-17.0-0.30","cb5ce584-a459-42d8-9906-a854aab80827","1000","
                  <p style=""text-align: center;"">₪79
                                                <br>65%</p>
                  <p id=""wtp"" style=""text-align:center; margin-top: 0px; margin-bottom: 0px; font-size: 40px"";>&ensp;</p>","-","viewing","0","31","8A","","","","","","","","","","","","","","","","","","","",""
"","","","","","html-slider-response","107","255940","0.0-17.0-1.30","cb5ce584-a459-42d8-9906-a854aab80827","null","
                  <p style=""text-align: center;"">₪79
                                                <br>65%</p>
                  <p id=""wtp"" style=""text-align:center; margin-top: 0px; margin-bottom: 0px; font-size: 40px"";>מוכנים לשלם: <span id=""c_p_y""></span></p>","null","evaluation","45","31","8A","65","79","25","","","","","","","","","","","","","","","","",""
"","","","","","html-keyboard-response","108","256523","0.0-17.0-2.30","cb5ce584-a459-42d8-9906-a854aab80827","null","<p style=""text-align: center;"">+</p>","null","fixation","","","","","","","","","","","","","","","","","","","","","","",""
"","","","","","html-keyboard-response","109","257529","0.0-18.0","cb5ce584-a459-42d8-9906-a854aab80827","null","<p style=""text-align: center;"">+</p>","null","fixation","","","","","","","","","","","","","","","","","","","","","","",""
"","","","","","html-keyboard-response","110","259498","0.0-19.0","cb5ce584-a459-42d8-9906-a854aab80827","null","<p>הפסקה.
          <br>לחצו כדי להמשיך.</p>","1","scan_wait","","","","","","","","","","","","","","","","","","","","","","",""
"","","","","","html-keyboard-response","111","260514","0.0-20.0","cb5ce584-a459-42d8-9906-a854aab80827","null","<p style=""text-align: center;"">+</p>","null","fixation","","","","","","","","","","","","","","","","","","","","","","",""
"","","","","","html-slider-response","112","261518","0.0-21.0-0.0","cb5ce584-a459-42d8-9906-a854aab80827","1000","
                  <p style=""text-align: center;"">₪79
                                                <br>65%</p>
                  <p id=""wtp"" style=""text-align:center; margin-top: 0px; margin-bottom: 0px; font-size: 40px"";>&ensp;</p>","-","viewing","0","31","8A","","","","","","","","","","","","","","","","","","","",""
"","","","","","html-slider-response","113","264426","0.0-21.0-1.0","cb5ce584-a459-42d8-9906-a854aab80827","2907","
                  <p style=""text-align: center;"">₪79
                                                <br>65%</p>
                  <p id=""wtp"" style=""text-align:center; margin-top: 0px; margin-bottom: 0px; font-size: 40px"";>מוכנים לשלם: <span id=""c_p_y""></span></p>","41","evaluation","20","31","8A","65","79","41","","","","","","","","","","","","","","","","",""
"","","","","","html-keyboard-response","114","265127","0.0-21.0-2.0","cb5ce584-a459-42d8-9906-a854aab80827","null","<p style=""text-align: center;"">+</p>","null","fixation","","","","","","","","","","","","","","","","","","","","","","",""
"","","","","","html-slider-response","115","266138","0.0-21.0-0.1","cb5ce584-a459-42d8-9906-a854aab80827","1000","
                  <p style=""text-align: center;"">₪11
                                                <br>20%</p>
                  <p id=""wtp"" style=""text-align:center; margin-top: 0px; margin-bottom: 0px; font-size: 40px"";>&ensp;</p>","-","viewing","0","4","12C,17C,23C,28C","","","","","","","","","","","","","","","","","","","",""
"","","","","","html-slider-response","116","267986","0.0-21.0-1.1","cb5ce584-a459-42d8-9906-a854aab80827","1847","
                  <p style=""text-align: center;"">₪11
                                                <br>20%</p>
                  <p id=""wtp"" style=""text-align:center; margin-top: 0px; margin-bottom: 0px; font-size: 40px"";>מוכנים לשלם: <span id=""c_p_y""></span></p>","2","evaluation","37","4","12C,17C,23C,28C","20","11","3","","","","","","","","","","","","","","","","",""
"","","","","","html-keyboard-response","117","269177","0.0-21.0-2.1","cb5ce584-a459-42d8-9906-a854aab80827","null","<p style=""text-align: center;"">+</p>","null","fixation","","","","","","","","","","","","","","","","","","","","","","",""
"","","","","","html-slider-response","118","270179","0.0-21.0-0.2","cb5ce584-a459-42d8-9906-a854aab80827","1000","
                  <p style=""text-align: center;"">₪36
                                                <br>75%</p>
                  <p id=""wtp"" style=""text-align:center; margin-top: 0px; margin-bottom: 0px; font-size: 40px"";>&ensp;</p>","-","viewing","0","14","4B,5A,13B,16B","","","","","","","","","","","","","","","","","","","",""
"","","","","","html-slider-response","119","272626","0.0-21.0-1.2","cb5ce584-a459-42d8-9906-a854aab80827","2446","
                  <p style=""text-align: center;"">₪36
                                                <br>75%</p>
                  <p id=""wtp"" style=""text-align:center; margin-top: 0px; margin-bottom: 0px; font-size: 40px"";>מוכנים לשלם: <span id=""c_p_y""></span></p>","12","evaluation","27","14","4B,5A,13B,16B","75","36","12","","","","","","","","","","","","","","","","",""
"","","","","","html-keyboard-response","120","273596","0.0-21.0-2.2","cb5ce584-a459-42d8-9906-a854aab80827","null","<p style=""text-align: center;"">+</p>","null","fixation","","","","","","","","","","","","","","","","","","","","","","",""
"","","","","","html-slider-response","121","274599","0.0-21.0-0.3","cb5ce584-a459-42d8-9906-a854aab80827","1000","
                  <p style=""text-align: center;"">₪43
                                                <br>60%</p>
                  <p id=""wtp"" style=""text-align:center; margin-top: 0px; margin-bottom: 0px; font-size: 40px"";>&ensp;</p>","-","viewing","0","17","2A,7A,9A,15B","","","","","","","","","","","","","","","","","","","",""
"","","","","","html-slider-response","122","278600","0.0-21.0-1.3","cb5ce584-a459-42d8-9906-a854aab80827","null","
                  <p style=""text-align: center;"">₪43
                                                <br>60%</p>
                  <p id=""wtp"" style=""text-align:center; margin-top: 0px; margin-bottom: 0px; font-size: 40px"";>מוכנים לשלם: <span id=""c_p_y""></span></p>","null","evaluation","0","17","2A,7A,9A,15B","60","43","15","","","","","","","","","","","","","","","","",""
"","","","","","html-keyboard-response","123","279677","0.0-21.0-2.3","cb5ce584-a459-42d8-9906-a854aab80827","null","<p style=""text-align: center;"">+</p>","null","fixation","","","","","","","","","","","","","","","","","","","","","","",""
"","","","","","html-slider-response","124","280684","0.0-21.0-0.4","cb5ce584-a459-42d8-9906-a854aab80827","1000","
                  <p style=""text-align: center;"">₪64
                                                <br>50%</p>
                  <p id=""wtp"" style=""text-align:center; margin-top: 0px; margin-bottom: 0px; font-size: 40px"";>&ensp;</p>","-","viewing","0","25","1B,3B,4A","","","","","","","","","","","","","","","","","","","",""
"","","","","","html-slider-response","125","283250","0.0-21.0-1.4","cb5ce584-a459-42d8-9906-a854aab80827","2565","
                  <p style=""text-align: center;"">₪64
                                                <br>50%</p>
                  <p id=""wtp"" style=""text-align:center; margin-top: 0px; margin-bottom: 0px; font-size: 40px"";>מוכנים לשלם: <span id=""c_p_y""></span></p>","29","evaluation","32","25","1B,3B,4A","50","64","29","","","","","","","","","","","","","","","","",""
"","","","","","html-keyboard-response","126","284167","0.0-21.0-2.4","cb5ce584-a459-42d8-9906-a854aab80827","null","<p style=""text-align: center;"">+</p>","null","fixation","","","","","","","","","","","","","","","","","","","","","","",""
"","","","","","html-slider-response","127","285169","0.0-21.0-0.5","cb5ce584-a459-42d8-9906-a854aab80827","1000","
                  <p style=""text-align: center;"">₪61
                                                <br>55%</p>
                  <p id=""wtp"" style=""text-align:center; margin-top: 0px; margin-bottom: 0px; font-size: 40px"";>&ensp;</p>","-","viewing","0","23","7B,26B","","","","","","","","","","","","","","","","","","","",""
"","","","","","html-slider-response","128","288058","0.0-21.0-1.5","cb5ce584-a459-42d8-9906-a854aab80827","2888","
                  <p style=""text-align: center;"">₪61
                                                <br>55%</p>
                  <p id=""wtp"" style=""text-align:center; margin-top: 0px; margin-bottom: 0px; font-size: 40px"";>מוכנים לשלם: <span id=""c_p_y""></span></p>","31","evaluation","38","23","7B,26B","55","61","31","","","","","","","","","","","","","","","","",""
"","","","","","html-keyboard-response","129","289396","0.0-21.0-2.5","cb5ce584-a459-42d8-9906-a854aab80827","null","<p style=""text-align: center;"">+</p>","null","fixation","","","","","","","","","","","","","","","","","","","","","","",""
"","","","","","html-slider-response","130","290412","0.0-21.0-0.6","cb5ce584-a459-42d8-9906-a854aab80827","1000","
                  <p style=""text-align: center;"">₪79
                                                <br>40%</p>
                  <p id=""wtp"" style=""text-align:center; margin-top: 0px; margin-bottom: 0px; font-size: 40px"";>&ensp;</p>","-","viewing","0","30","9B","","","","","","","","","","","","","","","","","","","",""
"","","","","","html-slider-response","131","292906","0.0-21.0-1.6","cb5ce584-a459-42d8-9906-a854aab80827","2493","
                  <p style=""text-align: center;"">₪79
                                                <br>40%</p>
                  <p id=""wtp"" style=""text-align:center; margin-top: 0px; margin-bottom: 0px; font-size: 40px"";>מוכנים לשלם: <span id=""c_p_y""></span></p>","35","evaluation","76","30","9B","40","79","35","","","","","","","","","","","","","","","","",""
"","","","","","html-keyboard-response","132","293740","0.0-21.0-2.6","cb5ce584-a459-42d8-9906-a854aab80827","null","<p style=""text-align: center;"">+</p>","null","fixation","","","","","","","","","","","","","","","","","","","","","","",""
"","","","","","html-slider-response","133","294741","0.0-21.0-0.7","cb5ce584-a459-42d8-9906-a854aab80827","1000","
                  <p style=""text-align: center;"">₪43
                                                <br>75%</p>
                  <p id=""wtp"" style=""text-align:center; margin-top: 0px; margin-bottom: 0px; font-size: 40px"";>&ensp;</p>","-","viewing","0","18","11B,19B,24A,26A","","","","","","","","","","","","","","","","","","","",""
"","","","","","html-slider-response","134","298010","0.0-21.0-1.7","cb5ce584-a459-42d8-9906-a854aab80827","3268","
                  <p style=""text-align: center;"">₪43
                                                <br>75%</p>
                  <p id=""wtp"" style=""text-align:center; margin-top: 0px; margin-bottom: 0px; font-size: 40px"";>מוכנים לשלם: <span id=""c_p_y""></span></p>","28","evaluation","58","18","11B,19B,24A,26A","75","43","28","","","","","","","","","","","","","","","","",""
"","","","","","html-keyboard-response","135","299157","0.0-21.0-2.7","cb5ce584-a459-42d8-9906-a854aab80827","null","<p style=""text-align: center;"">+</p>","null","fixation","","","","","","","","","","","","","","","","","","","","","","",""
"","","","","","html-slider-response","136","300170","0.0-21.0-0.8","cb5ce584-a459-42d8-9906-a854aab80827","1000","
                  <p style=""text-align: center;"">₪11
                                                <br>75%</p>
                  <p id=""wtp"" style=""text-align:center; margin-top: 0px; margin-bottom: 0px; font-size: 40px"";>&ensp;</p>","-","viewing","0","7","6B,18B,22C,24C,29A","","","","","","","","","","","","","","","","","","","",""
"","","","","","html-slider-response","137","304074","0.0-21.0-1.8","cb5ce584-a459-42d8-9906-a854aab80827","3903","
                  <p style=""text-align: center;"">₪11
                                                <br>75%</p>
                  <p id=""wtp"" style=""text-align:center; margin-top: 0px; margin-bottom: 0px; font-size: 40px"";>מוכנים לשלם: <span id=""c_p_y""></span></p>","2","evaluation","22","7","6B,18B,22C,24C,29A","75","11","2","","","","","","","","","","","","","","","","",""
"","","","","","html-keyboard-response","138","304638","0.0-21.0-2.8","cb5ce584-a459-42d8-9906-a854aab80827","null","<p style=""text-align: center;"">+</p>","null","fixation","","","","","","","","","","","","","","","","","","","","","","",""
"","","","","","html-slider-response","139","305655","0.0-21.0-0.9","cb5ce584-a459-42d8-9906-a854aab80827","1000","
                  <p style=""text-align: center;"">₪39
                                                <br>60%</p>
                  <p id=""wtp"" style=""text-align:center; margin-top: 0px; margin-bottom: 0px; font-size: 40px"";>&ensp;</p>","-","viewing","0","15","9C,25B","","","","","","","","","","","","","","","","","","","",""
"","","","","","html-slider-response","140","308945","0.0-21.0-1.9","cb5ce584-a459-42d8-9906-a854aab80827","3290","
                  <p style=""text-align: center;"">₪39
                                                <br>60%</p>
                  <p id=""wtp"" style=""text-align:center; margin-top: 0px; margin-bottom: 0px; font-size: 40px"";>מוכנים לשלם: <span id=""c_p_y""></span></p>","9","evaluation","6","15","9C,25B","60","39","9","","","","","","","","","","","","","","","","",""
"","","","","","html-keyboard-response","141","310189","0.0-21.0-2.9","cb5ce584-a459-42d8-9906-a854aab80827","null","<p style=""text-align: center;"">+</p>","null","fixation","","","","","","","","","","","","","","","","","","","","","","",""
"","","","","","html-slider-response","142","311191","0.0-21.0-0.10","cb5ce584-a459-42d8-9906-a854aab80827","1000","
                  <p style=""text-align: center;"">₪58
                                                <br>30%</p>
                  <p id=""wtp"" style=""text-align:center; margin-top: 0px; margin-bottom: 0px; font-size: 40px"";>&ensp;</p>","-","viewing","0","19","13C,30A","","","","","","","","","","","","","","","","","","","",""
"","","","","","html-slider-response","143","313522","0.0-21.0-1.10","cb5ce584-a459-42d8-9906-a854aab80827","2330","
                  <p style=""text-align: center;"">₪58
                                                <br>30%</p>
                  <p id=""wtp"" style=""text-align:center; margin-top: 0px; margin-bottom: 0px; font-size: 40px"";>מוכנים לשלם: <span id=""c_p_y""></span></p>","19","evaluation","17","19","13C,30A","30","58","20","","","","","","","","","","","","","","","","",""
"","","","","","html-keyboard-response","144","314922","0.0-21.0-2.10","cb5ce584-a459-42d8-9906-a854aab80827","null","<p style=""text-align: center;"">+</p>","null","fixation","","","","","","","","","","","","","","","","","","","","","","",""
"","","","","","html-slider-response","145","315935","0.0-21.0-0.11","cb5ce584-a459-42d8-9906-a854aab80827","1000","
                  <p style=""text-align: center;"">₪71
                                                <br>75%</p>
                  <p id=""wtp"" style=""text-align:center; margin-top: 0px; margin-bottom: 0px; font-size: 40px"";>&ensp;</p>","-","viewing","0","28","8B","","","","","","","","","","","","","","","","","","","",""
"","","","","","html-slider-response","146","318714","0.0-21.0-1.11","cb5ce584-a459-42d8-9906-a854aab80827","2778","
                  <p style=""text-align: center;"">₪71
                                                <br>75%</p>
                  <p id=""wtp"" style=""text-align:center; margin-top: 0px; margin-bottom: 0px; font-size: 40px"";>מוכנים לשלם: <span id=""c_p_y""></span></p>","40","evaluation","80","28","8B","75","71","40","","","","","","","","","","","","","","","","",""
"","","","","","html-keyboard-response","147","319403","0.0-21.0-2.11","cb5ce584-a459-42d8-9906-a854aab80827","null","<p style=""text-align: center;"">+</p>","null","fixation","","","","","","","","","","","","","","","","","","","","","","",""
"","","","","","html-slider-response","148","320419","0.0-21.0-0.12","cb5ce584-a459-42d8-9906-a854aab80827","1000","
                  <p style=""text-align: center;"">₪36
                                                <br>30%</p>
                  <p id=""wtp"" style=""text-align:center; margin-top: 0px; margin-bottom: 0px; font-size: 40px"";>&ensp;</p>","-","viewing","0","11","3C,20A,22A","","","","","","","","","","","","","","","","","","","",""
"","","","","","html-slider-response","149","324433","0.0-21.0-1.12","cb5ce584-a459-42d8-9906-a854aab80827","null","
                  <p style=""text-align: center;"">₪36
                                                <br>30%</p>
                  <p id=""wtp"" style=""text-align:center; margin-top: 0px; margin-bottom: 0px; font-size: 40px"";>מוכנים לשלם: <span id=""c_p_y""></span></p>","null","evaluation","42","11","3C,20A,22A","30","36","10","","","","","","","","","","","","","","","","",""
"","","","","","html-keyboard-response","150","325370","0.0-21.0-2.12","cb5ce584-a459-42d8-9906-a854aab80827","null","<p style=""text-align: center;"">+</p>","null","fixation","","","","","","","","","","","","","","","","","","","","","","",""
"","","","","","html-slider-response","151","326372","0.0-21.0-0.13","cb5ce584-a459-42d8-9906-a854aab80827","1000","
                  <p style=""text-align: center;"">₪36
                                                <br>70%</p>
                  <p id=""wtp"" style=""text-align:center; margin-top: 0px; margin-bottom: 0px; font-size: 40px"";>&ensp;</p>","-","viewing","0","13","3A,5C,10B","","","","","","","","","","","","","","","","","","","",""
"","","","","","html-slider-response","152","328697","0.0-21.0-1.13","cb5ce584-a459-42d8-9906-a854aab80827","2324","
                  <p style=""text-align: center;"">₪36
                                                <br>70%</p>
                  <p id=""wtp"" style=""text-align:center; margin-top: 0px; margin-bottom: 0px; font-size: 40px"";>מוכנים לשלם: <span id=""c_p_y""></span></p>","13","evaluation","50","13","3A,5C,10B","70","36","13","","","","","","","","","","","","","","","","",""
"","","","","","html-keyboard-response","153","329777","0.0-21.0-2.13","cb5ce584-a459-42d8-9906-a854aab80827","null","<p style=""text-align: center;"">+</p>","null","fixation","","","","","","","","","","","","","","","","","","","","","","",""
"","","","","","html-slider-response","154","330779","0.0-21.0-0.14","cb5ce584-a459-42d8-9906-a854aab80827","1000","
                  <p style=""text-align: center;"">₪18
                                                <br>25%</p>
                  <p id=""wtp"" style=""text-align:center; margin-top: 0px; margin-bottom: 0px; font-size: 40px"";>&ensp;</p>","-","viewing","0","9","14A,23A","","","","","","","","","","","","","","","","","","","",""
"","","","","","html-slider-response","155","334780","0.0-21.0-1.14","cb5ce584-a459-42d8-9906-a854aab80827","null","
                  <p style=""text-align: center;"">₪18
                                                <br>25%</p>
                  <p id=""wtp"" style=""text-align:center; margin-top: 0px; margin-bottom: 0px; font-size: 40px"";>מוכנים לשלם: <span id=""c_p_y""></span></p>","null","evaluation","6","9","14A,23A","25","18","4","","","","","","","","","","","","","","","","",""
"","","","","","html-keyboard-response","156","335546","0.0-21.0-2.14","cb5ce584-a459-42d8-9906-a854aab80827","null","<p style=""text-align: center;"">+</p>","null","fixation","","","","","","","","","","","","","","","","","","","","","","",""
"","","","","","html-slider-response","157","336548","0.0-21.0-0.15","cb5ce584-a459-42d8-9906-a854aab80827","1000","
                  <p style=""text-align: center;"">₪36
                                                <br>60%</p>
                  <p id=""wtp"" style=""text-align:center; margin-top: 0px; margin-bottom: 0px; font-size: 40px"";>&ensp;</p>","-","viewing","0","12","1C,7C,15C","","","","","","","","","","","","","","","","","","","",""
"","","","","","html-slider-response","158","339098","0.0-21.0-1.15","cb5ce584-a459-42d8-9906-a854aab80827","2548","
                  <p style=""text-align: center;"">₪36
                                                <br>60%</p>
                  <p id=""wtp"" style=""text-align:center; margin-top: 0px; margin-bottom: 0px; font-size: 40px"";>מוכנים לשלם: <span id=""c_p_y""></span></p>","31","evaluation","65","12","1C,7C,15C","60","36","31","","","","","","","","","","","","","","","","",""
"","","","","","html-keyboard-response","159","340590","0.0-21.0-2.15","cb5ce584-a459-42d8-9906-a854aab80827","null","<p style=""text-align: center;"">+</p>","null","fixation","","","","","","","","","","","","","","","","","","","","","","",""
"","","","","","html-slider-response","160","341594","0.0-21.0-0.16","cb5ce584-a459-42d8-9906-a854aab80827","1000","
                  <p style=""text-align: center;"">₪18
                                                <br>50%</p>
                  <p id=""wtp"" style=""text-align:center; margin-top: 0px; margin-bottom: 0px; font-size: 40px"";>&ensp;</p>","-","viewing","0","10","2C,16C,22B,28A","","","","","","","","","","","","","","","","","","","",""
"","","","","","html-slider-response","161","342978","0.0-21.0-1.16","cb5ce584-a459-42d8-9906-a854aab80827","1382","
                  <p style=""text-align: center;"">₪18
                                                <br>50%</p>
                  <p id=""wtp"" style=""text-align:center; margin-top: 0px; margin-bottom: 0px; font-size: 40px"";>מוכנים לשלם: <span id=""c_p_y""></span></p>","6","evaluation","10","10","2C,16C,22B,28A","50","18","7","","","","","","","","","","","","","","","","",""
"","","","","","html-keyboard-response","162","344175","0.0-21.0-2.16","cb5ce584-a459-42d8-9906-a854aab80827","null","<p style=""text-align: center;"">+</p>","null","fixation","","","","","","","","","","","","","","","","","","","","","","",""
"","","","","","html-slider-response","163","345177","0.0-21.0-0.17","cb5ce584-a459-42d8-9906-a854aab80827","1000","
                  <p style=""text-align: center;"">₪4
                                                <br>75%</p>
                  <p id=""wtp"" style=""text-align:center; margin-top: 0px; margin-bottom: 0px; font-size: 40px"";>&ensp;</p>","-","viewing","0","3","12B,20B,23B,27C,29C","","","","","","","","","","","","","","","","","","","",""
"","","","","","html-slider-response","164","347529","0.0-21.0-1.17","cb5ce584-a459-42d8-9906-a854aab80827","2352","
                  <p style=""text-align: center;"">₪4
                                                <br>75%</p>
                  <p id=""wtp"" style=""text-align:center; margin-top: 0px; margin-bottom: 0px; font-size: 40px"";>מוכנים לשלם: <span id=""c_p_y""></span></p>","0","evaluation","6","3","12B,20B,23B,27C,29C","75","4","1","","","","","","","","","","","","","","","","",""
"","","","","","html-keyboard-response","165","348860","0.0-21.0-2.17","cb5ce584-a459-42d8-9906-a854aab80827","null","<p style=""text-align: center;"">+</p>","null","fixation","","","","","","","","","","","","","","","","","","","","","","",""
"","","","","","html-slider-response","166","349871","0.0-21.0-0.18","cb5ce584-a459-42d8-9906-a854aab80827","1000","
                  <p style=""text-align: center;"">₪4
                                                <br>25%</p>
                  <p id=""wtp"" style=""text-align:center; margin-top: 0px; margin-bottom: 0px; font-size: 40px"";>&ensp;</p>","-","viewing","0","1","6C,29B,30C","","","","","","","","","","","","","","","","","","","",""
"","","","","","html-slider-response","167","352217","0.0-21.0-1.18","cb5ce584-a459-42d8-9906-a854aab80827","2345","
                  <p style=""text-align: center;"">₪4
                                                <br>25%</p>
                  <p id=""wtp"" style=""text-align:center; margin-top: 0px; margin-bottom: 0px; font-size: 40px"";>מוכנים לשלם: <span id=""c_p_y""></span></p>","0","evaluation","56","1","6C,29B,30C","25","4","1","","","","","","","","","","","","","","","","",""
"","","","","","html-keyboard-response","168","353479","0.0-21.0-2.18","cb5ce584-a459-42d8-9906-a854aab80827","null","<p style=""text-align: center;"">+</p>","null","fixation","","","","","","","","","","","","","","","","","","","","","","",""
"","","","","","html-slider-response","169","354491","0.0-21.0-0.19","cb5ce584-a459-42d8-9906-a854aab80827","1000","
                  <p style=""text-align: center;"">₪58
                                                <br>40%</p>
                  <p id=""wtp"" style=""text-align:center; margin-top: 0px; margin-bottom: 0px; font-size: 40px"";>&ensp;</p>","-","viewing","0","20","10C,13A,19C,21B","","","","","","","","","","","","","","","","","","","",""
"","","","","","html-slider-response","170","357994","0.0-21.0-1.19","cb5ce584-a459-42d8-9906-a854aab80827","3501","
                  <p style=""text-align: center;"">₪58
                                                <br>40%</p>
                  <p id=""wtp"" style=""text-align:center; margin-top: 0px; margin-bottom: 0px; font-size: 40px"";>מוכנים לשלם: <span id=""c_p_y""></span></p>","15","evaluation","21","20","10C,13A,19C,21B","40","58","15","","","","","","","","","","","","","","","","",""
"","","","","","html-keyboard-response","171","359286","0.0-21.0-2.19","cb5ce584-a459-42d8-9906-a854aab80827","null","<p style=""text-align: center;"">+</p>","null","fixation","","","","","","","","","","","","","","","","","","","","","","",""
"","","","","","html-slider-response","172","360288","0.0-21.0-0.20","cb5ce584-a459-42d8-9906-a854aab80827","1000","
                  <p style=""text-align: center;"">₪39
                                                <br>65%</p>
                  <p id=""wtp"" style=""text-align:center; margin-top: 0px; margin-bottom: 0px; font-size: 40px"";>&ensp;</p>","-","viewing","0","16","1A,15A,26C","","","","","","","","","","","","","","","","","","","",""
"","","","","","html-slider-response","173","361794","0.0-21.0-1.20","cb5ce584-a459-42d8-9906-a854aab80827","1505","
                  <p style=""text-align: center;"">₪39
                                                <br>65%</p>
                  <p id=""wtp"" style=""text-align:center; margin-top: 0px; margin-bottom: 0px; font-size: 40px"";>מוכנים לשלם: <span id=""c_p_y""></span></p>","7","evaluation","12","16","1A,15A,26C","65","39","7","","","","","","","","","","","","","","","","",""
"","","","","","html-keyboard-response","174","362430","0.0-21.0-2.20","cb5ce584-a459-42d8-9906-a854aab80827","null","<p style=""text-align: center;"">+</p>","null","fixation","","","","","","","","","","","","","","","","","","","","","","",""
"","","","","","html-slider-response","175","363446","0.0-21.0-0.21","cb5ce584-a459-42d8-9906-a854aab80827","1000","
                  <p style=""text-align: center;"">₪61
                                                <br>45%</p>
                  <p id=""wtp"" style=""text-align:center; margin-top: 0px; margin-bottom: 0px; font-size: 40px"";>&ensp;</p>","-","viewing","0","22","10A,11A","","","","","","","","","","","","","","","","","","","",""
"","","","","","html-slider-response","176","367090","0.0-21.0-1.21","cb5ce584-a459-42d8-9906-a854aab80827","3643","
                  <p style=""text-align: center;"">₪61
                                                <br>45%</p>
                  <p id=""wtp"" style=""text-align:center; margin-top: 0px; margin-bottom: 0px; font-size: 40px"";>מוכנים לשלם: <span id=""c_p_y""></span></p>","31","evaluation","69","22","10A,11A","45","61","31","","","","","","","","","","","","","","","","",""
"","","","","","html-keyboard-response","177","367853","0.0-21.0-2.21","cb5ce584-a459-42d8-9906-a854aab80827","null","<p style=""text-align: center;"">+</p>","null","fixation","","","","","","","","","","","","","","","","","","","","","","",""
"","","","","","html-slider-response","178","368856","0.0-21.0-0.22","cb5ce584-a459-42d8-9906-a854aab80827","1000","
                  <p style=""text-align: center;"">₪71
                                                <br>45%</p>
                  <p id=""wtp"" style=""text-align:center; margin-top: 0px; margin-bottom: 0px; font-size: 40px"";>&ensp;</p>","-","viewing","0","26","2B,16A","","","","","","","","","","","","","","","","","","","",""
"","","","","","html-slider-response","179","370874","0.0-21.0-1.22","cb5ce584-a459-42d8-9906-a854aab80827","2017","
                  <p style=""text-align: center;"">₪71
                                                <br>45%</p>
                  <p id=""wtp"" style=""text-align:center; margin-top: 0px; margin-bottom: 0px; font-size: 40px"";>מוכנים לשלם: <span id=""c_p_y""></span></p>","27","evaluation","41","26","2B,16A","45","71","27","","","","","","","","","","","","","","","","",""
"","","","","","html-keyboard-response","180","372246","0.0-21.0-2.22","cb5ce584-a459-42d8-9906-a854aab80827","null","<p style=""text-align: center;"">+</p>","null","fixation","","","","","","","","","","","","","","","","","","","","","","",""
"","","","","","html-slider-response","181","373248","0.0-21.0-0.23","cb5ce584-a459-42d8-9906-a854aab80827","1000","
                  <p style=""text-align: center;"">₪71
                                                <br>55%</p>
                  <p id=""wtp"" style=""text-align:center; margin-top: 0px; margin-bottom: 0px; font-size: 40px"";>&ensp;</p>","-","viewing","0","27","5B,18A","","","","","","","","","","","","","","","","","","","",""
"","","","","","html-slider-response","182","375066","0.0-21.0-1.23","cb5ce584-a459-42d8-9906-a854aab80827","1817","
                  <p style=""text-align: center;"">₪71
                                                <br>55%</p>
                  <p id=""wtp"" style=""text-align:center; margin-top: 0px; margin-bottom: 0px; font-size: 40px"";>מוכנים לשלם: <span id=""c_p_y""></span></p>","20","evaluation","2","27","5B,18A","55","71","20","","","","","","","","","","","","","","","","",""
"","","","","","html-keyboard-response","183","375902","0.0-21.0-2.23","cb5ce584-a459-42d8-9906-a854aab80827","null","<p style=""text-align: center;"">+</p>","null","fixation","","","","","","","","","","","","","","","","","","","","","","",""
"","","","","","html-slider-response","184","376917","0.0-21.0-0.24","cb5ce584-a459-42d8-9906-a854aab80827","1000","
                  <p style=""text-align: center;"">₪64
                                                <br>25%</p>
                  <p id=""wtp"" style=""text-align:center; margin-top: 0px; margin-bottom: 0px; font-size: 40px"";>&ensp;</p>","-","viewing","0","24","6A,21A","","","","","","","","","","","","","","","","","","","",""
"","","","","","html-slider-response","185","378434","0.0-21.0-1.24","cb5ce584-a459-42d8-9906-a854aab80827","1517","
                  <p style=""text-align: center;"">₪64
                                                <br>25%</p>
                  <p id=""wtp"" style=""text-align:center; margin-top: 0px; margin-bottom: 0px; font-size: 40px"";>מוכנים לשלם: <span id=""c_p_y""></span></p>","22","evaluation","35","24","6A,21A","25","64","22","","","","","","","","","","","","","","","","",""
"","","","","","html-keyboard-response","186","379080","0.0-21.0-2.24","cb5ce584-a459-42d8-9906-a854aab80827","null","<p style=""text-align: center;"">+</p>","null","fixation","","","","","","","","","","","","","","","","","","","","","","",""
"","","","","","html-slider-response","187","380094","0.0-21.0-0.25","cb5ce584-a459-42d8-9906-a854aab80827","1000","
                  <p style=""text-align: center;"">₪16
                                                <br>20%</p>
                  <p id=""wtp"" style=""text-align:center; margin-top: 0px; margin-bottom: 0px; font-size: 40px"";>&ensp;</p>","-","viewing","0","8","14C,17A,20C,27A","","","","","","","","","","","","","","","","","","","",""
"","","","","","html-slider-response","188","383554","0.0-21.0-1.25","cb5ce584-a459-42d8-9906-a854aab80827","3459","
                  <p style=""text-align: center;"">₪16
                                                <br>20%</p>
                  <p id=""wtp"" style=""text-align:center; margin-top: 0px; margin-bottom: 0px; font-size: 40px"";>מוכנים לשלם: <span id=""c_p_y""></span></p>","4","evaluation","39","8","14C,17A,20C,27A","20","16","4","","","","","","","","","","","","","","","","",""
"","","","","","html-keyboard-response","189","384223","0.0-21.0-2.25","cb5ce584-a459-42d8-9906-a854aab80827","null","<p style=""text-align: center;"">+</p>","null","fixation","","","","","","","","","","","","","","","","","","","","","","",""
"","","","","","html-slider-response","190","385229","0.0-21.0-0.26","cb5ce584-a459-42d8-9906-a854aab80827","1000","
                  <p style=""text-align: center;"">₪11
                                                <br>25%</p>
                  <p id=""wtp"" style=""text-align:center; margin-top: 0px; margin-bottom: 0px; font-size: 40px"";>&ensp;</p>","-","viewing","0","5","12A,27B,28B,30B","","","","","","","","","","","","","","","","","","","",""
"","","","","","html-slider-response","191","387898","0.0-21.0-1.26","cb5ce584-a459-42d8-9906-a854aab80827","2668","
                  <p style=""text-align: center;"">₪11
                                                <br>25%</p>
                  <p id=""wtp"" style=""text-align:center; margin-top: 0px; margin-bottom: 0px; font-size: 40px"";>מוכנים לשלם: <span id=""c_p_y""></span></p>","2","evaluation","0","5","12A,27B,28B,30B","25","11","2","","","","","","","","","","","","","","","","",""
"","","","","","html-keyboard-response","192","388584","0.0-21.0-2.26","cb5ce584-a459-42d8-9906-a854aab80827","null","<p style=""text-align: center;"">+</p>","null","fixation","","","","","","","","","","","","","","","","","","","","","","",""
"","","","","","html-slider-response","193","389601","0.0-21.0-0.27","cb5ce584-a459-42d8-9906-a854aab80827","1000","
                  <p style=""text-align: center;"">₪4
                                                <br>50%</p>
                  <p id=""wtp"" style=""text-align:center; margin-top: 0px; margin-bottom: 0px; font-size: 40px"";>&ensp;</p>","-","viewing","0","2","4C,17B","","","","","","","","","","","","","","","","","","","",""
"","","","","","html-slider-response","194","391994","0.0-21.0-1.27","cb5ce584-a459-42d8-9906-a854aab80827","2392","
                  <p style=""text-align: center;"">₪4
                                                <br>50%</p>
                  <p id=""wtp"" style=""text-align:center; margin-top: 0px; margin-bottom: 0px; font-size: 40px"";>מוכנים לשלם: <span id=""c_p_y""></span></p>","2","evaluation","54","2","4C,17B","50","4","2","","","","","","","","","","","","","","","","",""
"","","","","","html-keyboard-response","195","393221","0.0-21.0-2.27","cb5ce584-a459-42d8-9906-a854aab80827","null","<p style=""text-align: center;"">+</p>","null","fixation","","","","","","","","","","","","","","","","","","","","","","",""
"","","","","","html-slider-response","196","394232","0.0-21.0-0.28","cb5ce584-a459-42d8-9906-a854aab80827","1000","
                  <p style=""text-align: center;"">₪58
                                                <br>45%</p>
                  <p id=""wtp"" style=""text-align:center; margin-top: 0px; margin-bottom: 0px; font-size: 40px"";>&ensp;</p>","-","viewing","0","21","11C,18C,25A","","","","","","","","","","","","","","","","","","","",""
"","","","","","html-slider-response","197","398106","0.0-21.0-1.28","cb5ce584-a459-42d8-9906-a854aab80827","3873","
                  <p style=""text-align: center;"">₪58
                                                <br>45%</p>
                  <p id=""wtp"" style=""text-align:center; margin-top: 0px; margin-bottom: 0px; font-size: 40px"";>מוכנים לשלם: <span id=""c_p_y""></span></p>","10","evaluation","30","21","11C,18C,25A","45","58","10","","","","","","","","","","","","","","","","",""
"","","","","","html-keyboard-response","198","398928","0.0-21.0-2.28","cb5ce584-a459-42d8-9906-a854aab80827","null","<p style=""text-align: center;"">+</p>","null","fixation","","","","","","","","","","","","","","","","","","","","","","",""
"","","","","","html-slider-response","199","399941","0.0-21.0-0.29","cb5ce584-a459-42d8-9906-a854aab80827","1000","
                  <p style=""text-align: center;"">₪76
                                                <br>65%</p>
                  <p id=""wtp"" style=""text-align:center; margin-top: 0px; margin-bottom: 0px; font-size: 40px"";>&ensp;</p>","-","viewing","0","29","8C,19A,24B","","","","","","","","","","","","","","","","","","","",""
"","","","","","html-slider-response","200","402922","0.0-21.0-1.29","cb5ce584-a459-42d8-9906-a854aab80827","2980","
                  <p style=""text-align: center;"">₪76
                                                <br>65%</p>
                  <p id=""wtp"" style=""text-align:center; margin-top: 0px; margin-bottom: 0px; font-size: 40px"";>מוכנים לשלם: <span id=""c_p_y""></span></p>","25","evaluation","73","29","8C,19A,24B","65","76","25","","","","","","","","","","","","","","","","",""
"","","","","","html-keyboard-response","201","403905","0.0-21.0-2.29","cb5ce584-a459-42d8-9906-a854aab80827","null","<p style=""text-align: center;"">+</p>","null","fixation","","","","","","","","","","","","","","","","","","","","","","",""
"","","","","","html-slider-response","202","404910","0.0-21.0-0.30","cb5ce584-a459-42d8-9906-a854aab80827","1000","
                  <p style=""text-align: center;"">₪11
                                                <br>45%</p>
                  <p id=""wtp"" style=""text-align:center; margin-top: 0px; margin-bottom: 0px; font-size: 40px"";>&ensp;</p>","-","viewing","0","6","14B,21C,25C","","","","","","","","","","","","","","","","","","","",""
"","","","","","html-slider-response","203","407714","0.0-21.0-1.30","cb5ce584-a459-42d8-9906-a854aab80827","2803","
                  <p style=""text-align: center;"">₪11
                                                <br>45%</p>
                  <p id=""wtp"" style=""text-align:center; margin-top: 0px; margin-bottom: 0px; font-size: 40px"";>מוכנים לשלם: <span id=""c_p_y""></span></p>","1","evaluation","29","6","14B,21C,25C","45","11","1","","","","","","","","","","","","","","","","",""
"","","","","","html-keyboard-response","204","408498","0.0-21.0-2.30","cb5ce584-a459-42d8-9906-a854aab80827","null","<p style=""text-align: center;"">+</p>","null","fixation","","","","","","","","","","","","","","","","","","","","","","",""
"","","","","","html-keyboard-response","205","409506","0.0-22.0","cb5ce584-a459-42d8-9906-a854aab80827","null","<p style=""text-align: center;"">+</p>","null","fixation","","","","","","","","","","","","","","","","","","","","","","",""
"","","","","","html-keyboard-response","206","410234","0.0-23.0","cb5ce584-a459-42d8-9906-a854aab80827","null","<p>הפסקה.
          <br>לחצו כדי להמשיך.</p>","1","scan_wait","","","","","","","","","","","","","","","","","","","","","","",""
"","","","","","html-keyboard-response","207","411236","0.0-24.0","cb5ce584-a459-42d8-9906-a854aab80827","null","<p style=""text-align: center;"">+</p>","null","fixation","","","","","","","","","","","","","","","","","","","","","","",""
"","","","","","html-slider-response","208","412250","0.0-25.0-0.0","cb5ce584-a459-42d8-9906-a854aab80827","1000","
                  <p style=""text-align: center;"">₪4
                                                <br>75%</p>
                  <p id=""wtp"" style=""text-align:center; margin-top: 0px; margin-bottom: 0px; font-size: 40px"";>&ensp;</p>","-","viewing","0","3","12B,20B,23B,27C,29C","","","","","","","","","","","","","","","","","","","",""
"","","","","","html-slider-response","209","413634","0.0-25.0-1.0","cb5ce584-a459-42d8-9906-a854aab80827","1384","
                  <p style=""text-align: center;"">₪4
                                                <br>75%</p>
                  <p id=""wtp"" style=""text-align:center; margin-top: 0px; margin-bottom: 0px; font-size: 40px"";>מוכנים לשלם: <span id=""c_p_y""></span></p>","0","evaluation","13","3","12B,20B,23B,27C,29C","75","4","0","","","","","","","","","","","","","","","","",""
"","","","","","html-keyboard-response","210","414602","0.0-25.0-2.0","cb5ce584-a459-42d8-9906-a854aab80827","null","<p style=""text-align: center;"">+</p>","null","fixation","","","","","","","","","","","","","","","","","","","","","","",""
"","","","","","html-slider-response","211","415615","0.0-25.0-0.1","cb5ce584-a459-42d8-9906-a854aab80827","1000","
                  <p style=""text-align: center;"">₪64
                                                <br>50%</p>
                  <p id=""wtp"" style=""text-align:center; margin-top: 0px; margin-bottom: 0px; font-size: 40px"";>&ensp;</p>","-","viewing","0","25","1B,3B,4A","","","","","","","","","","","","","","","","","","","",""
"","","","","","html-slider-response","212","418770","0.0-25.0-1.1","cb5ce584-a459-42d8-9906-a854aab80827","3154","
                  <p style=""text-align: center;"">₪64
                                                <br>50%</p>
                  <p id=""wtp"" style=""text-align:center; margin-top: 0px; margin-bottom: 0px; font-size: 40px"";>מוכנים לשלם: <span id=""c_p_y""></span></p>","20","evaluation","49","25","1B,3B,4A","50","64","20","","","","","","","","","","","","","","","","",""
"","","","","","html-keyboard-response","213","420052","0.0-25.0-2.1","cb5ce584-a459-42d8-9906-a854aab80827","null","<p style=""text-align: center;"">+</p>","null","fixation","","","","","","","","","","","","","","","","","","","","","","",""
"","","","","","html-slider-response","214","421061","0.0-25.0-0.2","cb5ce584-a459-42d8-9906-a854aab80827","1000","
                  <p style=""text-align: center;"">₪39
                                                <br>60%</p>
                  <p id=""wtp"" style=""text-align:center; margin-top: 0px; margin-bottom: 0px; font-size: 40px"";>&ensp;</p>","-","viewing","0","15","9C,25B","","","","","","","","","","","","","","","","","","","",""
"","","","","","html-slider-response","215","422914","0.0-25.0-1.2","cb5ce584-a459-42d8-9906-a854aab80827","1852","
                  <p style=""text-align: center;"">₪39
                                                <br>60%</p>
                  <p id=""wtp"" style=""text-align:center; margin-top: 0px; margin-bottom: 0px; font-size: 40px"";>מוכנים לשלם: <span id=""c_p_y""></span></p>","10","evaluation","76","15","9C,25B","60","39","10","","","","","","","","","","","","","","","","",""
"","","","","","html-keyboard-response","216","424245","0.0-25.0-2.2","cb5ce584-a459-42d8-9906-a854aab80827","null","<p style=""text-align: center;"">+</p>","null","fixation","","","","","","","","","","","","","","","","","","","","","","",""
"","","","","","html-slider-response","217","425255","0.0-25.0-0.3","cb5ce584-a459-42d8-9906-a854aab80827","1000","
                  <p style=""text-align: center;"">₪64
                                                <br>25%</p>
                  <p id=""wtp"" style=""text-align:center; margin-top: 0px; margin-bottom: 0px; font-size: 40px"";>&ensp;</p>","-","viewing","0","24","6A,21A","","","","","","","","","","","","","","","","","","","",""
"","","","","","html-slider-response","218","429010","0.0-25.0-1.3","cb5ce584-a459-42d8-9906-a854aab80827","3754","
                  <p style=""text-align: center;"">₪64
                                                <br>25%</p>
                  <p id=""wtp"" style=""text-align:center; margin-top: 0px; margin-bottom: 0px; font-size: 40px"";>מוכנים לשלם: <span id=""c_p_y""></span></p>","11","evaluation","8","24","6A,21A","25","64","11","","","","","","","","","","","","","","","","",""
"","","","","","html-keyboard-response","219","430076","0.0-25.0-2.3","cb5ce584-a459-42d8-9906-a854aab80827","null","<p style=""text-align: center;"">+</p>","null","fixation","","","","","","","","","","","","","","","","","","","","","","",""
"","","","","","html-slider-response","220","431091","0.0-25.0-0.4","cb5ce584-a459-42d8-9906-a854aab80827","1000","
                  <p style=""text-align: center;"">₪58
                                                <br>45%</p>
                  <p id=""wtp"" style=""text-align:center; margin-top: 0px; margin-bottom: 0px; font-size: 40px"";>&ensp;</p>","-","viewing","0","21","11C,18C,25A","","","","","","","","","","","","","","","","","","","",""
"","","","","","html-slider-response","221","433298","0.0-25.0-1.4","cb5ce584-a459-42d8-9906-a854aab80827","2206","
                  <p style=""text-align: center;"">₪58
                                                <br>45%</p>
                  <p id=""wtp"" style=""text-align:center; margin-top: 0px; margin-bottom: 0px; font-size: 40px"";>מוכנים לשלם: <span id=""c_p_y""></span></p>","15","evaluation","76","21","11C,18C,25A","45","58","15","","","","","","","","","","","","","","","","",""
"","","","","","html-keyboard-response","222","434259","0.0-25.0-2.4","cb5ce584-a459-42d8-9906-a854aab80827","null","<p style=""text-align: center;"">+</p>","null","fixation","","","","","","","","","","","","","","","","","","","","","","",""
"","","","","","html-slider-response","223","435272","0.0-25.0-0.5","cb5ce584-a459-42d8-9906-a854aab80827","1000","
                  <p style=""text-align: center;"">₪36
                                                <br>60%</p>
                  <p id=""wtp"" style=""text-align:center; margin-top: 0px; margin-bottom: 0px; font-size: 40px"";>&ensp;</p>","-","viewing","0","12","1C,7C,15C","","","","","","","","","","","","","","","","","","","",""
"","","","","","html-slider-response","224","436434","0.0-25.0-1.5","cb5ce584-a459-42d8-9906-a854aab80827","1161","
                  <p style=""text-align: center;"">₪36
                                                <br>60%</p>
                  <p id=""wtp"" style=""text-align:center; margin-top: 0px; margin-bottom: 0px; font-size: 40px"";>מוכנים לשלם: <span id=""c_p_y""></span></p>","10","evaluation","16","12","1C,7C,15C","60","36","10","","","","","","","","","","","","","","","","",""
"","","","","","html-keyboard-response","225","437462","0.0-25.0-2.5","cb5ce584-a459-42d8-9906-a854aab80827","null","<p style=""text-align: center;"">+</p>","null","fixation","","","","","","","","","","","","","","","","","","","","","","",""
"","","","","","html-slider-response","226","438475","0.0-25.0-0.6","cb5ce584-a459-42d8-9906-a854aab80827","1000","
                  <p style=""text-align: center;"">₪36
                                                <br>70%</p>
                  <p id=""wtp"" style=""text-align:center; margin-top: 0px; margin-bottom: 0px; font-size: 40px"";>&ensp;</p>","-","viewing","0","13","3A,5C,10B","","","","","","","","","","","","","","","","","","","",""
"","","","","","html-slider-response","227","442478","0.0-25.0-1.6","cb5ce584-a459-42d8-9906-a854aab80827","null","
                  <p style=""text-align: center;"">₪36
                                                <br>70%</p>
                  <p id=""wtp"" style=""text-align:center; margin-top: 0px; margin-bottom: 0px; font-size: 40px"";>מוכנים לשלם: <span id=""c_p_y""></span></p>","null","evaluation","44","13","3A,5C,10B","70","36","10","","","","","","","","","","","","","","","","",""
"","","","","","html-keyboard-response","228","443260","0.0-25.0-2.6","cb5ce584-a459-42d8-9906-a854aab80827","null","<p style=""text-align: center;"">+</p>","null","fixation","","","","","","","","","","","","","","","","","","","","","","",""
"","","","","","html-slider-response","229","444267","0.0-25.0-0.7","cb5ce584-a459-42d8-9906-a854aab80827","1000","
                  <p style=""text-align: center;"">₪16
                                                <br>20%</p>
                  <p id=""wtp"" style=""text-align:center; margin-top: 0px; margin-bottom: 0px; font-size: 40px"";>&ensp;</p>","-","viewing","0","8","14C,17A,20C,27A","","","","","","","","","","","","","","","","","","","",""
"","","","","","html-slider-response","230","447426","0.0-25.0-1.7","cb5ce584-a459-42d8-9906-a854aab80827","3158","
                  <p style=""text-align: center;"">₪16
                                                <br>20%</p>
                  <p id=""wtp"" style=""text-align:center; margin-top: 0px; margin-bottom: 0px; font-size: 40px"";>מוכנים לשלם: <span id=""c_p_y""></span></p>","0","evaluation","41","8","14C,17A,20C,27A","20","16","1","","","","","","","","","","","","","","","","",""
"","","","","","html-keyboard-response","231","448729","0.0-25.0-2.7","cb5ce584-a459-42d8-9906-a854aab80827","null","<p style=""text-align: center;"">+</p>","null","fixation","","","","","","","","","","","","","","","","","","","","","","",""
"","","","","","html-slider-response","232","449731","0.0-25.0-0.8","cb5ce584-a459-42d8-9906-a854aab80827","1000","
                  <p style=""text-align: center;"">₪11
                                                <br>25%</p>
                  <p id=""wtp"" style=""text-align:center; margin-top: 0px; margin-bottom: 0px; font-size: 40px"";>&ensp;</p>","-","viewing","0","5","12A,27B,28B,30B","","","","","","","","","","","","","","","","","","","",""
"","","","","","html-slider-response","233","451114","0.0-25.0-1.8","cb5ce584-a459-42d8-9906-a854aab80827","1382","
                  <p style=""text-align: center;"">₪11
                                                <br>25%</p>
                  <p id=""wtp"" style=""text-align:center; margin-top: 0px; margin-bottom: 0px; font-size: 40px"";>מוכנים לשלם: <span id=""c_p_y""></span></p>","0","evaluation","17","5","12A,27B,28B,30B","25","11","0","","","","","","","","","","","","","","","","",""
"","","","","","html-keyboard-response","234","452498","0.0-25.0-2.8","cb5ce584-a459-42d8-9906-a854aab80827","null","<p style=""text-align: center;"">+</p>","null","fixation","","","","","","","","","","","","","","","","","","","","","","",""
"","","","","","html-slider-response","235","453502","0.0-25.0-0.9","cb5ce584-a459-42d8-9906-a854aab80827","1000","
                  <p style=""text-align: center;"">₪71
                                                <br>45%</p>
                  <p id=""wtp"" style=""text-align:center; margin-top: 0px; margin-bottom: 0px; font-size: 40px"";>&ensp;</p>","-","viewing","0","26","2B,16A","","","","","","","","","","","","","","","","","","","",""
"","","","","","html-slider-response","236","455322","0.0-25.0-1.9","cb5ce584-a459-42d8-9906-a854aab80827","1818","
                  <p style=""text-align: center;"">₪71
                                                <br>45%</p>
                  <p id=""wtp"" style=""text-align:center; margin-top: 0px; margin-bottom: 0px; font-size: 40px"";>מוכנים לשלם: <span id=""c_p_y""></span></p>","20","evaluation","53","26","2B,16A","45","71","20","","","","","","","","","","","","","","","","",""
"","","","","","html-keyboard-response","237","456095","0.0-25.0-2.9","cb5ce584-a459-42d8-9906-a854aab80827","null","<p style=""text-align: center;"">+</p>","null","fixation","","","","","","","","","","","","","","","","","","","","","","",""
"","","","","","html-slider-response","238","457097","0.0-25.0-0.10","cb5ce584-a459-42d8-9906-a854aab80827","1000","
                  <p style=""text-align: center;"">₪61
                                                <br>45%</p>
                  <p id=""wtp"" style=""text-align:center; margin-top: 0px; margin-bottom: 0px; font-size: 40px"";>&ensp;</p>","-","viewing","0","22","10A,11A","","","","","","","","","","","","","","","","","","","",""
"","","","","","html-slider-response","239","459906","0.0-25.0-1.10","cb5ce584-a459-42d8-9906-a854aab80827","2808","
                  <p style=""text-align: center;"">₪61
                                                <br>45%</p>
                  <p id=""wtp"" style=""text-align:center; margin-top: 0px; margin-bottom: 0px; font-size: 40px"";>מוכנים לשלם: <span id=""c_p_y""></span></p>","20","evaluation","40","22","10A,11A","45","61","20","","","","","","","","","","","","","","","","",""
"","","","","","html-keyboard-response","240","461269","0.0-25.0-2.10","cb5ce584-a459-42d8-9906-a854aab80827","null","<p style=""text-align: center;"">+</p>","null","fixation","","","","","","","","","","","","","","","","","","","","","","",""
"","","","","","html-slider-response","241","462282","0.0-25.0-0.11","cb5ce584-a459-42d8-9906-a854aab80827","1000","
                  <p style=""text-align: center;"">₪43
                                                <br>60%</p>
                  <p id=""wtp"" style=""text-align:center; margin-top: 0px; margin-bottom: 0px; font-size: 40px"";>&ensp;</p>","-","viewing","0","17","2A,7A,9A,15B","","","","","","","","","","","","","","","","","","","",""
"","","","","","html-slider-response","242","465026","0.0-25.0-1.11","cb5ce584-a459-42d8-9906-a854aab80827","2743","
                  <p style=""text-align: center;"">₪43
                                                <br>60%</p>
                  <p id=""wtp"" style=""text-align:center; margin-top: 0px; margin-bottom: 0px; font-size: 40px"";>מוכנים לשלם: <span id=""c_p_y""></span></p>","15","evaluation","64","17","2A,7A,9A,15B","60","43","15","","","","","","","","","","","","","","","","",""
"","","","","","html-keyboard-response","243","465995","0.0-25.0-2.11","cb5ce584-a459-42d8-9906-a854aab80827","null","<p style=""text-align: center;"">+</p>","null","fixation","","","","","","","","","","","","","","","","","","","","","","",""
"","","","","","html-slider-response","244","467006","0.0-25.0-0.12","cb5ce584-a459-42d8-9906-a854aab80827","1000","
                  <p style=""text-align: center;"">₪11
                                                <br>20%</p>
                  <p id=""wtp"" style=""text-align:center; margin-top: 0px; margin-bottom: 0px; font-size: 40px"";>&ensp;</p>","-","viewing","0","4","12C,17C,23C,28C","","","","","","","","","","","","","","","","","","","",""
"","","","","","html-slider-response","245","469346","0.0-25.0-1.12","cb5ce584-a459-42d8-9906-a854aab80827","2339","
                  <p style=""text-align: center;"">₪11
                                                <br>20%</p>
                  <p id=""wtp"" style=""text-align:center; margin-top: 0px; margin-bottom: 0px; font-size: 40px"";>מוכנים לשלם: <span id=""c_p_y""></span></p>","2","evaluation","43","4","12C,17C,23C,28C","20","11","2","","","","","","","","","","","","","","","","",""
"","","","","","html-keyboard-response","246","470002","0.0-25.0-2.12","cb5ce584-a459-42d8-9906-a854aab80827","null","<p style=""text-align: center;"">+</p>","null","fixation","","","","","","","","","","","","","","","","","","","","","","",""
"","","","","","html-slider-response","247","471011","0.0-25.0-0.13","cb5ce584-a459-42d8-9906-a854aab80827","1000","
                  <p style=""text-align: center;"">₪4
                                                <br>25%</p>
                  <p id=""wtp"" style=""text-align:center; margin-top: 0px; margin-bottom: 0px; font-size: 40px"";>&ensp;</p>","-","viewing","0","1","6C,29B,30C","","","","","","","","","","","","","","","","","","","",""
"","","","","","html-slider-response","248","472322","0.0-25.0-1.13","cb5ce584-a459-42d8-9906-a854aab80827","1310","
                  <p style=""text-align: center;"">₪4
                                                <br>25%</p>
