"success","timeout","failed_images","failed_audio","failed_video","trial_type","trial_index","time_elapsed","internal_node_id","subject_id","rt","stimulus","response","part","slider_start","ID","set_ID","prob","amount","last_location","actual_choice","actual_EV","binary_id","trinary_id","catch","direction","A_key","S_key","D_key","choice_prob","choice_amount","chosen_part","potential_prize_prob","potential_prize_amount","won_prize","total_prize","prize_cost","accuracy"
"true","false","[]","[]","[]","preload","0","137","0.0-0.0","6d5c2a94-71ef-4b57-a710-b24dde2d4daa","","","","","","","","","","","","","","","","","","","","","","","","","","","",""
"","","","","","html-keyboard-response","1","227964","0.0-1.0","6d5c2a94-71ef-4b57-a710-b24dde2d4daa","null","
          <h1>שלום וברוכים הבאים!</h1>
          <p>לפניכם ניסוי בקבלת החלטות עם שני חלקים.
          <br><br>לחצו על העכבר כדי להמשיך.</p>","0","example","","","","","","","","","","","","","","","","","","","","","","","",""
"","","","","","html-keyboard-response","2","228989","0.0-2.0","6d5c2a94-71ef-4b57-a710-b24dde2d4daa","769","
        <h1>חלק 1</h1>
        <p>בקרוב יוצגו בפניכם הגרלות.
        <br>עליכם לבחור את המחיר המירבי שתהיו מוכנים לשלם כדי להשתתף בהגרלה שתוצג.
        <br>יש לכם תקציב של ₪80 לכל הגרלה. 
        <br>נסו להעריך כל הגרלה בנפרד ולחשוב כמה היא שווה עבורכם, ₪80 זמינים לכל הגרלה בנפרד.
        <br><br>לחצו על העכבר כדי להמשיך.</p>"," ","instructions","","","","","","","","","","","","","","","","","","","","","","","",""
"","","","","","html-keyboard-response","3","829082","0.0-3.0","6d5c2a94-71ef-4b57-a710-b24dde2d4daa","null","
        <p>בסוף הניסוי, המחשב יבחר את אחת ההגרלות ויקבע מחיר לכרטיס עבורה. 
        <br>במידה והמחיר שבחרתם נמוך מהמחיר שנבחר על ידי המחשב, לא תשתתפו בהגרלה ותשארו עם מלוא התקציב.
        <br>במידה והמחיר שבחרתם גבוה מהמחיר שנבחר על ידי המחשב, תשלמו את המחיר שנקבע ותשתתפו בהגרלה.
        <br><br>לחצו על העכבר כדי להמשיך.</p>","1","instructions","","","","","","","","","","","","","","","","","","","","","","","",""
"","","","","","html-slider-response","4","886418","0.0-4.0","6d5c2a94-71ef-4b57-a710-b24dde2d4daa","57222","
        <p style=""font-size: 42px;"">נתחיל עם דוגמא: 
        <br>ההגרלה מטה מציעה 65% סיכוי לזכות ב-₪40 
        <br>&emsp;&emsp;&emsp;&emsp;&emsp;&emsp;&emsp;&emsp;&ensp;35% סיכוי לזכות ב-₪0.
        <br><br>מה המחיר המירבי שתהיו מוכנים לשלם על כרטיס להגרלה זו בין 0 ל-₪80?
        <br>הזיזו את העכבר על פני המלבן ולחצו כדי לבצע בחירה.</p>
        
        <p style=""text-align: center;"">₪40<br>65%</p>

        <p id=""wtp"" style=""text-align:center; margin-top: 0px; margin-bottom: 0px; font-size: 40px"";>מוכנים לשלם: <span id=""c_p_y""></span></p>","40","example","62","","","","","","","","","","","","","","","","","","","","","","",""
"","","","","","html-keyboard-response","5","901450","0.0-5.0","6d5c2a94-71ef-4b57-a710-b24dde2d4daa","null","<p>יפה מאוד!
                <br> בחרתם שתהיו מוכנים לשלם ₪40 כדי להשתתף בהגרלה:
                <br><p style=""text-align: center;"">₪40<br>65%</p>
                <p>נשמע נכון?
                <br>נניח שהגרלה זו נבחרה בסוף הניסוי.
                <br>כעת המחשב יקבע מחיר עבורה באקראי.
                <br>לחצו על העכבר להמשך.</p>","1","example","","","","","","","","","","","","","","","","","","","","","","","",""
"","","","","","html-keyboard-response","6","916266","0.0-6.0","6d5c2a94-71ef-4b57-a710-b24dde2d4daa","null","<p>המחשב קבע מחיר: ₪70
                <br>ואתם בחרתם לשלם לכל היותר: ₪40
                <br><br>מכיוון שהמחיר שבחרתם נמוך מהמחיר שנקבע, לא תתשתתפו בהגרלה.
                <br>במקרה כזה, בסוף הניסוי תקבלו את כל התקציב ההתחלתי של ₪80.
                <br><br>לחצו על העכבר להמשך.</p>","1","example","","","","","","","","","","","","","","","","","","","","","","","",""
"","","","","","html-slider-response","7","930843","0.0-7.0","6d5c2a94-71ef-4b57-a710-b24dde2d4daa","14320","<p style=""font-size: 42px;"">הנה עוד דוגמא:
                <br>ההגרלה מטה מציעה 35% סיכוי לזכות ב-₪18 
                <br>&emsp;&emsp;&emsp;&emsp;&emsp;&emsp;&emsp;&emsp;&ensp;65% סיכוי לזכות ב-₪0.</p>
        
                <p style=""text-align: center;"">₪18<br>35%</p>
                <p id=""wtp"" style=""text-align:center; margin-top: 0px; margin-bottom: 0px; font-size: 40px"";>מוכנים לשלם: <span id=""c_p_y""></span></p>","22","example","22","","","","","","","","","","","","","","","","","","","","","","",""
"","","","","","html-keyboard-response","8","938842","0.0-8.0","6d5c2a94-71ef-4b57-a710-b24dde2d4daa","null","<p>הייתם מוכנים לשלם  ₪22 כדי להשתתף בהגרלה:
                <p style=""text-align: center;"">₪18<br>35%</p>
                <p>כעת נניח שהמחשב בחר את ההגרלה הזו בסוף הניסוי, וקבע עבורה מחיר.
                <br><br>לחצו על העכבר כדי להמשיך.</p>","1","instructions","","","","","","","","","","","","","","","","","","","","","","","",""
"","","","","","html-keyboard-response","9","968298","0.0-9.0","6d5c2a94-71ef-4b57-a710-b24dde2d4daa","null","<p>המחשב קבע מחיר להגרלה: ₪7<br>ואתם בחרתם לשלם לכל היותר: ₪22
                <br><br>כעת המחיר שנקבע נמוך מזה שבחרתם, אז תשלמו את המחיר שקבע המחשב (₪7) ותשתתפו בהגרלה.
                <br>במקרה כזה, תסיימו את הניסוי עם תקציב של ₪73 ועם סיכוי לזכות ב-₪18 נוספים מההגרלה.
                <br>כלומר, תוכלו לקבל ₪73 אם לא תזכו בהגרלה, או ₪91 אם תזכו בהגרלה.
                <br><br>לחצו על העכבר להמשך.</p>","1","example","","","","","","","","","","","","","","","","","","","","","","","",""
"","","","","","html-keyboard-response","10","976114","0.0-10.0","6d5c2a94-71ef-4b57-a710-b24dde2d4daa","null","<p>במהלך הניסוי, קודם תראו את ההגרלה ורק לאחר מכן תוכלו לבחור.
                <p>כמו כן, יהיו לכם מספר שניות מוגבל להגיב.
                <p>בואו ננסה זאת עם ההגרלה הקודמת.
                <br>לחצו על העכבר כדי להמשיך.</p>","1","instructions","","","","","","","","","","","","","","","","","","","","","","","",""
"","","","","","html-slider-response","11","977381","0.0-11.0","6d5c2a94-71ef-4b57-a710-b24dde2d4daa","1000","
                    <p style=""text-align: center;"">₪18<br>35%</p>
                    <p id=""wtp"" style=""text-align:center; margin-top: 0px; margin-bottom: 0px; font-size: 40px"";>&ensp;</p>","74","instructions","0","","","","","","","","","","","","","","","","","","","","","","",""
"","","","","","html-slider-response","12","981651","0.0-12.0","6d5c2a94-71ef-4b57-a710-b24dde2d4daa","null","
                    <p style=""text-align: center;"">₪18<br>35%</p>
                    <p id=""wtp"" style=""text-align:center; margin-top: 0px; margin-bottom: 0px; font-size: 40px"";>מוכנים לשלם: <span id=""c_p_y""></span></p>","null","instructions","6","","","","","","","","","","","","","","","","","","","","","","",""
"","","","","","html-keyboard-response","13","986210","0.0-13.0","6d5c2a94-71ef-4b57-a710-b24dde2d4daa","null","<p>לא הגבתם בזמן המוקצב לתגובה. 
                <br>נסו להגיב מהר יותר בפעם הבאה.
                <br><br>לחצו על העכבר כדי להמשיך.</p>","1","instructions","","","","","","","","","","","","","","","","","","","","","","","",""
"","","","","","html-slider-response","14","988266","0.0-14.0-0.0","6d5c2a94-71ef-4b57-a710-b24dde2d4daa","1792","
                    <p style=""text-align: center;"">₪40<br>65%</p>
                    <p id=""wtp"" style=""text-align:center; margin-top: 0px; margin-bottom: 0px; font-size: 40px"";>מוכנים לשלם: <span id=""c_p_y""></span></p>","20","instructions","68","","","","","","","","","","","","","","","","","","","","","","",""
"","","","","","html-keyboard-response","15","992770","0.0-14.0-1.0","6d5c2a94-71ef-4b57-a710-b24dde2d4daa","null","<p>יפה. הפעם בחרתם לשלם לכל היותר ₪20.
                <br><br>לחצו על העכבר כדי להמשיך.</p>","1","instructions","","","","","","","","","","","","","","","","","","","","","","","",""
"","","","","","html-keyboard-response","16","1016522","0.0-15.0","6d5c2a94-71ef-4b57-a710-b24dde2d4daa","null","<p>כעת נתחיל את הניסוי.
                <br><br>אתם תראו הגרלות ותתבקשו לבחור כמה תהיו מוכנים לשלם כדי להשתתף בהן.
                <br>יש לכם תקציב של ₪80 עבור כל הגרלה.
                <br>בסוף הניסוי הגרלה אחת תבחר באקראי ותשוחק.
                <br><br>לחצו על העכבר כדי להתחיל את הניסוי.</p>","1","instructions","","","","","","","","","","","","","","","","","","","","","","","",""
"","","","","","html-keyboard-response","17","1017773","0.0-16.0","6d5c2a94-71ef-4b57-a710-b24dde2d4daa","null","<p style=""text-align: center;"">+</p>","null","fixation","","","","","","","","","","","","","","","","","","","","","","","",""
"","","","","","html-slider-response","18","1018777","0.0-17.0-0.0","6d5c2a94-71ef-4b57-a710-b24dde2d4daa","1000","
                  <p style=""text-align: center;"">₪79
                                                <br>65%</p>
                  <p id=""wtp"" style=""text-align:center; margin-top: 0px; margin-bottom: 0px; font-size: 40px"";>&ensp;</p>","-","viewing","0","31","8A","","","","","","","","","","","","","","","","","","","","",""
"","","","","","html-slider-response","19","1021274","0.0-17.0-1.0","6d5c2a94-71ef-4b57-a710-b24dde2d4daa","2496","
                  <p style=""text-align: center;"">₪79
                                                <br>65%</p>
                  <p id=""wtp"" style=""text-align:center; margin-top: 0px; margin-bottom: 0px; font-size: 40px"";>מוכנים לשלם: <span id=""c_p_y""></span></p>","40","evaluation","23","31","8A","65","79","40","","","","","","","","","","","","","","","","","",""
"","","","","","html-keyboard-response","20","1022190","0.0-17.0-2.0","6d5c2a94-71ef-4b57-a710-b24dde2d4daa","null","<p style=""text-align: center;"">+</p>","null","fixation","","","","","","","","","","","","","","","","","","","","","","","",""
"","","","","","html-slider-response","21","1023198","0.0-17.0-0.1","6d5c2a94-71ef-4b57-a710-b24dde2d4daa","1000","
                  <p style=""text-align: center;"">₪71
                                                <br>55%</p>
                  <p id=""wtp"" style=""text-align:center; margin-top: 0px; margin-bottom: 0px; font-size: 40px"";>&ensp;</p>","-","viewing","0","27","5B,18A","","","","","","","","","","","","","","","","","","","","",""
"","","","","","html-slider-response","22","1027211","0.0-17.0-1.1","6d5c2a94-71ef-4b57-a710-b24dde2d4daa","null","
                  <p style=""text-align: center;"">₪71
                                                <br>55%</p>
                  <p id=""wtp"" style=""text-align:center; margin-top: 0px; margin-bottom: 0px; font-size: 40px"";>מוכנים לשלם: <span id=""c_p_y""></span></p>","null","evaluation","5","27","5B,18A","55","71","44","","","","","","","","","","","","","","","","","",""
"","","","","","html-keyboard-response","23","1028411","0.0-17.0-2.1","6d5c2a94-71ef-4b57-a710-b24dde2d4daa","null","<p style=""text-align: center;"">+</p>","null","fixation","","","","","","","","","","","","","","","","","","","","","","","",""
"","","","","","html-slider-response","24","1029415","0.0-17.0-0.2","6d5c2a94-71ef-4b57-a710-b24dde2d4daa","1000","
                  <p style=""text-align: center;"">₪39
                                                <br>65%</p>
                  <p id=""wtp"" style=""text-align:center; margin-top: 0px; margin-bottom: 0px; font-size: 40px"";>&ensp;</p>","-","viewing","0","16","1A,15A,26C","","","","","","","","","","","","","","","","","","","","",""
"","","","","","html-slider-response","25","1031802","0.0-17.0-1.2","6d5c2a94-71ef-4b57-a710-b24dde2d4daa","2386","
                  <p style=""text-align: center;"">₪39
                                                <br>65%</p>
                  <p id=""wtp"" style=""text-align:center; margin-top: 0px; margin-bottom: 0px; font-size: 40px"";>מוכנים לשלם: <span id=""c_p_y""></span></p>","39","evaluation","21","16","1A,15A,26C","65","39","39","","","","","","","","","","","","","","","","","",""
"","","","","","html-keyboard-response","26","1032955","0.0-17.0-2.2","6d5c2a94-71ef-4b57-a710-b24dde2d4daa","null","<p style=""text-align: center;"">+</p>","null","fixation","","","","","","","","","","","","","","","","","","","","","","","",""
"","","","","","html-slider-response","27","1033956","0.0-17.0-0.3","6d5c2a94-71ef-4b57-a710-b24dde2d4daa","1000","
                  <p style=""text-align: center;"">₪36
                                                <br>30%</p>
                  <p id=""wtp"" style=""text-align:center; margin-top: 0px; margin-bottom: 0px; font-size: 40px"";>&ensp;</p>","-","viewing","0","11","3C,20A,22A","","","","","","","","","","","","","","","","","","","","",""
"","","","","","html-slider-response","28","1035458","0.0-17.0-1.3","6d5c2a94-71ef-4b57-a710-b24dde2d4daa","1500","
                  <p style=""text-align: center;"">₪36
                                                <br>30%</p>
                  <p id=""wtp"" style=""text-align:center; margin-top: 0px; margin-bottom: 0px; font-size: 40px"";>מוכנים לשלם: <span id=""c_p_y""></span></p>","19","evaluation","2","11","3C,20A,22A","30","36","19","","","","","","","","","","","","","","","","","",""
"","","","","","html-keyboard-response","29","1036911","0.0-17.0-2.3","6d5c2a94-71ef-4b57-a710-b24dde2d4daa","null","<p style=""text-align: center;"">+</p>","null","fixation","","","","","","","","","","","","","","","","","","","","","","","",""
"","","","","","html-slider-response","30","1037919","0.0-17.0-0.4","6d5c2a94-71ef-4b57-a710-b24dde2d4daa","1000","
                  <p style=""text-align: center;"">₪61
                                                <br>45%</p>
                  <p id=""wtp"" style=""text-align:center; margin-top: 0px; margin-bottom: 0px; font-size: 40px"";>&ensp;</p>","-","viewing","0","22","10A,11A","","","","","","","","","","","","","","","","","","","","",""
"","","","","","html-slider-response","31","1040306","0.0-17.0-1.4","6d5c2a94-71ef-4b57-a710-b24dde2d4daa","2386","
                  <p style=""text-align: center;"">₪61
                                                <br>45%</p>
                  <p id=""wtp"" style=""text-align:center; margin-top: 0px; margin-bottom: 0px; font-size: 40px"";>מוכנים לשלם: <span id=""c_p_y""></span></p>","20","evaluation","58","22","10A,11A","45","61","20","","","","","","","","","","","","","","","","","",""
"","","","","","html-keyboard-response","32","1040964","0.0-17.0-2.4","6d5c2a94-71ef-4b57-a710-b24dde2d4daa","null","<p style=""text-align: center;"">+</p>","null","fixation","","","","","","","","","","","","","","","","","","","","","","","",""
"","","","","","html-slider-response","33","1041978","0.0-17.0-0.5","6d5c2a94-71ef-4b57-a710-b24dde2d4daa","1000","
                  <p style=""text-align: center;"">₪11
                                                <br>25%</p>
                  <p id=""wtp"" style=""text-align:center; margin-top: 0px; margin-bottom: 0px; font-size: 40px"";>&ensp;</p>","-","viewing","0","5","12A,27B,28B,30B","","","","","","","","","","","","","","","","","","","","",""
"","","","","","html-slider-response","34","1045962","0.0-17.0-1.5","6d5c2a94-71ef-4b57-a710-b24dde2d4daa","3983","
                  <p style=""text-align: center;"">₪11
                                                <br>25%</p>
                  <p id=""wtp"" style=""text-align:center; margin-top: 0px; margin-bottom: 0px; font-size: 40px"";>מוכנים לשלם: <span id=""c_p_y""></span></p>","40","evaluation","76","5","12A,27B,28B,30B","25","11","40","","","","","","","","","","","","","","","","","",""
"","","","","","html-keyboard-response","35","1047399","0.0-17.0-2.5","6d5c2a94-71ef-4b57-a710-b24dde2d4daa","null","<p style=""text-align: center;"">+</p>","null","fixation","","","","","","","","","","","","","","","","","","","","","","","",""
"","","","","","html-slider-response","36","1048406","0.0-17.0-0.6","6d5c2a94-71ef-4b57-a710-b24dde2d4daa","1000","
                  <p style=""text-align: center;"">₪36
                                                <br>70%</p>
                  <p id=""wtp"" style=""text-align:center; margin-top: 0px; margin-bottom: 0px; font-size: 40px"";>&ensp;</p>","-","viewing","0","13","3A,5C,10B","","","","","","","","","","","","","","","","","","","","",""
"","","","","","html-slider-response","37","1050713","0.0-17.0-1.6","6d5c2a94-71ef-4b57-a710-b24dde2d4daa","2306","
                  <p style=""text-align: center;"">₪36
                                                <br>70%</p>
                  <p id=""wtp"" style=""text-align:center; margin-top: 0px; margin-bottom: 0px; font-size: 40px"";>מוכנים לשלם: <span id=""c_p_y""></span></p>","20","evaluation","66","13","3A,5C,10B","70","36","20","","","","","","","","","","","","","","","","","",""
"","","","","","html-keyboard-response","38","1051755","0.0-17.0-2.6","6d5c2a94-71ef-4b57-a710-b24dde2d4daa","null","<p style=""text-align: center;"">+</p>","null","fixation","","","","","","","","","","","","","","","","","","","","","","","",""
"","","","","","html-slider-response","39","1052757","0.0-17.0-0.7","6d5c2a94-71ef-4b57-a710-b24dde2d4daa","1000","
                  <p style=""text-align: center;"">₪58
                                                <br>30%</p>
                  <p id=""wtp"" style=""text-align:center; margin-top: 0px; margin-bottom: 0px; font-size: 40px"";>&ensp;</p>","-","viewing","0","19","13C,30A","","","","","","","","","","","","","","","","","","","","",""
"","","","","","html-slider-response","40","1055466","0.0-17.0-1.7","6d5c2a94-71ef-4b57-a710-b24dde2d4daa","2707","
                  <p style=""text-align: center;"">₪58
                                                <br>30%</p>
                  <p id=""wtp"" style=""text-align:center; margin-top: 0px; margin-bottom: 0px; font-size: 40px"";>מוכנים לשלם: <span id=""c_p_y""></span></p>","40","evaluation","63","19","13C,30A","30","58","40","","","","","","","","","","","","","","","","","",""
"","","","","","html-keyboard-response","41","1056621","0.0-17.0-2.7","6d5c2a94-71ef-4b57-a710-b24dde2d4daa","null","<p style=""text-align: center;"">+</p>","null","fixation","","","","","","","","","","","","","","","","","","","","","","","",""
"","","","","","html-slider-response","42","1057624","0.0-17.0-0.8","6d5c2a94-71ef-4b57-a710-b24dde2d4daa","1000","
                  <p style=""text-align: center;"">₪36
                                                <br>75%</p>
                  <p id=""wtp"" style=""text-align:center; margin-top: 0px; margin-bottom: 0px; font-size: 40px"";>&ensp;</p>","-","viewing","0","14","4B,5A,13B,16B","","","","","","","","","","","","","","","","","","","","",""
"","","","","","html-slider-response","43","1059370","0.0-17.0-1.8","6d5c2a94-71ef-4b57-a710-b24dde2d4daa","1745","
                  <p style=""text-align: center;"">₪36
                                                <br>75%</p>
                  <p id=""wtp"" style=""text-align:center; margin-top: 0px; margin-bottom: 0px; font-size: 40px"";>מוכנים לשלם: <span id=""c_p_y""></span></p>","41","evaluation","60","14","4B,5A,13B,16B","75","36","41","","","","","","","","","","","","","","","","","",""
"","","","","","html-keyboard-response","44","1060646","0.0-17.0-2.8","6d5c2a94-71ef-4b57-a710-b24dde2d4daa","null","<p style=""text-align: center;"">+</p>","null","fixation","","","","","","","","","","","","","","","","","","","","","","","",""
"","","","","","html-slider-response","45","1061650","0.0-17.0-0.9","6d5c2a94-71ef-4b57-a710-b24dde2d4daa","1000","
                  <p style=""text-align: center;"">₪4
                                                <br>25%</p>
                  <p id=""wtp"" style=""text-align:center; margin-top: 0px; margin-bottom: 0px; font-size: 40px"";>&ensp;</p>","-","viewing","0","1","6C,29B,30C","","","","","","","","","","","","","","","","","","","","",""
"","","","","","html-slider-response","46","1065522","0.0-17.0-1.9","6d5c2a94-71ef-4b57-a710-b24dde2d4daa","3870","
                  <p style=""text-align: center;"">₪4
                                                <br>25%</p>
                  <p id=""wtp"" style=""text-align:center; margin-top: 0px; margin-bottom: 0px; font-size: 40px"";>מוכנים לשלם: <span id=""c_p_y""></span></p>","3","evaluation","80","1","6C,29B,30C","25","4","4","","","","","","","","","","","","","","","","","",""
"","","","","","html-keyboard-response","47","1066526","0.0-17.0-2.9","6d5c2a94-71ef-4b57-a710-b24dde2d4daa","null","<p style=""text-align: center;"">+</p>","null","fixation","","","","","","","","","","","","","","","","","","","","","","","",""
"","","","","","html-slider-response","48","1067530","0.0-17.0-0.10","6d5c2a94-71ef-4b57-a710-b24dde2d4daa","1000","
                  <p style=""text-align: center;"">₪16
                                                <br>20%</p>
                  <p id=""wtp"" style=""text-align:center; margin-top: 0px; margin-bottom: 0px; font-size: 40px"";>&ensp;</p>","-","viewing","0","8","14C,17A,20C,27A","","","","","","","","","","","","","","","","","","","","",""
"","","","","","html-slider-response","49","1069394","0.0-17.0-1.10","6d5c2a94-71ef-4b57-a710-b24dde2d4daa","1863","
                  <p style=""text-align: center;"">₪16
                                                <br>20%</p>
                  <p id=""wtp"" style=""text-align:center; margin-top: 0px; margin-bottom: 0px; font-size: 40px"";>מוכנים לשלם: <span id=""c_p_y""></span></p>","10","evaluation","68","8","14C,17A,20C,27A","20","16","10","","","","","","","","","","","","","","","","","",""
"","","","","","html-keyboard-response","50","1070829","0.0-17.0-2.10","6d5c2a94-71ef-4b57-a710-b24dde2d4daa","null","<p style=""text-align: center;"">+</p>","null","fixation","","","","","","","","","","","","","","","","","","","","","","","",""
"","","","","","html-slider-response","51","1071832","0.0-17.0-0.11","6d5c2a94-71ef-4b57-a710-b24dde2d4daa","1000","
                  <p style=""text-align: center;"">₪18
                                                <br>25%</p>
                  <p id=""wtp"" style=""text-align:center; margin-top: 0px; margin-bottom: 0px; font-size: 40px"";>&ensp;</p>","-","viewing","0","9","14A,23A","","","","","","","","","","","","","","","","","","","","",""
"","","","","","html-slider-response","52","1074322","0.0-17.0-1.11","6d5c2a94-71ef-4b57-a710-b24dde2d4daa","2489","
                  <p style=""text-align: center;"">₪18
                                                <br>25%</p>
                  <p id=""wtp"" style=""text-align:center; margin-top: 0px; margin-bottom: 0px; font-size: 40px"";>מוכנים לשלם: <span id=""c_p_y""></span></p>","10","evaluation","4","9","14A,23A","25","18","10","","","","","","","","","","","","","","","","","",""
"","","","","","html-keyboard-response","53","1075075","0.0-17.0-2.11","6d5c2a94-71ef-4b57-a710-b24dde2d4daa","null","<p style=""text-align: center;"">+</p>","null","fixation","","","","","","","","","","","","","","","","","","","","","","","",""
"","","","","","html-slider-response","54","1076079","0.0-17.0-0.12","6d5c2a94-71ef-4b57-a710-b24dde2d4daa","1000","
                  <p style=""text-align: center;"">₪11
                                                <br>20%</p>
                  <p id=""wtp"" style=""text-align:center; margin-top: 0px; margin-bottom: 0px; font-size: 40px"";>&ensp;</p>","-","viewing","0","4","12C,17C,23C,28C","","","","","","","","","","","","","","","","","","","","",""
"","","","","","html-slider-response","55","1079738","0.0-17.0-1.12","6d5c2a94-71ef-4b57-a710-b24dde2d4daa","3658","
                  <p style=""text-align: center;"">₪11
                                                <br>20%</p>
                  <p id=""wtp"" style=""text-align:center; margin-top: 0px; margin-bottom: 0px; font-size: 40px"";>מוכנים לשלם: <span id=""c_p_y""></span></p>","4","evaluation","60","4","12C,17C,23C,28C","20","11","5","","","","","","","","","","","","","","","","","",""
"","","","","","html-keyboard-response","56","1080403","0.0-17.0-2.12","6d5c2a94-71ef-4b57-a710-b24dde2d4daa","null","<p style=""text-align: center;"">+</p>","null","fixation","","","","","","","","","","","","","","","","","","","","","","","",""
"","","","","","html-slider-response","57","1081405","0.0-17.0-0.13","6d5c2a94-71ef-4b57-a710-b24dde2d4daa","1000","
                  <p style=""text-align: center;"">₪36
                                                <br>60%</p>
                  <p id=""wtp"" style=""text-align:center; margin-top: 0px; margin-bottom: 0px; font-size: 40px"";>&ensp;</p>","-","viewing","0","12","1C,7C,15C","","","","","","","","","","","","","","","","","","","","",""
"","","","","","html-slider-response","58","1084786","0.0-17.0-1.13","6d5c2a94-71ef-4b57-a710-b24dde2d4daa","3379","
                  <p style=""text-align: center;"">₪36
                                                <br>60%</p>
                  <p id=""wtp"" style=""text-align:center; margin-top: 0px; margin-bottom: 0px; font-size: 40px"";>מוכנים לשלם: <span id=""c_p_y""></span></p>","20","evaluation","47","12","1C,7C,15C","60","36","20","","","","","","","","","","","","","","","","","",""
"","","","","","html-keyboard-response","59","1085744","0.0-17.0-2.13","6d5c2a94-71ef-4b57-a710-b24dde2d4daa","null","<p style=""text-align: center;"">+</p>","null","fixation","","","","","","","","","","","","","","","","","","","","","","","",""
"","","","","","html-slider-response","60","1086746","0.0-17.0-0.14","6d5c2a94-71ef-4b57-a710-b24dde2d4daa","1000","
                  <p style=""text-align: center;"">₪64
                                                <br>25%</p>
                  <p id=""wtp"" style=""text-align:center; margin-top: 0px; margin-bottom: 0px; font-size: 40px"";>&ensp;</p>","-","viewing","0","24","6A,21A","","","","","","","","","","","","","","","","","","","","",""
"","","","","","html-slider-response","61","1088602","0.0-17.0-1.14","6d5c2a94-71ef-4b57-a710-b24dde2d4daa","1854","
                  <p style=""text-align: center;"">₪64
                                                <br>25%</p>
                  <p id=""wtp"" style=""text-align:center; margin-top: 0px; margin-bottom: 0px; font-size: 40px"";>מוכנים לשלם: <span id=""c_p_y""></span></p>","20","evaluation","30","24","6A,21A","25","64","20","","","","","","","","","","","","","","","","","",""
"","","","","","html-keyboard-response","62","1089201","0.0-17.0-2.14","6d5c2a94-71ef-4b57-a710-b24dde2d4daa","null","<p style=""text-align: center;"">+</p>","null","fixation","","","","","","","","","","","","","","","","","","","","","","","",""
"","","","","","html-slider-response","63","1090209","0.0-17.0-0.15","6d5c2a94-71ef-4b57-a710-b24dde2d4daa","1000","
                  <p style=""text-align: center;"">₪11
                                                <br>45%</p>
                  <p id=""wtp"" style=""text-align:center; margin-top: 0px; margin-bottom: 0px; font-size: 40px"";>&ensp;</p>","-","viewing","0","6","14B,21C,25C","","","","","","","","","","","","","","","","","","","","",""
"","","","","","html-slider-response","64","1091626","0.0-17.0-1.15","6d5c2a94-71ef-4b57-a710-b24dde2d4daa","1416","
                  <p style=""text-align: center;"">₪11
                                                <br>45%</p>
                  <p id=""wtp"" style=""text-align:center; margin-top: 0px; margin-bottom: 0px; font-size: 40px"";>מוכנים לשלם: <span id=""c_p_y""></span></p>","6","evaluation","16","6","14B,21C,25C","45","11","7","","","","","","","","","","","","","","","","","",""
"","","","","","html-keyboard-response","65","1092604","0.0-17.0-2.15","6d5c2a94-71ef-4b57-a710-b24dde2d4daa","null","<p style=""text-align: center;"">+</p>","null","fixation","","","","","","","","","","","","","","","","","","","","","","","",""
"","","","","","html-slider-response","66","1093612","0.0-17.0-0.16","6d5c2a94-71ef-4b57-a710-b24dde2d4daa","1000","
                  <p style=""text-align: center;"">₪61
                                                <br>55%</p>
                  <p id=""wtp"" style=""text-align:center; margin-top: 0px; margin-bottom: 0px; font-size: 40px"";>&ensp;</p>","-","viewing","0","23","7B,26B","","","","","","","","","","","","","","","","","","","","",""
"","","","","","html-slider-response","67","1095826","0.0-17.0-1.16","6d5c2a94-71ef-4b57-a710-b24dde2d4daa","2213","
                  <p style=""text-align: center;"">₪61
                                                <br>55%</p>
                  <p id=""wtp"" style=""text-align:center; margin-top: 0px; margin-bottom: 0px; font-size: 40px"";>מוכנים לשלם: <span id=""c_p_y""></span></p>","40","evaluation","24","23","7B,26B","55","61","40","","","","","","","","","","","","","","","","","",""
"","","","","","html-keyboard-response","68","1097074","0.0-17.0-2.16","6d5c2a94-71ef-4b57-a710-b24dde2d4daa","null","<p style=""text-align: center;"">+</p>","null","fixation","","","","","","","","","","","","","","","","","","","","","","","",""
"","","","","","html-slider-response","69","1098077","0.0-17.0-0.17","6d5c2a94-71ef-4b57-a710-b24dde2d4daa","1000","
                  <p style=""text-align: center;"">₪79
                                                <br>40%</p>
                  <p id=""wtp"" style=""text-align:center; margin-top: 0px; margin-bottom: 0px; font-size: 40px"";>&ensp;</p>","-","viewing","0","30","9B","","","","","","","","","","","","","","","","","","","","",""
"","","","","","html-slider-response","70","1101114","0.0-17.0-1.17","6d5c2a94-71ef-4b57-a710-b24dde2d4daa","3035","
                  <p style=""text-align: center;"">₪79
                                                <br>40%</p>
                  <p id=""wtp"" style=""text-align:center; margin-top: 0px; margin-bottom: 0px; font-size: 40px"";>מוכנים לשלם: <span id=""c_p_y""></span></p>","20","evaluation","69","30","9B","40","79","20","","","","","","","","","","","","","","","","","",""
"","","","","","html-keyboard-response","71","1101977","0.0-17.0-2.17","6d5c2a94-71ef-4b57-a710-b24dde2d4daa","null","<p style=""text-align: center;"">+</p>","null","fixation","","","","","","","","","","","","","","","","","","","","","","","",""
"","","","","","html-slider-response","72","1102985","0.0-17.0-0.18","6d5c2a94-71ef-4b57-a710-b24dde2d4daa","1000","
                  <p style=""text-align: center;"">₪18
                                                <br>50%</p>
                  <p id=""wtp"" style=""text-align:center; margin-top: 0px; margin-bottom: 0px; font-size: 40px"";>&ensp;</p>","-","viewing","0","10","2C,16C,22B,28A","","","","","","","","","","","","","","","","","","","","",""
"","","","","","html-slider-response","73","1105842","0.0-17.0-1.18","6d5c2a94-71ef-4b57-a710-b24dde2d4daa","2856","
                  <p style=""text-align: center;"">₪18
                                                <br>50%</p>
                  <p id=""wtp"" style=""text-align:center; margin-top: 0px; margin-bottom: 0px; font-size: 40px"";>מוכנים לשלם: <span id=""c_p_y""></span></p>","21","evaluation","9","10","2C,16C,22B,28A","50","18","21","","","","","","","","","","","","","","","","","",""
"","","","","","html-keyboard-response","74","1107197","0.0-17.0-2.18","6d5c2a94-71ef-4b57-a710-b24dde2d4daa","null","<p style=""text-align: center;"">+</p>","null","fixation","","","","","","","","","","","","","","","","","","","","","","","",""
"","","","","","html-slider-response","75","1108199","0.0-17.0-0.19","6d5c2a94-71ef-4b57-a710-b24dde2d4daa","1000","
                  <p style=""text-align: center;"">₪58
                                                <br>40%</p>
                  <p id=""wtp"" style=""text-align:center; margin-top: 0px; margin-bottom: 0px; font-size: 40px"";>&ensp;</p>","-","viewing","0","20","10C,13A,19C,21B","","","","","","","","","","","","","","","","","","","","",""
"","","","","","html-slider-response","76","1112210","0.0-17.0-1.19","6d5c2a94-71ef-4b57-a710-b24dde2d4daa","null","
                  <p style=""text-align: center;"">₪58
                                                <br>40%</p>
                  <p id=""wtp"" style=""text-align:center; margin-top: 0px; margin-bottom: 0px; font-size: 40px"";>מוכנים לשלם: <span id=""c_p_y""></span></p>","null","evaluation","15","20","10C,13A,19C,21B","40","58","21","","","","","","","","","","","","","","","","","",""
"","","","","","html-keyboard-response","77","1112947","0.0-17.0-2.19","6d5c2a94-71ef-4b57-a710-b24dde2d4daa","null","<p style=""text-align: center;"">+</p>","null","fixation","","","","","","","","","","","","","","","","","","","","","","","",""
"","","","","","html-slider-response","78","1113950","0.0-17.0-0.20","6d5c2a94-71ef-4b57-a710-b24dde2d4daa","1000","
                  <p style=""text-align: center;"">₪76
                                                <br>65%</p>
                  <p id=""wtp"" style=""text-align:center; margin-top: 0px; margin-bottom: 0px; font-size: 40px"";>&ensp;</p>","-","viewing","0","29","8C,19A,24B","","","","","","","","","","","","","","","","","","","","",""
"","","","","","html-slider-response","79","1117952","0.0-17.0-1.20","6d5c2a94-71ef-4b57-a710-b24dde2d4daa","null","
                  <p style=""text-align: center;"">₪76
                                                <br>65%</p>
                  <p id=""wtp"" style=""text-align:center; margin-top: 0px; margin-bottom: 0px; font-size: 40px"";>מוכנים לשלם: <span id=""c_p_y""></span></p>","null","evaluation","77","29","8C,19A,24B","65","76","61","","","","","","","","","","","","","","","","","",""
"","","","","","html-keyboard-response","80","1119009","0.0-17.0-2.20","6d5c2a94-71ef-4b57-a710-b24dde2d4daa","null","<p style=""text-align: center;"">+</p>","null","fixation","","","","","","","","","","","","","","","","","","","","","","","",""
"","","","","","html-slider-response","81","1120023","0.0-17.0-0.21","6d5c2a94-71ef-4b57-a710-b24dde2d4daa","1000","
                  <p style=""text-align: center;"">₪71
                                                <br>75%</p>
                  <p id=""wtp"" style=""text-align:center; margin-top: 0px; margin-bottom: 0px; font-size: 40px"";>&ensp;</p>","-","viewing","0","28","8B","","","","","","","","","","","","","","","","","","","","",""
"","","","","","html-slider-response","82","1122506","0.0-17.0-1.21","6d5c2a94-71ef-4b57-a710-b24dde2d4daa","2482","
                  <p style=""text-align: center;"">₪71
                                                <br>75%</p>
                  <p id=""wtp"" style=""text-align:center; margin-top: 0px; margin-bottom: 0px; font-size: 40px"";>מוכנים לשלם: <span id=""c_p_y""></span></p>","59","evaluation","47","28","8B","75","71","59","","","","","","","","","","","","","","","","","",""
"","","","","","html-keyboard-response","83","1123854","0.0-17.0-2.21","6d5c2a94-71ef-4b57-a710-b24dde2d4daa","null","<p style=""text-align: center;"">+</p>","null","fixation","","","","","","","","","","","","","","","","","","","","","","","",""
"","","","","","html-slider-response","84","1124857","0.0-17.0-0.22","6d5c2a94-71ef-4b57-a710-b24dde2d4daa","1000","
                  <p style=""text-align: center;"">₪58
                                                <br>45%</p>
                  <p id=""wtp"" style=""text-align:center; margin-top: 0px; margin-bottom: 0px; font-size: 40px"";>&ensp;</p>","-","viewing","0","21","11C,18C,25A","","","","","","","","","","","","","","","","","","","","",""
"","","","","","html-slider-response","85","1126762","0.0-17.0-1.22","6d5c2a94-71ef-4b57-a710-b24dde2d4daa","1903","
                  <p style=""text-align: center;"">₪58
                                                <br>45%</p>
                  <p id=""wtp"" style=""text-align:center; margin-top: 0px; margin-bottom: 0px; font-size: 40px"";>מוכנים לשלם: <span id=""c_p_y""></span></p>","29","evaluation","50","21","11C,18C,25A","45","58","29","","","","","","","","","","","","","","","","","",""
"","","","","","html-keyboard-response","86","1127353","0.0-17.0-2.22","6d5c2a94-71ef-4b57-a710-b24dde2d4daa","null","<p style=""text-align: center;"">+</p>","null","fixation","","","","","","","","","","","","","","","","","","","","","","","",""
"","","","","","html-slider-response","87","1128354","0.0-17.0-0.23","6d5c2a94-71ef-4b57-a710-b24dde2d4daa","1000","
                  <p style=""text-align: center;"">₪43
                                                <br>60%</p>
                  <p id=""wtp"" style=""text-align:center; margin-top: 0px; margin-bottom: 0px; font-size: 40px"";>&ensp;</p>","-","viewing","0","17","2A,7A,9A,15B","","","","","","","","","","","","","","","","","","","","",""
"","","","","","html-slider-response","88","1130634","0.0-17.0-1.23","6d5c2a94-71ef-4b57-a710-b24dde2d4daa","2279","
                  <p style=""text-align: center;"">₪43
                                                <br>60%</p>
                  <p id=""wtp"" style=""text-align:center; margin-top: 0px; margin-bottom: 0px; font-size: 40px"";>מוכנים לשלם: <span id=""c_p_y""></span></p>","31","evaluation","19","17","2A,7A,9A,15B","60","43","31","","","","","","","","","","","","","","","","","",""
"","","","","","html-keyboard-response","89","1131978","0.0-17.0-2.23","6d5c2a94-71ef-4b57-a710-b24dde2d4daa","null","<p style=""text-align: center;"">+</p>","null","fixation","","","","","","","","","","","","","","","","","","","","","","","",""
"","","","","","html-slider-response","90","1132980","0.0-17.0-0.24","6d5c2a94-71ef-4b57-a710-b24dde2d4daa","1000","
                  <p style=""text-align: center;"">₪11
                                                <br>75%</p>
                  <p id=""wtp"" style=""text-align:center; margin-top: 0px; margin-bottom: 0px; font-size: 40px"";>&ensp;</p>","-","viewing","0","7","6B,18B,22C,24C,29A","","","","","","","","","","","","","","","","","","","","",""
"","","","","","html-slider-response","91","1136442","0.0-17.0-1.24","6d5c2a94-71ef-4b57-a710-b24dde2d4daa","3460","
                  <p style=""text-align: center;"">₪11
                                                <br>75%</p>
                  <p id=""wtp"" style=""text-align:center; margin-top: 0px; margin-bottom: 0px; font-size: 40px"";>מוכנים לשלם: <span id=""c_p_y""></span></p>","15","evaluation","17","7","6B,18B,22C,24C,29A","75","11","15","","","","","","","","","","","","","","","","","",""
"","","","","","html-keyboard-response","92","1137457","0.0-17.0-2.24","6d5c2a94-71ef-4b57-a710-b24dde2d4daa","null","<p style=""text-align: center;"">+</p>","null","fixation","","","","","","","","","","","","","","","","","","","","","","","",""
"","","","","","html-slider-response","93","1138458","0.0-17.0-0.25","6d5c2a94-71ef-4b57-a710-b24dde2d4daa","1000","
                  <p style=""text-align: center;"">₪64
                                                <br>50%</p>
                  <p id=""wtp"" style=""text-align:center; margin-top: 0px; margin-bottom: 0px; font-size: 40px"";>&ensp;</p>","-","viewing","0","25","1B,3B,4A","","","","","","","","","","","","","","","","","","","","",""
"","","","","","html-slider-response","94","1141674","0.0-17.0-1.25","6d5c2a94-71ef-4b57-a710-b24dde2d4daa","3214","
                  <p style=""text-align: center;"">₪64
                                                <br>50%</p>
                  <p id=""wtp"" style=""text-align:center; margin-top: 0px; margin-bottom: 0px; font-size: 40px"";>מוכנים לשלם: <span id=""c_p_y""></span></p>","20","evaluation","4","25","1B,3B,4A","50","64","20","","","","","","","","","","","","","","","","","",""
"","","","","","html-keyboard-response","95","1142775","0.0-17.0-2.25","6d5c2a94-71ef-4b57-a710-b24dde2d4daa","null","<p style=""text-align: center;"">+</p>","null","fixation","","","","","","","","","","","","","","","","","","","","","","","",""
"","","","","","html-slider-response","96","1143790","0.0-17.0-0.26","6d5c2a94-71ef-4b57-a710-b24dde2d4daa","1000","
                  <p style=""text-align: center;"">₪39
                                                <br>60%</p>
                  <p id=""wtp"" style=""text-align:center; margin-top: 0px; margin-bottom: 0px; font-size: 40px"";>&ensp;</p>","-","viewing","0","15","9C,25B","","","","","","","","","","","","","","","","","","","","",""
"","","","","","html-slider-response","97","1147577","0.0-17.0-1.26","6d5c2a94-71ef-4b57-a710-b24dde2d4daa","3786","
                  <p style=""text-align: center;"">₪39
                                                <br>60%</p>
                  <p id=""wtp"" style=""text-align:center; margin-top: 0px; margin-bottom: 0px; font-size: 40px"";>מוכנים לשלם: <span id=""c_p_y""></span></p>","43","evaluation","43","15","9C,25B","60","39","43","","","","","","","","","","","","","","","","","",""
"","","","","","html-keyboard-response","98","1148237","0.0-17.0-2.26","6d5c2a94-71ef-4b57-a710-b24dde2d4daa","null","<p style=""text-align: center;"">+</p>","null","fixation","","","","","","","","","","","","","","","","","","","","","","","",""
"","","","","","html-slider-response","99","1149246","0.0-17.0-0.27","6d5c2a94-71ef-4b57-a710-b24dde2d4daa","1000","
                  <p style=""text-align: center;"">₪4
                                                <br>75%</p>
                  <p id=""wtp"" style=""text-align:center; margin-top: 0px; margin-bottom: 0px; font-size: 40px"";>&ensp;</p>","-","viewing","0","3","12B,20B,23B,27C,29C","","","","","","","","","","","","","","","","","","","","",""
"","","","","","html-slider-response","100","1153254","0.0-17.0-1.27","6d5c2a94-71ef-4b57-a710-b24dde2d4daa","null","
                  <p style=""text-align: center;"">₪4
                                                <br>75%</p>
                  <p id=""wtp"" style=""text-align:center; margin-top: 0px; margin-bottom: 0px; font-size: 40px"";>מוכנים לשלם: <span id=""c_p_y""></span></p>","null","evaluation","26","3","12B,20B,23B,27C,29C","75","4","34","","","","","","","","","","","","","","","","","",""
"","","","","","html-keyboard-response","101","1154336","0.0-17.0-2.27","6d5c2a94-71ef-4b57-a710-b24dde2d4daa","null","<p style=""text-align: center;"">+</p>","null","fixation","","","","","","","","","","","","","","","","","","","","","","","",""
"","","","","","html-slider-response","102","1155339","0.0-17.0-0.28","6d5c2a94-71ef-4b57-a710-b24dde2d4daa","1000","
                  <p style=""text-align: center;"">₪71
                                                <br>45%</p>
                  <p id=""wtp"" style=""text-align:center; margin-top: 0px; margin-bottom: 0px; font-size: 40px"";>&ensp;</p>","-","viewing","0","26","2B,16A","","","","","","","","","","","","","","","","","","","","",""
"","","","","","html-slider-response","103","1157217","0.0-17.0-1.28","6d5c2a94-71ef-4b57-a710-b24dde2d4daa","1878","
                  <p style=""text-align: center;"">₪71
                                                <br>45%</p>
                  <p id=""wtp"" style=""text-align:center; margin-top: 0px; margin-bottom: 0px; font-size: 40px"";>מוכנים לשלם: <span id=""c_p_y""></span></p>","30","evaluation","77","26","2B,16A","45","71","30","","","","","","","","","","","","","","","","","",""
"","","","","","html-keyboard-response","104","1157921","0.0-17.0-2.28","6d5c2a94-71ef-4b57-a710-b24dde2d4daa","null","<p style=""text-align: center;"">+</p>","null","fixation","","","","","","","","","","","","","","","","","","","","","","","",""
"","","","","","html-slider-response","105","1158922","0.0-17.0-0.29","6d5c2a94-71ef-4b57-a710-b24dde2d4daa","1000","
                  <p style=""text-align: center;"">₪4
                                                <br>50%</p>
                  <p id=""wtp"" style=""text-align:center; margin-top: 0px; margin-bottom: 0px; font-size: 40px"";>&ensp;</p>","-","viewing","0","2","4C,17B","","","","","","","","","","","","","","","","","","","","",""
"","","","","","html-slider-response","106","1160433","0.0-17.0-1.29","6d5c2a94-71ef-4b57-a710-b24dde2d4daa","1510","
                  <p style=""text-align: center;"">₪4
                                                <br>50%</p>
                  <p id=""wtp"" style=""text-align:center; margin-top: 0px; margin-bottom: 0px; font-size: 40px"";>מוכנים לשלם: <span id=""c_p_y""></span></p>","4","evaluation","18","2","4C,17B","50","4","4","","","","","","","","","","","","","","","","","",""
"","","","","","html-keyboard-response","107","1161172","0.0-17.0-2.29","6d5c2a94-71ef-4b57-a710-b24dde2d4daa","null","<p style=""text-align: center;"">+</p>","null","fixation","","","","","","","","","","","","","","","","","","","","","","","",""
"","","","","","html-slider-response","108","1162178","0.0-17.0-0.30","6d5c2a94-71ef-4b57-a710-b24dde2d4daa","1000","
                  <p style=""text-align: center;"">₪43
                                                <br>75%</p>
                  <p id=""wtp"" style=""text-align:center; margin-top: 0px; margin-bottom: 0px; font-size: 40px"";>&ensp;</p>","-","viewing","0","18","11B,19B,24A,26A","","","","","","","","","","","","","","","","","","","","",""
"","","","","","html-slider-response","109","1165649","0.0-17.0-1.30","6d5c2a94-71ef-4b57-a710-b24dde2d4daa","3470","
                  <p style=""text-align: center;"">₪43
                                                <br>75%</p>
                  <p id=""wtp"" style=""text-align:center; margin-top: 0px; margin-bottom: 0px; font-size: 40px"";>מוכנים לשלם: <span id=""c_p_y""></span></p>","50","evaluation","8","18","11B,19B,24A,26A","75","43","50","","","","","","","","","","","","","","","","","",""
"","","","","","html-keyboard-response","110","1167049","0.0-17.0-2.30","6d5c2a94-71ef-4b57-a710-b24dde2d4daa","null","<p style=""text-align: center;"">+</p>","null","fixation","","","","","","","","","","","","","","","","","","","","","","","",""
"","","","","","html-keyboard-response","111","1168056","0.0-18.0","6d5c2a94-71ef-4b57-a710-b24dde2d4daa","null","<p style=""text-align: center;"">+</p>","null","fixation","","","","","","","","","","","","","","","","","","","","","","","",""
"","","","","","html-keyboard-response","112","1169505","0.0-19.0","6d5c2a94-71ef-4b57-a710-b24dde2d4daa","null","<p>הפסקה.
          <br>לחצו כדי להמשיך.</p>","1","scan_wait","","","","","","","","","","","","","","","","","","","","","","","",""
"","","","","","html-keyboard-response","113","1170507","0.0-20.0","6d5c2a94-71ef-4b57-a710-b24dde2d4daa","null","<p style=""text-align: center;"">+</p>","null","fixation","","","","","","","","","","","","","","","","","","","","","","","",""
"","","","","","html-slider-response","114","1171513","0.0-21.0-0.0","6d5c2a94-71ef-4b57-a710-b24dde2d4daa","1000","
                  <p style=""text-align: center;"">₪61
                                                <br>45%</p>
                  <p id=""wtp"" style=""text-align:center; margin-top: 0px; margin-bottom: 0px; font-size: 40px"";>&ensp;</p>","-","viewing","0","22","10A,11A","","","","","","","","","","","","","","","","","","","","",""
"","","","","","html-slider-response","115","1173273","0.0-21.0-1.0","6d5c2a94-71ef-4b57-a710-b24dde2d4daa","1760","
                  <p style=""text-align: center;"">₪61
                                                <br>45%</p>
                  <p id=""wtp"" style=""text-align:center; margin-top: 0px; margin-bottom: 0px; font-size: 40px"";>מוכנים לשלם: <span id=""c_p_y""></span></p>","21","evaluation","40","22","10A,11A","45","61","21","","","","","","","","","","","","","","","","","",""
"","","","","","html-keyboard-response","116","1174766","0.0-21.0-2.0","6d5c2a94-71ef-4b57-a710-b24dde2d4daa","null","<p style=""text-align: center;"">+</p>","null","fixation","","","","","","","","","","","","","","","","","","","","","","","",""
"","","","","","html-slider-response","117","1175773","0.0-21.0-0.1","6d5c2a94-71ef-4b57-a710-b24dde2d4daa","1000","
                  <p style=""text-align: center;"">₪58
                                                <br>40%</p>
                  <p id=""wtp"" style=""text-align:center; margin-top: 0px; margin-bottom: 0px; font-size: 40px"";>&ensp;</p>","-","viewing","0","20","10C,13A,19C,21B","","","","","","","","","","","","","","","","","","","","",""
"","","","","","html-slider-response","118","1178601","0.0-21.0-1.1","6d5c2a94-71ef-4b57-a710-b24dde2d4daa","2827","
                  <p style=""text-align: center;"">₪58
                                                <br>40%</p>
                  <p id=""wtp"" style=""text-align:center; margin-top: 0px; margin-bottom: 0px; font-size: 40px"";>מוכנים לשלם: <span id=""c_p_y""></span></p>","21","evaluation","38","20","10C,13A,19C,21B","40","58","21","","","","","","","","","","","","","","","","","",""
"","","","","","html-keyboard-response","119","1180052","0.0-21.0-2.1","6d5c2a94-71ef-4b57-a710-b24dde2d4daa","null","<p style=""text-align: center;"">+</p>","null","fixation","","","","","","","","","","","","","","","","","","","","","","","",""
"","","","","","html-slider-response","120","1181059","0.0-21.0-0.2","6d5c2a94-71ef-4b57-a710-b24dde2d4daa","1000","
                  <p style=""text-align: center;"">₪43
                                                <br>60%</p>
                  <p id=""wtp"" style=""text-align:center; margin-top: 0px; margin-bottom: 0px; font-size: 40px"";>&ensp;</p>","-","viewing","0","17","2A,7A,9A,15B","","","","","","","","","","","","","","","","","","","","",""
"","","","","","html-slider-response","121","1184025","0.0-21.0-1.2","6d5c2a94-71ef-4b57-a710-b24dde2d4daa","2966","
                  <p style=""text-align: center;"">₪43
                                                <br>60%</p>
                  <p id=""wtp"" style=""text-align:center; margin-top: 0px; margin-bottom: 0px; font-size: 40px"";>מוכנים לשלם: <span id=""c_p_y""></span></p>","38","evaluation","39","17","2A,7A,9A,15B","60","43","38","","","","","","","","","","","","","","","","","",""
"","","","","","html-keyboard-response","122","1185386","0.0-21.0-2.2","6d5c2a94-71ef-4b57-a710-b24dde2d4daa","null","<p style=""text-align: center;"">+</p>","null","fixation","","","","","","","","","","","","","","","","","","","","","","","",""
"","","","","","html-slider-response","123","1186388","0.0-21.0-0.3","6d5c2a94-71ef-4b57-a710-b24dde2d4daa","1000","
                  <p style=""text-align: center;"">₪71
                                                <br>75%</p>
                  <p id=""wtp"" style=""text-align:center; margin-top: 0px; margin-bottom: 0px; font-size: 40px"";>&ensp;</p>","-","viewing","0","28","8B","","","","","","","","","","","","","","","","","","","","",""
"","","","","","html-slider-response","124","1189529","0.0-21.0-1.3","6d5c2a94-71ef-4b57-a710-b24dde2d4daa","3141","
                  <p style=""text-align: center;"">₪71
                                                <br>75%</p>
                  <p id=""wtp"" style=""text-align:center; margin-top: 0px; margin-bottom: 0px; font-size: 40px"";>מוכנים לשלם: <span id=""c_p_y""></span></p>","62","evaluation","35","28","8B","75","71","62","","","","","","","","","","","","","","","","","",""
"","","","","","html-keyboard-response","125","1190629","0.0-21.0-2.3","6d5c2a94-71ef-4b57-a710-b24dde2d4daa","null","<p style=""text-align: center;"">+</p>","null","fixation","","","","","","","","","","","","","","","","","","","","","","","",""
"","","","","","html-slider-response","126","1191638","0.0-21.0-0.4","6d5c2a94-71ef-4b57-a710-b24dde2d4daa","1000","
                  <p style=""text-align: center;"">₪71
                                                <br>55%</p>
                  <p id=""wtp"" style=""text-align:center; margin-top: 0px; margin-bottom: 0px; font-size: 40px"";>&ensp;</p>","-","viewing","0","27","5B,18A","","","","","","","","","","","","","","","","","","","","",""
"","","","","","html-slider-response","127","1195650","0.0-21.0-1.4","6d5c2a94-71ef-4b57-a710-b24dde2d4daa","null","
                  <p style=""text-align: center;"">₪71
                                                <br>55%</p>
                  <p id=""wtp"" style=""text-align:center; margin-top: 0px; margin-bottom: 0px; font-size: 40px"";>מוכנים לשלם: <span id=""c_p_y""></span></p>","null","evaluation","37","27","5B,18A","55","71","13","","","","","","","","","","","","","","","","","",""
"","","","","","html-keyboard-response","128","1197109","0.0-21.0-2.4","6d5c2a94-71ef-4b57-a710-b24dde2d4daa","null","<p style=""text-align: center;"">+</p>","null","fixation","","","","","","","","","","","","","","","","","","","","","","","",""
"","","","","","html-slider-response","129","1198112","0.0-21.0-0.5","6d5c2a94-71ef-4b57-a710-b24dde2d4daa","1000","
                  <p style=""text-align: center;"">₪18
                                                <br>50%</p>
                  <p id=""wtp"" style=""text-align:center; margin-top: 0px; margin-bottom: 0px; font-size: 40px"";>&ensp;</p>","-","viewing","0","10","2C,16C,22B,28A","","","","","","","","","","","","","","","","","","","","",""
"","","","","","html-slider-response","130","1199585","0.0-21.0-1.5","6d5c2a94-71ef-4b57-a710-b24dde2d4daa","1472","
                  <p style=""text-align: center;"">₪18
                                                <br>50%</p>
                  <p id=""wtp"" style=""text-align:center; margin-top: 0px; margin-bottom: 0px; font-size: 40px"";>מוכנים לשלם: <span id=""c_p_y""></span></p>","11","evaluation","42","10","2C,16C,22B,28A","50","18","11","","","","","","","","","","","","","","","","","",""
"","","","","","html-keyboard-response","131","1200671","0.0-21.0-2.5","6d5c2a94-71ef-4b57-a710-b24dde2d4daa","null","<p style=""text-align: center;"">+</p>","null","fixation","","","","","","","","","","","","","","","","","","","","","","","",""
"","","","","","html-slider-response","132","1201674","0.0-21.0-0.6","6d5c2a94-71ef-4b57-a710-b24dde2d4daa","1000","
                  <p style=""text-align: center;"">₪58
                                                <br>30%</p>
                  <p id=""wtp"" style=""text-align:center; margin-top: 0px; margin-bottom: 0px; font-size: 40px"";>&ensp;</p>","-","viewing","0","19","13C,30A","","","","","","","","","","","","","","","","","","","","",""
"","","","","","html-slider-response","133","1203377","0.0-21.0-1.6","6d5c2a94-71ef-4b57-a710-b24dde2d4daa","1702","
                  <p style=""text-align: center;"">₪58
                                                <br>30%</p>
                  <p id=""wtp"" style=""text-align:center; margin-top: 0px; margin-bottom: 0px; font-size: 40px"";>מוכנים לשלם: <span id=""c_p_y""></span></p>","15","evaluation","22","19","13C,30A","30","58","15","","","","","","","","","","","","","","","","","",""
"","","","","","html-keyboard-response","134","1204370","0.0-21.0-2.6","6d5c2a94-71ef-4b57-a710-b24dde2d4daa","null","<p style=""text-align: center;"">+</p>","null","fixation","","","","","","","","","","","","","","","","","","","","","","","",""
"","","","","","html-slider-response","135","1205387","0.0-21.0-0.7","6d5c2a94-71ef-4b57-a710-b24dde2d4daa","1000","
                  <p style=""text-align: center;"">₪16
                                                <br>20%</p>
                  <p id=""wtp"" style=""text-align:center; margin-top: 0px; margin-bottom: 0px; font-size: 40px"";>&ensp;</p>","-","viewing","0","8","14C,17A,20C,27A","","","","","","","","","","","","","","","","","","","","",""
"","","","","","html-slider-response","136","1208065","0.0-21.0-1.7","6d5c2a94-71ef-4b57-a710-b24dde2d4daa","2677","
                  <p style=""text-align: center;"">₪16
                                                <br>20%</p>
                  <p id=""wtp"" style=""text-align:center; margin-top: 0px; margin-bottom: 0px; font-size: 40px"";>מוכנים לשלם: <span id=""c_p_y""></span></p>","6","evaluation","8","8","14C,17A,20C,27A","20","16","7","","","","","","","","","","","","","","","","","",""
"","","","","","html-keyboard-response","137","1209051","0.0-21.0-2.7","6d5c2a94-71ef-4b57-a710-b24dde2d4daa","null","<p style=""text-align: center;"">+</p>","null","fixation","","","","","","","","","","","","","","","","","","","","","","","",""
"","","","","","html-slider-response","138","1210053","0.0-21.0-0.8","6d5c2a94-71ef-4b57-a710-b24dde2d4daa","1000","
                  <p style=""text-align: center;"">₪36
                                                <br>70%</p>
                  <p id=""wtp"" style=""text-align:center; margin-top: 0px; margin-bottom: 0px; font-size: 40px"";>&ensp;</p>","-","viewing","0","13","3A,5C,10B","","","","","","","","","","","","","","","","","","","","",""
"","","","","","html-slider-response","139","1211905","0.0-21.0-1.8","6d5c2a94-71ef-4b57-a710-b24dde2d4daa","1852","
                  <p style=""text-align: center;"">₪36
                                                <br>70%</p>
                  <p id=""wtp"" style=""text-align:center; margin-top: 0px; margin-bottom: 0px; font-size: 40px"";>מוכנים לשלם: <span id=""c_p_y""></span></p>","40","evaluation","55","13","3A,5C,10B","70","36","40","","","","","","","","","","","","","","","","","",""
"","","","","","html-keyboard-response","140","1212575","0.0-21.0-2.8","6d5c2a94-71ef-4b57-a710-b24dde2d4daa","null","<p style=""text-align: center;"">+</p>","null","fixation","","","","","","","","","","","","","","","","","","","","","","","",""
"","","","","","html-slider-response","141","1213587","0.0-21.0-0.9","6d5c2a94-71ef-4b57-a710-b24dde2d4daa","1000","
                  <p style=""text-align: center;"">₪64
                                                <br>50%</p>
                  <p id=""wtp"" style=""text-align:center; margin-top: 0px; margin-bottom: 0px; font-size: 40px"";>&ensp;</p>","-","viewing","0","25","1B,3B,4A","","","","","","","","","","","","","","","","","","","","",""
"","","","","","html-slider-response","142","1217377","0.0-21.0-1.9","6d5c2a94-71ef-4b57-a710-b24dde2d4daa","3789","
                  <p style=""text-align: center;"">₪64
                                                <br>50%</p>
                  <p id=""wtp"" style=""text-align:center; margin-top: 0px; margin-bottom: 0px; font-size: 40px"";>מוכנים לשלם: <span id=""c_p_y""></span></p>","21","evaluation","29","25","1B,3B,4A","50","64","21","","","","","","","","","","","","","","","","","",""
"","","","","","html-keyboard-response","143","1218302","0.0-21.0-2.9","6d5c2a94-71ef-4b57-a710-b24dde2d4daa","null","<p style=""text-align: center;"">+</p>","null","fixation","","","","","","","","","","","","","","","","","","","","","","","",""
"","","","","","html-slider-response","144","1219303","0.0-21.0-0.10","6d5c2a94-71ef-4b57-a710-b24dde2d4daa","1000","
                  <p style=""text-align: center;"">₪71
                                                <br>45%</p>
                  <p id=""wtp"" style=""text-align:center; margin-top: 0px; margin-bottom: 0px; font-size: 40px"";>&ensp;</p>","-","viewing","0","26","2B,16A","","","","","","","","","","","","","","","","","","","","",""
"","","","","","html-slider-response","145","1221417","0.0-21.0-1.10","6d5c2a94-71ef-4b57-a710-b24dde2d4daa","2114","
                  <p style=""text-align: center;"">₪71
                                                <br>45%</p>
                  <p id=""wtp"" style=""text-align:center; margin-top: 0px; margin-bottom: 0px; font-size: 40px"";>מוכנים לשלם: <span id=""c_p_y""></span></p>","32","evaluation","67","26","2B,16A","45","71","32","","","","","","","","","","","","","","","","","",""
"","","","","","html-keyboard-response","146","1222096","0.0-21.0-2.10","6d5c2a94-71ef-4b57-a710-b24dde2d4daa","null","<p style=""text-align: center;"">+</p>","null","fixation","","","","","","","","","","","","","","","","","","","","","","","",""
"","","","","","html-slider-response","147","1223106","0.0-21.0-0.11","6d5c2a94-71ef-4b57-a710-b24dde2d4daa","1000","
                  <p style=""text-align: center;"">₪58
                                                <br>45%</p>
                  <p id=""wtp"" style=""text-align:center; margin-top: 0px; margin-bottom: 0px; font-size: 40px"";>&ensp;</p>","-","viewing","0","21","11C,18C,25A","","","","","","","","","","","","","","","","","","","","",""
"","","","","","html-slider-response","148","1227111","0.0-21.0-1.11","6d5c2a94-71ef-4b57-a710-b24dde2d4daa","null","
                  <p style=""text-align: center;"">₪58
                                                <br>45%</p>
                  <p id=""wtp"" style=""text-align:center; margin-top: 0px; margin-bottom: 0px; font-size: 40px"";>מוכנים לשלם: <span id=""c_p_y""></span></p>","null","evaluation","44","21","11C,18C,25A","45","58","31","","","","","","","","","","","","","","","","","",""
"","","","","","html-keyboard-response","149","1228167","0.0-21.0-2.11","6d5c2a94-71ef-4b57-a710-b24dde2d4daa","null","<p style=""text-align: center;"">+</p>","null","fixation","","","","","","","","","","","","","","","","","","","","","","","",""
"","","","","","html-slider-response","150","1229176","0.0-21.0-0.12","6d5c2a94-71ef-4b57-a710-b24dde2d4daa","1000","
                  <p style=""text-align: center;"">₪4
                                                <br>50%</p>
                  <p id=""wtp"" style=""text-align:center; margin-top: 0px; margin-bottom: 0px; font-size: 40px"";>&ensp;</p>","-","viewing","0","2","4C,17B","","","","","","","","","","","","","","","","","","","","",""
"","","","","","html-slider-response","151","1231929","0.0-21.0-1.12","6d5c2a94-71ef-4b57-a710-b24dde2d4daa","2752","
                  <p style=""text-align: center;"">₪4
                                                <br>50%</p>
                  <p id=""wtp"" style=""text-align:center; margin-top: 0px; margin-bottom: 0px; font-size: 40px"";>מוכנים לשלם: <span id=""c_p_y""></span></p>","2","evaluation","16","2","4C,17B","50","4","2","","","","","","","","","","","","","","","","","",""
"","","","","","html-keyboard-response","152","1233184","0.0-21.0-2.12","6d5c2a94-71ef-4b57-a710-b24dde2d4daa","null","<p style=""text-align: center;"">+</p>","null","fixation","","","","","","","","","","","","","","","","","","","","","","","",""
"","","","","","html-slider-response","153","1234189","0.0-21.0-0.13","6d5c2a94-71ef-4b57-a710-b24dde2d4daa","1000","
                  <p style=""text-align: center;"">₪36
                                                <br>30%</p>
                  <p id=""wtp"" style=""text-align:center; margin-top: 0px; margin-bottom: 0px; font-size: 40px"";>&ensp;</p>","-","viewing","0","11","3C,20A,22A","","","","","","","","","","","","","","","","","","","","",""
"","","","","","html-slider-response","154","1237065","0.0-21.0-1.13","6d5c2a94-71ef-4b57-a710-b24dde2d4daa","2875","
                  <p style=""text-align: center;"">₪36
                                                <br>30%</p>
                  <p id=""wtp"" style=""text-align:center; margin-top: 0px; margin-bottom: 0px; font-size: 40px"";>מוכנים לשלם: <span id=""c_p_y""></span></p>","10","evaluation","80","11","3C,20A,22A","30","36","10","","","","","","","","","","","","","","","","","",""
"","","","","","html-keyboard-response","155","1238210","0.0-21.0-2.13","6d5c2a94-71ef-4b57-a710-b24dde2d4daa","null","<p style=""text-align: center;"">+</p>","null","fixation","","","","","","","","","","","","","","","","","","","","","","","",""
"","","","","","html-slider-response","156","1239212","0.0-21.0-0.14","6d5c2a94-71ef-4b57-a710-b24dde2d4daa","1000","
                  <p style=""text-align: center;"">₪11
                                                <br>20%</p>
                  <p id=""wtp"" style=""text-align:center; margin-top: 0px; margin-bottom: 0px; font-size: 40px"";>&ensp;</p>","-","viewing","0","4","12C,17C,23C,28C","","","","","","","","","","","","","","","","","","","","",""
"","","","","","html-slider-response","157","1242409","0.0-21.0-1.14","6d5c2a94-71ef-4b57-a710-b24dde2d4daa","3196","
                  <p style=""text-align: center;"">₪11
                                                <br>20%</p>
                  <p id=""wtp"" style=""text-align:center; margin-top: 0px; margin-bottom: 0px; font-size: 40px"";>מוכנים לשלם: <span id=""c_p_y""></span></p>","4","evaluation","5","4","12C,17C,23C,28C","20","11","4","","","","","","","","","","","","","","","","","",""
"","","","","","html-keyboard-response","158","1243541","0.0-21.0-2.14","6d5c2a94-71ef-4b57-a710-b24dde2d4daa","null","<p style=""text-align: center;"">+</p>","null","fixation","","","","","","","","","","","","","","","","","","","","","","","",""
"","","","","","html-slider-response","159","1244552","0.0-21.0-0.15","6d5c2a94-71ef-4b57-a710-b24dde2d4daa","1000","
                  <p style=""text-align: center;"">₪11
                                                <br>45%</p>
                  <p id=""wtp"" style=""text-align:center; margin-top: 0px; margin-bottom: 0px; font-size: 40px"";>&ensp;</p>","-","viewing","0","6","14B,21C,25C","","","","","","","","","","","","","","","","","","","","",""
"","","","","","html-slider-response","160","1248385","0.0-21.0-1.15","6d5c2a94-71ef-4b57-a710-b24dde2d4daa","3832","
                  <p style=""text-align: center;"">₪11
                                                <br>45%</p>
                  <p id=""wtp"" style=""text-align:center; margin-top: 0px; margin-bottom: 0px; font-size: 40px"";>מוכנים לשלם: <span id=""c_p_y""></span></p>","11","evaluation","58","6","14B,21C,25C","45","11","11","","","","","","","","","","","","","","","","","",""
"","","","","","html-keyboard-response","161","1249835","0.0-21.0-2.15","6d5c2a94-71ef-4b57-a710-b24dde2d4daa","null","<p style=""text-align: center;"">+</p>","null","fixation","","","","","","","","","","","","","","","","","","","","","","","",""
"","","","","","html-slider-response","162","1250837","0.0-21.0-0.16","6d5c2a94-71ef-4b57-a710-b24dde2d4daa","1000","
                  <p style=""text-align: center;"">₪79
                                                <br>65%</p>
                  <p id=""wtp"" style=""text-align:center; margin-top: 0px; margin-bottom: 0px; font-size: 40px"";>&ensp;</p>","-","viewing","0","31","8A","","","","","","","","","","","","","","","","","","","","",""
"","","","","","html-slider-response","163","1254329","0.0-21.0-1.16","6d5c2a94-71ef-4b57-a710-b24dde2d4daa","3491","
                  <p style=""text-align: center;"">₪79
                                                <br>65%</p>
                  <p id=""wtp"" style=""text-align:center; margin-top: 0px; margin-bottom: 0px; font-size: 40px"";>מוכנים לשלם: <span id=""c_p_y""></span></p>","39","evaluation","0","31","8A","65","79","39","","","","","","","","","","","","","","","","","",""
"","","","","","html-keyboard-response","164","1255746","0.0-21.0-2.16","6d5c2a94-71ef-4b57-a710-b24dde2d4daa","null","<p style=""text-align: center;"">+</p>","null","fixation","","","","","","","","","","","","","","","","","","","","","","","",""
"","","","","","html-slider-response","165","1256748","0.0-21.0-0.17","6d5c2a94-71ef-4b57-a710-b24dde2d4daa","1000","
                  <p style=""text-align: center;"">₪79
                                                <br>40%</p>
                  <p id=""wtp"" style=""text-align:center; margin-top: 0px; margin-bottom: 0px; font-size: 40px"";>&ensp;</p>","-","viewing","0","30","9B","","","","","","","","","","","","","","","","","","","","",""
"","","","","","html-slider-response","166","1260757","0.0-21.0-1.17","6d5c2a94-71ef-4b57-a710-b24dde2d4daa","null","
                  <p style=""text-align: center;"">₪79
                                                <br>40%</p>
                  <p id=""wtp"" style=""text-align:center; margin-top: 0px; margin-bottom: 0px; font-size: 40px"";>מוכנים לשלם: <span id=""c_p_y""></span></p>","null","evaluation","14","30","9B","40","79","17","","","","","","","","","","","","","","","","","",""
"","","","","","html-keyboard-response","167","1261907","0.0-21.0-2.17","6d5c2a94-71ef-4b57-a710-b24dde2d4daa","null","<p style=""text-align: center;"">+</p>","null","fixation","","","","","","","","","","","","","","","","","","","","","","","",""
"","","","","","html-slider-response","168","1262922","0.0-21.0-0.18","6d5c2a94-71ef-4b57-a710-b24dde2d4daa","1000","
                  <p style=""text-align: center;"">₪11
                                                <br>25%</p>
                  <p id=""wtp"" style=""text-align:center; margin-top: 0px; margin-bottom: 0px; font-size: 40px"";>&ensp;</p>","-","viewing","0","5","12A,27B,28B,30B","","","","","","","","","","","","","","","","","","","","",""
"","","","","","html-slider-response","169","1266924","0.0-21.0-1.18","6d5c2a94-71ef-4b57-a710-b24dde2d4daa","null","
                  <p style=""text-align: center;"">₪11
                                                <br>25%</p>
                  <p id=""wtp"" style=""text-align:center; margin-top: 0px; margin-bottom: 0px; font-size: 40px"";>מוכנים לשלם: <span id=""c_p_y""></span></p>","null","evaluation","38","5","12A,27B,28B,30B","25","11","22","","","","","","","","","","","","","","","","","",""
"","","","","","html-keyboard-response","170","1267796","0.0-21.0-2.18","6d5c2a94-71ef-4b57-a710-b24dde2d4daa","null","<p style=""text-align: center;"">+</p>","null","fixation","","","","","","","","","","","","","","","","","","","","","","","",""
"","","","","","html-slider-response","171","1268804","0.0-21.0-0.19","6d5c2a94-71ef-4b57-a710-b24dde2d4daa","1000","
                  <p style=""text-align: center;"">₪11
                                                <br>75%</p>
                  <p id=""wtp"" style=""text-align:center; margin-top: 0px; margin-bottom: 0px; font-size: 40px"";>&ensp;</p>","-","viewing","0","7","6B,18B,22C,24C,29A","","","","","","","","","","","","","","","","","","","","",""
"","","","","","html-slider-response","172","1271225","0.0-21.0-1.19","6d5c2a94-71ef-4b57-a710-b24dde2d4daa","2420","
                  <p style=""text-align: center;"">₪11
                                                <br>75%</p>
                  <p id=""wtp"" style=""text-align:center; margin-top: 0px; margin-bottom: 0px; font-size: 40px"";>מוכנים לשלם: <span id=""c_p_y""></span></p>","9","evaluation","71","7","6B,18B,22C,24C,29A","75","11","10","","","","","","","","","","","","","","","","","",""
"","","","","","html-keyboard-response","173","1271935","0.0-21.0-2.19","6d5c2a94-71ef-4b57-a710-b24dde2d4daa","null","<p style=""text-align: center;"">+</p>","null","fixation","","","","","","","","","","","","","","","","","","","","","","","",""
"","","","","","html-slider-response","174","1272939","0.0-21.0-0.20","6d5c2a94-71ef-4b57-a710-b24dde2d4daa","1000","
                  <p style=""text-align: center;"">₪39
                                                <br>60%</p>
                  <p id=""wtp"" style=""text-align:center; margin-top: 0px; margin-bottom: 0px; font-size: 40px"";>&ensp;</p>","-","viewing","0","15","9C,25B","","","","","","","","","","","","","","","","","","","","",""
"","","","","","html-slider-response","175","1275881","0.0-21.0-1.20","6d5c2a94-71ef-4b57-a710-b24dde2d4daa","2941","
                  <p style=""text-align: center;"">₪39
                                                <br>60%</p>
                  <p id=""wtp"" style=""text-align:center; margin-top: 0px; margin-bottom: 0px; font-size: 40px"";>מוכנים לשלם: <span id=""c_p_y""></span></p>","36","evaluation","41","15","9C,25B","60","39","36","","","","","","","","","","","","","","","","","",""
"","","","","","html-keyboard-response","176","1276467","0.0-21.0-2.20","6d5c2a94-71ef-4b57-a710-b24dde2d4daa","null","<p style=""text-align: center;"">+</p>","null","fixation","","","","","","","","","","","","","","","","","","","","","","","",""
"","","","","","html-slider-response","177","1277469","0.0-21.0-0.21","6d5c2a94-71ef-4b57-a710-b24dde2d4daa","1000","
                  <p style=""text-align: center;"">₪43
                                                <br>75%</p>
                  <p id=""wtp"" style=""text-align:center; margin-top: 0px; margin-bottom: 0px; font-size: 40px"";>&ensp;</p>","-","viewing","0","18","11B,19B,24A,26A","","","","","","","","","","","","","","","","","","","","",""
"","","","","","html-slider-response","178","1281479","0.0-21.0-1.21","6d5c2a94-71ef-4b57-a710-b24dde2d4daa","null","
                  <p style=""text-align: center;"">₪43
                                                <br>75%</p>
                  <p id=""wtp"" style=""text-align:center; margin-top: 0px; margin-bottom: 0px; font-size: 40px"";>מוכנים לשלם: <span id=""c_p_y""></span></p>","null","evaluation","24","18","11B,19B,24A,26A","75","43","36","","","","","","","","","","","","","","","","","",""
"","","","","","html-keyboard-response","179","1282510","0.0-21.0-2.21","6d5c2a94-71ef-4b57-a710-b24dde2d4daa","null","<p style=""text-align: center;"">+</p>","null","fixation","","","","","","","","","","","","","","","","","","","","","","","",""
"","","","","","html-slider-response","180","1283519","0.0-21.0-0.22","6d5c2a94-71ef-4b57-a710-b24dde2d4daa","1000","
                  <p style=""text-align: center;"">₪76
                                                <br>65%</p>
                  <p id=""wtp"" style=""text-align:center; margin-top: 0px; margin-bottom: 0px; font-size: 40px"";>&ensp;</p>","-","viewing","0","29","8C,19A,24B","","","","","","","","","","","","","","","","","","","","",""
"","","","","","html-slider-response","181","1286121","0.0-21.0-1.22","6d5c2a94-71ef-4b57-a710-b24dde2d4daa","2602","
                  <p style=""text-align: center;"">₪76
                                                <br>65%</p>
                  <p id=""wtp"" style=""text-align:center; margin-top: 0px; margin-bottom: 0px; font-size: 40px"";>מוכנים לשלם: <span id=""c_p_y""></span></p>","32","evaluation","5","29","8C,19A,24B","65","76","32","","","","","","","","","","","","","","","","","",""
"","","","","","html-keyboard-response","182","1286717","0.0-21.0-2.22","6d5c2a94-71ef-4b57-a710-b24dde2d4daa","null","<p style=""text-align: center;"">+</p>","null","fixation","","","","","","","","","","","","","","","","","","","","","","","",""
"","","","","","html-slider-response","183","1287724","0.0-21.0-0.23","6d5c2a94-71ef-4b57-a710-b24dde2d4daa","1000","
                  <p style=""text-align: center;"">₪61
                                                <br>55%</p>
                  <p id=""wtp"" style=""text-align:center; margin-top: 0px; margin-bottom: 0px; font-size: 40px"";>&ensp;</p>","-","viewing","0","23","7B,26B","","","","","","","","","","","","","","","","","","","","",""
"","","","","","html-slider-response","184","1291337","0.0-21.0-1.23","6d5c2a94-71ef-4b57-a710-b24dde2d4daa","3612","
                  <p style=""text-align: center;"">₪61
                                                <br>55%</p>
                  <p id=""wtp"" style=""text-align:center; margin-top: 0px; margin-bottom: 0px; font-size: 40px"";>מוכנים לשלם: <span id=""c_p_y""></span></p>","28","evaluation","44","23","7B,26B","55","61","28","","","","","","","","","","","","","","","","","",""
"","","","","","html-keyboard-response","185","1292847","0.0-21.0-2.23","6d5c2a94-71ef-4b57-a710-b24dde2d4daa","null","<p style=""text-align: center;"">+</p>","null","fixation","","","","","","","","","","","","","","","","","","","","","","","",""
"","","","","","html-slider-response","186","1293862","0.0-21.0-0.24","6d5c2a94-71ef-4b57-a710-b24dde2d4daa","1000","
                  <p style=""text-align: center;"">₪18
                                                <br>25%</p>
                  <p id=""wtp"" style=""text-align:center; margin-top: 0px; margin-bottom: 0px; font-size: 40px"";>&ensp;</p>","-","viewing","0","9","14A,23A","","","","","","","","","","","","","","","","","","","","",""
"","","","","","html-slider-response","187","1296985","0.0-21.0-1.24","6d5c2a94-71ef-4b57-a710-b24dde2d4daa","3122","
                  <p style=""text-align: center;"">₪18
                                                <br>25%</p>
                  <p id=""wtp"" style=""text-align:center; margin-top: 0px; margin-bottom: 0px; font-size: 40px"";>מוכנים לשלם: <span id=""c_p_y""></span></p>","15","evaluation","73","9","14A,23A","25","18","15","","","","","","","","","","","","","","","","","",""
"","","","","","html-keyboard-response","188","1297664","0.0-21.0-2.24","6d5c2a94-71ef-4b57-a710-b24dde2d4daa","null","<p style=""text-align: center;"">+</p>","null","fixation","","","","","","","","","","","","","","","","","","","","","","","",""
"","","","","","html-slider-response","189","1298668","0.0-21.0-0.25","6d5c2a94-71ef-4b57-a710-b24dde2d4daa","1000","
                  <p style=""text-align: center;"">₪39
                                                <br>65%</p>
                  <p id=""wtp"" style=""text-align:center; margin-top: 0px; margin-bottom: 0px; font-size: 40px"";>&ensp;</p>","-","viewing","0","16","1A,15A,26C","","","","","","","","","","","","","","","","","","","","",""
"","","","","","html-slider-response","190","1302672","0.0-21.0-1.25","6d5c2a94-71ef-4b57-a710-b24dde2d4daa","null","
                  <p style=""text-align: center;"">₪39
                                                <br>65%</p>
                  <p id=""wtp"" style=""text-align:center; margin-top: 0px; margin-bottom: 0px; font-size: 40px"";>מוכנים לשלם: <span id=""c_p_y""></span></p>","null","evaluation","77","16","1A,15A,26C","65","39","25","","","","","","","","","","","","","","","","","",""
"","","","","","html-keyboard-response","191","1304159","0.0-21.0-2.25","6d5c2a94-71ef-4b57-a710-b24dde2d4daa","null","<p style=""text-align: center;"">+</p>","null","fixation","","","","","","","","","","","","","","","","","","","","","","","",""
"","","","","","html-slider-response","192","1305174","0.0-21.0-0.26","6d5c2a94-71ef-4b57-a710-b24dde2d4daa","1000","
                  <p style=""text-align: center;"">₪4
                                                <br>75%</p>
                  <p id=""wtp"" style=""text-align:center; margin-top: 0px; margin-bottom: 0px; font-size: 40px"";>&ensp;</p>","-","viewing","0","3","12B,20B,23B,27C,29C","","","","","","","","","","","","","","","","","","","","",""
"","","","","","html-slider-response","193","1308009","0.0-21.0-1.26","6d5c2a94-71ef-4b57-a710-b24dde2d4daa","2834","
                  <p style=""text-align: center;"">₪4
                                                <br>75%</p>
                  <p id=""wtp"" style=""text-align:center; margin-top: 0px; margin-bottom: 0px; font-size: 40px"";>מוכנים לשלם: <span id=""c_p_y""></span></p>","2","evaluation","6","3","12B,20B,23B,27C,29C","75","4","2","","","","","","","","","","","","","","","","","",""
"","","","","","html-keyboard-response","194","1308662","0.0-21.0-2.26","6d5c2a94-71ef-4b57-a710-b24dde2d4daa","null","<p style=""text-align: center;"">+</p>","null","fixation","","","","","","","","","","","","","","","","","","","","","","","",""
"","","","","","html-slider-response","195","1309678","0.0-21.0-0.27","6d5c2a94-71ef-4b57-a710-b24dde2d4daa","1000","
                  <p style=""text-align: center;"">₪36
                                                <br>60%</p>
                  <p id=""wtp"" style=""text-align:center; margin-top: 0px; margin-bottom: 0px; font-size: 40px"";>&ensp;</p>","-","viewing","0","12","1C,7C,15C","","","","","","","","","","","","","","","","","","","","",""
"","","","","","html-slider-response","196","1312945","0.0-21.0-1.27","6d5c2a94-71ef-4b57-a710-b24dde2d4daa","3266","
                  <p style=""text-align: center;"">₪36
                                                <br>60%</p>
                  <p id=""wtp"" style=""text-align:center; margin-top: 0px; margin-bottom: 0px; font-size: 40px"";>מוכנים לשלם: <span id=""c_p_y""></span></p>","18","evaluation","17","12","1C,7C,15C","60","36","18","","","","","","","","","","","","","","","","","",""
"","","","","","html-keyboard-response","197","1313915","0.0-21.0-2.27","6d5c2a94-71ef-4b57-a710-b24dde2d4daa","null","<p style=""text-align: center;"">+</p>","null","fixation","","","","","","","","","","","","","","","","","","","","","","","",""
"","","","","","html-slider-response","198","1314918","0.0-21.0-0.28","6d5c2a94-71ef-4b57-a710-b24dde2d4daa","1000","
                  <p style=""text-align: center;"">₪4
                                                <br>25%</p>
                  <p id=""wtp"" style=""text-align:center; margin-top: 0px; margin-bottom: 0px; font-size: 40px"";>&ensp;</p>","-","viewing","0","1","6C,29B,30C","","","","","","","","","","","","","","","","","","","","",""
"","","","","","html-slider-response","199","1317193","0.0-21.0-1.28","6d5c2a94-71ef-4b57-a710-b24dde2d4daa","2274","
                  <p style=""text-align: center;"">₪4
                                                <br>25%</p>
                  <p id=""wtp"" style=""text-align:center; margin-top: 0px; margin-bottom: 0px; font-size: 40px"";>מוכנים לשלם: <span id=""c_p_y""></span></p>","9","evaluation","20","1","6C,29B,30C","25","4","9","","","","","","","","","","","","","","","","","",""
"","","","","","html-keyboard-response","200","1318156","0.0-21.0-2.28","6d5c2a94-71ef-4b57-a710-b24dde2d4daa","null","<p style=""text-align: center;"">+</p>","null","fixation","","","","","","","","","","","","","","","","","","","","","","","",""
"","","","","","html-slider-response","201","1319161","0.0-21.0-0.29","6d5c2a94-71ef-4b57-a710-b24dde2d4daa","1000","
                  <p style=""text-align: center;"">₪36
                                                <br>75%</p>
                  <p id=""wtp"" style=""text-align:center; margin-top: 0px; margin-bottom: 0px; font-size: 40px"";>&ensp;</p>","-","viewing","0","14","4B,5A,13B,16B","","","","","","","","","","","","","","","","","","","","",""
"","","","","","html-slider-response","202","1321697","0.0-21.0-1.29","6d5c2a94-71ef-4b57-a710-b24dde2d4daa","2535","
                  <p style=""text-align: center;"">₪36
                                                <br>75%</p>
                  <p id=""wtp"" style=""text-align:center; margin-top: 0px; margin-bottom: 0px; font-size: 40px"";>מוכנים לשלם: <span id=""c_p_y""></span></p>","35","evaluation","15","14","4B,5A,13B,16B","75","36","35","","","","","","","","","","","","","","","","","",""
"","","","","","html-keyboard-response","203","1323129","0.0-21.0-2.29","6d5c2a94-71ef-4b57-a710-b24dde2d4daa","null","<p style=""text-align: center;"">+</p>","null","fixation","","","","","","","","","","","","","","","","","","","","","","","",""
"","","","","","html-slider-response","204","1324143","0.0-21.0-0.30","6d5c2a94-71ef-4b57-a710-b24dde2d4daa","1000","
                  <p style=""text-align: center;"">₪64
                                                <br>25%</p>
                  <p id=""wtp"" style=""text-align:center; margin-top: 0px; margin-bottom: 0px; font-size: 40px"";>&ensp;</p>","-","viewing","0","24","6A,21A","","","","","","","","","","","","","","","","","","","","",""
"","","","","","html-slider-response","205","1326489","0.0-21.0-1.30","6d5c2a94-71ef-4b57-a710-b24dde2d4daa","2345","
                  <p style=""text-align: center;"">₪64
                                                <br>25%</p>
                  <p id=""wtp"" style=""text-align:center; margin-top: 0px; margin-bottom: 0px; font-size: 40px"";>מוכנים לשלם: <span id=""c_p_y""></span></p>","17","evaluation","64","24","6A,21A","25","64","17","","","","","","","","","","","","","","","","","",""
"","","","","","html-keyboard-response","206","1327897","0.0-21.0-2.30","6d5c2a94-71ef-4b57-a710-b24dde2d4daa","null","<p style=""text-align: center;"">+</p>","null","fixation","","","","","","","","","","","","","","","","","","","","","","","",""
"","","","","","html-keyboard-response","207","1328899","0.0-22.0","6d5c2a94-71ef-4b57-a710-b24dde2d4daa","null","<p style=""text-align: center;"">+</p>","null","fixation","","","","","","","","","","","","","","","","","","","","","","","",""
"","","","","","html-keyboard-response","208","1330241","0.0-23.0","6d5c2a94-71ef-4b57-a710-b24dde2d4daa","null","<p>הפסקה.
          <br>לחצו כדי להמשיך.</p>","1","scan_wait","","","","","","","","","","","","","","","","","","","","","","","",""
"","","","","","html-keyboard-response","209","1331244","0.0-24.0","6d5c2a94-71ef-4b57-a710-b24dde2d4daa","null","<p style=""text-align: center;"">+</p>","null","fixation","","","","","","","","","","","","","","","","","","","","","","","",""
"","","","","","html-slider-response","210","1332261","0.0-25.0-0.0","6d5c2a94-71ef-4b57-a710-b24dde2d4daa","1000","
                  <p style=""text-align: center;"">₪71
                                                <br>75%</p>
                  <p id=""wtp"" style=""text-align:center; margin-top: 0px; margin-bottom: 0px; font-size: 40px"";>&ensp;</p>","-","viewing","0","28","8B","","","","","","","","","","","","","","","","","","","","",""
"","","","","","html-slider-response","211","1333465","0.0-25.0-1.0","6d5c2a94-71ef-4b57-a710-b24dde2d4daa","1203","
                  <p style=""text-align: center;"">₪71
                                                <br>75%</p>
                  <p id=""wtp"" style=""text-align:center; margin-top: 0px; margin-bottom: 0px; font-size: 40px"";>מוכנים לשלם: <span id=""c_p_y""></span></p>","39","evaluation","60","28","8B","75","71","39","","","","","","","","","","","","","","","","","",""
"","","","","","html-keyboard-response","212","1334707","0.0-25.0-2.0","6d5c2a94-71ef-4b57-a710-b24dde2d4daa","null","<p style=""text-align: center;"">+</p>","null","fixation","","","","","","","","","","","","","","","","","","","","","","","",""
"","","","","","html-slider-response","213","1335715","0.0-25.0-0.1","6d5c2a94-71ef-4b57-a710-b24dde2d4daa","1000","
                  <p style=""text-align: center;"">₪36
                                                <br>70%</p>
                  <p id=""wtp"" style=""text-align:center; margin-top: 0px; margin-bottom: 0px; font-size: 40px"";>&ensp;</p>","-","viewing","0","13","3A,5C,10B","","","","","","","","","","","","","","","","","","","","",""
"","","","","","html-slider-response","214","1339305","0.0-25.0-1.1","6d5c2a94-71ef-4b57-a710-b24dde2d4daa","3589","
                  <p style=""text-align: center;"">₪36
                                                <br>70%</p>
                  <p id=""wtp"" style=""text-align:center; margin-top: 0px; margin-bottom: 0px; font-size: 40px"";>מוכנים לשלם: <span id=""c_p_y""></span></p>","21","evaluation","48","13","3A,5C,10B","70","36","21","","","","","","","","","","","","","","","","","",""
"","","","","","html-keyboard-response","215","1340317","0.0-25.0-2.1","6d5c2a94-71ef-4b57-a710-b24dde2d4daa","null","<p style=""text-align: center;"">+</p>","null","fixation","","","","","","","","","","","","","","","","","","","","","","","",""
"","","","","","html-slider-response","216","1341324","0.0-25.0-0.2","6d5c2a94-71ef-4b57-a710-b24dde2d4daa","1000","
                  <p style=""text-align: center;"">₪64
                                                <br>50%</p>
                  <p id=""wtp"" style=""text-align:center; margin-top: 0px; margin-bottom: 0px; font-size: 40px"";>&ensp;</p>","-","viewing","0","25","1B,3B,4A","","","","","","","","","","","","","","","","","","","","",""
"","","","","","html-slider-response","217","1345225","0.0-25.0-1.2","6d5c2a94-71ef-4b57-a710-b24dde2d4daa","3900","
                  <p style=""text-align: center;"">₪64
                                                <br>50%</p>
                  <p id=""wtp"" style=""text-align:center; margin-top: 0px; margin-bottom: 0px; font-size: 40px"";>מוכנים לשלם: <span id=""c_p_y""></span></p>","30","evaluation","56","25","1B,3B,4A","50","64","30","","","","","","","","","","","","","","","","","",""
"","","","","","html-keyboard-response","218","1345893","0.0-25.0-2.2","6d5c2a94-71ef-4b57-a710-b24dde2d4daa","null","<p style=""text-align: center;"">+</p>","null","fixation","","","","","","","","","","","","","","","","","","","","","","","",""
"","","","","","html-slider-response","219","1346899","0.0-25.0-0.3","6d5c2a94-71ef-4b57-a710-b24dde2d4daa","1000","
                  <p style=""text-align: center;"">₪11
                                                <br>75%</p>
                  <p id=""wtp"" style=""text-align:center; margin-top: 0px; margin-bottom: 0px; font-size: 40px"";>&ensp;</p>","-","viewing","0","7","6B,18B,22C,24C,29A","","","","","","","","","","","","","","","","","","","","",""
"","","","","","html-slider-response","220","1348961","0.0-25.0-1.3","6d5c2a94-71ef-4b57-a710-b24dde2d4daa","2061","
                  <p style=""text-align: center;"">₪11
                                                <br>75%</p>
                  <p id=""wtp"" style=""text-align:center; margin-top: 0px; margin-bottom: 0px; font-size: 40px"";>מוכנים לשלם: <span id=""c_p_y""></span></p>","9","evaluation","40","7","6B,18B,22C,24C,29A","75","11","9","","","","","","","","","","","","","","","","","",""
"","","","","","html-keyboard-response","221","1350274","0.0-25.0-2.3","6d5c2a94-71ef-4b57-a710-b24dde2d4daa","null","<p style=""text-align: center;"">+</p>","null","fixation","","","","","","","","","","","","","","","","","","","","","","","",""
"","","","","","html-slider-response","222","1351276","0.0-25.0-0.4","6d5c2a94-71ef-4b57-a710-b24dde2d4daa","1000","
                  <p style=""text-align: center;"">₪61
                                                <br>55%</p>
                  <p id=""wtp"" style=""text-align:center; margin-top: 0px; margin-bottom: 0px; font-size: 40px"";>&ensp;</p>","-","viewing","0","23","7B,26B","","","","","","","","","","","","","","","","","","","","",""
"","","","","","html-slider-response","223","1353537","0.0-25.0-1.4","6d5c2a94-71ef-4b57-a710-b24dde2d4daa","2260","
                  <p style=""text-align: center;"">₪61
                                                <br>55%</p>
                  <p id=""wtp"" style=""text-align:center; margin-top: 0px; margin-bottom: 0px; font-size: 40px"";>מוכנים לשלם: <span id=""c_p_y""></span></p>","27","evaluation","43","23","7B,26B","55","61","27","","","","","","","","","","","","","","","","","",""
"","","","","","html-keyboard-response","224","1354765","0.0-25.0-2.4","6d5c2a94-71ef-4b57-a710-b24dde2d4daa","null","<p style=""text-align: center;"">+</p>","null","fixation","","","","","","","","","","","","","","","","","","","","","","","",""
"","","","","","html-slider-response","225","1355767","0.0-25.0-0.5","6d5c2a94-71ef-4b57-a710-b24dde2d4daa","1000","
                  <p style=""text-align: center;"">₪36
                                                <br>75%</p>
                  <p id=""wtp"" style=""text-align:center; margin-top: 0px; margin-bottom: 0px; font-size: 40px"";>&ensp;</p>","-","viewing","0","14","4B,5A,13B,16B","","","","","","","","","","","","","","","","","","","","",""
"","","","","","html-slider-response","226","1356705","0.0-25.0-1.5","6d5c2a94-71ef-4b57-a710-b24dde2d4daa","936","
                  <p style=""text-align: center;"">₪36
                                                <br>75%</p>
                  <p id=""wtp"" style=""text-align:center; margin-top: 0px; margin-bottom: 0px; font-size: 40px"";>מוכנים לשלם: <span id=""c_p_y""></span></p>","21","evaluation","80","14","4B,5A,13B,16B","75","36","21","","","","","","","","","","","","","","","","","",""
"","","","","","html-keyboard-response","227","1357218","0.0-25.0-2.5","6d5c2a94-71ef-4b57-a710-b24dde2d4daa","null","<p style=""text-align: center;"">+</p>","null","fixation","","","","","","","","","","","","","","","","","","","","","","","",""
"","","","","","html-slider-response","228","1358227","0.0-25.0-0.6","6d5c2a94-71ef-4b57-a710-b24dde2d4daa","1000","
                  <p style=""text-align: center;"">₪18
                                                <br>25%</p>
                  <p id=""wtp"" style=""text-align:center; margin-top: 0px; margin-bottom: 0px; font-size: 40px"";>&ensp;</p>","-","viewing","0","9","14A,23A","","","","","","","","","","","","","","","","","","","","",""
"","","","","","html-slider-response","229","1358849","0.0-25.0-1.6","6d5c2a94-71ef-4b57-a710-b24dde2d4daa","620","
                  <p style=""text-align: center;"">₪18
                                                <br>25%</p>
                  <p id=""wtp"" style=""text-align:center; margin-top: 0px; margin-bottom: 0px; font-size: 40px"";>מוכנים לשלם: <span id=""c_p_y""></span></p>","14","evaluation","4","9","14A,23A","25","18","14","","","","","","","","","","","","","","","","","",""
"","","","","","html-keyboard-response","230","1360321","0.0-25.0-2.6","6d5c2a94-71ef-4b57-a710-b24dde2d4daa","null","<p style=""text-align: center;"">+</p>","null","fixation","","","","","","","","","","","","","","","","","","","","","","","",""
"","","","","","html-slider-response","231","1361338","0.0-25.0-0.7","6d5c2a94-71ef-4b57-a710-b24dde2d4daa","1000","
                  <p style=""text-align: center;"">₪79
                                                <br>65%</p>
                  <p id=""wtp"" style=""text-align:center; margin-top: 0px; margin-bottom: 0px; font-size: 40px"";>&ensp;</p>","-","viewing","0","31","8A","","","","","","","","","","","","","","","","","","","","",""
"","","","","","html-slider-response","232","1364537","0.0-25.0-1.7","6d5c2a94-71ef-4b57-a710-b24dde2d4daa","3198","
                  <p style=""text-align: center;"">₪79
                                                <br>65%</p>
                  <p id=""wtp"" style=""text-align:center; margin-top: 0px; margin-bottom: 0px; font-size: 40px"";>מוכנים לשלם: <span id=""c_p_y""></span></p>","45","evaluation","38","31","8A","65","79","45","","","","","","","","","","","","","","","","","",""
"","","","","","html-keyboard-response","233","1365473","0.0-25.0-2.7","6d5c2a94-71ef-4b57-a710-b24dde2d4daa","null","<p style=""text-align: center;"">+</p>","null","fixation","","","","","","","","","","","","","","","","","","","","","","","",""
"","","","","","html-slider-response","234","1366484","0.0-25.0-0.8","6d5c2a94-71ef-4b57-a710-b24dde2d4daa","1000","
                  <p style=""text-align: center;"">₪11
                                                <br>45%</p>
                  <p id=""wtp"" style=""text-align:center; margin-top: 0px; margin-bottom: 0px; font-size: 40px"";>&ensp;</p>","-","viewing","0","6","14B,21C,25C","","","","","","","","","","","","","","","","","","","","",""
"","","","","","html-slider-response","235","1369001","0.0-25.0-1.8","6d5c2a94-71ef-4b57-a710-b24dde2d4daa","2516","
                  <p style=""text-align: center;"">₪11
                                                <br>45%</p>
                  <p id=""wtp"" style=""text-align:center; margin-top: 0px; margin-bottom: 0px; font-size: 40px"";>מוכנים לשלם: <span id=""c_p_y""></span></p>","5","evaluation","50","6","14B,21C,25C","45","11","6","","","","","","","","","","","","","","","","","",""
"","","","","","html-keyboard-response","236","1370271","0.0-25.0-2.8","6d5c2a94-71ef-4b57-a710-b24dde2d4daa","null","<p style=""text-align: center;"">+</p>","null","fixation","","","","","","","","","","","","","","","","","","","","","","","",""
"","","","","","html-slider-response","237","1371273","0.0-25.0-0.9","6d5c2a94-71ef-4b57-a710-b24dde2d4daa","1000","
                  <p style=""text-align: center;"">₪64
                                                <br>25%</p>
                  <p id=""wtp"" style=""text-align:center; margin-top: 0px; margin-bottom: 0px; font-size: 40px"";>&ensp;</p>","-","viewing","0","24","6A,21A","","","","","","","","","","","","","","","","","","","","",""
"","","","","","html-slider-response","238","1373217","0.0-25.0-1.9","6d5c2a94-71ef-4b57-a710-b24dde2d4daa","1942","
                  <p style=""text-align: center;"">₪64
                                                <br>25%</p>
                  <p id=""wtp"" style=""text-align:center; margin-top: 0px; margin-bottom: 0px; font-size: 40px"";>מוכנים לשלם: <span id=""c_p_y""></span></p>","11","evaluation","49","24","6A,21A","25","64","11","","","","","","","","","","","","","","","","","",""
"","","","","","html-keyboard-response","239","1373754","0.0-25.0-2.9","6d5c2a94-71ef-4b57-a710-b24dde2d4daa","null","<p style=""text-align: center;"">+</p>","null","fixation","","","","","","","","","","","","","","","","","","","","","","","",""
"","","","","","html-slider-response","240","1374755","0.0-25.0-0.10","6d5c2a94-71ef-4b57-a710-b24dde2d4daa","1000","
                  <p style=""text-align: center;"">₪79
                                                <br>40%</p>
                  <p id=""wtp"" style=""text-align:center; margin-top: 0px; margin-bottom: 0px; font-size: 40px"";>&ensp;</p>","-","viewing","0","30","9B","","","","","","","","","","","","","","","","","","","","",""
"","","","","","html-slider-response","241","1376201","0.0-25.0-1.10","6d5c2a94-71ef-4b57-a710-b24dde2d4daa","1445","
                  <p style=""text-align: center;"">₪79
                                                <br>40%</p>
                  <p id=""wtp"" style=""text-align:center; margin-top: 0px; margin-bottom: 0px; font-size: 40px"";>מוכנים לשלם: <span id=""c_p_y""></span></p>","20","evaluation","34","30","9B","40","79","20","","","","","","","","","","","","","","","","","",""
"","","","","","html-keyboard-response","242","1377302","0.0-25.0-2.10","6d5c2a94-71ef-4b57-a710-b24dde2d4daa","null","<p style=""text-align: center;"">+</p>","null","fixation","","","","","","","","","","","","","","","","","","","","","","","",""
"","","","","","html-slider-response","243","1378314","0.0-25.0-0.11","6d5c2a94-71ef-4b57-a710-b24dde2d4daa","1000","
                  <p style=""text-align: center;"">₪39
                                                <br>60%</p>
                  <p id=""wtp"" style=""text-align:center; margin-top: 0px; margin-bottom: 0px; font-size: 40px"";>&ensp;</p>","-","viewing","0","15","9C,25B","","","","","","","","","","","","","","","","","","","","",""
"","","","","","html-slider-response","244","1379986","0.0-25.0-1.11","6d5c2a94-71ef-4b57-a710-b24dde2d4daa","1671","
                  <p style=""text-align: center;"">₪39
                                                <br>60%</p>
                  <p id=""wtp"" style=""text-align:center; margin-top: 0px; margin-bottom: 0px; font-size: 40px"";>מוכנים לשלם: <span id=""c_p_y""></span></p>","35","evaluation","65","15","9C,25B","60","39","35","","","","","","","","","","","","","","","","","",""
"","","","","","html-keyboard-response","245","1380701","0.0-25.0-2.11","6d5c2a94-71ef-4b57-a710-b24dde2d4daa","null","<p style=""text-align: center;"">+</p>","null","fixation","","","","","","","","","","","","","","","","","","","","","","","",""
"","","","","","html-slider-response","246","1381705","0.0-25.0-0.12","6d5c2a94-71ef-4b57-a710-b24dde2d4daa","1000","
                  <p style=""text-align: center;"">₪16
                                                <br>20%</p>
                  <p id=""wtp"" style=""text-align:center; margin-top: 0px; margin-bottom: 0px; font-size: 40px"";>&ensp;</p>","-","viewing","0","8","14C,17A,20C,27A","","","","","","","","","","","","","","","","","","","","",""
"","","","","","html-slider-response","247","1382801","0.0-25.0-1.12","6d5c2a94-71ef-4b57-a710-b24dde2d4daa","1094","
                  <p style=""text-align: center;"">₪16
