"success","timeout","failed_images","failed_audio","failed_video","trial_type","trial_index","time_elapsed","internal_node_id","subject_id","rt","stimulus","response","part","slider_start","ID","set_ID","prob","amount","last_location","actual_choice","actual_EV","binary_id","trinary_id","catch","direction","A_key","S_key","D_key","choice_prob","choice_amount","chosen_part","won_prize","potential_prize_amount","potential_prize_prob","total_prize","accuracy"
"true","false","[]","[]","[]","preload","0","22","0.0-0.0","b3bb97c4-33cd-4328-8d02-6c63a5a88b71","","","","","","","","","","","","","","","","","","","","","","","","","","",""
"","","","","","html-keyboard-response","1","832443","0.0-1.0","b3bb97c4-33cd-4328-8d02-6c63a5a88b71","null","
          <h1>שלום וברוכים הבאים!</h1>
          <p>לפניכם ניסוי בקבלת החלטות עם שני חלקים.
          <br><br>לחצו על העכבר כדי להמשיך.</p>","0","example","","","","","","","","","","","","","","","","","","","","","","",""
"","","","","","html-keyboard-response","2","838139","0.0-2.0","b3bb97c4-33cd-4328-8d02-6c63a5a88b71","null","
        <h1>חלק 1</h1>
        <p>בקרוב יוצגו בפניכם הגרלות.
        <br>עליכם לבחור את המחיר המירבי שתהיו מוכנים לשלם כדי להשתתף בהגרלה שתוצג.
        <br>יש לכם תקציב של ₪80 לכל הגרלה. 
        <br>נסו להעריך כל הגרלה בנפרד ולחשוב כמה היא שווה עבורכם, ₪80 זמינים לכל הגרלה בנפרד.
        <br><br>לחצו על העכבר כדי להמשיך.</p>","1","instructions","","","","","","","","","","","","","","","","","","","","","","",""
"","","","","","html-keyboard-response","3","840379","0.0-3.0","b3bb97c4-33cd-4328-8d02-6c63a5a88b71","null","
        <p>בסוף הניסוי, המחשב יבחר את אחת ההגרלות ויקבע מחיר לכרטיס עבורה. 
        <br>במידה והמחיר שבחרתם נמוך מהמחיר שנבחר על ידי המחשב, לא תשתתפו בהגרלה ותשארו עם מלוא התקציב.
        <br>במידה והמחיר שבחרתם גבוה מהמחיר שנבחר על ידי המחשב, תשלמו את המחיר שנקבע ותשתתפו בהגרלה.
        <br><br>לחצו על העכבר כדי להמשיך.</p>","1","instructions","","","","","","","","","","","","","","","","","","","","","","",""
"","","","","","html-slider-response","4","858587","0.0-4.0","b3bb97c4-33cd-4328-8d02-6c63a5a88b71","18096","
        <p style=""font-size: 42px;"">נתחיל עם דוגמא: 
        <br>ההגרלה מטה מציעה 65% סיכוי לזכות ב-₪40 
        <br>&emsp;&emsp;&emsp;&emsp;&emsp;&emsp;&emsp;&emsp;&ensp;35% סיכוי לזכות ב-₪0.
        <br><br>מה המחיר המירבי שתהיו מוכנים לשלם על כרטיס להגרלה זו בין 0 ל-₪80?
        <br>הזיזו את העכבר על פני המלבן ולחצו כדי לבצע בחירה.</p>
        
        <p style=""text-align: center;"">₪40<br>65%</p>

        <p id=""wtp"" style=""text-align:center; margin-top: 0px; margin-bottom: 0px; font-size: 40px"";>מוכנים לשלם: <span id=""c_p_y""></span></p>","20","example","54","","","","","","","","","","","","","","","","","","","","","",""
"","","","","","html-keyboard-response","5","871867","0.0-5.0","b3bb97c4-33cd-4328-8d02-6c63a5a88b71","null","<p>יפה מאוד!
                <br> בחרתם שתהיו מוכנים לשלם ₪20 כדי להשתתף בהגרלה:
                <br><p style=""text-align: center;"">₪40<br>65%</p>
                <p>נשמע נכון?
                <br>נניח שהגרלה זו נבחרה בסוף הניסוי.
                <br>כעת המחשב יקבע מחיר עבורה באקראי.
                <br>לחצו על העכבר להמשך.</p>","1","example","","","","","","","","","","","","","","","","","","","","","","",""
"","","","","","html-keyboard-response","6","883587","0.0-6.0","b3bb97c4-33cd-4328-8d02-6c63a5a88b71","null","<p>המחשב קבע מחיר: ₪76
                <br>ואתם בחרתם לשלם לכל היותר: ₪20
                <br><br>מכיוון שהמחיר שבחרתם נמוך מהמחיר שנקבע, לא תתשתתפו בהגרלה.
                <br>במקרה כזה, בסוף הניסוי תקבלו את כל התקציב ההתחלתי של ₪80.
                <br><br>לחצו על העכבר להמשך.</p>","1","example","","","","","","","","","","","","","","","","","","","","","","",""
"","","","","","html-slider-response","7","895475","0.0-7.0","b3bb97c4-33cd-4328-8d02-6c63a5a88b71","11634","<p style=""font-size: 42px;"">הנה עוד דוגמא:
                <br>ההגרלה מטה מציעה 35% סיכוי לזכות ב-₪18 
                <br>&emsp;&emsp;&emsp;&emsp;&emsp;&emsp;&emsp;&emsp;&ensp;65% סיכוי לזכות ב-₪0.</p>
        
                <p style=""text-align: center;"">₪18<br>35%</p>
                <p id=""wtp"" style=""text-align:center; margin-top: 0px; margin-bottom: 0px; font-size: 40px"";>מוכנים לשלם: <span id=""c_p_y""></span></p>","10","example","10","","","","","","","","","","","","","","","","","","","","","",""
"","","","","","html-keyboard-response","8","905827","0.0-8.0","b3bb97c4-33cd-4328-8d02-6c63a5a88b71","null","<p>הייתם מוכנים לשלם  ₪10 כדי להשתתף בהגרלה:
                <p style=""text-align: center;"">₪18<br>35%</p>
                <p>כעת נניח שהמחשב בחר את ההגרלה הזו בסוף הניסוי, וקבע עבורה מחיר.
                <br><br>לחצו על העכבר כדי להמשיך.</p>","1","instructions","","","","","","","","","","","","","","","","","","","","","","",""
"","","","","","html-keyboard-response","9","927019","0.0-9.0","b3bb97c4-33cd-4328-8d02-6c63a5a88b71","null","<p>המחשב קבע מחיר להגרלה: ₪10
                <br>ואתם בחרתם לשלם לכל היותר: ₪10
                <br><br>כעת המחיר שנקבע זהה לזה שבחרתם, אז תשלמו את המחיר שקבע המחשב (₪10) ותשתתפו בהגרלה.
                <br>במקרה כזה, תסיימו את הניסוי עם תקציב של ₪70 ועם סיכוי לזכות ב-₪18 נוספים מההגרלה.
                <br>כלומר, תוכלו לקבל ₪70 אם לא תזכו בהגרלה, או ₪88 אם תזכו בהגרלה.
                <br><br>לחצו על העכבר להמשך.</p>","1","example","","","","","","","","","","","","","","","","","","","","","","",""
"","","","","","html-keyboard-response","10","935763","0.0-10.0","b3bb97c4-33cd-4328-8d02-6c63a5a88b71","null","<p>במהלך הניסוי, קודם תראו את ההגרלה ורק לאחר מכן תוכלו לבחור.
                <p>כמו כן, יהיו לכם מספר שניות מוגבל להגיב.
                <p>בואו ננסה זאת עם ההגרלה הקודמת.
                <br>לחצו על העכבר כדי להמשיך.</p>","1","instructions","","","","","","","","","","","","","","","","","","","","","","",""
"","","","","","html-slider-response","11","937040","0.0-11.0","b3bb97c4-33cd-4328-8d02-6c63a5a88b71","1000","
                    <p style=""text-align: center;"">₪18<br>35%</p>
                    <p id=""wtp"" style=""text-align:center; margin-top: 0px; margin-bottom: 0px; font-size: 40px"";>&ensp;</p>","45","instructions","0","","","","","","","","","","","","","","","","","","","","","",""
"","","","","","html-slider-response","12","941308","0.0-12.0","b3bb97c4-33cd-4328-8d02-6c63a5a88b71","null","
                    <p style=""text-align: center;"">₪18<br>35%</p>
                    <p id=""wtp"" style=""text-align:center; margin-top: 0px; margin-bottom: 0px; font-size: 40px"";>מוכנים לשלם: <span id=""c_p_y""></span></p>","null","instructions","21","","","","","","","","","","","","","","","","","","","","","",""
"","","","","","html-keyboard-response","13","946338","0.0-13.0","b3bb97c4-33cd-4328-8d02-6c63a5a88b71","null","<p>לא הגבתם בזמן המוקצב לתגובה. 
                <br>נסו להגיב מהר יותר בפעם הבאה.
                <br><br>לחצו על העכבר כדי להמשיך.</p>","1","instructions","","","","","","","","","","","","","","","","","","","","","","",""
"","","","","","html-slider-response","14","948154","0.0-14.0-0.0","b3bb97c4-33cd-4328-8d02-6c63a5a88b71","1551","
                    <p style=""text-align: center;"">₪40<br>65%</p>
                    <p id=""wtp"" style=""text-align:center; margin-top: 0px; margin-bottom: 0px; font-size: 40px"";>מוכנים לשלם: <span id=""c_p_y""></span></p>","13","instructions","13","","","","","","","","","","","","","","","","","","","","","",""
"","","","","","html-keyboard-response","15","951978","0.0-14.0-1.0","b3bb97c4-33cd-4328-8d02-6c63a5a88b71","null","<p>יפה. הפעם בחרתם לשלם לכל היותר ₪13.
                <br><br>לחצו על העכבר כדי להמשיך.</p>","1","instructions","","","","","","","","","","","","","","","","","","","","","","",""
"","","","","","html-keyboard-response","16","963202","0.0-15.0","b3bb97c4-33cd-4328-8d02-6c63a5a88b71","null","<p>כעת נתחיל את הניסוי.
                <br><br>אתם תראו הגרלות ותתבקשו לבחור כמה תהיו מוכנים לשלם כדי להשתתף בהן.
                <br>יש לכם תקציב של ₪80 עבור כל הגרלה.
                <br>בסוף הניסוי הגרלה אחת תבחר באקראי ותשוחק.
                <br><br>לחצו על העכבר כדי להתחיל את הניסוי.</p>","1","instructions","","","","","","","","","","","","","","","","","","","","","","",""
"","","","","","html-keyboard-response","17","964458","0.0-16.0","b3bb97c4-33cd-4328-8d02-6c63a5a88b71","null","<p style=""text-align: center;"">+</p>","null","fixation","","","","","","","","","","","","","","","","","","","","","","",""
"","","","","","html-slider-response","18","965466","0.0-17.0-0.0","b3bb97c4-33cd-4328-8d02-6c63a5a88b71","1000","
                  <p style=""text-align: center;"">₪43
                                                <br>60%</p>
                  <p id=""wtp"" style=""text-align:center; margin-top: 0px; margin-bottom: 0px; font-size: 40px"";>&ensp;</p>","-","viewing","0","17","2A,7A,9A,15B","","","","","","","","","","","","","","","","","","","",""
"","","","","","html-slider-response","19","967490","0.0-17.0-1.0","b3bb97c4-33cd-4328-8d02-6c63a5a88b71","2022","
                  <p style=""text-align: center;"">₪43
                                                <br>60%</p>
                  <p id=""wtp"" style=""text-align:center; margin-top: 0px; margin-bottom: 0px; font-size: 40px"";>מוכנים לשלם: <span id=""c_p_y""></span></p>","17","evaluation","8","17","2A,7A,9A,15B","60","43","17","","","","","","","","","","","","","","","","",""
"","","","","","html-keyboard-response","20","968021","0.0-17.0-2.0","b3bb97c4-33cd-4328-8d02-6c63a5a88b71","null","<p style=""text-align: center;"">+</p>","null","fixation","","","","","","","","","","","","","","","","","","","","","","",""
"","","","","","html-slider-response","21","969038","0.0-17.0-0.1","b3bb97c4-33cd-4328-8d02-6c63a5a88b71","1000","
                  <p style=""text-align: center;"">₪18
                                                <br>50%</p>
                  <p id=""wtp"" style=""text-align:center; margin-top: 0px; margin-bottom: 0px; font-size: 40px"";>&ensp;</p>","-","viewing","0","10","2C,16C,22B,28A","","","","","","","","","","","","","","","","","","","",""
"","","","","","html-slider-response","22","973041","0.0-17.0-1.1","b3bb97c4-33cd-4328-8d02-6c63a5a88b71","null","
                  <p style=""text-align: center;"">₪18
                                                <br>50%</p>
                  <p id=""wtp"" style=""text-align:center; margin-top: 0px; margin-bottom: 0px; font-size: 40px"";>מוכנים לשלם: <span id=""c_p_y""></span></p>","null","evaluation","66","10","2C,16C,22B,28A","50","18","11","","","","","","","","","","","","","","","","",""
"","","","","","html-keyboard-response","23","974443","0.0-17.0-2.1","b3bb97c4-33cd-4328-8d02-6c63a5a88b71","null","<p style=""text-align: center;"">+</p>","null","fixation","","","","","","","","","","","","","","","","","","","","","","",""
"","","","","","html-slider-response","24","975457","0.0-17.0-0.2","b3bb97c4-33cd-4328-8d02-6c63a5a88b71","1000","
                  <p style=""text-align: center;"">₪11
                                                <br>20%</p>
                  <p id=""wtp"" style=""text-align:center; margin-top: 0px; margin-bottom: 0px; font-size: 40px"";>&ensp;</p>","-","viewing","0","4","12C,17C,23C,28C","","","","","","","","","","","","","","","","","","","",""
"","","","","","html-slider-response","25","977778","0.0-17.0-1.2","b3bb97c4-33cd-4328-8d02-6c63a5a88b71","2319","
                  <p style=""text-align: center;"">₪11
                                                <br>20%</p>
                  <p id=""wtp"" style=""text-align:center; margin-top: 0px; margin-bottom: 0px; font-size: 40px"";>מוכנים לשלם: <span id=""c_p_y""></span></p>","8","evaluation","55","4","12C,17C,23C,28C","20","11","9","","","","","","","","","","","","","","","","",""
"","","","","","html-keyboard-response","26","979247","0.0-17.0-2.2","b3bb97c4-33cd-4328-8d02-6c63a5a88b71","null","<p style=""text-align: center;"">+</p>","null","fixation","","","","","","","","","","","","","","","","","","","","","","",""
"","","","","","html-slider-response","27","980251","0.0-17.0-0.3","b3bb97c4-33cd-4328-8d02-6c63a5a88b71","1000","
                  <p style=""text-align: center;"">₪71
                                                <br>75%</p>
                  <p id=""wtp"" style=""text-align:center; margin-top: 0px; margin-bottom: 0px; font-size: 40px"";>&ensp;</p>","-","viewing","0","28","8B","","","","","","","","","","","","","","","","","","","",""
"","","","","","html-slider-response","28","981602","0.0-17.0-1.3","b3bb97c4-33cd-4328-8d02-6c63a5a88b71","1350","
                  <p style=""text-align: center;"">₪71
                                                <br>75%</p>
                  <p id=""wtp"" style=""text-align:center; margin-top: 0px; margin-bottom: 0px; font-size: 40px"";>מוכנים לשלם: <span id=""c_p_y""></span></p>","35","evaluation","44","28","8B","75","71","35","","","","","","","","","","","","","","","","",""
"","","","","","html-keyboard-response","29","982795","0.0-17.0-2.3","b3bb97c4-33cd-4328-8d02-6c63a5a88b71","null","<p style=""text-align: center;"">+</p>","null","fixation","","","","","","","","","","","","","","","","","","","","","","",""
"","","","","","html-slider-response","30","983798","0.0-17.0-0.4","b3bb97c4-33cd-4328-8d02-6c63a5a88b71","1000","
                  <p style=""text-align: center;"">₪79
                                                <br>40%</p>
                  <p id=""wtp"" style=""text-align:center; margin-top: 0px; margin-bottom: 0px; font-size: 40px"";>&ensp;</p>","-","viewing","0","30","9B","","","","","","","","","","","","","","","","","","","",""
"","","","","","html-slider-response","31","985618","0.0-17.0-1.4","b3bb97c4-33cd-4328-8d02-6c63a5a88b71","1819","
                  <p style=""text-align: center;"">₪79
                                                <br>40%</p>
                  <p id=""wtp"" style=""text-align:center; margin-top: 0px; margin-bottom: 0px; font-size: 40px"";>מוכנים לשלם: <span id=""c_p_y""></span></p>","48","evaluation","79","30","9B","40","79","48","","","","","","","","","","","","","","","","",""
"","","","","","html-keyboard-response","32","986482","0.0-17.0-2.4","b3bb97c4-33cd-4328-8d02-6c63a5a88b71","null","<p style=""text-align: center;"">+</p>","null","fixation","","","","","","","","","","","","","","","","","","","","","","",""
"","","","","","html-slider-response","33","987490","0.0-17.0-0.5","b3bb97c4-33cd-4328-8d02-6c63a5a88b71","1000","
                  <p style=""text-align: center;"">₪36
                                                <br>70%</p>
                  <p id=""wtp"" style=""text-align:center; margin-top: 0px; margin-bottom: 0px; font-size: 40px"";>&ensp;</p>","-","viewing","0","13","3A,5C,10B","","","","","","","","","","","","","","","","","","","",""
"","","","","","html-slider-response","34","989810","0.0-17.0-1.5","b3bb97c4-33cd-4328-8d02-6c63a5a88b71","2319","
                  <p style=""text-align: center;"">₪36
                                                <br>70%</p>
                  <p id=""wtp"" style=""text-align:center; margin-top: 0px; margin-bottom: 0px; font-size: 40px"";>מוכנים לשלם: <span id=""c_p_y""></span></p>","27","evaluation","21","13","3A,5C,10B","70","36","27","","","","","","","","","","","","","","","","",""
"","","","","","html-keyboard-response","35","991256","0.0-17.0-2.5","b3bb97c4-33cd-4328-8d02-6c63a5a88b71","null","<p style=""text-align: center;"">+</p>","null","fixation","","","","","","","","","","","","","","","","","","","","","","",""
"","","","","","html-slider-response","36","992262","0.0-17.0-0.6","b3bb97c4-33cd-4328-8d02-6c63a5a88b71","1000","
                  <p style=""text-align: center;"">₪71
                                                <br>55%</p>
                  <p id=""wtp"" style=""text-align:center; margin-top: 0px; margin-bottom: 0px; font-size: 40px"";>&ensp;</p>","-","viewing","0","27","5B,18A","","","","","","","","","","","","","","","","","","","",""
"","","","","","html-slider-response","37","994042","0.0-17.0-1.6","b3bb97c4-33cd-4328-8d02-6c63a5a88b71","1780","
                  <p style=""text-align: center;"">₪71
                                                <br>55%</p>
                  <p id=""wtp"" style=""text-align:center; margin-top: 0px; margin-bottom: 0px; font-size: 40px"";>מוכנים לשלם: <span id=""c_p_y""></span></p>","30","evaluation","1","27","5B,18A","55","71","30","","","","","","","","","","","","","","","","",""
"","","","","","html-keyboard-response","38","995003","0.0-17.0-2.6","b3bb97c4-33cd-4328-8d02-6c63a5a88b71","null","<p style=""text-align: center;"">+</p>","null","fixation","","","","","","","","","","","","","","","","","","","","","","",""
"","","","","","html-slider-response","39","996014","0.0-17.0-0.7","b3bb97c4-33cd-4328-8d02-6c63a5a88b71","1000","
                  <p style=""text-align: center;"">₪58
                                                <br>45%</p>
                  <p id=""wtp"" style=""text-align:center; margin-top: 0px; margin-bottom: 0px; font-size: 40px"";>&ensp;</p>","-","viewing","0","21","11C,18C,25A","","","","","","","","","","","","","","","","","","","",""
"","","","","","html-slider-response","40","1000017","0.0-17.0-1.7","b3bb97c4-33cd-4328-8d02-6c63a5a88b71","null","
                  <p style=""text-align: center;"">₪58
                                                <br>45%</p>
                  <p id=""wtp"" style=""text-align:center; margin-top: 0px; margin-bottom: 0px; font-size: 40px"";>מוכנים לשלם: <span id=""c_p_y""></span></p>","null","evaluation","25","21","11C,18C,25A","45","58","13","","","","","","","","","","","","","","","","",""
"","","","","","html-keyboard-response","41","1001061","0.0-17.0-2.7","b3bb97c4-33cd-4328-8d02-6c63a5a88b71","null","<p style=""text-align: center;"">+</p>","null","fixation","","","","","","","","","","","","","","","","","","","","","","",""
"","","","","","html-slider-response","42","1002062","0.0-17.0-0.8","b3bb97c4-33cd-4328-8d02-6c63a5a88b71","1000","
                  <p style=""text-align: center;"">₪39
                                                <br>60%</p>
                  <p id=""wtp"" style=""text-align:center; margin-top: 0px; margin-bottom: 0px; font-size: 40px"";>&ensp;</p>","-","viewing","0","15","9C,25B","","","","","","","","","","","","","","","","","","","",""
"","","","","","html-slider-response","43","1003922","0.0-17.0-1.8","b3bb97c4-33cd-4328-8d02-6c63a5a88b71","1860","
                  <p style=""text-align: center;"">₪39
                                                <br>60%</p>
                  <p id=""wtp"" style=""text-align:center; margin-top: 0px; margin-bottom: 0px; font-size: 40px"";>מוכנים לשלם: <span id=""c_p_y""></span></p>","18","evaluation","58","15","9C,25B","60","39","18","","","","","","","","","","","","","","","","",""
"","","","","","html-keyboard-response","44","1004432","0.0-17.0-2.8","b3bb97c4-33cd-4328-8d02-6c63a5a88b71","null","<p style=""text-align: center;"">+</p>","null","fixation","","","","","","","","","","","","","","","","","","","","","","",""
"","","","","","html-slider-response","45","1005443","0.0-17.0-0.9","b3bb97c4-33cd-4328-8d02-6c63a5a88b71","1000","
                  <p style=""text-align: center;"">₪11
                                                <br>25%</p>
                  <p id=""wtp"" style=""text-align:center; margin-top: 0px; margin-bottom: 0px; font-size: 40px"";>&ensp;</p>","-","viewing","0","5","12A,27B,28B,30B","","","","","","","","","","","","","","","","","","","",""
"","","","","","html-slider-response","46","1006274","0.0-17.0-1.9","b3bb97c4-33cd-4328-8d02-6c63a5a88b71","831","
                  <p style=""text-align: center;"">₪11
                                                <br>25%</p>
                  <p id=""wtp"" style=""text-align:center; margin-top: 0px; margin-bottom: 0px; font-size: 40px"";>מוכנים לשלם: <span id=""c_p_y""></span></p>","4","evaluation","21","5","12A,27B,28B,30B","25","11","5","","","","","","","","","","","","","","","","",""
"","","","","","html-keyboard-response","47","1006805","0.0-17.0-2.9","b3bb97c4-33cd-4328-8d02-6c63a5a88b71","null","<p style=""text-align: center;"">+</p>","null","fixation","","","","","","","","","","","","","","","","","","","","","","",""
"","","","","","html-slider-response","48","1007811","0.0-17.0-0.10","b3bb97c4-33cd-4328-8d02-6c63a5a88b71","1000","
                  <p style=""text-align: center;"">₪4
                                                <br>25%</p>
                  <p id=""wtp"" style=""text-align:center; margin-top: 0px; margin-bottom: 0px; font-size: 40px"";>&ensp;</p>","-","viewing","0","1","6C,29B,30C","","","","","","","","","","","","","","","","","","","",""
"","","","","","html-slider-response","49","1008410","0.0-17.0-1.10","b3bb97c4-33cd-4328-8d02-6c63a5a88b71","598","
                  <p style=""text-align: center;"">₪4
                                                <br>25%</p>
                  <p id=""wtp"" style=""text-align:center; margin-top: 0px; margin-bottom: 0px; font-size: 40px"";>מוכנים לשלם: <span id=""c_p_y""></span></p>","0","evaluation","59","1","6C,29B,30C","25","4","0","","","","","","","","","","","","","","","","",""
"","","","","","html-keyboard-response","50","1009412","0.0-17.0-2.10","b3bb97c4-33cd-4328-8d02-6c63a5a88b71","null","<p style=""text-align: center;"">+</p>","null","fixation","","","","","","","","","","","","","","","","","","","","","","",""
"","","","","","html-slider-response","51","1010413","0.0-17.0-0.11","b3bb97c4-33cd-4328-8d02-6c63a5a88b71","1000","
                  <p style=""text-align: center;"">₪71
                                                <br>45%</p>
                  <p id=""wtp"" style=""text-align:center; margin-top: 0px; margin-bottom: 0px; font-size: 40px"";>&ensp;</p>","-","viewing","0","26","2B,16A","","","","","","","","","","","","","","","","","","","",""
"","","","","","html-slider-response","52","1012819","0.0-17.0-1.11","b3bb97c4-33cd-4328-8d02-6c63a5a88b71","2404","
                  <p style=""text-align: center;"">₪71
                                                <br>45%</p>
                  <p id=""wtp"" style=""text-align:center; margin-top: 0px; margin-bottom: 0px; font-size: 40px"";>מוכנים לשלם: <span id=""c_p_y""></span></p>","19","evaluation","68","26","2B,16A","45","71","20","","","","","","","","","","","","","","","","",""
"","","","","","html-keyboard-response","53","1013720","0.0-17.0-2.11","b3bb97c4-33cd-4328-8d02-6c63a5a88b71","null","<p style=""text-align: center;"">+</p>","null","fixation","","","","","","","","","","","","","","","","","","","","","","",""
"","","","","","html-slider-response","54","1014723","0.0-17.0-0.12","b3bb97c4-33cd-4328-8d02-6c63a5a88b71","1000","
                  <p style=""text-align: center;"">₪36
                                                <br>75%</p>
                  <p id=""wtp"" style=""text-align:center; margin-top: 0px; margin-bottom: 0px; font-size: 40px"";>&ensp;</p>","-","viewing","0","14","4B,5A,13B,16B","","","","","","","","","","","","","","","","","","","",""
"","","","","","html-slider-response","55","1016595","0.0-17.0-1.12","b3bb97c4-33cd-4328-8d02-6c63a5a88b71","1870","
                  <p style=""text-align: center;"">₪36
                                                <br>75%</p>
                  <p id=""wtp"" style=""text-align:center; margin-top: 0px; margin-bottom: 0px; font-size: 40px"";>מוכנים לשלם: <span id=""c_p_y""></span></p>","24","evaluation","28","14","4B,5A,13B,16B","75","36","24","","","","","","","","","","","","","","","","",""
"","","","","","html-keyboard-response","56","1017236","0.0-17.0-2.12","b3bb97c4-33cd-4328-8d02-6c63a5a88b71","null","<p style=""text-align: center;"">+</p>","null","fixation","","","","","","","","","","","","","","","","","","","","","","",""
"","","","","","html-slider-response","57","1018237","0.0-17.0-0.13","b3bb97c4-33cd-4328-8d02-6c63a5a88b71","1000","
                  <p style=""text-align: center;"">₪4
                                                <br>50%</p>
                  <p id=""wtp"" style=""text-align:center; margin-top: 0px; margin-bottom: 0px; font-size: 40px"";>&ensp;</p>","-","viewing","0","2","4C,17B","","","","","","","","","","","","","","","","","","","",""
"","","","","","html-slider-response","58","1020515","0.0-17.0-1.13","b3bb97c4-33cd-4328-8d02-6c63a5a88b71","2277","
                  <p style=""text-align: center;"">₪4
                                                <br>50%</p>
                  <p id=""wtp"" style=""text-align:center; margin-top: 0px; margin-bottom: 0px; font-size: 40px"";>מוכנים לשלם: <span id=""c_p_y""></span></p>","3","evaluation","78","2","4C,17B","50","4","3","","","","","","","","","","","","","","","","",""
"","","","","","html-keyboard-response","59","1021281","0.0-17.0-2.13","b3bb97c4-33cd-4328-8d02-6c63a5a88b71","null","<p style=""text-align: center;"">+</p>","null","fixation","","","","","","","","","","","","","","","","","","","","","","",""
"","","","","","html-slider-response","60","1022283","0.0-17.0-0.14","b3bb97c4-33cd-4328-8d02-6c63a5a88b71","1000","
                  <p style=""text-align: center;"">₪16
                                                <br>20%</p>
                  <p id=""wtp"" style=""text-align:center; margin-top: 0px; margin-bottom: 0px; font-size: 40px"";>&ensp;</p>","-","viewing","0","8","14C,17A,20C,27A","","","","","","","","","","","","","","","","","","","",""
"","","","","","html-slider-response","61","1023563","0.0-17.0-1.14","b3bb97c4-33cd-4328-8d02-6c63a5a88b71","1279","
                  <p style=""text-align: center;"">₪16
                                                <br>20%</p>
                  <p id=""wtp"" style=""text-align:center; margin-top: 0px; margin-bottom: 0px; font-size: 40px"";>מוכנים לשלם: <span id=""c_p_y""></span></p>","8","evaluation","29","8","14C,17A,20C,27A","20","16","8","","","","","","","","","","","","","","","","",""
"","","","","","html-keyboard-response","62","1024248","0.0-17.0-2.14","b3bb97c4-33cd-4328-8d02-6c63a5a88b71","null","<p style=""text-align: center;"">+</p>","null","fixation","","","","","","","","","","","","","","","","","","","","","","",""
"","","","","","html-slider-response","63","1025250","0.0-17.0-0.15","b3bb97c4-33cd-4328-8d02-6c63a5a88b71","1000","
                  <p style=""text-align: center;"">₪36
                                                <br>30%</p>
                  <p id=""wtp"" style=""text-align:center; margin-top: 0px; margin-bottom: 0px; font-size: 40px"";>&ensp;</p>","-","viewing","0","11","3C,20A,22A","","","","","","","","","","","","","","","","","","","",""
"","","","","","html-slider-response","64","1026643","0.0-17.0-1.15","b3bb97c4-33cd-4328-8d02-6c63a5a88b71","1392","
                  <p style=""text-align: center;"">₪36
                                                <br>30%</p>
                  <p id=""wtp"" style=""text-align:center; margin-top: 0px; margin-bottom: 0px; font-size: 40px"";>מוכנים לשלם: <span id=""c_p_y""></span></p>","3","evaluation","23","11","3C,20A,22A","30","36","4","","","","","","","","","","","","","","","","",""
"","","","","","html-keyboard-response","65","1028005","0.0-17.0-2.15","b3bb97c4-33cd-4328-8d02-6c63a5a88b71","null","<p style=""text-align: center;"">+</p>","null","fixation","","","","","","","","","","","","","","","","","","","","","","",""
"","","","","","html-slider-response","66","1029014","0.0-17.0-0.16","b3bb97c4-33cd-4328-8d02-6c63a5a88b71","1000","
                  <p style=""text-align: center;"">₪11
                                                <br>45%</p>
                  <p id=""wtp"" style=""text-align:center; margin-top: 0px; margin-bottom: 0px; font-size: 40px"";>&ensp;</p>","-","viewing","0","6","14B,21C,25C","","","","","","","","","","","","","","","","","","","",""
"","","","","","html-slider-response","67","1030667","0.0-17.0-1.16","b3bb97c4-33cd-4328-8d02-6c63a5a88b71","1652","
                  <p style=""text-align: center;"">₪11
                                                <br>45%</p>
                  <p id=""wtp"" style=""text-align:center; margin-top: 0px; margin-bottom: 0px; font-size: 40px"";>מוכנים לשלם: <span id=""c_p_y""></span></p>","4","evaluation","14","6","14B,21C,25C","45","11","4","","","","","","","","","","","","","","","","",""
"","","","","","html-keyboard-response","68","1031796","0.0-17.0-2.16","b3bb97c4-33cd-4328-8d02-6c63a5a88b71","null","<p style=""text-align: center;"">+</p>","null","fixation","","","","","","","","","","","","","","","","","","","","","","",""
"","","","","","html-slider-response","69","1032802","0.0-17.0-0.17","b3bb97c4-33cd-4328-8d02-6c63a5a88b71","1000","
                  <p style=""text-align: center;"">₪18
                                                <br>25%</p>
                  <p id=""wtp"" style=""text-align:center; margin-top: 0px; margin-bottom: 0px; font-size: 40px"";>&ensp;</p>","-","viewing","0","9","14A,23A","","","","","","","","","","","","","","","","","","","",""
"","","","","","html-slider-response","70","1033667","0.0-17.0-1.17","b3bb97c4-33cd-4328-8d02-6c63a5a88b71","864","
                  <p style=""text-align: center;"">₪18
                                                <br>25%</p>
                  <p id=""wtp"" style=""text-align:center; margin-top: 0px; margin-bottom: 0px; font-size: 40px"";>מוכנים לשלם: <span id=""c_p_y""></span></p>","5","evaluation","61","9","14A,23A","25","18","6","","","","","","","","","","","","","","","","",""
"","","","","","html-keyboard-response","71","1035108","0.0-17.0-2.17","b3bb97c4-33cd-4328-8d02-6c63a5a88b71","null","<p style=""text-align: center;"">+</p>","null","fixation","","","","","","","","","","","","","","","","","","","","","","",""
"","","","","","html-slider-response","72","1036124","0.0-17.0-0.18","b3bb97c4-33cd-4328-8d02-6c63a5a88b71","1000","
                  <p style=""text-align: center;"">₪61
                                                <br>55%</p>
                  <p id=""wtp"" style=""text-align:center; margin-top: 0px; margin-bottom: 0px; font-size: 40px"";>&ensp;</p>","-","viewing","0","23","7B,26B","","","","","","","","","","","","","","","","","","","",""
"","","","","","html-slider-response","73","1038459","0.0-17.0-1.18","b3bb97c4-33cd-4328-8d02-6c63a5a88b71","2334","
                  <p style=""text-align: center;"">₪61
                                                <br>55%</p>
                  <p id=""wtp"" style=""text-align:center; margin-top: 0px; margin-bottom: 0px; font-size: 40px"";>מוכנים לשלם: <span id=""c_p_y""></span></p>","25","evaluation","48","23","7B,26B","55","61","25","","","","","","","","","","","","","","","","",""
"","","","","","html-keyboard-response","74","1039187","0.0-17.0-2.18","b3bb97c4-33cd-4328-8d02-6c63a5a88b71","null","<p style=""text-align: center;"">+</p>","null","fixation","","","","","","","","","","","","","","","","","","","","","","",""
"","","","","","html-slider-response","75","1040195","0.0-17.0-0.19","b3bb97c4-33cd-4328-8d02-6c63a5a88b71","1000","
                  <p style=""text-align: center;"">₪58
                                                <br>30%</p>
                  <p id=""wtp"" style=""text-align:center; margin-top: 0px; margin-bottom: 0px; font-size: 40px"";>&ensp;</p>","-","viewing","0","19","13C,30A","","","","","","","","","","","","","","","","","","","",""
"","","","","","html-slider-response","76","1043443","0.0-17.0-1.19","b3bb97c4-33cd-4328-8d02-6c63a5a88b71","3246","
                  <p style=""text-align: center;"">₪58
                                                <br>30%</p>
                  <p id=""wtp"" style=""text-align:center; margin-top: 0px; margin-bottom: 0px; font-size: 40px"";>מוכנים לשלם: <span id=""c_p_y""></span></p>","28","evaluation","48","19","13C,30A","30","58","28","","","","","","","","","","","","","","","","",""
"","","","","","html-keyboard-response","77","1044667","0.0-17.0-2.19","b3bb97c4-33cd-4328-8d02-6c63a5a88b71","null","<p style=""text-align: center;"">+</p>","null","fixation","","","","","","","","","","","","","","","","","","","","","","",""
"","","","","","html-slider-response","78","1045683","0.0-17.0-0.20","b3bb97c4-33cd-4328-8d02-6c63a5a88b71","1000","
                  <p style=""text-align: center;"">₪76
                                                <br>65%</p>
                  <p id=""wtp"" style=""text-align:center; margin-top: 0px; margin-bottom: 0px; font-size: 40px"";>&ensp;</p>","-","viewing","0","29","8C,19A,24B","","","","","","","","","","","","","","","","","","","",""
"","","","","","html-slider-response","79","1047691","0.0-17.0-1.20","b3bb97c4-33cd-4328-8d02-6c63a5a88b71","2007","
                  <p style=""text-align: center;"">₪76
                                                <br>65%</p>
                  <p id=""wtp"" style=""text-align:center; margin-top: 0px; margin-bottom: 0px; font-size: 40px"";>מוכנים לשלם: <span id=""c_p_y""></span></p>","30","evaluation","67","29","8C,19A,24B","65","76","30","","","","","","","","","","","","","","","","",""
"","","","","","html-keyboard-response","80","1048593","0.0-17.0-2.20","b3bb97c4-33cd-4328-8d02-6c63a5a88b71","null","<p style=""text-align: center;"">+</p>","null","fixation","","","","","","","","","","","","","","","","","","","","","","",""
"","","","","","html-slider-response","81","1049604","0.0-17.0-0.21","b3bb97c4-33cd-4328-8d02-6c63a5a88b71","1000","
                  <p style=""text-align: center;"">₪36
                                                <br>60%</p>
                  <p id=""wtp"" style=""text-align:center; margin-top: 0px; margin-bottom: 0px; font-size: 40px"";>&ensp;</p>","-","viewing","0","12","1C,7C,15C","","","","","","","","","","","","","","","","","","","",""
"","","","","","html-slider-response","82","1051923","0.0-17.0-1.21","b3bb97c4-33cd-4328-8d02-6c63a5a88b71","2317","
                  <p style=""text-align: center;"">₪36
                                                <br>60%</p>
                  <p id=""wtp"" style=""text-align:center; margin-top: 0px; margin-bottom: 0px; font-size: 40px"";>מוכנים לשלם: <span id=""c_p_y""></span></p>","42","evaluation","32","12","1C,7C,15C","60","36","42","","","","","","","","","","","","","","","","",""
"","","","","","html-keyboard-response","83","1053003","0.0-17.0-2.21","b3bb97c4-33cd-4328-8d02-6c63a5a88b71","null","<p style=""text-align: center;"">+</p>","null","fixation","","","","","","","","","","","","","","","","","","","","","","",""
"","","","","","html-slider-response","84","1054005","0.0-17.0-0.22","b3bb97c4-33cd-4328-8d02-6c63a5a88b71","1000","
                  <p style=""text-align: center;"">₪43
                                                <br>75%</p>
                  <p id=""wtp"" style=""text-align:center; margin-top: 0px; margin-bottom: 0px; font-size: 40px"";>&ensp;</p>","-","viewing","0","18","11B,19B,24A,26A","","","","","","","","","","","","","","","","","","","",""
"","","","","","html-slider-response","85","1055482","0.0-17.0-1.22","b3bb97c4-33cd-4328-8d02-6c63a5a88b71","1475","
                  <p style=""text-align: center;"">₪43
                                                <br>75%</p>
                  <p id=""wtp"" style=""text-align:center; margin-top: 0px; margin-bottom: 0px; font-size: 40px"";>מוכנים לשלם: <span id=""c_p_y""></span></p>","40","evaluation","49","18","11B,19B,24A,26A","75","43","40","","","","","","","","","","","","","","","","",""
"","","","","","html-keyboard-response","86","1056463","0.0-17.0-2.22","b3bb97c4-33cd-4328-8d02-6c63a5a88b71","null","<p style=""text-align: center;"">+</p>","null","fixation","","","","","","","","","","","","","","","","","","","","","","",""
"","","","","","html-slider-response","87","1057464","0.0-17.0-0.23","b3bb97c4-33cd-4328-8d02-6c63a5a88b71","1000","
                  <p style=""text-align: center;"">₪11
                                                <br>75%</p>
                  <p id=""wtp"" style=""text-align:center; margin-top: 0px; margin-bottom: 0px; font-size: 40px"";>&ensp;</p>","-","viewing","0","7","6B,18B,22C,24C,29A","","","","","","","","","","","","","","","","","","","",""
"","","","","","html-slider-response","88","1059402","0.0-17.0-1.23","b3bb97c4-33cd-4328-8d02-6c63a5a88b71","1937","
                  <p style=""text-align: center;"">₪11
                                                <br>75%</p>
                  <p id=""wtp"" style=""text-align:center; margin-top: 0px; margin-bottom: 0px; font-size: 40px"";>מוכנים לשלם: <span id=""c_p_y""></span></p>","9","evaluation","40","7","6B,18B,22C,24C,29A","75","11","9","","","","","","","","","","","","","","","","",""
"","","","","","html-keyboard-response","89","1060684","0.0-17.0-2.23","b3bb97c4-33cd-4328-8d02-6c63a5a88b71","null","<p style=""text-align: center;"">+</p>","null","fixation","","","","","","","","","","","","","","","","","","","","","","",""
"","","","","","html-slider-response","90","1061699","0.0-17.0-0.24","b3bb97c4-33cd-4328-8d02-6c63a5a88b71","1000","
                  <p style=""text-align: center;"">₪61
                                                <br>45%</p>
                  <p id=""wtp"" style=""text-align:center; margin-top: 0px; margin-bottom: 0px; font-size: 40px"";>&ensp;</p>","-","viewing","0","22","10A,11A","","","","","","","","","","","","","","","","","","","",""
"","","","","","html-slider-response","91","1063906","0.0-17.0-1.24","b3bb97c4-33cd-4328-8d02-6c63a5a88b71","2207","
                  <p style=""text-align: center;"">₪61
                                                <br>45%</p>
                  <p id=""wtp"" style=""text-align:center; margin-top: 0px; margin-bottom: 0px; font-size: 40px"";>מוכנים לשלם: <span id=""c_p_y""></span></p>","23","evaluation","15","22","10A,11A","45","61","23","","","","","","","","","","","","","","","","",""
"","","","","","html-keyboard-response","92","1064653","0.0-17.0-2.24","b3bb97c4-33cd-4328-8d02-6c63a5a88b71","null","<p style=""text-align: center;"">+</p>","null","fixation","","","","","","","","","","","","","","","","","","","","","","",""
"","","","","","html-slider-response","93","1065669","0.0-17.0-0.25","b3bb97c4-33cd-4328-8d02-6c63a5a88b71","1000","
                  <p style=""text-align: center;"">₪39
                                                <br>65%</p>
                  <p id=""wtp"" style=""text-align:center; margin-top: 0px; margin-bottom: 0px; font-size: 40px"";>&ensp;</p>","-","viewing","0","16","1A,15A,26C","","","","","","","","","","","","","","","","","","","",""
"","","","","","html-slider-response","94","1067322","0.0-17.0-1.25","b3bb97c4-33cd-4328-8d02-6c63a5a88b71","1652","
                  <p style=""text-align: center;"">₪39
                                                <br>65%</p>
                  <p id=""wtp"" style=""text-align:center; margin-top: 0px; margin-bottom: 0px; font-size: 40px"";>מוכנים לשלם: <span id=""c_p_y""></span></p>","13","evaluation","22","16","1A,15A,26C","65","39","13","","","","","","","","","","","","","","","","",""
"","","","","","html-keyboard-response","95","1067964","0.0-17.0-2.25","b3bb97c4-33cd-4328-8d02-6c63a5a88b71","null","<p style=""text-align: center;"">+</p>","null","fixation","","","","","","","","","","","","","","","","","","","","","","",""
"","","","","","html-slider-response","96","1068970","0.0-17.0-0.26","b3bb97c4-33cd-4328-8d02-6c63a5a88b71","1000","
                  <p style=""text-align: center;"">₪64
                                                <br>50%</p>
                  <p id=""wtp"" style=""text-align:center; margin-top: 0px; margin-bottom: 0px; font-size: 40px"";>&ensp;</p>","-","viewing","0","25","1B,3B,4A","","","","","","","","","","","","","","","","","","","",""
"","","","","","html-slider-response","97","1071099","0.0-17.0-1.26","b3bb97c4-33cd-4328-8d02-6c63a5a88b71","2127","
                  <p style=""text-align: center;"">₪64
                                                <br>50%</p>
                  <p id=""wtp"" style=""text-align:center; margin-top: 0px; margin-bottom: 0px; font-size: 40px"";>מוכנים לשלם: <span id=""c_p_y""></span></p>","33","evaluation","29","25","1B,3B,4A","50","64","33","","","","","","","","","","","","","","","","",""
"","","","","","html-keyboard-response","98","1071902","0.0-17.0-2.26","b3bb97c4-33cd-4328-8d02-6c63a5a88b71","null","<p style=""text-align: center;"">+</p>","null","fixation","","","","","","","","","","","","","","","","","","","","","","",""
"","","","","","html-slider-response","99","1072916","0.0-17.0-0.27","b3bb97c4-33cd-4328-8d02-6c63a5a88b71","1000","
                  <p style=""text-align: center;"">₪79
                                                <br>65%</p>
                  <p id=""wtp"" style=""text-align:center; margin-top: 0px; margin-bottom: 0px; font-size: 40px"";>&ensp;</p>","-","viewing","0","31","8A","","","","","","","","","","","","","","","","","","","",""
"","","","","","html-slider-response","100","1074818","0.0-17.0-1.27","b3bb97c4-33cd-4328-8d02-6c63a5a88b71","1902","
                  <p style=""text-align: center;"">₪79
                                                <br>65%</p>
                  <p id=""wtp"" style=""text-align:center; margin-top: 0px; margin-bottom: 0px; font-size: 40px"";>מוכנים לשלם: <span id=""c_p_y""></span></p>","36","evaluation","31","31","8A","65","79","36","","","","","","","","","","","","","","","","",""
"","","","","","html-keyboard-response","101","1075944","0.0-17.0-2.27","b3bb97c4-33cd-4328-8d02-6c63a5a88b71","null","<p style=""text-align: center;"">+</p>","null","fixation","","","","","","","","","","","","","","","","","","","","","","",""
"","","","","","html-slider-response","102","1076945","0.0-17.0-0.28","b3bb97c4-33cd-4328-8d02-6c63a5a88b71","1000","
                  <p style=""text-align: center;"">₪58
                                                <br>40%</p>
                  <p id=""wtp"" style=""text-align:center; margin-top: 0px; margin-bottom: 0px; font-size: 40px"";>&ensp;</p>","-","viewing","0","20","10C,13A,19C,21B","","","","","","","","","","","","","","","","","","","",""
"","","","","","html-slider-response","103","1079018","0.0-17.0-1.28","b3bb97c4-33cd-4328-8d02-6c63a5a88b71","2072","
                  <p style=""text-align: center;"">₪58
                                                <br>40%</p>
                  <p id=""wtp"" style=""text-align:center; margin-top: 0px; margin-bottom: 0px; font-size: 40px"";>מוכנים לשלם: <span id=""c_p_y""></span></p>","10","evaluation","73","20","10C,13A,19C,21B","40","58","10","","","","","","","","","","","","","","","","",""
"","","","","","html-keyboard-response","104","1079886","0.0-17.0-2.28","b3bb97c4-33cd-4328-8d02-6c63a5a88b71","null","<p style=""text-align: center;"">+</p>","null","fixation","","","","","","","","","","","","","","","","","","","","","","",""
"","","","","","html-slider-response","105","1080888","0.0-17.0-0.29","b3bb97c4-33cd-4328-8d02-6c63a5a88b71","1000","
                  <p style=""text-align: center;"">₪64
                                                <br>25%</p>
                  <p id=""wtp"" style=""text-align:center; margin-top: 0px; margin-bottom: 0px; font-size: 40px"";>&ensp;</p>","-","viewing","0","24","6A,21A","","","","","","","","","","","","","","","","","","","",""
"","","","","","html-slider-response","106","1082610","0.0-17.0-1.29","b3bb97c4-33cd-4328-8d02-6c63a5a88b71","1721","
                  <p style=""text-align: center;"">₪64
                                                <br>25%</p>
                  <p id=""wtp"" style=""text-align:center; margin-top: 0px; margin-bottom: 0px; font-size: 40px"";>מוכנים לשלם: <span id=""c_p_y""></span></p>","27","evaluation","50","24","6A,21A","25","64","27","","","","","","","","","","","","","","","","",""
"","","","","","html-keyboard-response","107","1083645","0.0-17.0-2.29","b3bb97c4-33cd-4328-8d02-6c63a5a88b71","null","<p style=""text-align: center;"">+</p>","null","fixation","","","","","","","","","","","","","","","","","","","","","","",""
"","","","","","html-slider-response","108","1084655","0.0-17.0-0.30","b3bb97c4-33cd-4328-8d02-6c63a5a88b71","1000","
                  <p style=""text-align: center;"">₪4
                                                <br>75%</p>
                  <p id=""wtp"" style=""text-align:center; margin-top: 0px; margin-bottom: 0px; font-size: 40px"";>&ensp;</p>","-","viewing","0","3","12B,20B,23B,27C,29C","","","","","","","","","","","","","","","","","","","",""
"","","","","","html-slider-response","109","1086058","0.0-17.0-1.30","b3bb97c4-33cd-4328-8d02-6c63a5a88b71","1402","
                  <p style=""text-align: center;"">₪4
                                                <br>75%</p>
                  <p id=""wtp"" style=""text-align:center; margin-top: 0px; margin-bottom: 0px; font-size: 40px"";>מוכנים לשלם: <span id=""c_p_y""></span></p>","2","evaluation","34","3","12B,20B,23B,27C,29C","75","4","2","","","","","","","","","","","","","","","","",""
"","","","","","html-keyboard-response","110","1087172","0.0-17.0-2.30","b3bb97c4-33cd-4328-8d02-6c63a5a88b71","null","<p style=""text-align: center;"">+</p>","null","fixation","","","","","","","","","","","","","","","","","","","","","","",""
"","","","","","html-keyboard-response","111","1088184","0.0-18.0","b3bb97c4-33cd-4328-8d02-6c63a5a88b71","null","<p style=""text-align: center;"">+</p>","null","fixation","","","","","","","","","","","","","","","","","","","","","","",""
"","","","","","html-keyboard-response","112","1090082","0.0-19.0","b3bb97c4-33cd-4328-8d02-6c63a5a88b71","null","<p>הפסקה.
          <br>לחצו כדי להמשיך.</p>","1","scan_wait","","","","","","","","","","","","","","","","","","","","","","",""
"","","","","","html-keyboard-response","113","1091095","0.0-20.0","b3bb97c4-33cd-4328-8d02-6c63a5a88b71","null","<p style=""text-align: center;"">+</p>","null","fixation","","","","","","","","","","","","","","","","","","","","","","",""
"","","","","","html-slider-response","114","1092096","0.0-21.0-0.0","b3bb97c4-33cd-4328-8d02-6c63a5a88b71","1000","
                  <p style=""text-align: center;"">₪36
                                                <br>75%</p>
                  <p id=""wtp"" style=""text-align:center; margin-top: 0px; margin-bottom: 0px; font-size: 40px"";>&ensp;</p>","-","viewing","0","14","4B,5A,13B,16B","","","","","","","","","","","","","","","","","","","",""
"","","","","","html-slider-response","115","1093674","0.0-21.0-1.0","b3bb97c4-33cd-4328-8d02-6c63a5a88b71","1577","
                  <p style=""text-align: center;"">₪36
                                                <br>75%</p>
                  <p id=""wtp"" style=""text-align:center; margin-top: 0px; margin-bottom: 0px; font-size: 40px"";>מוכנים לשלם: <span id=""c_p_y""></span></p>","19","evaluation","10","14","4B,5A,13B,16B","75","36","20","","","","","","","","","","","","","","","","",""
"","","","","","html-keyboard-response","116","1094925","0.0-21.0-2.0","b3bb97c4-33cd-4328-8d02-6c63a5a88b71","null","<p style=""text-align: center;"">+</p>","null","fixation","","","","","","","","","","","","","","","","","","","","","","",""
"","","","","","html-slider-response","117","1095927","0.0-21.0-0.1","b3bb97c4-33cd-4328-8d02-6c63a5a88b71","1000","
                  <p style=""text-align: center;"">₪71
                                                <br>45%</p>
                  <p id=""wtp"" style=""text-align:center; margin-top: 0px; margin-bottom: 0px; font-size: 40px"";>&ensp;</p>","-","viewing","0","26","2B,16A","","","","","","","","","","","","","","","","","","","",""
"","","","","","html-slider-response","118","1096922","0.0-21.0-1.1","b3bb97c4-33cd-4328-8d02-6c63a5a88b71","995","
                  <p style=""text-align: center;"">₪71
                                                <br>45%</p>
                  <p id=""wtp"" style=""text-align:center; margin-top: 0px; margin-bottom: 0px; font-size: 40px"";>מוכנים לשלם: <span id=""c_p_y""></span></p>","9","evaluation","57","26","2B,16A","45","71","10","","","","","","","","","","","","","","","","",""
"","","","","","html-keyboard-response","119","1097662","0.0-21.0-2.1","b3bb97c4-33cd-4328-8d02-6c63a5a88b71","null","<p style=""text-align: center;"">+</p>","null","fixation","","","","","","","","","","","","","","","","","","","","","","",""
"","","","","","html-slider-response","120","1098666","0.0-21.0-0.2","b3bb97c4-33cd-4328-8d02-6c63a5a88b71","1000","
                  <p style=""text-align: center;"">₪11
                                                <br>25%</p>
                  <p id=""wtp"" style=""text-align:center; margin-top: 0px; margin-bottom: 0px; font-size: 40px"";>&ensp;</p>","-","viewing","0","5","12A,27B,28B,30B","","","","","","","","","","","","","","","","","","","",""
"","","","","","html-slider-response","121","1100234","0.0-21.0-1.2","b3bb97c4-33cd-4328-8d02-6c63a5a88b71","1568","
                  <p style=""text-align: center;"">₪11
                                                <br>25%</p>
                  <p id=""wtp"" style=""text-align:center; margin-top: 0px; margin-bottom: 0px; font-size: 40px"";>מוכנים לשלם: <span id=""c_p_y""></span></p>","2","evaluation","10","5","12A,27B,28B,30B","25","11","3","","","","","","","","","","","","","","","","",""
"","","","","","html-keyboard-response","122","1100915","0.0-21.0-2.2","b3bb97c4-33cd-4328-8d02-6c63a5a88b71","null","<p style=""text-align: center;"">+</p>","null","fixation","","","","","","","","","","","","","","","","","","","","","","",""
"","","","","","html-slider-response","123","1101925","0.0-21.0-0.3","b3bb97c4-33cd-4328-8d02-6c63a5a88b71","1000","
                  <p style=""text-align: center;"">₪11
                                                <br>45%</p>
                  <p id=""wtp"" style=""text-align:center; margin-top: 0px; margin-bottom: 0px; font-size: 40px"";>&ensp;</p>","-","viewing","0","6","14B,21C,25C","","","","","","","","","","","","","","","","","","","",""
"","","","","","html-slider-response","124","1105258","0.0-21.0-1.3","b3bb97c4-33cd-4328-8d02-6c63a5a88b71","3333","
                  <p style=""text-align: center;"">₪11
                                                <br>45%</p>
                  <p id=""wtp"" style=""text-align:center; margin-top: 0px; margin-bottom: 0px; font-size: 40px"";>מוכנים לשלם: <span id=""c_p_y""></span></p>","7","evaluation","21","6","14B,21C,25C","45","11","7","","","","","","","","","","","","","","","","",""
"","","","","","html-keyboard-response","125","1106056","0.0-21.0-2.3","b3bb97c4-33cd-4328-8d02-6c63a5a88b71","null","<p style=""text-align: center;"">+</p>","null","fixation","","","","","","","","","","","","","","","","","","","","","","",""
"","","","","","html-slider-response","126","1107059","0.0-21.0-0.4","b3bb97c4-33cd-4328-8d02-6c63a5a88b71","1000","
                  <p style=""text-align: center;"">₪11
                                                <br>20%</p>
                  <p id=""wtp"" style=""text-align:center; margin-top: 0px; margin-bottom: 0px; font-size: 40px"";>&ensp;</p>","-","viewing","0","4","12C,17C,23C,28C","","","","","","","","","","","","","","","","","","","",""
"","","","","","html-slider-response","127","1109066","0.0-21.0-1.4","b3bb97c4-33cd-4328-8d02-6c63a5a88b71","2007","
                  <p style=""text-align: center;"">₪11
                                                <br>20%</p>
                  <p id=""wtp"" style=""text-align:center; margin-top: 0px; margin-bottom: 0px; font-size: 40px"";>מוכנים לשלם: <span id=""c_p_y""></span></p>","4","evaluation","39","4","12C,17C,23C,28C","20","11","4","","","","","","","","","","","","","","","","",""
"","","","","","html-keyboard-response","128","1109612","0.0-21.0-2.4","b3bb97c4-33cd-4328-8d02-6c63a5a88b71","null","<p style=""text-align: center;"">+</p>","null","fixation","","","","","","","","","","","","","","","","","","","","","","",""
"","","","","","html-slider-response","129","1110615","0.0-21.0-0.5","b3bb97c4-33cd-4328-8d02-6c63a5a88b71","1000","
                  <p style=""text-align: center;"">₪4
                                                <br>75%</p>
                  <p id=""wtp"" style=""text-align:center; margin-top: 0px; margin-bottom: 0px; font-size: 40px"";>&ensp;</p>","-","viewing","0","3","12B,20B,23B,27C,29C","","","","","","","","","","","","","","","","","","","",""
"","","","","","html-slider-response","130","1113186","0.0-21.0-1.5","b3bb97c4-33cd-4328-8d02-6c63a5a88b71","2570","
                  <p style=""text-align: center;"">₪4
                                                <br>75%</p>
                  <p id=""wtp"" style=""text-align:center; margin-top: 0px; margin-bottom: 0px; font-size: 40px"";>מוכנים לשלם: <span id=""c_p_y""></span></p>","1","evaluation","55","3","12B,20B,23B,27C,29C","75","4","2","","","","","","","","","","","","","","","","",""
"","","","","","html-keyboard-response","131","1114123","0.0-21.0-2.5","b3bb97c4-33cd-4328-8d02-6c63a5a88b71","null","<p style=""text-align: center;"">+</p>","null","fixation","","","","","","","","","","","","","","","","","","","","","","",""
"","","","","","html-slider-response","132","1115136","0.0-21.0-0.6","b3bb97c4-33cd-4328-8d02-6c63a5a88b71","1000","
                  <p style=""text-align: center;"">₪79
                                                <br>65%</p>
                  <p id=""wtp"" style=""text-align:center; margin-top: 0px; margin-bottom: 0px; font-size: 40px"";>&ensp;</p>","-","viewing","0","31","8A","","","","","","","","","","","","","","","","","","","",""
"","","","","","html-slider-response","133","1117658","0.0-21.0-1.6","b3bb97c4-33cd-4328-8d02-6c63a5a88b71","2522","
                  <p style=""text-align: center;"">₪79
                                                <br>65%</p>
                  <p id=""wtp"" style=""text-align:center; margin-top: 0px; margin-bottom: 0px; font-size: 40px"";>מוכנים לשלם: <span id=""c_p_y""></span></p>","42","evaluation","5","31","8A","65","79","42","","","","","","","","","","","","","","","","",""
"","","","","","html-keyboard-response","134","1118642","0.0-21.0-2.6","b3bb97c4-33cd-4328-8d02-6c63a5a88b71","null","<p style=""text-align: center;"">+</p>","null","fixation","","","","","","","","","","","","","","","","","","","","","","",""
"","","","","","html-slider-response","135","1119657","0.0-21.0-0.7","b3bb97c4-33cd-4328-8d02-6c63a5a88b71","1000","
                  <p style=""text-align: center;"">₪43
                                                <br>75%</p>
                  <p id=""wtp"" style=""text-align:center; margin-top: 0px; margin-bottom: 0px; font-size: 40px"";>&ensp;</p>","-","viewing","0","18","11B,19B,24A,26A","","","","","","","","","","","","","","","","","","","",""
"","","","","","html-slider-response","136","1123354","0.0-21.0-1.7","b3bb97c4-33cd-4328-8d02-6c63a5a88b71","3697","
                  <p style=""text-align: center;"">₪43
                                                <br>75%</p>
                  <p id=""wtp"" style=""text-align:center; margin-top: 0px; margin-bottom: 0px; font-size: 40px"";>מוכנים לשלם: <span id=""c_p_y""></span></p>","31","evaluation","14","18","11B,19B,24A,26A","75","43","31","","","","","","","","","","","","","","","","",""
"","","","","","html-keyboard-response","137","1124474","0.0-21.0-2.7","b3bb97c4-33cd-4328-8d02-6c63a5a88b71","null","<p style=""text-align: center;"">+</p>","null","fixation","","","","","","","","","","","","","","","","","","","","","","",""
"","","","","","html-slider-response","138","1125475","0.0-21.0-0.8","b3bb97c4-33cd-4328-8d02-6c63a5a88b71","1000","
                  <p style=""text-align: center;"">₪61
                                                <br>45%</p>
                  <p id=""wtp"" style=""text-align:center; margin-top: 0px; margin-bottom: 0px; font-size: 40px"";>&ensp;</p>","-","viewing","0","22","10A,11A","","","","","","","","","","","","","","","","","","","",""
"","","","","","html-slider-response","139","1127081","0.0-21.0-1.8","b3bb97c4-33cd-4328-8d02-6c63a5a88b71","1607","
                  <p style=""text-align: center;"">₪61
                                                <br>45%</p>
                  <p id=""wtp"" style=""text-align:center; margin-top: 0px; margin-bottom: 0px; font-size: 40px"";>מוכנים לשלם: <span id=""c_p_y""></span></p>","14","evaluation","33","22","10A,11A","45","61","15","","","","","","","","","","","","","","","","",""
"","","","","","html-keyboard-response","140","1128590","0.0-21.0-2.8","b3bb97c4-33cd-4328-8d02-6c63a5a88b71","null","<p style=""text-align: center;"">+</p>","null","fixation","","","","","","","","","","","","","","","","","","","","","","",""
"","","","","","html-slider-response","141","1129599","0.0-21.0-0.9","b3bb97c4-33cd-4328-8d02-6c63a5a88b71","1000","
                  <p style=""text-align: center;"">₪36
                                                <br>70%</p>
                  <p id=""wtp"" style=""text-align:center; margin-top: 0px; margin-bottom: 0px; font-size: 40px"";>&ensp;</p>","-","viewing","0","13","3A,5C,10B","","","","","","","","","","","","","","","","","","","",""
"","","","","","html-slider-response","142","1131913","0.0-21.0-1.9","b3bb97c4-33cd-4328-8d02-6c63a5a88b71","2314","
                  <p style=""text-align: center;"">₪36
                                                <br>70%</p>
                  <p id=""wtp"" style=""text-align:center; margin-top: 0px; margin-bottom: 0px; font-size: 40px"";>מוכנים לשלם: <span id=""c_p_y""></span></p>","36","evaluation","50","13","3A,5C,10B","70","36","36","","","","","","","","","","","","","","","","",""
"","","","","","html-keyboard-response","143","1133029","0.0-21.0-2.9","b3bb97c4-33cd-4328-8d02-6c63a5a88b71","null","<p style=""text-align: center;"">+</p>","null","fixation","","","","","","","","","","","","","","","","","","","","","","",""
"","","","","","html-slider-response","144","1134033","0.0-21.0-0.10","b3bb97c4-33cd-4328-8d02-6c63a5a88b71","1000","
                  <p style=""text-align: center;"">₪18
                                                <br>25%</p>
                  <p id=""wtp"" style=""text-align:center; margin-top: 0px; margin-bottom: 0px; font-size: 40px"";>&ensp;</p>","-","viewing","0","9","14A,23A","","","","","","","","","","","","","","","","","","","",""
"","","","","","html-slider-response","145","1135666","0.0-21.0-1.10","b3bb97c4-33cd-4328-8d02-6c63a5a88b71","1632","
                  <p style=""text-align: center;"">₪18
                                                <br>25%</p>
                  <p id=""wtp"" style=""text-align:center; margin-top: 0px; margin-bottom: 0px; font-size: 40px"";>מוכנים לשלם: <span id=""c_p_y""></span></p>","3","evaluation","22","9","14A,23A","25","18","3","","","","","","","","","","","","","","","","",""
"","","","","","html-keyboard-response","146","1136543","0.0-21.0-2.10","b3bb97c4-33cd-4328-8d02-6c63a5a88b71","null","<p style=""text-align: center;"">+</p>","null","fixation","","","","","","","","","","","","","","","","","","","","","","",""
"","","","","","html-slider-response","147","1137554","0.0-21.0-0.11","b3bb97c4-33cd-4328-8d02-6c63a5a88b71","1000","
                  <p style=""text-align: center;"">₪64
                                                <br>50%</p>
                  <p id=""wtp"" style=""text-align:center; margin-top: 0px; margin-bottom: 0px; font-size: 40px"";>&ensp;</p>","-","viewing","0","25","1B,3B,4A","","","","","","","","","","","","","","","","","","","",""
"","","","","","html-slider-response","148","1139082","0.0-21.0-1.11","b3bb97c4-33cd-4328-8d02-6c63a5a88b71","1526","
                  <p style=""text-align: center;"">₪64
                                                <br>50%</p>
                  <p id=""wtp"" style=""text-align:center; margin-top: 0px; margin-bottom: 0px; font-size: 40px"";>מוכנים לשלם: <span id=""c_p_y""></span></p>","28","evaluation","69","25","1B,3B,4A","50","64","28","","","","","","","","","","","","","","","","",""
"","","","","","html-keyboard-response","149","1139843","0.0-21.0-2.11","b3bb97c4-33cd-4328-8d02-6c63a5a88b71","null","<p style=""text-align: center;"">+</p>","null","fixation","","","","","","","","","","","","","","","","","","","","","","",""
"","","","","","html-slider-response","150","1140845","0.0-21.0-0.12","b3bb97c4-33cd-4328-8d02-6c63a5a88b71","1000","
                  <p style=""text-align: center;"">₪16
                                                <br>20%</p>
                  <p id=""wtp"" style=""text-align:center; margin-top: 0px; margin-bottom: 0px; font-size: 40px"";>&ensp;</p>","-","viewing","0","8","14C,17A,20C,27A","","","","","","","","","","","","","","","","","","","",""
"","","","","","html-slider-response","151","1142874","0.0-21.0-1.12","b3bb97c4-33cd-4328-8d02-6c63a5a88b71","2028","
                  <p style=""text-align: center;"">₪16
                                                <br>20%</p>
                  <p id=""wtp"" style=""text-align:center; margin-top: 0px; margin-bottom: 0px; font-size: 40px"";>מוכנים לשלם: <span id=""c_p_y""></span></p>","9","evaluation","74","8","14C,17A,20C,27A","20","16","9","","","","","","","","","","","","","","","","",""
"","","","","","html-keyboard-response","152","1143723","0.0-21.0-2.12","b3bb97c4-33cd-4328-8d02-6c63a5a88b71","null","<p style=""text-align: center;"">+</p>","null","fixation","","","","","","","","","","","","","","","","","","","","","","",""
"","","","","","html-slider-response","153","1144730","0.0-21.0-0.13","b3bb97c4-33cd-4328-8d02-6c63a5a88b71","1000","
                  <p style=""text-align: center;"">₪64
                                                <br>25%</p>
                  <p id=""wtp"" style=""text-align:center; margin-top: 0px; margin-bottom: 0px; font-size: 40px"";>&ensp;</p>","-","viewing","0","24","6A,21A","","","","","","","","","","","","","","","","","","","",""
"","","","","","html-slider-response","154","1147538","0.0-21.0-1.13","b3bb97c4-33cd-4328-8d02-6c63a5a88b71","2807","
                  <p style=""text-align: center;"">₪64
                                                <br>25%</p>
                  <p id=""wtp"" style=""text-align:center; margin-top: 0px; margin-bottom: 0px; font-size: 40px"";>מוכנים לשלם: <span id=""c_p_y""></span></p>","15","evaluation","26","24","6A,21A","25","64","15","","","","","","","","","","","","","","","","",""
"","","","","","html-keyboard-response","155","1148557","0.0-21.0-2.13","b3bb97c4-33cd-4328-8d02-6c63a5a88b71","null","<p style=""text-align: center;"">+</p>","null","fixation","","","","","","","","","","","","","","","","","","","","","","",""
"","","","","","html-slider-response","156","1149568","0.0-21.0-0.14","b3bb97c4-33cd-4328-8d02-6c63a5a88b71","1000","
                  <p style=""text-align: center;"">₪39
                                                <br>60%</p>
                  <p id=""wtp"" style=""text-align:center; margin-top: 0px; margin-bottom: 0px; font-size: 40px"";>&ensp;</p>","-","viewing","0","15","9C,25B","","","","","","","","","","","","","","","","","","","",""
"","","","","","html-slider-response","157","1150770","0.0-21.0-1.14","b3bb97c4-33cd-4328-8d02-6c63a5a88b71","1200","
                  <p style=""text-align: center;"">₪39
                                                <br>60%</p>
                  <p id=""wtp"" style=""text-align:center; margin-top: 0px; margin-bottom: 0px; font-size: 40px"";>מוכנים לשלם: <span id=""c_p_y""></span></p>","19","evaluation","66","15","9C,25B","60","39","19","","","","","","","","","","","","","","","","",""
"","","","","","html-keyboard-response","158","1151492","0.0-21.0-2.14","b3bb97c4-33cd-4328-8d02-6c63a5a88b71","null","<p style=""text-align: center;"">+</p>","null","fixation","","","","","","","","","","","","","","","","","","","","","","",""
"","","","","","html-slider-response","159","1152506","0.0-21.0-0.15","b3bb97c4-33cd-4328-8d02-6c63a5a88b71","1000","
                  <p style=""text-align: center;"">₪58
                                                <br>45%</p>
                  <p id=""wtp"" style=""text-align:center; margin-top: 0px; margin-bottom: 0px; font-size: 40px"";>&ensp;</p>","-","viewing","0","21","11C,18C,25A","","","","","","","","","","","","","","","","","","","",""
"","","","","","html-slider-response","160","1154586","0.0-21.0-1.15","b3bb97c4-33cd-4328-8d02-6c63a5a88b71","2079","
                  <p style=""text-align: center;"">₪58
                                                <br>45%</p>
                  <p id=""wtp"" style=""text-align:center; margin-top: 0px; margin-bottom: 0px; font-size: 40px"";>מוכנים לשלם: <span id=""c_p_y""></span></p>","26","evaluation","76","21","11C,18C,25A","45","58","26","","","","","","","","","","","","","","","","",""
"","","","","","html-keyboard-response","161","1155979","0.0-21.0-2.15","b3bb97c4-33cd-4328-8d02-6c63a5a88b71","null","<p style=""text-align: center;"">+</p>","null","fixation","","","","","","","","","","","","","","","","","","","","","","",""
"","","","","","html-slider-response","162","1156993","0.0-21.0-0.16","b3bb97c4-33cd-4328-8d02-6c63a5a88b71","1000","
                  <p style=""text-align: center;"">₪39
                                                <br>65%</p>
                  <p id=""wtp"" style=""text-align:center; margin-top: 0px; margin-bottom: 0px; font-size: 40px"";>&ensp;</p>","-","viewing","0","16","1A,15A,26C","","","","","","","","","","","","","","","","","","","",""
"","","","","","html-slider-response","163","1158514","0.0-21.0-1.16","b3bb97c4-33cd-4328-8d02-6c63a5a88b71","1519","
                  <p style=""text-align: center;"">₪39
                                                <br>65%</p>
                  <p id=""wtp"" style=""text-align:center; margin-top: 0px; margin-bottom: 0px; font-size: 40px"";>מוכנים לשלם: <span id=""c_p_y""></span></p>","22","evaluation","68","16","1A,15A,26C","65","39","22","","","","","","","","","","","","","","","","",""
"","","","","","html-keyboard-response","164","1159717","0.0-21.0-2.16","b3bb97c4-33cd-4328-8d02-6c63a5a88b71","null","<p style=""text-align: center;"">+</p>","null","fixation","","","","","","","","","","","","","","","","","","","","","","",""
"","","","","","html-slider-response","165","1160731","0.0-21.0-0.17","b3bb97c4-33cd-4328-8d02-6c63a5a88b71","1000","
                  <p style=""text-align: center;"">₪4
                                                <br>25%</p>
                  <p id=""wtp"" style=""text-align:center; margin-top: 0px; margin-bottom: 0px; font-size: 40px"";>&ensp;</p>","-","viewing","0","1","6C,29B,30C","","","","","","","","","","","","","","","","","","","",""
"","","","","","html-slider-response","166","1162322","0.0-21.0-1.17","b3bb97c4-33cd-4328-8d02-6c63a5a88b71","1590","
                  <p style=""text-align: center;"">₪4
                                                <br>25%</p>
                  <p id=""wtp"" style=""text-align:center; margin-top: 0px; margin-bottom: 0px; font-size: 40px"";>מוכנים לשלם: <span id=""c_p_y""></span></p>","0","evaluation","61","1","6C,29B,30C","25","4","1","","","","","","","","","","","","","","","","",""
"","","","","","html-keyboard-response","167","1162945","0.0-21.0-2.17","b3bb97c4-33cd-4328-8d02-6c63a5a88b71","null","<p style=""text-align: center;"">+</p>","null","fixation","","","","","","","","","","","","","","","","","","","","","","",""
"","","","","","html-slider-response","168","1163947","0.0-21.0-0.18","b3bb97c4-33cd-4328-8d02-6c63a5a88b71","1000","
                  <p style=""text-align: center;"">₪43
                                                <br>60%</p>
                  <p id=""wtp"" style=""text-align:center; margin-top: 0px; margin-bottom: 0px; font-size: 40px"";>&ensp;</p>","-","viewing","0","17","2A,7A,9A,15B","","","","","","","","","","","","","","","","","","","",""
"","","","","","html-slider-response","169","1167442","0.0-21.0-1.18","b3bb97c4-33cd-4328-8d02-6c63a5a88b71","3493","
                  <p style=""text-align: center;"">₪43
                                                <br>60%</p>
                  <p id=""wtp"" style=""text-align:center; margin-top: 0px; margin-bottom: 0px; font-size: 40px"";>מוכנים לשלם: <span id=""c_p_y""></span></p>","24","evaluation","71","17","2A,7A,9A,15B","60","43","24","","","","","","","","","","","","","","","","",""
"","","","","","html-keyboard-response","170","1168567","0.0-21.0-2.18","b3bb97c4-33cd-4328-8d02-6c63a5a88b71","null","<p style=""text-align: center;"">+</p>","null","fixation","","","","","","","","","","","","","","","","","","","","","","",""
"","","","","","html-slider-response","171","1169573","0.0-21.0-0.19","b3bb97c4-33cd-4328-8d02-6c63a5a88b71","1000","
                  <p style=""text-align: center;"">₪58
                                                <br>30%</p>
                  <p id=""wtp"" style=""text-align:center; margin-top: 0px; margin-bottom: 0px; font-size: 40px"";>&ensp;</p>","-","viewing","0","19","13C,30A","","","","","","","","","","","","","","","","","","","",""
"","","","","","html-slider-response","172","1171850","0.0-21.0-1.19","b3bb97c4-33cd-4328-8d02-6c63a5a88b71","2276","
                  <p style=""text-align: center;"">₪58
                                                <br>30%</p>
                  <p id=""wtp"" style=""text-align:center; margin-top: 0px; margin-bottom: 0px; font-size: 40px"";>מוכנים לשלם: <span id=""c_p_y""></span></p>","11","evaluation","35","19","13C,30A","30","58","11","","","","","","","","","","","","","","","","",""
"","","","","","html-keyboard-response","173","1173216","0.0-21.0-2.19","b3bb97c4-33cd-4328-8d02-6c63a5a88b71","null","<p style=""text-align: center;"">+</p>","null","fixation","","","","","","","","","","","","","","","","","","","","","","",""
"","","","","","html-slider-response","174","1174224","0.0-21.0-0.20","b3bb97c4-33cd-4328-8d02-6c63a5a88b71","1000","
                  <p style=""text-align: center;"">₪18
                                                <br>50%</p>
                  <p id=""wtp"" style=""text-align:center; margin-top: 0px; margin-bottom: 0px; font-size: 40px"";>&ensp;</p>","-","viewing","0","10","2C,16C,22B,28A","","","","","","","","","","","","","","","","","","","",""
"","","","","","html-slider-response","175","1178227","0.0-21.0-1.20","b3bb97c4-33cd-4328-8d02-6c63a5a88b71","null","
                  <p style=""text-align: center;"">₪18
                                                <br>50%</p>
                  <p id=""wtp"" style=""text-align:center; margin-top: 0px; margin-bottom: 0px; font-size: 40px"";>מוכנים לשלם: <span id=""c_p_y""></span></p>","null","evaluation","26","10","2C,16C,22B,28A","50","18","9","","","","","","","","","","","","","","","","",""
"","","","","","html-keyboard-response","176","1178988","0.0-21.0-2.20","b3bb97c4-33cd-4328-8d02-6c63a5a88b71","null","<p style=""text-align: center;"">+</p>","null","fixation","","","","","","","","","","","","","","","","","","","","","","",""
"","","","","","html-slider-response","177","1179995","0.0-21.0-0.21","b3bb97c4-33cd-4328-8d02-6c63a5a88b71","1000","
                  <p style=""text-align: center;"">₪71
                                                <br>75%</p>
                  <p id=""wtp"" style=""text-align:center; margin-top: 0px; margin-bottom: 0px; font-size: 40px"";>&ensp;</p>","-","viewing","0","28","8B","","","","","","","","","","","","","","","","","","","",""
"","","","","","html-slider-response","178","1181746","0.0-21.0-1.21","b3bb97c4-33cd-4328-8d02-6c63a5a88b71","1750","
                  <p style=""text-align: center;"">₪71
                                                <br>75%</p>
                  <p id=""wtp"" style=""text-align:center; margin-top: 0px; margin-bottom: 0px; font-size: 40px"";>מוכנים לשלם: <span id=""c_p_y""></span></p>","26","evaluation","78","28","8B","75","71","26","","","","","","","","","","","","","","","","",""
"","","","","","html-keyboard-response","179","1182659","0.0-21.0-2.21","b3bb97c4-33cd-4328-8d02-6c63a5a88b71","null","<p style=""text-align: center;"">+</p>","null","fixation","","","","","","","","","","","","","","","","","","","","","","",""
"","","","","","html-slider-response","180","1183660","0.0-21.0-0.22","b3bb97c4-33cd-4328-8d02-6c63a5a88b71","1000","
                  <p style=""text-align: center;"">₪11
                                                <br>75%</p>
                  <p id=""wtp"" style=""text-align:center; margin-top: 0px; margin-bottom: 0px; font-size: 40px"";>&ensp;</p>","-","viewing","0","7","6B,18B,22C,24C,29A","","","","","","","","","","","","","","","","","","","",""
"","","","","","html-slider-response","181","1185753","0.0-21.0-1.22","b3bb97c4-33cd-4328-8d02-6c63a5a88b71","2101","
                  <p style=""text-align: center;"">₪11
                                                <br>75%</p>
                  <p id=""wtp"" style=""text-align:center; margin-top: 0px; margin-bottom: 0px; font-size: 40px"";>מוכנים לשלם: <span id=""c_p_y""></span></p>","8","evaluation","13","7","6B,18B,22C,24C,29A","75","11","9","","","","","","","","","","","","","","","","",""
"","","","","","html-keyboard-response","182","1186437","0.0-21.0-2.22","b3bb97c4-33cd-4328-8d02-6c63a5a88b71","null","<p style=""text-align: center;"">+</p>","null","fixation","","","","","","","","","","","","","","","","","","","","","","",""
"","","","","","html-slider-response","183","1187448","0.0-21.0-0.23","b3bb97c4-33cd-4328-8d02-6c63a5a88b71","1000","
                  <p style=""text-align: center;"">₪36
                                                <br>60%</p>
                  <p id=""wtp"" style=""text-align:center; margin-top: 0px; margin-bottom: 0px; font-size: 40px"";>&ensp;</p>","-","viewing","0","12","1C,7C,15C","","","","","","","","","","","","","","","","","","","",""
"","","","","","html-slider-response","184","1191321","0.0-21.0-1.23","b3bb97c4-33cd-4328-8d02-6c63a5a88b71","3872","
                  <p style=""text-align: center;"">₪36
                                                <br>60%</p>
                  <p id=""wtp"" style=""text-align:center; margin-top: 0px; margin-bottom: 0px; font-size: 40px"";>מוכנים לשלם: <span id=""c_p_y""></span></p>","16","evaluation","48","12","1C,7C,15C","60","36","16","","","","","","","","","","","","","","","","",""
"","","","","","html-keyboard-response","185","1192374","0.0-21.0-2.23","b3bb97c4-33cd-4328-8d02-6c63a5a88b71","null","<p style=""text-align: center;"">+</p>","null","fixation","","","","","","","","","","","","","","","","","","","","","","",""
"","","","","","html-slider-response","186","1193385","0.0-21.0-0.24","b3bb97c4-33cd-4328-8d02-6c63a5a88b71","1000","
                  <p style=""text-align: center;"">₪71
                                                <br>55%</p>
                  <p id=""wtp"" style=""text-align:center; margin-top: 0px; margin-bottom: 0px; font-size: 40px"";>&ensp;</p>","-","viewing","0","27","5B,18A","","","","","","","","","","","","","","","","","","","",""
"","","","","","html-slider-response","187","1195449","0.0-21.0-1.24","b3bb97c4-33cd-4328-8d02-6c63a5a88b71","2062","
                  <p style=""text-align: center;"">₪71
                                                <br>55%</p>
                  <p id=""wtp"" style=""text-align:center; margin-top: 0px; margin-bottom: 0px; font-size: 40px"";>מוכנים לשלם: <span id=""c_p_y""></span></p>","5","evaluation","59","27","5B,18A","55","71","6","","","","","","","","","","","","","","","","",""
"","","","","","html-keyboard-response","188","1196035","0.0-21.0-2.24","b3bb97c4-33cd-4328-8d02-6c63a5a88b71","null","<p style=""text-align: center;"">+</p>","null","fixation","","","","","","","","","","","","","","","","","","","","","","",""
"","","","","","html-slider-response","189","1197050","0.0-21.0-0.25","b3bb97c4-33cd-4328-8d02-6c63a5a88b71","1000","
                  <p style=""text-align: center;"">₪36
                                                <br>30%</p>
                  <p id=""wtp"" style=""text-align:center; margin-top: 0px; margin-bottom: 0px; font-size: 40px"";>&ensp;</p>","-","viewing","0","11","3C,20A,22A","","","","","","","","","","","","","","","","","","","",""
"","","","","","html-slider-response","190","1198977","0.0-21.0-1.25","b3bb97c4-33cd-4328-8d02-6c63a5a88b71","1925","
                  <p style=""text-align: center;"">₪36
                                                <br>30%</p>
                  <p id=""wtp"" style=""text-align:center; margin-top: 0px; margin-bottom: 0px; font-size: 40px"";>מוכנים לשלם: <span id=""c_p_y""></span></p>","1","evaluation","47","11","3C,20A,22A","30","36","1","","","","","","","","","","","","","","","","",""
"","","","","","html-keyboard-response","191","1200050","0.0-21.0-2.25","b3bb97c4-33cd-4328-8d02-6c63a5a88b71","null","<p style=""text-align: center;"">+</p>","null","fixation","","","","","","","","","","","","","","","","","","","","","","",""
"","","","","","html-slider-response","192","1201053","0.0-21.0-0.26","b3bb97c4-33cd-4328-8d02-6c63a5a88b71","1000","
                  <p style=""text-align: center;"">₪79
                                                <br>40%</p>
                  <p id=""wtp"" style=""text-align:center; margin-top: 0px; margin-bottom: 0px; font-size: 40px"";>&ensp;</p>","-","viewing","0","30","9B","","","","","","","","","","","","","","","","","","","",""
"","","","","","html-slider-response","193","1203201","0.0-21.0-1.26","b3bb97c4-33cd-4328-8d02-6c63a5a88b71","2147","
                  <p style=""text-align: center;"">₪79
                                                <br>40%</p>
                  <p id=""wtp"" style=""text-align:center; margin-top: 0px; margin-bottom: 0px; font-size: 40px"";>מוכנים לשלם: <span id=""c_p_y""></span></p>","23","evaluation","78","30","9B","40","79","23","","","","","","","","","","","","","","","","",""
"","","","","","html-keyboard-response","194","1204496","0.0-21.0-2.26","b3bb97c4-33cd-4328-8d02-6c63a5a88b71","null","<p style=""text-align: center;"">+</p>","null","fixation","","","","","","","","","","","","","","","","","","","","","","",""
"","","","","","html-slider-response","195","1205512","0.0-21.0-0.27","b3bb97c4-33cd-4328-8d02-6c63a5a88b71","1000","
                  <p style=""text-align: center;"">₪58
                                                <br>40%</p>
                  <p id=""wtp"" style=""text-align:center; margin-top: 0px; margin-bottom: 0px; font-size: 40px"";>&ensp;</p>","-","viewing","0","20","10C,13A,19C,21B","","","","","","","","","","","","","","","","","","","",""
"","","","","","html-slider-response","196","1208609","0.0-21.0-1.27","b3bb97c4-33cd-4328-8d02-6c63a5a88b71","3096","
                  <p style=""text-align: center;"">₪58
                                                <br>40%</p>
                  <p id=""wtp"" style=""text-align:center; margin-top: 0px; margin-bottom: 0px; font-size: 40px"";>מוכנים לשלם: <span id=""c_p_y""></span></p>","25","evaluation","65","20","10C,13A,19C,21B","40","58","25","","","","","","","","","","","","","","","","",""
"","","","","","html-keyboard-response","197","1209246","0.0-21.0-2.27","b3bb97c4-33cd-4328-8d02-6c63a5a88b71","null","<p style=""text-align: center;"">+</p>","null","fixation","","","","","","","","","","","","","","","","","","","","","","",""
"","","","","","html-slider-response","198","1210247","0.0-21.0-0.28","b3bb97c4-33cd-4328-8d02-6c63a5a88b71","1000","
                  <p style=""text-align: center;"">₪4
                                                <br>50%</p>
                  <p id=""wtp"" style=""text-align:center; margin-top: 0px; margin-bottom: 0px; font-size: 40px"";>&ensp;</p>","-","viewing","0","2","4C,17B","","","","","","","","","","","","","","","","","","","",""
"","","","","","html-slider-response","199","1212825","0.0-21.0-1.28","b3bb97c4-33cd-4328-8d02-6c63a5a88b71","2577","
                  <p style=""text-align: center;"">₪4
                                                <br>50%</p>
                  <p id=""wtp"" style=""text-align:center; margin-top: 0px; margin-bottom: 0px; font-size: 40px"";>מוכנים לשלם: <span id=""c_p_y""></span></p>","1","evaluation","43","2","4C,17B","50","4","2","","","","","","","","","","","","","","","","",""
"","","","","","html-keyboard-response","200","1213508","0.0-21.0-2.28","b3bb97c4-33cd-4328-8d02-6c63a5a88b71","null","<p style=""text-align: center;"">+</p>","null","fixation","","","","","","","","","","","","","","","","","","","","","","",""
"","","","","","html-slider-response","201","1214510","0.0-21.0-0.29","b3bb97c4-33cd-4328-8d02-6c63a5a88b71","1000","
                  <p style=""text-align: center;"">₪76
                                                <br>65%</p>
                  <p id=""wtp"" style=""text-align:center; margin-top: 0px; margin-bottom: 0px; font-size: 40px"";>&ensp;</p>","-","viewing","0","29","8C,19A,24B","","","","","","","","","","","","","","","","","","","",""
"","","","","","html-slider-response","202","1218273","0.0-21.0-1.29","b3bb97c4-33cd-4328-8d02-6c63a5a88b71","3763","
                  <p style=""text-align: center;"">₪76
                                                <br>65%</p>
                  <p id=""wtp"" style=""text-align:center; margin-top: 0px; margin-bottom: 0px; font-size: 40px"";>מוכנים לשלם: <span id=""c_p_y""></span></p>","34","evaluation","26","29","8C,19A,24B","65","76","34","","","","","","","","","","","","","","","","",""
"","","","","","html-keyboard-response","203","1218893","0.0-21.0-2.29","b3bb97c4-33cd-4328-8d02-6c63a5a88b71","null","<p style=""text-align: center;"">+</p>","null","fixation","","","","","","","","","","","","","","","","","","","","","","",""
"","","","","","html-slider-response","204","1219898","0.0-21.0-0.30","b3bb97c4-33cd-4328-8d02-6c63a5a88b71","1000","
                  <p style=""text-align: center;"">₪61
                                                <br>55%</p>
                  <p id=""wtp"" style=""text-align:center; margin-top: 0px; margin-bottom: 0px; font-size: 40px"";>&ensp;</p>","-","viewing","0","23","7B,26B","","","","","","","","","","","","","","","","","","","",""
"","","","","","html-slider-response","205","1222873","0.0-21.0-1.30","b3bb97c4-33cd-4328-8d02-6c63a5a88b71","2974","
                  <p style=""text-align: center;"">₪61
                                                <br>55%</p>
                  <p id=""wtp"" style=""text-align:center; margin-top: 0px; margin-bottom: 0px; font-size: 40px"";>מוכנים לשלם: <span id=""c_p_y""></span></p>","18","evaluation","8","23","7B,26B","55","61","18","","","","","","","","","","","","","","","","",""
"","","","","","html-keyboard-response","206","1223400","0.0-21.0-2.30","b3bb97c4-33cd-4328-8d02-6c63a5a88b71","null","<p style=""text-align: center;"">+</p>","null","fixation","","","","","","","","","","","","","","","","","","","","","","",""
"","","","","","html-keyboard-response","207","1224403","0.0-22.0","b3bb97c4-33cd-4328-8d02-6c63a5a88b71","null","<p style=""text-align: center;"">+</p>","null","fixation","","","","","","","","","","","","","","","","","","","","","","",""
"","","","","","html-keyboard-response","208","1226049","0.0-23.0","b3bb97c4-33cd-4328-8d02-6c63a5a88b71","null","<p>הפסקה.
          <br>לחצו כדי להמשיך.</p>","1","scan_wait","","","","","","","","","","","","","","","","","","","","","","",""
"","","","","","html-keyboard-response","209","1227054","0.0-24.0","b3bb97c4-33cd-4328-8d02-6c63a5a88b71","null","<p style=""text-align: center;"">+</p>","null","fixation","","","","","","","","","","","","","","","","","","","","","","",""
"","","","","","html-slider-response","210","1228056","0.0-25.0-0.0","b3bb97c4-33cd-4328-8d02-6c63a5a88b71","1000","
                  <p style=""text-align: center;"">₪36
                                                <br>75%</p>
                  <p id=""wtp"" style=""text-align:center; margin-top: 0px; margin-bottom: 0px; font-size: 40px"";>&ensp;</p>","-","viewing","0","14","4B,5A,13B,16B","","","","","","","","","","","","","","","","","","","",""
"","","","","","html-slider-response","211","1230249","0.0-25.0-1.0","b3bb97c4-33cd-4328-8d02-6c63a5a88b71","2192","
                  <p style=""text-align: center;"">₪36
                                                <br>75%</p>
                  <p id=""wtp"" style=""text-align:center; margin-top: 0px; margin-bottom: 0px; font-size: 40px"";>מוכנים לשלם: <span id=""c_p_y""></span></p>","13","evaluation","64","14","4B,5A,13B,16B","75","36","13","","","","","","","","","","","","","","","","",""
"","","","","","html-keyboard-response","212","1230889","0.0-25.0-2.0","b3bb97c4-33cd-4328-8d02-6c63a5a88b71","null","<p style=""text-align: center;"">+</p>","null","fixation","","","","","","","","","","","","","","","","","","","","","","",""
"","","","","","html-slider-response","213","1231892","0.0-25.0-0.1","b3bb97c4-33cd-4328-8d02-6c63a5a88b71","1000","
                  <p style=""text-align: center;"">₪11
                                                <br>20%</p>
                  <p id=""wtp"" style=""text-align:center; margin-top: 0px; margin-bottom: 0px; font-size: 40px"";>&ensp;</p>","-","viewing","0","4","12C,17C,23C,28C","","","","","","","","","","","","","","","","","","","",""
"","","","","","html-slider-response","214","1233329","0.0-25.0-1.1","b3bb97c4-33cd-4328-8d02-6c63a5a88b71","1436","
                  <p style=""text-align: center;"">₪11
                                                <br>20%</p>
                  <p id=""wtp"" style=""text-align:center; margin-top: 0px; margin-bottom: 0px; font-size: 40px"";>מוכנים לשלם: <span id=""c_p_y""></span></p>","1","evaluation","48","4","12C,17C,23C,28C","20","11","2","","","","","","","","","","","","","","","","",""
"","","","","","html-keyboard-response","215","1234457","0.0-25.0-2.1","b3bb97c4-33cd-4328-8d02-6c63a5a88b71","null","<p style=""text-align: center;"">+</p>","null","fixation","","","","","","","","","","","","","","","","","","","","","","",""
"","","","","","html-slider-response","216","1235462","0.0-25.0-0.2","b3bb97c4-33cd-4328-8d02-6c63a5a88b71","1000","
                  <p style=""text-align: center;"">₪36
                                                <br>30%</p>
                  <p id=""wtp"" style=""text-align:center; margin-top: 0px; margin-bottom: 0px; font-size: 40px"";>&ensp;</p>","-","viewing","0","11","3C,20A,22A","","","","","","","","","","","","","","","","","","","",""
"","","","","","html-slider-response","217","1237297","0.0-25.0-1.2","b3bb97c4-33cd-4328-8d02-6c63a5a88b71","1834","
                  <p style=""text-align: center;"">₪36
                                                <br>30%</p>
                  <p id=""wtp"" style=""text-align:center; margin-top: 0px; margin-bottom: 0px; font-size: 40px"";>מוכנים לשלם: <span id=""c_p_y""></span></p>","7","evaluation","29","11","3C,20A,22A","30","36","8","","","","","","","","","","","","","","","","",""
"","","","","","html-keyboard-response","218","1238719","0.0-25.0-2.2","b3bb97c4-33cd-4328-8d02-6c63a5a88b71","null","<p style=""text-align: center;"">+</p>","null","fixation","","","","","","","","","","","","","","","","","","","","","","",""
"","","","","","html-slider-response","219","1239723","0.0-25.0-0.3","b3bb97c4-33cd-4328-8d02-6c63a5a88b71","1000","
                  <p style=""text-align: center;"">₪36
                                                <br>70%</p>
                  <p id=""wtp"" style=""text-align:center; margin-top: 0px; margin-bottom: 0px; font-size: 40px"";>&ensp;</p>","-","viewing","0","13","3A,5C,10B","","","","","","","","","","","","","","","","","","","",""
"","","","","","html-slider-response","220","1241505","0.0-25.0-1.3","b3bb97c4-33cd-4328-8d02-6c63a5a88b71","1781","
                  <p style=""text-align: center;"">₪36
                                                <br>70%</p>
                  <p id=""wtp"" style=""text-align:center; margin-top: 0px; margin-bottom: 0px; font-size: 40px"";>מוכנים לשלם: <span id=""c_p_y""></span></p>","30","evaluation","66","13","3A,5C,10B","70","36","30","","","","","","","","","","","","","","","","",""
"","","","","","html-keyboard-response","221","1242810","0.0-25.0-2.3","b3bb97c4-33cd-4328-8d02-6c63a5a88b71","null","<p style=""text-align: center;"">+</p>","null","fixation","","","","","","","","","","","","","","","","","","","","","","",""
"","","","","","html-slider-response","222","1243817","0.0-25.0-0.4","b3bb97c4-33cd-4328-8d02-6c63a5a88b71","1000","
                  <p style=""text-align: center;"">₪11
                                                <br>25%</p>
                  <p id=""wtp"" style=""text-align:center; margin-top: 0px; margin-bottom: 0px; font-size: 40px"";>&ensp;</p>","-","viewing","0","5","12A,27B,28B,30B","","","","","","","","","","","","","","","","","","","",""
"","","","","","html-slider-response","223","1245561","0.0-25.0-1.4","b3bb97c4-33cd-4328-8d02-6c63a5a88b71","1743","
                  <p style=""text-align: center;"">₪11
                                                <br>25%</p>
                  <p id=""wtp"" style=""text-align:center; margin-top: 0px; margin-bottom: 0px; font-size: 40px"";>מוכנים לשלם: <span id=""c_p_y""></span></p>","8","evaluation","4","5","12A,27B,28B,30B","25","11","8","","","","","","","","","","","","","","","","",""
"","","","","","html-keyboard-response","224","1246615","0.0-25.0-2.4","b3bb97c4-33cd-4328-8d02-6c63a5a88b71","null","<p style=""text-align: center;"">+</p>","null","fixation","","","","","","","","","","","","","","","","","","","","","","",""
"","","","","","html-slider-response","225","1247619","0.0-25.0-0.5","b3bb97c4-33cd-4328-8d02-6c63a5a88b71","1000","
                  <p style=""text-align: center;"">₪64
                                                <br>25%</p>
                  <p id=""wtp"" style=""text-align:center; margin-top: 0px; margin-bottom: 0px; font-size: 40px"";>&ensp;</p>","-","viewing","0","24","6A,21A","","","","","","","","","","","","","","","","","","","",""
"","","","","","html-slider-response","226","1249802","0.0-25.0-1.5","b3bb97c4-33cd-4328-8d02-6c63a5a88b71","2183","
                  <p style=""text-align: center;"">₪64
                                                <br>25%</p>
                  <p id=""wtp"" style=""text-align:center; margin-top: 0px; margin-bottom: 0px; font-size: 40px"";>מוכנים לשלם: <span id=""c_p_y""></span></p>","19","evaluation","66","24","6A,21A","25","64","19","","","","","","","","","","","","","","","","",""
"","","","","","html-keyboard-response","227","1250321","0.0-25.0-2.5","b3bb97c4-33cd-4328-8d02-6c63a5a88b71","null","<p style=""text-align: center;"">+</p>","null","fixation","","","","","","","","","","","","","","","","","","","","","","",""
"","","","","","html-slider-response","228","1251338","0.0-25.0-0.6","b3bb97c4-33cd-4328-8d02-6c63a5a88b71","1000","
                  <p style=""text-align: center;"">₪79
                                                <br>40%</p>
                  <p id=""wtp"" style=""text-align:center; margin-top: 0px; margin-bottom: 0px; font-size: 40px"";>&ensp;</p>","-","viewing","0","30","9B","","","","","","","","","","","","","","","","","","","",""
"","","","","","html-slider-response","229","1254418","0.0-25.0-1.6","b3bb97c4-33cd-4328-8d02-6c63a5a88b71","3079","
                  <p style=""text-align: center;"">₪79
                                                <br>40%</p>
                  <p id=""wtp"" style=""text-align:center; margin-top: 0px; margin-bottom: 0px; font-size: 40px"";>מוכנים לשלם: <span id=""c_p_y""></span></p>","25","evaluation","64","30","9B","40","79","25","","","","","","","","","","","","","","","","",""
"","","","","","html-keyboard-response","230","1255324","0.0-25.0-2.6","b3bb97c4-33cd-4328-8d02-6c63a5a88b71","null","<p style=""text-align: center;"">+</p>","null","fixation","","","","","","","","","","","","","","","","","","","","","","",""
"","","","","","html-slider-response","231","1256326","0.0-25.0-0.7","b3bb97c4-33cd-4328-8d02-6c63a5a88b71","1000","
                  <p style=""text-align: center;"">₪4
                                                <br>25%</p>
                  <p id=""wtp"" style=""text-align:center; margin-top: 0px; margin-bottom: 0px; font-size: 40px"";>&ensp;</p>","-","viewing","0","1","6C,29B,30C","","","","","","","","","","","","","","","","","","","",""
"","","","","","html-slider-response","232","1258258","0.0-25.0-1.7","b3bb97c4-33cd-4328-8d02-6c63a5a88b71","1931","
                  <p style=""text-align: center;"">₪4
                                                <br>25%</p>
                  <p id=""wtp"" style=""text-align:center; margin-top: 0px; margin-bottom: 0px; font-size: 40px"";>מוכנים לשלם: <span id=""c_p_y""></span></p>","1","evaluation","33","1","6C,29B,30C","25","4","1","","","","","","","","","","","","","","","","",""
"","","","","","html-keyboard-response","233","1258897","0.0-25.0-2.7","b3bb97c4-33cd-4328-8d02-6c63a5a88b71","null","<p style=""text-align: center;"">+</p>","null","fixation","","","","","","","","","","","","","","","","","","","","","","",""
"","","","","","html-slider-response","234","1259899","0.0-25.0-0.8","b3bb97c4-33cd-4328-8d02-6c63a5a88b71","1000","
                  <p style=""text-align: center;"">₪71
                                                <br>45%</p>
                  <p id=""wtp"" style=""text-align:center; margin-top: 0px; margin-bottom: 0px; font-size: 40px"";>&ensp;</p>","-","viewing","0","26","2B,16A","","","","","","","","","","","","","","","","","","","",""
"","","","","","html-slider-response","235","1262690","0.0-25.0-1.8","b3bb97c4-33cd-4328-8d02-6c63a5a88b71","2790","
                  <p style=""text-align: center;"">₪71
                                                <br>45%</p>
                  <p id=""wtp"" style=""text-align:center; margin-top: 0px; margin-bottom: 0px; font-size: 40px"";>מוכנים לשלם: <span id=""c_p_y""></span></p>","21","evaluation","33","26","2B,16A","45","71","21","","","","","","","","","","","","","","","","",""
"","","","","","html-keyboard-response","236","1263686","0.0-25.0-2.8","b3bb97c4-33cd-4328-8d02-6c63a5a88b71","null","<p style=""text-align: center;"">+</p>","null","fixation","","","","","","","","","","","","","","","","","","","","","","",""
"","","","","","html-slider-response","237","1264702","0.0-25.0-0.9","b3bb97c4-33cd-4328-8d02-6c63a5a88b71","1000","
                  <p style=""text-align: center;"">₪58
                                                <br>45%</p>
                  <p id=""wtp"" style=""text-align:center; margin-top: 0px; margin-bottom: 0px; font-size: 40px"";>&ensp;</p>","-","viewing","0","21","11C,18C,25A","","","","","","","","","","","","","","","","","","","",""
"","","","","","html-slider-response","238","1267298","0.0-25.0-1.9","b3bb97c4-33cd-4328-8d02-6c63a5a88b71","2595","
                  <p style=""text-align: center;"">₪58
                                                <br>45%</p>
                  <p id=""wtp"" style=""text-align:center; margin-top: 0px; margin-bottom: 0px; font-size: 40px"";>מוכנים לשלם: <span id=""c_p_y""></span></p>","18","evaluation","80","21","11C,18C,25A","45","58","18","","","","","","","","","","","","","","","","",""
"","","","","","html-keyboard-response","239","1267892","0.0-25.0-2.9","b3bb97c4-33cd-4328-8d02-6c63a5a88b71","null","<p style=""text-align: center;"">+</p>","null","fixation","","","","","","","","","","","","","","","","","","","","","","",""
"","","","","","html-slider-response","240","1268908","0.0-25.0-0.10","b3bb97c4-33cd-4328-8d02-6c63a5a88b71","1000","
                  <p style=""text-align: center;"">₪61
                                                <br>55%</p>
                  <p id=""wtp"" style=""text-align:center; margin-top: 0px; margin-bottom: 0px; font-size: 40px"";>&ensp;</p>","-","viewing","0","23","7B,26B","","","","","","","","","","","","","","","","","","","",""
"","","","","","html-slider-response","241","1272920","0.0-25.0-1.10","b3bb97c4-33cd-4328-8d02-6c63a5a88b71","null","
                  <p style=""text-align: center;"">₪61
                                                <br>55%</p>
                  <p id=""wtp"" style=""text-align:center; margin-top: 0px; margin-bottom: 0px; font-size: 40px"";>מוכנים לשלם: <span id=""c_p_y""></span></p>","null","evaluation","48","23","7B,26B","55","61","27","","","","","","","","","","","","","","","","",""
"","","","","","html-keyboard-response","242","1273912","0.0-25.0-2.10","b3bb97c4-33cd-4328-8d02-6c63a5a88b71","null","<p style=""text-align: center;"">+</p>","null","fixation","","","","","","","","","","","","","","","","","","","","","","",""
"","","","","","html-slider-response","243","1274927","0.0-25.0-0.11","b3bb97c4-33cd-4328-8d02-6c63a5a88b71","1000","
                  <p style=""text-align: center;"">₪4
                                                <br>75%</p>
                  <p id=""wtp"" style=""text-align:center; margin-top: 0px; margin-bottom: 0px; font-size: 40px"";>&ensp;</p>","-","viewing","0","3","12B,20B,23B,27C,29C","","","","","","","","","","","","","","","","","","","",""
"","","","","","html-slider-response","244","1278570","0.0-25.0-1.11","b3bb97c4-33cd-4328-8d02-6c63a5a88b71","3642","
                  <p style=""text-align: center;"">₪4
                                                <br>75%</p>
                  <p id=""wtp"" style=""text-align:center; margin-top: 0px; margin-bottom: 0px; font-size: 40px"";>מוכנים לשלם: <span id=""c_p_y""></span></p>","3","evaluation","17","3","12B,20B,23B,27C,29C","75","4","3","","","","","","","","","","","","","","","","",""
"","","","","","html-keyboard-response","245","1279380","0.0-25.0-2.11","b3bb97c4-33cd-4328-8d02-6c63a5a88b71","null","<p style=""text-align: center;"">+</p>","null","fixation","","","","","","","","","","","","","","","","","","","","","","",""
"","","","","","html-slider-response","246","1280390","0.0-25.0-0.12","b3bb97c4-33cd-4328-8d02-6c63a5a88b71","1000","
                  <p style=""text-align: center;"">₪71
                                                <br>55%</p>
                  <p id=""wtp"" style=""text-align:center; margin-top: 0px; margin-bottom: 0px; font-size: 40px"";>&ensp;</p>","-","viewing","0","27","5B,18A","","","","","","","","","","","","","","","","","","","",""
"","","","","","html-slider-response","247","1284406","0.0-25.0-1.12","b3bb97c4-33cd-4328-8d02-6c63a5a88b71","null","
                  <p style=""text-align: center;"">₪71
                                                <br>55%</p>
                  <p id=""wtp"" style=""text-align:center; margin-top: 0px; margin-bottom: 0px; font-size: 40px"";>מוכנים לשלם: <span id=""c_p_y""></span></p>","null","evaluation","17","27","5B,18A","55","71","10","","","","","","","","","","","","","","","","",""
"","","","","","html-keyboard-response","248","1285425","0.0-25.0-2.12","b3bb97c4-33cd-4328-8d02-6c63a5a88b71","null","<p style=""text-align: center;"">+</p>","null","fixation","","","","","","","","","","","","","","","","","","","","","","",""
"","","","","","html-slider-response","249","1286427","0.0-25.0-0.13","b3bb97c4-33cd-4328-8d02-6c63a5a88b71","1000","
                  <p style=""text-align: center;"">₪11
