"success","timeout","failed_images","failed_audio","failed_video","trial_type","trial_index","time_elapsed","internal_node_id","subject_id","rt","stimulus","response","part","slider_start","ID","set_ID","prob","amount","last_location","actual_choice","actual_EV","binary_id","trinary_id","catch","A_key","D_key","choice_prob","choice_amount","potential_prize_prob","potential_prize_amount","won_prize","total_prize","remaining_budget","accuracy"
"true","false","[]","[]","[]","preload","0","14","0.0-0.0","6c06767d-0888-4cae-a531-fd9c338ac0a5","","","","","","","","","","","","","","","","","","","","","","","","",""
"","","","","","html-keyboard-response","1","10176","0.0-1.0","6c06767d-0888-4cae-a531-fd9c338ac0a5","null","
          <h1>שלום וברוכים הבאים!</h1>
          <p>לפניכם ניסוי בקבלת החלטות עם שני חלקים.
          <br><br>לחצו על העכבר כדי להמשיך.</p>","0","example","","","","","","","","","","","","","","","","","","","","",""
"","","","","","html-keyboard-response","2","18248","0.0-2.0","6c06767d-0888-4cae-a531-fd9c338ac0a5","null","
        <h1>חלק 1</h1>
        <p>בקרוב יוצגו בפניכם הגרלות.
        <br>עליכם לבחור את המחיר המירבי שתהיו מוכנים לשלם כדי להשתתף בהגרלה שתוצג.
        <br>יש לכם תקציב של ₪80 לכל הגרלה. 
        <br>נסו להעריך כל הגרלה בנפרד ולחשוב כמה היא שווה עבורכם, ₪80 זמינים לכל הגרלה בנפרד.
        <br><br>לחצו על העכבר כדי להמשיך.</p>","1","instructions","","","","","","","","","","","","","","","","","","","","",""
"","","","","","html-keyboard-response","3","27904","0.0-3.0","6c06767d-0888-4cae-a531-fd9c338ac0a5","null","
        <p>בסוף הניסוי, המחשב יבחר את אחת ההגרלות ויקבע מחיר לכרטיס עבורה. 
        <br>במידה והמחיר שבחרתם נמוך מהמחיר שנבחר על ידי המחשב, לא תשתתפו בהגרלה ותשארו עם מלוא התקציב.
        <br>במידה והמחיר שבחרתם גבוה מהמחיר שנבחר על ידי המחשב, תשלמו את המחיר שנקבע ותשתתפו בהגרלה.
        <br><br>לחצו על העכבר כדי להמשיך.</p>","1","instructions","","","","","","","","","","","","","","","","","","","","",""
"","","","","","html-slider-response","4","57152","0.0-4.0","6c06767d-0888-4cae-a531-fd9c338ac0a5","29130","
        <p style=""font-size: 42px;"">נתחיל עם דוגמא: 
        <br>ההגרלה מטה מציעה 65% סיכוי לזכות ב-₪40 
        <br>&emsp;&emsp;&emsp;&emsp;&emsp;&emsp;&emsp;&emsp;&ensp;35% סיכוי לזכות ב-₪0.
        <br><br>מה המחיר המירבי שתהיו מוכנים לשלם על כרטיס להגרלה זו בין 0 ל-₪80?
        <br>הזיזו את העכבר על פני המלבן ולחצו כדי לבצע בחירה.</p>
        
        <p style=""text-align: center;"">₪40<br>65%</p>

        <p id=""wtp"" style=""text-align:center; margin-top: 0px; margin-bottom: 0px; font-size: 40px"";>מוכנים לשלם: <span id=""c_p_y""></span></p>","25","example","64","","","","","","","","","","","","","","","","","","","",""
"","","","","","html-keyboard-response","5","63880","0.0-5.0","6c06767d-0888-4cae-a531-fd9c338ac0a5","null","<p>יפה מאוד!
                <br> בחרתם שתהיו מוכנים לשלם ₪25 כדי להשתתף בהגרלה:
                <br><p style=""text-align: center;"">₪40<br>65%</p>
                <p>נשמע נכון?
                <br>נניח שהגרלה זו נבחרה בסוף הניסוי.
                <br>כעת המחשב יקבע מחיר עבורה באקראי.
                <br>לחצו על העכבר להמשך.</p>","1","example","","","","","","","","","","","","","","","","","","","","",""
"","","","","","html-keyboard-response","6","71736","0.0-6.0","6c06767d-0888-4cae-a531-fd9c338ac0a5","null","<p>המחשב קבע מחיר: ₪54
                <br>ואתם בחרתם לשלם לכל היותר: ₪25
                <br><br>מכיוון שהמחיר שבחרתם נמוך מהמחיר שנקבע, לא תתשתתפו בהגרלה.
                <br>במקרה כזה, בסוף הניסוי תקבלו את כל התקציב ההתחלתי של ₪80.
                <br><br>לחצו על העכבר להמשך.</p>","1","example","","","","","","","","","","","","","","","","","","","","",""
"","","","","","html-slider-response","7","89520","0.0-7.0","6c06767d-0888-4cae-a531-fd9c338ac0a5","17518","<p style=""font-size: 42px;"">הנה עוד דוגמא:
                <br>ההגרלה מטה מציעה 35% סיכוי לזכות ב-₪18 
                <br>&emsp;&emsp;&emsp;&emsp;&emsp;&emsp;&emsp;&emsp;&ensp;65% סיכוי לזכות ב-₪0.</p>
        
                <p style=""text-align: center;"">₪18<br>35%</p>
                <p id=""wtp"" style=""text-align:center; margin-top: 0px; margin-bottom: 0px; font-size: 40px"";>מוכנים לשלם: <span id=""c_p_y""></span></p>","5","example","39","","","","","","","","","","","","","","","","","","","",""
"","","","","","html-keyboard-response","8","94272","0.0-8.0","6c06767d-0888-4cae-a531-fd9c338ac0a5","null","<p>הייתם מוכנים לשלם  ₪5 כדי להשתתף בהגרלה:
                <p style=""text-align: center;"">₪18<br>35%</p>
                <p>כעת נניח שהמחשב בחר את ההגרלה הזו בסוף הניסוי, וקבע עבורה מחיר.
                <br><br>לחצו על העכבר כדי להמשיך.</p>","1","instructions","","","","","","","","","","","","","","","","","","","","",""
"","","","","","html-keyboard-response","9","104048","0.0-9.0","6c06767d-0888-4cae-a531-fd9c338ac0a5","null","<p>המחשב קבע מחיר להגרלה: ₪3<br>ואתם בחרתם לשלם לכל היותר: ₪5
                <br><br>כעת המחיר שנקבע נמוך מזה שבחרתם, אז תשלמו את המחיר שקבע המחשב (₪3) ותשתתפו בהגרלה.
                <br>במקרה כזה, תסיימו את הניסוי עם תקציב של ₪77 ועם סיכוי לזכות ב-₪18 נוספים מההגרלה.
                <br>כלומר, תוכלו לקבל ₪77 אם לא תזכו בהגרלה, או ₪95 אם תזכו בהגרלה.
                <br><br>לחצו על העכבר להמשך.</p>","1","example","","","","","","","","","","","","","","","","","","","","",""
"","","","","","html-keyboard-response","10","110672","0.0-10.0","6c06767d-0888-4cae-a531-fd9c338ac0a5","null","<p>במהלך הניסוי, קודם תראו את ההגרלה ורק לאחר מכן תוכלו לבחור.
                <p>כמו כן, יהיו לכם מספר שניות מוגבל להגיב.
                <p>בואו ננסה זאת עם ההגרלה הקודמת.
                <br>לחצו על העכבר כדי להמשיך.</p>","1","instructions","","","","","","","","","","","","","","","","","","","","",""
"","","","","","html-slider-response","11","111931","0.0-11.0","6c06767d-0888-4cae-a531-fd9c338ac0a5","1000","
                    <p style=""text-align: center;"">₪18<br>35%</p>
                    <p id=""wtp"" style=""text-align:center; margin-top: 0px; margin-bottom: 0px; font-size: 40px"";>&ensp;</p>","29","instructions","0","","","","","","","","","","","","","","","","","","","",""
"","","","","","html-slider-response","12","114856","0.0-12.0","6c06767d-0888-4cae-a531-fd9c338ac0a5","2673","
                    <p style=""text-align: center;"">₪18<br>35%</p>
                    <p id=""wtp"" style=""text-align:center; margin-top: 0px; margin-bottom: 0px; font-size: 40px"";>מוכנים לשלם: <span id=""c_p_y""></span></p>","5","instructions","23","","","","","","","","","","","","","","","","","","","",""
"","","","","","html-keyboard-response","13","117944","0.0-13.0","6c06767d-0888-4cae-a531-fd9c338ac0a5","null","<p>יפה. הפעם בחרתם לשלם לכל היותר ₪5.
                <br><br>לחצו על העכבר כדי להמשיך.</p>","1","instructions","","","","","","","","","","","","","","","","","","","","",""
"","","","","","html-keyboard-response","14","124941","0.0-15.0","6c06767d-0888-4cae-a531-fd9c338ac0a5","null","<p>כעת נתחיל את הניסוי.
                <br><br>אתם תראו הגרלות ותתבקשו לבחור כמה תהיו מוכנים לשלם כדי להשתתף בהן.
                <br>יש לכם תקציב של ₪80 עבור כל הגרלה.
                <br>בסוף הניסוי הגרלה אחת תבחר באקראי ותשוחק.
                <br><br>לחצו על העכבר כדי להתחיל את הניסוי.</p>","1","instructions","","","","","","","","","","","","","","","","","","","","",""
"","","","","","html-keyboard-response","15","126195","0.0-16.0","6c06767d-0888-4cae-a531-fd9c338ac0a5","null","<p style=""text-align: center;"">+</p>","null","fixation","","","","","","","","","","","","","","","","","","","","",""
"","","","","","html-slider-response","16","127206","0.0-17.0-0.0","6c06767d-0888-4cae-a531-fd9c338ac0a5","1000","
                  <p style=""text-align: center;"">₪11
                                                <br>45%</p>
                  <p id=""wtp"" style=""text-align:center; margin-top: 0px; margin-bottom: 0px; font-size: 40px"";>&ensp;</p>","-","viewing","0","6","14B,21C,25C","","","","","","","","","","","","","","","","","",""
"","","","","","html-slider-response","17","131219","0.0-17.0-1.0","6c06767d-0888-4cae-a531-fd9c338ac0a5","null","
                  <p style=""text-align: center;"">₪11
                                                <br>45%</p>
                  <p id=""wtp"" style=""text-align:center; margin-top: 0px; margin-bottom: 0px; font-size: 40px"";>מוכנים לשלם: <span id=""c_p_y""></span></p>","null","evaluation","75","6","14B,21C,25C","45","11","7","","","","","","","","","","","","","","",""
"","","","","","html-keyboard-response","18","132060","0.0-17.0-2.0","6c06767d-0888-4cae-a531-fd9c338ac0a5","null","<p style=""text-align: center;"">+</p>","null","fixation","","","","","","","","","","","","","","","","","","","","",""
"","","","","","html-slider-response","19","133062","0.0-17.0-0.1","6c06767d-0888-4cae-a531-fd9c338ac0a5","1000","
                  <p style=""text-align: center;"">₪4
                                                <br>25%</p>
                  <p id=""wtp"" style=""text-align:center; margin-top: 0px; margin-bottom: 0px; font-size: 40px"";>&ensp;</p>","-","viewing","0","1","6C,29B,30C","","","","","","","","","","","","","","","","","",""
"","","","","","html-slider-response","20","135197","0.0-17.0-1.1","6c06767d-0888-4cae-a531-fd9c338ac0a5","2134","
                  <p style=""text-align: center;"">₪4
                                                <br>25%</p>
                  <p id=""wtp"" style=""text-align:center; margin-top: 0px; margin-bottom: 0px; font-size: 40px"";>מוכנים לשלם: <span id=""c_p_y""></span></p>","4","evaluation","11","1","6C,29B,30C","25","4","5","","","","","","","","","","","","","","",""
"","","","","","html-keyboard-response","21","136635","0.0-17.0-2.1","6c06767d-0888-4cae-a531-fd9c338ac0a5","null","<p style=""text-align: center;"">+</p>","null","fixation","","","","","","","","","","","","","","","","","","","","",""
"","","","","","html-slider-response","22","137638","0.0-17.0-0.2","6c06767d-0888-4cae-a531-fd9c338ac0a5","1000","
                  <p style=""text-align: center;"">₪36
                                                <br>60%</p>
                  <p id=""wtp"" style=""text-align:center; margin-top: 0px; margin-bottom: 0px; font-size: 40px"";>&ensp;</p>","-","viewing","0","12","1C,7C,15C","","","","","","","","","","","","","","","","","",""
"","","","","","html-slider-response","23","140717","0.0-17.0-1.2","6c06767d-0888-4cae-a531-fd9c338ac0a5","3077","
                  <p style=""text-align: center;"">₪36
                                                <br>60%</p>
                  <p id=""wtp"" style=""text-align:center; margin-top: 0px; margin-bottom: 0px; font-size: 40px"";>מוכנים לשלם: <span id=""c_p_y""></span></p>","10","evaluation","76","12","1C,7C,15C","60","36","11","","","","","","","","","","","","","","",""
"","","","","","html-keyboard-response","24","141645","0.0-17.0-2.2","6c06767d-0888-4cae-a531-fd9c338ac0a5","null","<p style=""text-align: center;"">+</p>","null","fixation","","","","","","","","","","","","","","","","","","","","",""
"","","","","","html-slider-response","25","142650","0.0-17.0-0.3","6c06767d-0888-4cae-a531-fd9c338ac0a5","1000","
                  <p style=""text-align: center;"">₪58
                                                <br>45%</p>
                  <p id=""wtp"" style=""text-align:center; margin-top: 0px; margin-bottom: 0px; font-size: 40px"";>&ensp;</p>","-","viewing","0","21","11C,18C,25A","","","","","","","","","","","","","","","","","",""
"","","","","","html-slider-response","26","146652","0.0-17.0-1.3","6c06767d-0888-4cae-a531-fd9c338ac0a5","null","
                  <p style=""text-align: center;"">₪58
                                                <br>45%</p>
                  <p id=""wtp"" style=""text-align:center; margin-top: 0px; margin-bottom: 0px; font-size: 40px"";>מוכנים לשלם: <span id=""c_p_y""></span></p>","null","evaluation","13","21","11C,18C,25A","45","58","18","","","","","","","","","","","","","","",""
"","","","","","html-keyboard-response","27","147926","0.0-17.0-2.3","6c06767d-0888-4cae-a531-fd9c338ac0a5","null","<p style=""text-align: center;"">+</p>","null","fixation","","","","","","","","","","","","","","","","","","","","",""
"","","","","","html-slider-response","28","148937","0.0-17.0-0.4","6c06767d-0888-4cae-a531-fd9c338ac0a5","1000","
                  <p style=""text-align: center;"">₪36
                                                <br>75%</p>
                  <p id=""wtp"" style=""text-align:center; margin-top: 0px; margin-bottom: 0px; font-size: 40px"";>&ensp;</p>","-","viewing","0","14","4B,5A,13B,16B","","","","","","","","","","","","","","","","","",""
"","","","","","html-slider-response","29","152485","0.0-17.0-1.4","6c06767d-0888-4cae-a531-fd9c338ac0a5","3548","
                  <p style=""text-align: center;"">₪36
                                                <br>75%</p>
                  <p id=""wtp"" style=""text-align:center; margin-top: 0px; margin-bottom: 0px; font-size: 40px"";>מוכנים לשלם: <span id=""c_p_y""></span></p>","21","evaluation","64","14","4B,5A,13B,16B","75","36","21","","","","","","","","","","","","","","",""
"","","","","","html-keyboard-response","30","153302","0.0-17.0-2.4","6c06767d-0888-4cae-a531-fd9c338ac0a5","null","<p style=""text-align: center;"">+</p>","null","fixation","","","","","","","","","","","","","","","","","","","","",""
"","","","","","html-slider-response","31","154304","0.0-17.0-0.5","6c06767d-0888-4cae-a531-fd9c338ac0a5","1000","
                  <p style=""text-align: center;"">₪43
                                                <br>60%</p>
                  <p id=""wtp"" style=""text-align:center; margin-top: 0px; margin-bottom: 0px; font-size: 40px"";>&ensp;</p>","-","viewing","0","17","2A,7A,9A,15B","","","","","","","","","","","","","","","","","",""
"","","","","","html-slider-response","32","156957","0.0-17.0-1.5","6c06767d-0888-4cae-a531-fd9c338ac0a5","2652","
                  <p style=""text-align: center;"">₪43
                                                <br>60%</p>
                  <p id=""wtp"" style=""text-align:center; margin-top: 0px; margin-bottom: 0px; font-size: 40px"";>מוכנים לשלם: <span id=""c_p_y""></span></p>","30","evaluation","41","17","2A,7A,9A,15B","60","43","30","","","","","","","","","","","","","","",""
"","","","","","html-keyboard-response","33","157628","0.0-17.0-2.5","6c06767d-0888-4cae-a531-fd9c338ac0a5","null","<p style=""text-align: center;"">+</p>","null","fixation","","","","","","","","","","","","","","","","","","","","",""
"","","","","","html-slider-response","34","158646","0.0-17.0-0.6","6c06767d-0888-4cae-a531-fd9c338ac0a5","1000","
                  <p style=""text-align: center;"">₪39
                                                <br>60%</p>
                  <p id=""wtp"" style=""text-align:center; margin-top: 0px; margin-bottom: 0px; font-size: 40px"";>&ensp;</p>","-","viewing","0","15","9C,25B","","","","","","","","","","","","","","","","","",""
"","","","","","html-slider-response","35","161197","0.0-17.0-1.6","6c06767d-0888-4cae-a531-fd9c338ac0a5","2550","
                  <p style=""text-align: center;"">₪39
                                                <br>60%</p>
                  <p id=""wtp"" style=""text-align:center; margin-top: 0px; margin-bottom: 0px; font-size: 40px"";>מוכנים לשלם: <span id=""c_p_y""></span></p>","30","evaluation","74","15","9C,25B","60","39","30","","","","","","","","","","","","","","",""
"","","","","","html-keyboard-response","36","161739","0.0-17.0-2.6","6c06767d-0888-4cae-a531-fd9c338ac0a5","null","<p style=""text-align: center;"">+</p>","null","fixation","","","","","","","","","","","","","","","","","","","","",""
"","","","","","html-slider-response","37","162755","0.0-17.0-0.7","6c06767d-0888-4cae-a531-fd9c338ac0a5","1000","
                  <p style=""text-align: center;"">₪79
                                                <br>40%</p>
                  <p id=""wtp"" style=""text-align:center; margin-top: 0px; margin-bottom: 0px; font-size: 40px"";>&ensp;</p>","-","viewing","0","30","9B","","","","","","","","","","","","","","","","","",""
"","","","","","html-slider-response","38","166741","0.0-17.0-1.7","6c06767d-0888-4cae-a531-fd9c338ac0a5","3985","
                  <p style=""text-align: center;"">₪79
                                                <br>40%</p>
                  <p id=""wtp"" style=""text-align:center; margin-top: 0px; margin-bottom: 0px; font-size: 40px"";>מוכנים לשלם: <span id=""c_p_y""></span></p>","25","evaluation","18","30","9B","40","79","25","","","","","","","","","","","","","","",""
"","","","","","html-keyboard-response","39","167622","0.0-17.0-2.7","6c06767d-0888-4cae-a531-fd9c338ac0a5","null","<p style=""text-align: center;"">+</p>","null","fixation","","","","","","","","","","","","","","","","","","","","",""
"","","","","","html-slider-response","40","168637","0.0-17.0-0.8","6c06767d-0888-4cae-a531-fd9c338ac0a5","1000","
                  <p style=""text-align: center;"">₪64
                                                <br>50%</p>
                  <p id=""wtp"" style=""text-align:center; margin-top: 0px; margin-bottom: 0px; font-size: 40px"";>&ensp;</p>","-","viewing","0","25","1B,3B,4A","","","","","","","","","","","","","","","","","",""
"","","","","","html-slider-response","41","172640","0.0-17.0-1.8","6c06767d-0888-4cae-a531-fd9c338ac0a5","null","
                  <p style=""text-align: center;"">₪64
                                                <br>50%</p>
                  <p id=""wtp"" style=""text-align:center; margin-top: 0px; margin-bottom: 0px; font-size: 40px"";>מוכנים לשלם: <span id=""c_p_y""></span></p>","null","evaluation","29","25","1B,3B,4A","50","64","30","","","","","","","","","","","","","","",""
"","","","","","html-keyboard-response","42","173879","0.0-17.0-2.8","6c06767d-0888-4cae-a531-fd9c338ac0a5","null","<p style=""text-align: center;"">+</p>","null","fixation","","","","","","","","","","","","","","","","","","","","",""
"","","","","","html-slider-response","43","174890","0.0-17.0-0.9","6c06767d-0888-4cae-a531-fd9c338ac0a5","1000","
                  <p style=""text-align: center;"">₪4
                                                <br>50%</p>
                  <p id=""wtp"" style=""text-align:center; margin-top: 0px; margin-bottom: 0px; font-size: 40px"";>&ensp;</p>","-","viewing","0","2","4C,17B","","","","","","","","","","","","","","","","","",""
"","","","","","html-slider-response","44","178061","0.0-17.0-1.9","6c06767d-0888-4cae-a531-fd9c338ac0a5","3170","
                  <p style=""text-align: center;"">₪4
                                                <br>50%</p>
                  <p id=""wtp"" style=""text-align:center; margin-top: 0px; margin-bottom: 0px; font-size: 40px"";>מוכנים לשלם: <span id=""c_p_y""></span></p>","3","evaluation","51","2","4C,17B","50","4","3","","","","","","","","","","","","","","",""
"","","","","","html-keyboard-response","45","179136","0.0-17.0-2.9","6c06767d-0888-4cae-a531-fd9c338ac0a5","null","<p style=""text-align: center;"">+</p>","null","fixation","","","","","","","","","","","","","","","","","","","","",""
"","","","","","html-slider-response","46","180151","0.0-17.0-0.10","6c06767d-0888-4cae-a531-fd9c338ac0a5","1000","
                  <p style=""text-align: center;"">₪36
                                                <br>70%</p>
                  <p id=""wtp"" style=""text-align:center; margin-top: 0px; margin-bottom: 0px; font-size: 40px"";>&ensp;</p>","-","viewing","0","13","3A,5C,10B","","","","","","","","","","","","","","","","","",""
"","","","","","html-slider-response","47","182581","0.0-17.0-1.10","6c06767d-0888-4cae-a531-fd9c338ac0a5","2428","
                  <p style=""text-align: center;"">₪36
                                                <br>70%</p>
                  <p id=""wtp"" style=""text-align:center; margin-top: 0px; margin-bottom: 0px; font-size: 40px"";>מוכנים לשלם: <span id=""c_p_y""></span></p>","25","evaluation","74","13","3A,5C,10B","70","36","25","","","","","","","","","","","","","","",""
"","","","","","html-keyboard-response","48","183996","0.0-17.0-2.10","6c06767d-0888-4cae-a531-fd9c338ac0a5","null","<p style=""text-align: center;"">+</p>","null","fixation","","","","","","","","","","","","","","","","","","","","",""
"","","","","","html-slider-response","49","185002","0.0-17.0-0.11","6c06767d-0888-4cae-a531-fd9c338ac0a5","1000","
                  <p style=""text-align: center;"">₪11
                                                <br>75%</p>
                  <p id=""wtp"" style=""text-align:center; margin-top: 0px; margin-bottom: 0px; font-size: 40px"";>&ensp;</p>","-","viewing","0","7","6B,18B,22C,24C,29A","","","","","","","","","","","","","","","","","",""
"","","","","","html-slider-response","50","187184","0.0-17.0-1.11","6c06767d-0888-4cae-a531-fd9c338ac0a5","2181","
                  <p style=""text-align: center;"">₪11
                                                <br>75%</p>
                  <p id=""wtp"" style=""text-align:center; margin-top: 0px; margin-bottom: 0px; font-size: 40px"";>מוכנים לשלם: <span id=""c_p_y""></span></p>","7","evaluation","61","7","6B,18B,22C,24C,29A","75","11","7","","","","","","","","","","","","","","",""
"","","","","","html-keyboard-response","51","188130","0.0-17.0-2.11","6c06767d-0888-4cae-a531-fd9c338ac0a5","null","<p style=""text-align: center;"">+</p>","null","fixation","","","","","","","","","","","","","","","","","","","","",""
"","","","","","html-slider-response","52","189134","0.0-17.0-0.12","6c06767d-0888-4cae-a531-fd9c338ac0a5","1000","
                  <p style=""text-align: center;"">₪71
                                                <br>45%</p>
                  <p id=""wtp"" style=""text-align:center; margin-top: 0px; margin-bottom: 0px; font-size: 40px"";>&ensp;</p>","-","viewing","0","26","2B,16A","","","","","","","","","","","","","","","","","",""
"","","","","","html-slider-response","53","192192","0.0-17.0-1.12","6c06767d-0888-4cae-a531-fd9c338ac0a5","3057","
                  <p style=""text-align: center;"">₪71
                                                <br>45%</p>
                  <p id=""wtp"" style=""text-align:center; margin-top: 0px; margin-bottom: 0px; font-size: 40px"";>מוכנים לשלם: <span id=""c_p_y""></span></p>","37","evaluation","20","26","2B,16A","45","71","37","","","","","","","","","","","","","","",""
"","","","","","html-keyboard-response","54","193140","0.0-17.0-2.12","6c06767d-0888-4cae-a531-fd9c338ac0a5","null","<p style=""text-align: center;"">+</p>","null","fixation","","","","","","","","","","","","","","","","","","","","",""
"","","","","","html-slider-response","55","194147","0.0-17.0-0.13","6c06767d-0888-4cae-a531-fd9c338ac0a5","1000","
                  <p style=""text-align: center;"">₪61
                                                <br>45%</p>
                  <p id=""wtp"" style=""text-align:center; margin-top: 0px; margin-bottom: 0px; font-size: 40px"";>&ensp;</p>","-","viewing","0","22","10A,11A","","","","","","","","","","","","","","","","","",""
"","","","","","html-slider-response","56","197064","0.0-17.0-1.13","6c06767d-0888-4cae-a531-fd9c338ac0a5","2914","
                  <p style=""text-align: center;"">₪61
                                                <br>45%</p>
                  <p id=""wtp"" style=""text-align:center; margin-top: 0px; margin-bottom: 0px; font-size: 40px"";>מוכנים לשלם: <span id=""c_p_y""></span></p>","39","evaluation","27","22","10A,11A","45","61","39","","","","","","","","","","","","","","",""
"","","","","","html-keyboard-response","57","198063","0.0-17.0-2.13","6c06767d-0888-4cae-a531-fd9c338ac0a5","null","<p style=""text-align: center;"">+</p>","null","fixation","","","","","","","","","","","","","","","","","","","","",""
"","","","","","html-slider-response","58","199072","0.0-17.0-0.14","6c06767d-0888-4cae-a531-fd9c338ac0a5","1000","
                  <p style=""text-align: center;"">₪61
                                                <br>55%</p>
                  <p id=""wtp"" style=""text-align:center; margin-top: 0px; margin-bottom: 0px; font-size: 40px"";>&ensp;</p>","-","viewing","0","23","7B,26B","","","","","","","","","","","","","","","","","",""
"","","","","","html-slider-response","59","201760","0.0-17.0-1.14","6c06767d-0888-4cae-a531-fd9c338ac0a5","2687","
                  <p style=""text-align: center;"">₪61
                                                <br>55%</p>
                  <p id=""wtp"" style=""text-align:center; margin-top: 0px; margin-bottom: 0px; font-size: 40px"";>מוכנים לשלם: <span id=""c_p_y""></span></p>","39","evaluation","45","23","7B,26B","55","61","39","","","","","","","","","","","","","","",""
"","","","","","html-keyboard-response","60","203222","0.0-17.0-2.14","6c06767d-0888-4cae-a531-fd9c338ac0a5","null","<p style=""text-align: center;"">+</p>","null","fixation","","","","","","","","","","","","","","","","","","","","",""
"","","","","","html-slider-response","61","204226","0.0-17.0-0.15","6c06767d-0888-4cae-a531-fd9c338ac0a5","1000","
                  <p style=""text-align: center;"">₪79
                                                <br>65%</p>
                  <p id=""wtp"" style=""text-align:center; margin-top: 0px; margin-bottom: 0px; font-size: 40px"";>&ensp;</p>","-","viewing","0","31","8A","","","","","","","","","","","","","","","","","",""
"","","","","","html-slider-response","62","207472","0.0-17.0-1.15","6c06767d-0888-4cae-a531-fd9c338ac0a5","3245","
                  <p style=""text-align: center;"">₪79
                                                <br>65%</p>
                  <p id=""wtp"" style=""text-align:center; margin-top: 0px; margin-bottom: 0px; font-size: 40px"";>מוכנים לשלם: <span id=""c_p_y""></span></p>","36","evaluation","13","31","8A","65","79","36","","","","","","","","","","","","","","",""
"","","","","","html-keyboard-response","63","208032","0.0-17.0-2.15","6c06767d-0888-4cae-a531-fd9c338ac0a5","null","<p style=""text-align: center;"">+</p>","null","fixation","","","","","","","","","","","","","","","","","","","","",""
"","","","","","html-slider-response","64","209034","0.0-17.0-0.16","6c06767d-0888-4cae-a531-fd9c338ac0a5","1000","
                  <p style=""text-align: center;"">₪4
                                                <br>75%</p>
                  <p id=""wtp"" style=""text-align:center; margin-top: 0px; margin-bottom: 0px; font-size: 40px"";>&ensp;</p>","-","viewing","0","3","12B,20B,23B,27C,29C","","","","","","","","","","","","","","","","","",""
"","","","","","html-slider-response","65","211384","0.0-17.0-1.16","6c06767d-0888-4cae-a531-fd9c338ac0a5","2349","
                  <p style=""text-align: center;"">₪4
                                                <br>75%</p>
                  <p id=""wtp"" style=""text-align:center; margin-top: 0px; margin-bottom: 0px; font-size: 40px"";>מוכנים לשלם: <span id=""c_p_y""></span></p>","3","evaluation","46","3","12B,20B,23B,27C,29C","75","4","3","","","","","","","","","","","","","","",""
"","","","","","html-keyboard-response","66","212402","0.0-17.0-2.16","6c06767d-0888-4cae-a531-fd9c338ac0a5","null","<p style=""text-align: center;"">+</p>","null","fixation","","","","","","","","","","","","","","","","","","","","",""
"","","","","","html-slider-response","67","213404","0.0-17.0-0.17","6c06767d-0888-4cae-a531-fd9c338ac0a5","1000","
                  <p style=""text-align: center;"">₪58
                                                <br>40%</p>
                  <p id=""wtp"" style=""text-align:center; margin-top: 0px; margin-bottom: 0px; font-size: 40px"";>&ensp;</p>","-","viewing","0","20","10C,13A,19C,21B","","","","","","","","","","","","","","","","","",""
"","","","","","html-slider-response","68","217160","0.0-17.0-1.17","6c06767d-0888-4cae-a531-fd9c338ac0a5","3755","
                  <p style=""text-align: center;"">₪58
                                                <br>40%</p>
                  <p id=""wtp"" style=""text-align:center; margin-top: 0px; margin-bottom: 0px; font-size: 40px"";>מוכנים לשלם: <span id=""c_p_y""></span></p>","38","evaluation","47","20","10C,13A,19C,21B","40","58","38","","","","","","","","","","","","","","",""
"","","","","","html-keyboard-response","69","218446","0.0-17.0-2.17","6c06767d-0888-4cae-a531-fd9c338ac0a5","null","<p style=""text-align: center;"">+</p>","null","fixation","","","","","","","","","","","","","","","","","","","","",""
"","","","","","html-slider-response","70","219449","0.0-17.0-0.18","6c06767d-0888-4cae-a531-fd9c338ac0a5","1000","
                  <p style=""text-align: center;"">₪11
                                                <br>20%</p>
                  <p id=""wtp"" style=""text-align:center; margin-top: 0px; margin-bottom: 0px; font-size: 40px"";>&ensp;</p>","-","viewing","0","4","12C,17C,23C,28C","","","","","","","","","","","","","","","","","",""
"","","","","","html-slider-response","71","223452","0.0-17.0-1.18","6c06767d-0888-4cae-a531-fd9c338ac0a5","null","
                  <p style=""text-align: center;"">₪11
                                                <br>20%</p>
                  <p id=""wtp"" style=""text-align:center; margin-top: 0px; margin-bottom: 0px; font-size: 40px"";>מוכנים לשלם: <span id=""c_p_y""></span></p>","null","evaluation","45","4","12C,17C,23C,28C","20","11","5","","","","","","","","","","","","","","",""
"","","","","","html-keyboard-response","72","224703","0.0-17.0-2.18","6c06767d-0888-4cae-a531-fd9c338ac0a5","null","<p style=""text-align: center;"">+</p>","null","fixation","","","","","","","","","","","","","","","","","","","","",""
"","","","","","html-slider-response","73","225708","0.0-17.0-0.19","6c06767d-0888-4cae-a531-fd9c338ac0a5","1000","
                  <p style=""text-align: center;"">₪18
                                                <br>25%</p>
                  <p id=""wtp"" style=""text-align:center; margin-top: 0px; margin-bottom: 0px; font-size: 40px"";>&ensp;</p>","-","viewing","0","9","14A,23A","","","","","","","","","","","","","","","","","",""
"","","","","","html-slider-response","74","227896","0.0-17.0-1.19","6c06767d-0888-4cae-a531-fd9c338ac0a5","2187","
                  <p style=""text-align: center;"">₪18
                                                <br>25%</p>
                  <p id=""wtp"" style=""text-align:center; margin-top: 0px; margin-bottom: 0px; font-size: 40px"";>מוכנים לשלם: <span id=""c_p_y""></span></p>","8","evaluation","15","9","14A,23A","25","18","8","","","","","","","","","","","","","","",""
"","","","","","html-keyboard-response","75","229228","0.0-17.0-2.19","6c06767d-0888-4cae-a531-fd9c338ac0a5","null","<p style=""text-align: center;"">+</p>","null","fixation","","","","","","","","","","","","","","","","","","","","",""
"","","","","","html-slider-response","76","230230","0.0-17.0-0.20","6c06767d-0888-4cae-a531-fd9c338ac0a5","1000","
                  <p style=""text-align: center;"">₪76
                                                <br>65%</p>
                  <p id=""wtp"" style=""text-align:center; margin-top: 0px; margin-bottom: 0px; font-size: 40px"";>&ensp;</p>","-","viewing","0","29","8C,19A,24B","","","","","","","","","","","","","","","","","",""
"","","","","","html-slider-response","77","233360","0.0-17.0-1.20","6c06767d-0888-4cae-a531-fd9c338ac0a5","3130","
                  <p style=""text-align: center;"">₪76
                                                <br>65%</p>
                  <p id=""wtp"" style=""text-align:center; margin-top: 0px; margin-bottom: 0px; font-size: 40px"";>מוכנים לשלם: <span id=""c_p_y""></span></p>","36","evaluation","26","29","8C,19A,24B","65","76","36","","","","","","","","","","","","","","",""
"","","","","","html-keyboard-response","78","233971","0.0-17.0-2.20","6c06767d-0888-4cae-a531-fd9c338ac0a5","null","<p style=""text-align: center;"">+</p>","null","fixation","","","","","","","","","","","","","","","","","","","","",""
"","","","","","html-slider-response","79","234974","0.0-17.0-0.21","6c06767d-0888-4cae-a531-fd9c338ac0a5","1000","
                  <p style=""text-align: center;"">₪71
                                                <br>55%</p>
                  <p id=""wtp"" style=""text-align:center; margin-top: 0px; margin-bottom: 0px; font-size: 40px"";>&ensp;</p>","-","viewing","0","27","5B,18A","","","","","","","","","","","","","","","","","",""
"","","","","","html-slider-response","80","237496","0.0-17.0-1.21","6c06767d-0888-4cae-a531-fd9c338ac0a5","2520","
                  <p style=""text-align: center;"">₪71
                                                <br>55%</p>
                  <p id=""wtp"" style=""text-align:center; margin-top: 0px; margin-bottom: 0px; font-size: 40px"";>מוכנים לשלם: <span id=""c_p_y""></span></p>","44","evaluation","40","27","5B,18A","55","71","44","","","","","","","","","","","","","","",""
"","","","","","html-keyboard-response","81","238019","0.0-17.0-2.21","6c06767d-0888-4cae-a531-fd9c338ac0a5","null","<p style=""text-align: center;"">+</p>","null","fixation","","","","","","","","","","","","","","","","","","","","",""
"","","","","","html-slider-response","82","239025","0.0-17.0-0.22","6c06767d-0888-4cae-a531-fd9c338ac0a5","1000","
                  <p style=""text-align: center;"">₪64
                                                <br>25%</p>
                  <p id=""wtp"" style=""text-align:center; margin-top: 0px; margin-bottom: 0px; font-size: 40px"";>&ensp;</p>","-","viewing","0","24","6A,21A","","","","","","","","","","","","","","","","","",""
"","","","","","html-slider-response","83","242376","0.0-17.0-1.22","6c06767d-0888-4cae-a531-fd9c338ac0a5","3349","
                  <p style=""text-align: center;"">₪64
                                                <br>25%</p>
                  <p id=""wtp"" style=""text-align:center; margin-top: 0px; margin-bottom: 0px; font-size: 40px"";>מוכנים לשלם: <span id=""c_p_y""></span></p>","44","evaluation","41","24","6A,21A","25","64","44","","","","","","","","","","","","","","",""
"","","","","","html-keyboard-response","84","243802","0.0-17.0-2.22","6c06767d-0888-4cae-a531-fd9c338ac0a5","null","<p style=""text-align: center;"">+</p>","null","fixation","","","","","","","","","","","","","","","","","","","","",""
"","","","","","html-slider-response","85","244804","0.0-17.0-0.23","6c06767d-0888-4cae-a531-fd9c338ac0a5","1000","
                  <p style=""text-align: center;"">₪58
                                                <br>30%</p>
                  <p id=""wtp"" style=""text-align:center; margin-top: 0px; margin-bottom: 0px; font-size: 40px"";>&ensp;</p>","-","viewing","0","19","13C,30A","","","","","","","","","","","","","","","","","",""
"","","","","","html-slider-response","86","247088","0.0-17.0-1.23","6c06767d-0888-4cae-a531-fd9c338ac0a5","2283","
                  <p style=""text-align: center;"">₪58
                                                <br>30%</p>
                  <p id=""wtp"" style=""text-align:center; margin-top: 0px; margin-bottom: 0px; font-size: 40px"";>מוכנים לשלם: <span id=""c_p_y""></span></p>","45","evaluation","78","19","13C,30A","30","58","45","","","","","","","","","","","","","","",""
"","","","","","html-keyboard-response","87","248357","0.0-17.0-2.23","6c06767d-0888-4cae-a531-fd9c338ac0a5","null","<p style=""text-align: center;"">+</p>","null","fixation","","","","","","","","","","","","","","","","","","","","",""
"","","","","","html-slider-response","88","249361","0.0-17.0-0.24","6c06767d-0888-4cae-a531-fd9c338ac0a5","1000","
                  <p style=""text-align: center;"">₪11
                                                <br>25%</p>
                  <p id=""wtp"" style=""text-align:center; margin-top: 0px; margin-bottom: 0px; font-size: 40px"";>&ensp;</p>","-","viewing","0","5","12A,27B,28B,30B","","","","","","","","","","","","","","","","","",""
"","","","","","html-slider-response","89","252280","0.0-17.0-1.24","6c06767d-0888-4cae-a531-fd9c338ac0a5","2917","
                  <p style=""text-align: center;"">₪11
                                                <br>25%</p>
                  <p id=""wtp"" style=""text-align:center; margin-top: 0px; margin-bottom: 0px; font-size: 40px"";>מוכנים לשלם: <span id=""c_p_y""></span></p>","6","evaluation","6","5","12A,27B,28B,30B","25","11","6","","","","","","","","","","","","","","",""
"","","","","","html-keyboard-response","90","253555","0.0-17.0-2.24","6c06767d-0888-4cae-a531-fd9c338ac0a5","null","<p style=""text-align: center;"">+</p>","null","fixation","","","","","","","","","","","","","","","","","","","","",""
"","","","","","html-slider-response","91","254559","0.0-17.0-0.25","6c06767d-0888-4cae-a531-fd9c338ac0a5","1000","
                  <p style=""text-align: center;"">₪39
                                                <br>65%</p>
                  <p id=""wtp"" style=""text-align:center; margin-top: 0px; margin-bottom: 0px; font-size: 40px"";>&ensp;</p>","-","viewing","0","16","1A,15A,26C","","","","","","","","","","","","","","","","","",""
"","","","","","html-slider-response","92","257576","0.0-17.0-1.25","6c06767d-0888-4cae-a531-fd9c338ac0a5","3016","
                  <p style=""text-align: center;"">₪39
                                                <br>65%</p>
                  <p id=""wtp"" style=""text-align:center; margin-top: 0px; margin-bottom: 0px; font-size: 40px"";>מוכנים לשלם: <span id=""c_p_y""></span></p>","33","evaluation","3","16","1A,15A,26C","65","39","33","","","","","","","","","","","","","","",""
"","","","","","html-keyboard-response","93","258094","0.0-17.0-2.25","6c06767d-0888-4cae-a531-fd9c338ac0a5","null","<p style=""text-align: center;"">+</p>","null","fixation","","","","","","","","","","","","","","","","","","","","",""
"","","","","","html-slider-response","94","259097","0.0-17.0-0.26","6c06767d-0888-4cae-a531-fd9c338ac0a5","1000","
                  <p style=""text-align: center;"">₪16
                                                <br>20%</p>
                  <p id=""wtp"" style=""text-align:center; margin-top: 0px; margin-bottom: 0px; font-size: 40px"";>&ensp;</p>","-","viewing","0","8","14C,17A,20C,27A","","","","","","","","","","","","","","","","","",""
"","","","","","html-slider-response","95","262440","0.0-17.0-1.26","6c06767d-0888-4cae-a531-fd9c338ac0a5","3342","
                  <p style=""text-align: center;"">₪16
                                                <br>20%</p>
                  <p id=""wtp"" style=""text-align:center; margin-top: 0px; margin-bottom: 0px; font-size: 40px"";>מוכנים לשלם: <span id=""c_p_y""></span></p>","11","evaluation","53","8","14C,17A,20C,27A","20","16","12","","","","","","","","","","","","","","",""
"","","","","","html-keyboard-response","96","263885","0.0-17.0-2.26","6c06767d-0888-4cae-a531-fd9c338ac0a5","null","<p style=""text-align: center;"">+</p>","null","fixation","","","","","","","","","","","","","","","","","","","","",""
"","","","","","html-slider-response","97","264887","0.0-17.0-0.27","6c06767d-0888-4cae-a531-fd9c338ac0a5","1000","
                  <p style=""text-align: center;"">₪43
                                                <br>75%</p>
                  <p id=""wtp"" style=""text-align:center; margin-top: 0px; margin-bottom: 0px; font-size: 40px"";>&ensp;</p>","-","viewing","0","18","11B,19B,24A,26A","","","","","","","","","","","","","","","","","",""
"","","","","","html-slider-response","98","268856","0.0-17.0-1.27","6c06767d-0888-4cae-a531-fd9c338ac0a5","3968","
                  <p style=""text-align: center;"">₪43
                                                <br>75%</p>
                  <p id=""wtp"" style=""text-align:center; margin-top: 0px; margin-bottom: 0px; font-size: 40px"";>מוכנים לשלם: <span id=""c_p_y""></span></p>","32","evaluation","27","18","11B,19B,24A,26A","75","43","32","","","","","","","","","","","","","","",""
"","","","","","html-keyboard-response","99","270236","0.0-17.0-2.27","6c06767d-0888-4cae-a531-fd9c338ac0a5","null","<p style=""text-align: center;"">+</p>","null","fixation","","","","","","","","","","","","","","","","","","","","",""
"","","","","","html-slider-response","100","271248","0.0-17.0-0.28","6c06767d-0888-4cae-a531-fd9c338ac0a5","1000","
                  <p style=""text-align: center;"">₪36
                                                <br>30%</p>
                  <p id=""wtp"" style=""text-align:center; margin-top: 0px; margin-bottom: 0px; font-size: 40px"";>&ensp;</p>","-","viewing","0","11","3C,20A,22A","","","","","","","","","","","","","","","","","",""
"","","","","","html-slider-response","101","275251","0.0-17.0-1.28","6c06767d-0888-4cae-a531-fd9c338ac0a5","null","
                  <p style=""text-align: center;"">₪36
                                                <br>30%</p>
                  <p id=""wtp"" style=""text-align:center; margin-top: 0px; margin-bottom: 0px; font-size: 40px"";>מוכנים לשלם: <span id=""c_p_y""></span></p>","null","evaluation","73","11","3C,20A,22A","30","36","33","","","","","","","","","","","","","","",""
"","","","","","html-keyboard-response","102","275811","0.0-17.0-2.28","6c06767d-0888-4cae-a531-fd9c338ac0a5","null","<p style=""text-align: center;"">+</p>","null","fixation","","","","","","","","","","","","","","","","","","","","",""
"","","","","","html-slider-response","103","276821","0.0-17.0-0.29","6c06767d-0888-4cae-a531-fd9c338ac0a5","1000","
                  <p style=""text-align: center;"">₪71
                                                <br>75%</p>
                  <p id=""wtp"" style=""text-align:center; margin-top: 0px; margin-bottom: 0px; font-size: 40px"";>&ensp;</p>","-","viewing","0","28","8B","","","","","","","","","","","","","","","","","",""
"","","","","","html-slider-response","104","279688","0.0-17.0-1.29","6c06767d-0888-4cae-a531-fd9c338ac0a5","2866","
                  <p style=""text-align: center;"">₪71
                                                <br>75%</p>
                  <p id=""wtp"" style=""text-align:center; margin-top: 0px; margin-bottom: 0px; font-size: 40px"";>מוכנים לשלם: <span id=""c_p_y""></span></p>","35","evaluation","3","28","8B","75","71","35","","","","","","","","","","","","","","",""
"","","","","","html-keyboard-response","105","280842","0.0-17.0-2.29","6c06767d-0888-4cae-a531-fd9c338ac0a5","null","<p style=""text-align: center;"">+</p>","null","fixation","","","","","","","","","","","","","","","","","","","","",""
"","","","","","html-slider-response","106","281853","0.0-17.0-0.30","6c06767d-0888-4cae-a531-fd9c338ac0a5","1000","
                  <p style=""text-align: center;"">₪18
                                                <br>50%</p>
                  <p id=""wtp"" style=""text-align:center; margin-top: 0px; margin-bottom: 0px; font-size: 40px"";>&ensp;</p>","-","viewing","0","10","2C,16C,22B,28A","","","","","","","","","","","","","","","","","",""
"","","","","","html-slider-response","107","284552","0.0-17.0-1.30","6c06767d-0888-4cae-a531-fd9c338ac0a5","2698","
                  <p style=""text-align: center;"">₪18
                                                <br>50%</p>
                  <p id=""wtp"" style=""text-align:center; margin-top: 0px; margin-bottom: 0px; font-size: 40px"";>מוכנים לשלם: <span id=""c_p_y""></span></p>","16","evaluation","6","10","2C,16C,22B,28A","50","18","16","","","","","","","","","","","","","","",""
"","","","","","html-keyboard-response","108","285077","0.0-17.0-2.30","6c06767d-0888-4cae-a531-fd9c338ac0a5","null","<p style=""text-align: center;"">+</p>","null","fixation","","","","","","","","","","","","","","","","","","","","",""
"","","","","","html-keyboard-response","109","286078","0.0-18.0","6c06767d-0888-4cae-a531-fd9c338ac0a5","null","<p style=""text-align: center;"">+</p>","null","fixation","","","","","","","","","","","","","","","","","","","","",""
"","","","","","html-keyboard-response","110","290736","0.0-19.0","6c06767d-0888-4cae-a531-fd9c338ac0a5","null","<p>הפסקה.
          <br>לחצו כדי להמשיך.</p>","1","scan_wait","","","","","","","","","","","","","","","","","","","","",""
"","","","","","html-keyboard-response","111","291737","0.0-20.0","6c06767d-0888-4cae-a531-fd9c338ac0a5","null","<p style=""text-align: center;"">+</p>","null","fixation","","","","","","","","","","","","","","","","","","","","",""
"","","","","","html-slider-response","112","292745","0.0-21.0-0.0","6c06767d-0888-4cae-a531-fd9c338ac0a5","1000","
                  <p style=""text-align: center;"">₪4
                                                <br>75%</p>
                  <p id=""wtp"" style=""text-align:center; margin-top: 0px; margin-bottom: 0px; font-size: 40px"";>&ensp;</p>","-","viewing","0","3","12B,20B,23B,27C,29C","","","","","","","","","","","","","","","","","",""
"","","","","","html-slider-response","113","293832","0.0-21.0-1.0","6c06767d-0888-4cae-a531-fd9c338ac0a5","1086","
                  <p style=""text-align: center;"">₪4
                                                <br>75%</p>
                  <p id=""wtp"" style=""text-align:center; margin-top: 0px; margin-bottom: 0px; font-size: 40px"";>מוכנים לשלם: <span id=""c_p_y""></span></p>","3","evaluation","32","3","12B,20B,23B,27C,29C","75","4","3","","","","","","","","","","","","","","",""
"","","","","","html-keyboard-response","114","295195","0.0-21.0-2.0","6c06767d-0888-4cae-a531-fd9c338ac0a5","null","<p style=""text-align: center;"">+</p>","null","fixation","","","","","","","","","","","","","","","","","","","","",""
"","","","","","html-slider-response","115","296212","0.0-21.0-0.1","6c06767d-0888-4cae-a531-fd9c338ac0a5","1000","
                  <p style=""text-align: center;"">₪71
                                                <br>45%</p>
                  <p id=""wtp"" style=""text-align:center; margin-top: 0px; margin-bottom: 0px; font-size: 40px"";>&ensp;</p>","-","viewing","0","26","2B,16A","","","","","","","","","","","","","","","","","",""
"","","","","","html-slider-response","116","299096","0.0-21.0-1.1","6c06767d-0888-4cae-a531-fd9c338ac0a5","2883","
                  <p style=""text-align: center;"">₪71
                                                <br>45%</p>
                  <p id=""wtp"" style=""text-align:center; margin-top: 0px; margin-bottom: 0px; font-size: 40px"";>מוכנים לשלם: <span id=""c_p_y""></span></p>","44","evaluation","41","26","2B,16A","45","71","44","","","","","","","","","","","","","","",""
"","","","","","html-keyboard-response","117","300174","0.0-21.0-2.1","6c06767d-0888-4cae-a531-fd9c338ac0a5","null","<p style=""text-align: center;"">+</p>","null","fixation","","","","","","","","","","","","","","","","","","","","",""
"","","","","","html-slider-response","118","301192","0.0-21.0-0.2","6c06767d-0888-4cae-a531-fd9c338ac0a5","1000","
                  <p style=""text-align: center;"">₪58
                                                <br>30%</p>
                  <p id=""wtp"" style=""text-align:center; margin-top: 0px; margin-bottom: 0px; font-size: 40px"";>&ensp;</p>","-","viewing","0","19","13C,30A","","","","","","","","","","","","","","","","","",""
"","","","","","html-slider-response","119","303528","0.0-21.0-1.2","6c06767d-0888-4cae-a531-fd9c338ac0a5","2336","
                  <p style=""text-align: center;"">₪58
                                                <br>30%</p>
                  <p id=""wtp"" style=""text-align:center; margin-top: 0px; margin-bottom: 0px; font-size: 40px"";>מוכנים לשלם: <span id=""c_p_y""></span></p>","35","evaluation","67","19","13C,30A","30","58","35","","","","","","","","","","","","","","",""
"","","","","","html-keyboard-response","120","304046","0.0-21.0-2.2","6c06767d-0888-4cae-a531-fd9c338ac0a5","null","<p style=""text-align: center;"">+</p>","null","fixation","","","","","","","","","","","","","","","","","","","","",""
"","","","","","html-slider-response","121","305049","0.0-21.0-0.3","6c06767d-0888-4cae-a531-fd9c338ac0a5","1000","
                  <p style=""text-align: center;"">₪36
                                                <br>30%</p>
                  <p id=""wtp"" style=""text-align:center; margin-top: 0px; margin-bottom: 0px; font-size: 40px"";>&ensp;</p>","-","viewing","0","11","3C,20A,22A","","","","","","","","","","","","","","","","","",""
"","","","","","html-slider-response","122","307232","0.0-21.0-1.3","6c06767d-0888-4cae-a531-fd9c338ac0a5","2182","
                  <p style=""text-align: center;"">₪36
                                                <br>30%</p>
                  <p id=""wtp"" style=""text-align:center; margin-top: 0px; margin-bottom: 0px; font-size: 40px"";>מוכנים לשלם: <span id=""c_p_y""></span></p>","28","evaluation","4","11","3C,20A,22A","30","36","28","","","","","","","","","","","","","","",""
"","","","","","html-keyboard-response","123","308372","0.0-21.0-2.3","6c06767d-0888-4cae-a531-fd9c338ac0a5","null","<p style=""text-align: center;"">+</p>","null","fixation","","","","","","","","","","","","","","","","","","","","",""
"","","","","","html-slider-response","124","309381","0.0-21.0-0.4","6c06767d-0888-4cae-a531-fd9c338ac0a5","1000","
                  <p style=""text-align: center;"">₪43
                                                <br>60%</p>
                  <p id=""wtp"" style=""text-align:center; margin-top: 0px; margin-bottom: 0px; font-size: 40px"";>&ensp;</p>","-","viewing","0","17","2A,7A,9A,15B","","","","","","","","","","","","","","","","","",""
"","","","","","html-slider-response","125","312488","0.0-21.0-1.4","6c06767d-0888-4cae-a531-fd9c338ac0a5","3105","
                  <p style=""text-align: center;"">₪43
                                                <br>60%</p>
                  <p id=""wtp"" style=""text-align:center; margin-top: 0px; margin-bottom: 0px; font-size: 40px"";>מוכנים לשלם: <span id=""c_p_y""></span></p>","31","evaluation","45","17","2A,7A,9A,15B","60","43","31","","","","","","","","","","","","","","",""
"","","","","","html-keyboard-response","126","313555","0.0-21.0-2.4","6c06767d-0888-4cae-a531-fd9c338ac0a5","null","<p style=""text-align: center;"">+</p>","null","fixation","","","","","","","","","","","","","","","","","","","","",""
"","","","","","html-slider-response","127","314571","0.0-21.0-0.5","6c06767d-0888-4cae-a531-fd9c338ac0a5","1000","
                  <p style=""text-align: center;"">₪36
                                                <br>70%</p>
                  <p id=""wtp"" style=""text-align:center; margin-top: 0px; margin-bottom: 0px; font-size: 40px"";>&ensp;</p>","-","viewing","0","13","3A,5C,10B","","","","","","","","","","","","","","","","","",""
"","","","","","html-slider-response","128","318120","0.0-21.0-1.5","6c06767d-0888-4cae-a531-fd9c338ac0a5","3548","
                  <p style=""text-align: center;"">₪36
                                                <br>70%</p>
                  <p id=""wtp"" style=""text-align:center; margin-top: 0px; margin-bottom: 0px; font-size: 40px"";>מוכנים לשלם: <span id=""c_p_y""></span></p>","16","evaluation","36","13","3A,5C,10B","70","36","16","","","","","","","","","","","","","","",""
"","","","","","html-keyboard-response","129","319407","0.0-21.0-2.5","6c06767d-0888-4cae-a531-fd9c338ac0a5","null","<p style=""text-align: center;"">+</p>","null","fixation","","","","","","","","","","","","","","","","","","","","",""
"","","","","","html-slider-response","130","320409","0.0-21.0-0.6","6c06767d-0888-4cae-a531-fd9c338ac0a5","1000","
                  <p style=""text-align: center;"">₪36
                                                <br>60%</p>
                  <p id=""wtp"" style=""text-align:center; margin-top: 0px; margin-bottom: 0px; font-size: 40px"";>&ensp;</p>","-","viewing","0","12","1C,7C,15C","","","","","","","","","","","","","","","","","",""
"","","","","","html-slider-response","131","323832","0.0-21.0-1.6","6c06767d-0888-4cae-a531-fd9c338ac0a5","3421","
                  <p style=""text-align: center;"">₪36
                                                <br>60%</p>
                  <p id=""wtp"" style=""text-align:center; margin-top: 0px; margin-bottom: 0px; font-size: 40px"";>מוכנים לשלם: <span id=""c_p_y""></span></p>","27","evaluation","76","12","1C,7C,15C","60","36","27","","","","","","","","","","","","","","",""
"","","","","","html-keyboard-response","132","325285","0.0-21.0-2.6","6c06767d-0888-4cae-a531-fd9c338ac0a5","null","<p style=""text-align: center;"">+</p>","null","fixation","","","","","","","","","","","","","","","","","","","","",""
"","","","","","html-slider-response","133","326290","0.0-21.0-0.7","6c06767d-0888-4cae-a531-fd9c338ac0a5","1000","
                  <p style=""text-align: center;"">₪71
                                                <br>75%</p>
                  <p id=""wtp"" style=""text-align:center; margin-top: 0px; margin-bottom: 0px; font-size: 40px"";>&ensp;</p>","-","viewing","0","28","8B","","","","","","","","","","","","","","","","","",""
"","","","","","html-slider-response","134","330292","0.0-21.0-1.7","6c06767d-0888-4cae-a531-fd9c338ac0a5","null","
                  <p style=""text-align: center;"">₪71
                                                <br>75%</p>
                  <p id=""wtp"" style=""text-align:center; margin-top: 0px; margin-bottom: 0px; font-size: 40px"";>מוכנים לשלם: <span id=""c_p_y""></span></p>","null","evaluation","60","28","8B","75","71","35","","","","","","","","","","","","","","",""
"","","","","","html-keyboard-response","135","331317","0.0-21.0-2.7","6c06767d-0888-4cae-a531-fd9c338ac0a5","null","<p style=""text-align: center;"">+</p>","null","fixation","","","","","","","","","","","","","","","","","","","","",""
"","","","","","html-slider-response","136","332327","0.0-21.0-0.8","6c06767d-0888-4cae-a531-fd9c338ac0a5","1000","
                  <p style=""text-align: center;"">₪61
                                                <br>45%</p>
                  <p id=""wtp"" style=""text-align:center; margin-top: 0px; margin-bottom: 0px; font-size: 40px"";>&ensp;</p>","-","viewing","0","22","10A,11A","","","","","","","","","","","","","","","","","",""
"","","","","","html-slider-response","137","333864","0.0-21.0-1.8","6c06767d-0888-4cae-a531-fd9c338ac0a5","1536","
                  <p style=""text-align: center;"">₪61
                                                <br>45%</p>
                  <p id=""wtp"" style=""text-align:center; margin-top: 0px; margin-bottom: 0px; font-size: 40px"";>מוכנים לשלם: <span id=""c_p_y""></span></p>","32","evaluation","59","22","10A,11A","45","61","32","","","","","","","","","","","","","","",""
"","","","","","html-keyboard-response","138","334750","0.0-21.0-2.8","6c06767d-0888-4cae-a531-fd9c338ac0a5","null","<p style=""text-align: center;"">+</p>","null","fixation","","","","","","","","","","","","","","","","","","","","",""
"","","","","","html-slider-response","139","335753","0.0-21.0-0.9","6c06767d-0888-4cae-a531-fd9c338ac0a5","1000","
                  <p style=""text-align: center;"">₪64
                                                <br>50%</p>
                  <p id=""wtp"" style=""text-align:center; margin-top: 0px; margin-bottom: 0px; font-size: 40px"";>&ensp;</p>","-","viewing","0","25","1B,3B,4A","","","","","","","","","","","","","","","","","",""
"","","","","","html-slider-response","140","337568","0.0-21.0-1.9","6c06767d-0888-4cae-a531-fd9c338ac0a5","1814","
                  <p style=""text-align: center;"">₪64
                                                <br>50%</p>
                  <p id=""wtp"" style=""text-align:center; margin-top: 0px; margin-bottom: 0px; font-size: 40px"";>מוכנים לשלם: <span id=""c_p_y""></span></p>","36","evaluation","56","25","1B,3B,4A","50","64","36","","","","","","","","","","","","","","",""
"","","","","","html-keyboard-response","141","338940","0.0-21.0-2.9","6c06767d-0888-4cae-a531-fd9c338ac0a5","null","<p style=""text-align: center;"">+</p>","null","fixation","","","","","","","","","","","","","","","","","","","","",""
"","","","","","html-slider-response","142","339944","0.0-21.0-0.10","6c06767d-0888-4cae-a531-fd9c338ac0a5","1000","
                  <p style=""text-align: center;"">₪4
                                                <br>50%</p>
                  <p id=""wtp"" style=""text-align:center; margin-top: 0px; margin-bottom: 0px; font-size: 40px"";>&ensp;</p>","-","viewing","0","2","4C,17B","","","","","","","","","","","","","","","","","",""
"","","","","","html-slider-response","143","341616","0.0-21.0-1.10","6c06767d-0888-4cae-a531-fd9c338ac0a5","1671","
                  <p style=""text-align: center;"">₪4
                                                <br>50%</p>
                  <p id=""wtp"" style=""text-align:center; margin-top: 0px; margin-bottom: 0px; font-size: 40px"";>מוכנים לשלם: <span id=""c_p_y""></span></p>","0","evaluation","48","2","4C,17B","50","4","1","","","","","","","","","","","","","","",""
"","","","","","html-keyboard-response","144","342237","0.0-21.0-2.10","6c06767d-0888-4cae-a531-fd9c338ac0a5","null","<p style=""text-align: center;"">+</p>","null","fixation","","","","","","","","","","","","","","","","","","","","",""
"","","","","","html-slider-response","145","343246","0.0-21.0-0.11","6c06767d-0888-4cae-a531-fd9c338ac0a5","1000","
                  <p style=""text-align: center;"">₪11
                                                <br>75%</p>
                  <p id=""wtp"" style=""text-align:center; margin-top: 0px; margin-bottom: 0px; font-size: 40px"";>&ensp;</p>","-","viewing","0","7","6B,18B,22C,24C,29A","","","","","","","","","","","","","","","","","",""
"","","","","","html-slider-response","146","345896","0.0-21.0-1.11","6c06767d-0888-4cae-a531-fd9c338ac0a5","2649","
                  <p style=""text-align: center;"">₪11
                                                <br>75%</p>
                  <p id=""wtp"" style=""text-align:center; margin-top: 0px; margin-bottom: 0px; font-size: 40px"";>מוכנים לשלם: <span id=""c_p_y""></span></p>","0","evaluation","25","7","6B,18B,22C,24C,29A","75","11","1","","","","","","","","","","","","","","",""
"","","","","","html-keyboard-response","147","346618","0.0-21.0-2.11","6c06767d-0888-4cae-a531-fd9c338ac0a5","null","<p style=""text-align: center;"">+</p>","null","fixation","","","","","","","","","","","","","","","","","","","","",""
"","","","","","html-slider-response","148","347621","0.0-21.0-0.12","6c06767d-0888-4cae-a531-fd9c338ac0a5","1000","
                  <p style=""text-align: center;"">₪39
                                                <br>65%</p>
                  <p id=""wtp"" style=""text-align:center; margin-top: 0px; margin-bottom: 0px; font-size: 40px"";>&ensp;</p>","-","viewing","0","16","1A,15A,26C","","","","","","","","","","","","","","","","","",""
"","","","","","html-slider-response","149","350792","0.0-21.0-1.12","6c06767d-0888-4cae-a531-fd9c338ac0a5","3169","
                  <p style=""text-align: center;"">₪39
                                                <br>65%</p>
                  <p id=""wtp"" style=""text-align:center; margin-top: 0px; margin-bottom: 0px; font-size: 40px"";>מוכנים לשלם: <span id=""c_p_y""></span></p>","24","evaluation","65","16","1A,15A,26C","65","39","24","","","","","","","","","","","","","","",""
"","","","","","html-keyboard-response","150","351889","0.0-21.0-2.12","6c06767d-0888-4cae-a531-fd9c338ac0a5","null","<p style=""text-align: center;"">+</p>","null","fixation","","","","","","","","","","","","","","","","","","","","",""
"","","","","","html-slider-response","151","352895","0.0-21.0-0.13","6c06767d-0888-4cae-a531-fd9c338ac0a5","1000","
                  <p style=""text-align: center;"">₪36
                                                <br>75%</p>
                  <p id=""wtp"" style=""text-align:center; margin-top: 0px; margin-bottom: 0px; font-size: 40px"";>&ensp;</p>","-","viewing","0","14","4B,5A,13B,16B","","","","","","","","","","","","","","","","","",""
"","","","","","html-slider-response","152","354296","0.0-21.0-1.13","6c06767d-0888-4cae-a531-fd9c338ac0a5","1399","
                  <p style=""text-align: center;"">₪36
                                                <br>75%</p>
                  <p id=""wtp"" style=""text-align:center; margin-top: 0px; margin-bottom: 0px; font-size: 40px"";>מוכנים לשלם: <span id=""c_p_y""></span></p>","27","evaluation","25","14","4B,5A,13B,16B","75","36","27","","","","","","","","","","","","","","",""
"","","","","","html-keyboard-response","153","355775","0.0-21.0-2.13","6c06767d-0888-4cae-a531-fd9c338ac0a5","null","<p style=""text-align: center;"">+</p>","null","fixation","","","","","","","","","","","","","","","","","","","","",""
"","","","","","html-slider-response","154","356788","0.0-21.0-0.14","6c06767d-0888-4cae-a531-fd9c338ac0a5","1000","
                  <p style=""text-align: center;"">₪11
                                                <br>45%</p>
                  <p id=""wtp"" style=""text-align:center; margin-top: 0px; margin-bottom: 0px; font-size: 40px"";>&ensp;</p>","-","viewing","0","6","14B,21C,25C","","","","","","","","","","","","","","","","","",""
"","","","","","html-slider-response","155","358928","0.0-21.0-1.14","6c06767d-0888-4cae-a531-fd9c338ac0a5","2138","
                  <p style=""text-align: center;"">₪11
                                                <br>45%</p>
                  <p id=""wtp"" style=""text-align:center; margin-top: 0px; margin-bottom: 0px; font-size: 40px"";>מוכנים לשלם: <span id=""c_p_y""></span></p>","6","evaluation","56","6","14B,21C,25C","45","11","6","","","","","","","","","","","","","","",""
"","","","","","html-keyboard-response","156","360207","0.0-21.0-2.14","6c06767d-0888-4cae-a531-fd9c338ac0a5","null","<p style=""text-align: center;"">+</p>","null","fixation","","","","","","","","","","","","","","","","","","","","",""
"","","","","","html-slider-response","157","361209","0.0-21.0-0.15","6c06767d-0888-4cae-a531-fd9c338ac0a5","1000","
                  <p style=""text-align: center;"">₪39
                                                <br>60%</p>
                  <p id=""wtp"" style=""text-align:center; margin-top: 0px; margin-bottom: 0px; font-size: 40px"";>&ensp;</p>","-","viewing","0","15","9C,25B","","","","","","","","","","","","","","","","","",""
"","","","","","html-slider-response","158","363848","0.0-21.0-1.15","6c06767d-0888-4cae-a531-fd9c338ac0a5","2638","
                  <p style=""text-align: center;"">₪39
                                                <br>60%</p>
                  <p id=""wtp"" style=""text-align:center; margin-top: 0px; margin-bottom: 0px; font-size: 40px"";>מוכנים לשלם: <span id=""c_p_y""></span></p>","19","evaluation","44","15","9C,25B","60","39","19","","","","","","","","","","","","","","",""
"","","","","","html-keyboard-response","159","365200","0.0-21.0-2.15","6c06767d-0888-4cae-a531-fd9c338ac0a5","null","<p style=""text-align: center;"">+</p>","null","fixation","","","","","","","","","","","","","","","","","","","","",""
"","","","","","html-slider-response","160","366207","0.0-21.0-0.16","6c06767d-0888-4cae-a531-fd9c338ac0a5","1000","
                  <p style=""text-align: center;"">₪61
                                                <br>55%</p>
                  <p id=""wtp"" style=""text-align:center; margin-top: 0px; margin-bottom: 0px; font-size: 40px"";>&ensp;</p>","-","viewing","0","23","7B,26B","","","","","","","","","","","","","","","","","",""
"","","","","","html-slider-response","161","368968","0.0-21.0-1.16","6c06767d-0888-4cae-a531-fd9c338ac0a5","2759","
                  <p style=""text-align: center;"">₪61
                                                <br>55%</p>
                  <p id=""wtp"" style=""text-align:center; margin-top: 0px; margin-bottom: 0px; font-size: 40px"";>מוכנים לשלם: <span id=""c_p_y""></span></p>","19","evaluation","56","23","7B,26B","55","61","19","","","","","","","","","","","","","","",""
"","","","","","html-keyboard-response","162","369891","0.0-21.0-2.16","6c06767d-0888-4cae-a531-fd9c338ac0a5","null","<p style=""text-align: center;"">+</p>","null","fixation","","","","","","","","","","","","","","","","","","","","",""
"","","","","","html-slider-response","163","370895","0.0-21.0-0.17","6c06767d-0888-4cae-a531-fd9c338ac0a5","1000","
                  <p style=""text-align: center;"">₪79
                                                <br>40%</p>
                  <p id=""wtp"" style=""text-align:center; margin-top: 0px; margin-bottom: 0px; font-size: 40px"";>&ensp;</p>","-","viewing","0","30","9B","","","","","","","","","","","","","","","","","",""
"","","","","","html-slider-response","164","373056","0.0-21.0-1.17","6c06767d-0888-4cae-a531-fd9c338ac0a5","2160","
                  <p style=""text-align: center;"">₪79
                                                <br>40%</p>
                  <p id=""wtp"" style=""text-align:center; margin-top: 0px; margin-bottom: 0px; font-size: 40px"";>מוכנים לשלם: <span id=""c_p_y""></span></p>","34","evaluation","75","30","9B","40","79","34","","","","","","","","","","","","","","",""
"","","","","","html-keyboard-response","165","374072","0.0-21.0-2.17","6c06767d-0888-4cae-a531-fd9c338ac0a5","null","<p style=""text-align: center;"">+</p>","null","fixation","","","","","","","","","","","","","","","","","","","","",""
"","","","","","html-slider-response","166","375075","0.0-21.0-0.18","6c06767d-0888-4cae-a531-fd9c338ac0a5","1000","
                  <p style=""text-align: center;"">₪11
                                                <br>20%</p>
                  <p id=""wtp"" style=""text-align:center; margin-top: 0px; margin-bottom: 0px; font-size: 40px"";>&ensp;</p>","-","viewing","0","4","12C,17C,23C,28C","","","","","","","","","","","","","","","","","",""
"","","","","","html-slider-response","167","376672","0.0-21.0-1.18","6c06767d-0888-4cae-a531-fd9c338ac0a5","1595","
                  <p style=""text-align: center;"">₪11
                                                <br>20%</p>
                  <p id=""wtp"" style=""text-align:center; margin-top: 0px; margin-bottom: 0px; font-size: 40px"";>מוכנים לשלם: <span id=""c_p_y""></span></p>","6","evaluation","55","4","12C,17C,23C,28C","20","11","7","","","","","","","","","","","","","","",""
"","","","","","html-keyboard-response","168","377924","0.0-21.0-2.18","6c06767d-0888-4cae-a531-fd9c338ac0a5","null","<p style=""text-align: center;"">+</p>","null","fixation","","","","","","","","","","","","","","","","","","","","",""
"","","","","","html-slider-response","169","378927","0.0-21.0-0.19","6c06767d-0888-4cae-a531-fd9c338ac0a5","1000","
                  <p style=""text-align: center;"">₪18
                                                <br>25%</p>
                  <p id=""wtp"" style=""text-align:center; margin-top: 0px; margin-bottom: 0px; font-size: 40px"";>&ensp;</p>","-","viewing","0","9","14A,23A","","","","","","","","","","","","","","","","","",""
"","","","","","html-slider-response","170","381352","0.0-21.0-1.19","6c06767d-0888-4cae-a531-fd9c338ac0a5","2423","
                  <p style=""text-align: center;"">₪18
                                                <br>25%</p>
                  <p id=""wtp"" style=""text-align:center; margin-top: 0px; margin-bottom: 0px; font-size: 40px"";>מוכנים לשלם: <span id=""c_p_y""></span></p>","9","evaluation","17","9","14A,23A","25","18","9","","","","","","","","","","","","","","",""
"","","","","","html-keyboard-response","171","382386","0.0-21.0-2.19","6c06767d-0888-4cae-a531-fd9c338ac0a5","null","<p style=""text-align: center;"">+</p>","null","fixation","","","","","","","","","","","","","","","","","","","","",""
"","","","","","html-slider-response","172","383394","0.0-21.0-0.20","6c06767d-0888-4cae-a531-fd9c338ac0a5","1000","
                  <p style=""text-align: center;"">₪18
                                                <br>50%</p>
                  <p id=""wtp"" style=""text-align:center; margin-top: 0px; margin-bottom: 0px; font-size: 40px"";>&ensp;</p>","-","viewing","0","10","2C,16C,22B,28A","","","","","","","","","","","","","","","","","",""
"","","","","","html-slider-response","173","384520","0.0-21.0-1.20","6c06767d-0888-4cae-a531-fd9c338ac0a5","1124","
                  <p style=""text-align: center;"">₪18
                                                <br>50%</p>
                  <p id=""wtp"" style=""text-align:center; margin-top: 0px; margin-bottom: 0px; font-size: 40px"";>מוכנים לשלם: <span id=""c_p_y""></span></p>","2","evaluation","21","10","2C,16C,22B,28A","50","18","3","","","","","","","","","","","","","","",""
"","","","","","html-keyboard-response","174","385158","0.0-21.0-2.20","6c06767d-0888-4cae-a531-fd9c338ac0a5","null","<p style=""text-align: center;"">+</p>","null","fixation","","","","","","","","","","","","","","","","","","","","",""
"","","","","","html-slider-response","175","386162","0.0-21.0-0.21","6c06767d-0888-4cae-a531-fd9c338ac0a5","1000","
                  <p style=""text-align: center;"">₪71
                                                <br>55%</p>
                  <p id=""wtp"" style=""text-align:center; margin-top: 0px; margin-bottom: 0px; font-size: 40px"";>&ensp;</p>","-","viewing","0","27","5B,18A","","","","","","","","","","","","","","","","","",""
"","","","","","html-slider-response","176","389072","0.0-21.0-1.21","6c06767d-0888-4cae-a531-fd9c338ac0a5","2909","
                  <p style=""text-align: center;"">₪71
                                                <br>55%</p>
                  <p id=""wtp"" style=""text-align:center; margin-top: 0px; margin-bottom: 0px; font-size: 40px"";>מוכנים לשלם: <span id=""c_p_y""></span></p>","36","evaluation","55","27","5B,18A","55","71","36","","","","","","","","","","","","","","",""
"","","","","","html-keyboard-response","177","390109","0.0-21.0-2.21","6c06767d-0888-4cae-a531-fd9c338ac0a5","null","<p style=""text-align: center;"">+</p>","null","fixation","","","","","","","","","","","","","","","","","","","","",""
"","","","","","html-slider-response","178","391116","0.0-21.0-0.22","6c06767d-0888-4cae-a531-fd9c338ac0a5","1000","
                  <p style=""text-align: center;"">₪58
                                                <br>45%</p>
                  <p id=""wtp"" style=""text-align:center; margin-top: 0px; margin-bottom: 0px; font-size: 40px"";>&ensp;</p>","-","viewing","0","21","11C,18C,25A","","","","","","","","","","","","","","","","","",""
"","","","","","html-slider-response","179","394632","0.0-21.0-1.22","6c06767d-0888-4cae-a531-fd9c338ac0a5","3515","
                  <p style=""text-align: center;"">₪58
                                                <br>45%</p>
                  <p id=""wtp"" style=""text-align:center; margin-top: 0px; margin-bottom: 0px; font-size: 40px"";>מוכנים לשלם: <span id=""c_p_y""></span></p>","29","evaluation","19","21","11C,18C,25A","45","58","29","","","","","","","","","","","","","","",""
"","","","","","html-keyboard-response","180","395329","0.0-21.0-2.22","6c06767d-0888-4cae-a531-fd9c338ac0a5","null","<p style=""text-align: center;"">+</p>","null","fixation","","","","","","","","","","","","","","","","","","","","",""
"","","","","","html-slider-response","181","396332","0.0-21.0-0.23","6c06767d-0888-4cae-a531-fd9c338ac0a5","1000","
                  <p style=""text-align: center;"">₪11
                                                <br>25%</p>
                  <p id=""wtp"" style=""text-align:center; margin-top: 0px; margin-bottom: 0px; font-size: 40px"";>&ensp;</p>","-","viewing","0","5","12A,27B,28B,30B","","","","","","","","","","","","","","","","","",""
"","","","","","html-slider-response","182","397392","0.0-21.0-1.23","6c06767d-0888-4cae-a531-fd9c338ac0a5","1059","
                  <p style=""text-align: center;"">₪11
                                                <br>25%</p>
                  <p id=""wtp"" style=""text-align:center; margin-top: 0px; margin-bottom: 0px; font-size: 40px"";>מוכנים לשלם: <span id=""c_p_y""></span></p>","9","evaluation","4","5","12A,27B,28B,30B","25","11","9","","","","","","","","","","","","","","",""
"","","","","","html-keyboard-response","183","398562","0.0-21.0-2.23","6c06767d-0888-4cae-a531-fd9c338ac0a5","null","<p style=""text-align: center;"">+</p>","null","fixation","","","","","","","","","","","","","","","","","","","","",""
"","","","","","html-slider-response","184","399574","0.0-21.0-0.24","6c06767d-0888-4cae-a531-fd9c338ac0a5","1000","
                  <p style=""text-align: center;"">₪79
                                                <br>65%</p>
                  <p id=""wtp"" style=""text-align:center; margin-top: 0px; margin-bottom: 0px; font-size: 40px"";>&ensp;</p>","-","viewing","0","31","8A","","","","","","","","","","","","","","","","","",""
"","","","","","html-slider-response","185","402976","0.0-21.0-1.24","6c06767d-0888-4cae-a531-fd9c338ac0a5","3400","
                  <p style=""text-align: center;"">₪79
                                                <br>65%</p>
                  <p id=""wtp"" style=""text-align:center; margin-top: 0px; margin-bottom: 0px; font-size: 40px"";>מוכנים לשלם: <span id=""c_p_y""></span></p>","39","evaluation","30","31","8A","65","79","39","","","","","","","","","","","","","","",""
"","","","","","html-keyboard-response","186","404301","0.0-21.0-2.24","6c06767d-0888-4cae-a531-fd9c338ac0a5","null","<p style=""text-align: center;"">+</p>","null","fixation","","","","","","","","","","","","","","","","","","","","",""
"","","","","","html-slider-response","187","405305","0.0-21.0-0.25","6c06767d-0888-4cae-a531-fd9c338ac0a5","1000","
                  <p style=""text-align: center;"">₪16
                                                <br>20%</p>
                  <p id=""wtp"" style=""text-align:center; margin-top: 0px; margin-bottom: 0px; font-size: 40px"";>&ensp;</p>","-","viewing","0","8","14C,17A,20C,27A","","","","","","","","","","","","","","","","","",""
"","","","","","html-slider-response","188","406984","0.0-21.0-1.25","6c06767d-0888-4cae-a531-fd9c338ac0a5","1677","
                  <p style=""text-align: center;"">₪16
                                                <br>20%</p>
                  <p id=""wtp"" style=""text-align:center; margin-top: 0px; margin-bottom: 0px; font-size: 40px"";>מוכנים לשלם: <span id=""c_p_y""></span></p>","8","evaluation","3","8","14C,17A,20C,27A","20","16","8","","","","","","","","","","","","","","",""
"","","","","","html-keyboard-response","189","408348","0.0-21.0-2.25","6c06767d-0888-4cae-a531-fd9c338ac0a5","null","<p style=""text-align: center;"">+</p>","null","fixation","","","","","","","","","","","","","","","","","","","","",""
"","","","","","html-slider-response","190","409350","0.0-21.0-0.26","6c06767d-0888-4cae-a531-fd9c338ac0a5","1000","
                  <p style=""text-align: center;"">₪4
                                                <br>25%</p>
                  <p id=""wtp"" style=""text-align:center; margin-top: 0px; margin-bottom: 0px; font-size: 40px"";>&ensp;</p>","-","viewing","0","1","6C,29B,30C","","","","","","","","","","","","","","","","","",""
"","","","","","html-slider-response","191","410120","0.0-21.0-1.26","6c06767d-0888-4cae-a531-fd9c338ac0a5","769","
                  <p style=""text-align: center;"">₪4
                                                <br>25%</p>
                  <p id=""wtp"" style=""text-align:center; margin-top: 0px; margin-bottom: 0px; font-size: 40px"";>מוכנים לשלם: <span id=""c_p_y""></span></p>","5","evaluation","61","1","6C,29B,30C","25","4","5","","","","","","","","","","","","","","",""
"","","","","","html-keyboard-response","192","411034","0.0-21.0-2.26","6c06767d-0888-4cae-a531-fd9c338ac0a5","null","<p style=""text-align: center;"">+</p>","null","fixation","","","","","","","","","","","","","","","","","","","","",""
"","","","","","html-slider-response","193","412035","0.0-21.0-0.27","6c06767d-0888-4cae-a531-fd9c338ac0a5","1000","
                  <p style=""text-align: center;"">₪58
                                                <br>40%</p>
                  <p id=""wtp"" style=""text-align:center; margin-top: 0px; margin-bottom: 0px; font-size: 40px"";>&ensp;</p>","-","viewing","0","20","10C,13A,19C,21B","","","","","","","","","","","","","","","","","",""
"","","","","","html-slider-response","194","414400","0.0-21.0-1.27","6c06767d-0888-4cae-a531-fd9c338ac0a5","2363","
                  <p style=""text-align: center;"">₪58
                                                <br>40%</p>
                  <p id=""wtp"" style=""text-align:center; margin-top: 0px; margin-bottom: 0px; font-size: 40px"";>מוכנים לשלם: <span id=""c_p_y""></span></p>","36","evaluation","79","20","10C,13A,19C,21B","40","58","36","","","","","","","","","","","","","","",""
"","","","","","html-keyboard-response","195","415364","0.0-21.0-2.27","6c06767d-0888-4cae-a531-fd9c338ac0a5","null","<p style=""text-align: center;"">+</p>","null","fixation","","","","","","","","","","","","","","","","","","","","",""
"","","","","","html-slider-response","196","416369","0.0-21.0-0.28","6c06767d-0888-4cae-a531-fd9c338ac0a5","1000","
                  <p style=""text-align: center;"">₪76
                                                <br>65%</p>
                  <p id=""wtp"" style=""text-align:center; margin-top: 0px; margin-bottom: 0px; font-size: 40px"";>&ensp;</p>","-","viewing","0","29","8C,19A,24B","","","","","","","","","","","","","","","","","",""
"","","","","","html-slider-response","197","418808","0.0-21.0-1.28","6c06767d-0888-4cae-a531-fd9c338ac0a5","2438","
                  <p style=""text-align: center;"">₪76
                                                <br>65%</p>
                  <p id=""wtp"" style=""text-align:center; margin-top: 0px; margin-bottom: 0px; font-size: 40px"";>מוכנים לשלם: <span id=""c_p_y""></span></p>","41","evaluation","41","29","8C,19A,24B","65","76","41","","","","","","","","","","","","","","",""
"","","","","","html-keyboard-response","198","419453","0.0-21.0-2.28","6c06767d-0888-4cae-a531-fd9c338ac0a5","null","<p style=""text-align: center;"">+</p>","null","fixation","","","","","","","","","","","","","","","","","","","","",""
"","","","","","html-slider-response","199","420464","0.0-21.0-0.29","6c06767d-0888-4cae-a531-fd9c338ac0a5","1000","
                  <p style=""text-align: center;"">₪64
                                                <br>25%</p>
                  <p id=""wtp"" style=""text-align:center; margin-top: 0px; margin-bottom: 0px; font-size: 40px"";>&ensp;</p>","-","viewing","0","24","6A,21A","","","","","","","","","","","","","","","","","",""
"","","","","","html-slider-response","200","422008","0.0-21.0-1.29","6c06767d-0888-4cae-a531-fd9c338ac0a5","1543","
                  <p style=""text-align: center;"">₪64
                                                <br>25%</p>
                  <p id=""wtp"" style=""text-align:center; margin-top: 0px; margin-bottom: 0px; font-size: 40px"";>מוכנים לשלם: <span id=""c_p_y""></span></p>","3","evaluation","77","24","6A,21A","25","64","4","","","","","","","","","","","","","","",""
"","","","","","html-keyboard-response","201","423237","0.0-21.0-2.29","6c06767d-0888-4cae-a531-fd9c338ac0a5","null","<p style=""text-align: center;"">+</p>","null","fixation","","","","","","","","","","","","","","","","","","","","",""
"","","","","","html-slider-response","202","424251","0.0-21.0-0.30","6c06767d-0888-4cae-a531-fd9c338ac0a5","1000","
                  <p style=""text-align: center;"">₪43
                                                <br>75%</p>
                  <p id=""wtp"" style=""text-align:center; margin-top: 0px; margin-bottom: 0px; font-size: 40px"";>&ensp;</p>","-","viewing","0","18","11B,19B,24A,26A","","","","","","","","","","","","","","","","","",""
"","","","","","html-slider-response","203","427376","0.0-21.0-1.30","6c06767d-0888-4cae-a531-fd9c338ac0a5","3123","
                  <p style=""text-align: center;"">₪43
                                                <br>75%</p>
                  <p id=""wtp"" style=""text-align:center; margin-top: 0px; margin-bottom: 0px; font-size: 40px"";>מוכנים לשלם: <span id=""c_p_y""></span></p>","34","evaluation","45","18","11B,19B,24A,26A","75","43","34","","","","","","","","","","","","","","",""
"","","","","","html-keyboard-response","204","428875","0.0-21.0-2.30","6c06767d-0888-4cae-a531-fd9c338ac0a5","null","<p style=""text-align: center;"">+</p>","null","fixation","","","","","","","","","","","","","","","","","","","","",""
"","","","","","html-keyboard-response","205","429877","0.0-22.0","6c06767d-0888-4cae-a531-fd9c338ac0a5","null","<p style=""text-align: center;"">+</p>","null","fixation","","","","","","","","","","","","","","","","","","","","",""
"","","","","","html-keyboard-response","206","445480","0.0-23.0","6c06767d-0888-4cae-a531-fd9c338ac0a5","null","<p>הפסקה.
          <br>לחצו כדי להמשיך.</p>","1","scan_wait","","","","","","","","","","","","","","","","","","","","",""
"","","","","","html-keyboard-response","207","446487","0.0-24.0","6c06767d-0888-4cae-a531-fd9c338ac0a5","null","<p style=""text-align: center;"">+</p>","null","fixation","","","","","","","","","","","","","","","","","","","","",""
"","","","","","html-slider-response","208","447488","0.0-25.0-0.0","6c06767d-0888-4cae-a531-fd9c338ac0a5","1000","
                  <p style=""text-align: center;"">₪4
                                                <br>50%</p>
                  <p id=""wtp"" style=""text-align:center; margin-top: 0px; margin-bottom: 0px; font-size: 40px"";>&ensp;</p>","-","viewing","0","2","4C,17B","","","","","","","","","","","","","","","","","",""
"","","","","","html-slider-response","209","449208","0.0-25.0-1.0","6c06767d-0888-4cae-a531-fd9c338ac0a5","1718","
                  <p style=""text-align: center;"">₪4
                                                <br>50%</p>
                  <p id=""wtp"" style=""text-align:center; margin-top: 0px; margin-bottom: 0px; font-size: 40px"";>מוכנים לשלם: <span id=""c_p_y""></span></p>","1","evaluation","51","2","4C,17B","50","4","1","","","","","","","","","","","","","","",""
"","","","","","html-keyboard-response","210","450184","0.0-25.0-2.0","6c06767d-0888-4cae-a531-fd9c338ac0a5","null","<p style=""text-align: center;"">+</p>","null","fixation","","","","","","","","","","","","","","","","","","","","",""
"","","","","","html-slider-response","211","451195","0.0-25.0-0.1","6c06767d-0888-4cae-a531-fd9c338ac0a5","1000","
                  <p style=""text-align: center;"">₪71
                                                <br>45%</p>
                  <p id=""wtp"" style=""text-align:center; margin-top: 0px; margin-bottom: 0px; font-size: 40px"";>&ensp;</p>","-","viewing","0","26","2B,16A","","","","","","","","","","","","","","","","","",""
"","","","","","html-slider-response","212","453264","0.0-25.0-1.1","6c06767d-0888-4cae-a531-fd9c338ac0a5","2068","
                  <p style=""text-align: center;"">₪71
                                                <br>45%</p>
                  <p id=""wtp"" style=""text-align:center; margin-top: 0px; margin-bottom: 0px; font-size: 40px"";>מוכנים לשלם: <span id=""c_p_y""></span></p>","29","evaluation","66","26","2B,16A","45","71","29","","","","","","","","","","","","","","",""
"","","","","","html-keyboard-response","213","453900","0.0-25.0-2.1","6c06767d-0888-4cae-a531-fd9c338ac0a5","null","<p style=""text-align: center;"">+</p>","null","fixation","","","","","","","","","","","","","","","","","","","","",""
"","","","","","html-slider-response","214","454905","0.0-25.0-0.2","6c06767d-0888-4cae-a531-fd9c338ac0a5","1000","
                  <p style=""text-align: center;"">₪79
                                                <br>40%</p>
                  <p id=""wtp"" style=""text-align:center; margin-top: 0px; margin-bottom: 0px; font-size: 40px"";>&ensp;</p>","-","viewing","0","30","9B","","","","","","","","","","","","","","","","","",""
"","","","","","html-slider-response","215","456680","0.0-25.0-1.2","6c06767d-0888-4cae-a531-fd9c338ac0a5","1774","
                  <p style=""text-align: center;"">₪79
                                                <br>40%</p>
                  <p id=""wtp"" style=""text-align:center; margin-top: 0px; margin-bottom: 0px; font-size: 40px"";>מוכנים לשלם: <span id=""c_p_y""></span></p>","31","evaluation","10","30","9B","40","79","31","","","","","","","","","","","","","","",""
"","","","","","html-keyboard-response","216","457501","0.0-25.0-2.2","6c06767d-0888-4cae-a531-fd9c338ac0a5","null","<p style=""text-align: center;"">+</p>","null","fixation","","","","","","","","","","","","","","","","","","","","",""
"","","","","","html-slider-response","217","458503","0.0-25.0-0.3","6c06767d-0888-4cae-a531-fd9c338ac0a5","1000","
                  <p style=""text-align: center;"">₪11
                                                <br>20%</p>
                  <p id=""wtp"" style=""text-align:center; margin-top: 0px; margin-bottom: 0px; font-size: 40px"";>&ensp;</p>","-","viewing","0","4","12C,17C,23C,28C","","","","","","","","","","","","","","","","","",""
"","","","","","html-slider-response","218","462516","0.0-25.0-1.3","6c06767d-0888-4cae-a531-fd9c338ac0a5","null","
                  <p style=""text-align: center;"">₪11
                                                <br>20%</p>
                  <p id=""wtp"" style=""text-align:center; margin-top: 0px; margin-bottom: 0px; font-size: 40px"";>מוכנים לשלם: <span id=""c_p_y""></span></p>","null","evaluation","15","4","12C,17C,23C,28C","20","11","4","","","","","","","","","","","","","","",""
"","","","","","html-keyboard-response","219","463744","0.0-25.0-2.3","6c06767d-0888-4cae-a531-fd9c338ac0a5","null","<p style=""text-align: center;"">+</p>","null","fixation","","","","","","","","","","","","","","","","","","","","",""
"","","","","","html-slider-response","220","464752","0.0-25.0-0.4","6c06767d-0888-4cae-a531-fd9c338ac0a5","1000","
                  <p style=""text-align: center;"">₪64
                                                <br>25%</p>
                  <p id=""wtp"" style=""text-align:center; margin-top: 0px; margin-bottom: 0px; font-size: 40px"";>&ensp;</p>","-","viewing","0","24","6A,21A","","","","","","","","","","","","","","","","","",""
"","","","","","html-slider-response","221","467624","0.0-25.0-1.4","6c06767d-0888-4cae-a531-fd9c338ac0a5","2870","
                  <p style=""text-align: center;"">₪64
                                                <br>25%</p>
                  <p id=""wtp"" style=""text-align:center; margin-top: 0px; margin-bottom: 0px; font-size: 40px"";>מוכנים לשלם: <span id=""c_p_y""></span></p>","22","evaluation","40","24","6A,21A","25","64","22","","","","","","","","","","","","","","",""
"","","","","","html-keyboard-response","222","468325","0.0-25.0-2.4","6c06767d-0888-4cae-a531-fd9c338ac0a5","null","<p style=""text-align: center;"">+</p>","null","fixation","","","","","","","","","","","","","","","","","","","","",""
"","","","","","html-slider-response","223","469340","0.0-25.0-0.5","6c06767d-0888-4cae-a531-fd9c338ac0a5","1000","
                  <p style=""text-align: center;"">₪71
                                                <br>55%</p>
                  <p id=""wtp"" style=""text-align:center; margin-top: 0px; margin-bottom: 0px; font-size: 40px"";>&ensp;</p>","-","viewing","0","27","5B,18A","","","","","","","","","","","","","","","","","",""
"","","","","","html-slider-response","224","472000","0.0-25.0-1.5","6c06767d-0888-4cae-a531-fd9c338ac0a5","2659","
                  <p style=""text-align: center;"">₪71
                                                <br>55%</p>
                  <p id=""wtp"" style=""text-align:center; margin-top: 0px; margin-bottom: 0px; font-size: 40px"";>מוכנים לשלם: <span id=""c_p_y""></span></p>","23","evaluation","73","27","5B,18A","55","71","23","","","","","","","","","","","","","","",""
"","","","","","html-keyboard-response","225","473465","0.0-25.0-2.5","6c06767d-0888-4cae-a531-fd9c338ac0a5","null","<p style=""text-align: center;"">+</p>","null","fixation","","","","","","","","","","","","","","","","","","","","",""
"","","","","","html-slider-response","226","474468","0.0-25.0-0.6","6c06767d-0888-4cae-a531-fd9c338ac0a5","1000","
                  <p style=""text-align: center;"">₪79
                                                <br>65%</p>
                  <p id=""wtp"" style=""text-align:center; margin-top: 0px; margin-bottom: 0px; font-size: 40px"";>&ensp;</p>","-","viewing","0","31","8A","","","","","","","","","","","","","","","","","",""
"","","","","","html-slider-response","227","477128","0.0-25.0-1.6","6c06767d-0888-4cae-a531-fd9c338ac0a5","2659","
                  <p style=""text-align: center;"">₪79
                                                <br>65%</p>
                  <p id=""wtp"" style=""text-align:center; margin-top: 0px; margin-bottom: 0px; font-size: 40px"";>מוכנים לשלם: <span id=""c_p_y""></span></p>","28","evaluation","74","31","8A","65","79","28","","","","","","","","","","","","","","",""
"","","","","","html-keyboard-response","228","478586","0.0-25.0-2.6","6c06767d-0888-4cae-a531-fd9c338ac0a5","null","<p style=""text-align: center;"">+</p>","null","fixation","","","","","","","","","","","","","","","","","","","","",""
"","","","","","html-slider-response","229","479597","0.0-25.0-0.7","6c06767d-0888-4cae-a531-fd9c338ac0a5","1000","
                  <p style=""text-align: center;"">₪11
                                                <br>75%</p>
                  <p id=""wtp"" style=""text-align:center; margin-top: 0px; margin-bottom: 0px; font-size: 40px"";>&ensp;</p>","-","viewing","0","7","6B,18B,22C,24C,29A","","","","","","","","","","","","","","","","","",""
"","","","","","html-slider-response","230","481384","0.0-25.0-1.7","6c06767d-0888-4cae-a531-fd9c338ac0a5","1786","
                  <p style=""text-align: center;"">₪11
                                                <br>75%</p>
                  <p id=""wtp"" style=""text-align:center; margin-top: 0px; margin-bottom: 0px; font-size: 40px"";>מוכנים לשלם: <span id=""c_p_y""></span></p>","1","evaluation","55","7","6B,18B,22C,24C,29A","75","11","1","","","","","","","","","","","","","","",""
"","","","","","html-keyboard-response","231","482175","0.0-25.0-2.7","6c06767d-0888-4cae-a531-fd9c338ac0a5","null","<p style=""text-align: center;"">+</p>","null","fixation","","","","","","","","","","","","","","","","","","","","",""
"","","","","","html-slider-response","232","483176","0.0-25.0-0.8","6c06767d-0888-4cae-a531-fd9c338ac0a5","1000","
                  <p style=""text-align: center;"">₪58
                                                <br>40%</p>
                  <p id=""wtp"" style=""text-align:center; margin-top: 0px; margin-bottom: 0px; font-size: 40px"";>&ensp;</p>","-","viewing","0","20","10C,13A,19C,21B","","","","","","","","","","","","","","","","","",""
"","","","","","html-slider-response","233","485832","0.0-25.0-1.8","6c06767d-0888-4cae-a531-fd9c338ac0a5","2654","
                  <p style=""text-align: center;"">₪58
                                                <br>40%</p>
                  <p id=""wtp"" style=""text-align:center; margin-top: 0px; margin-bottom: 0px; font-size: 40px"";>מוכנים לשלם: <span id=""c_p_y""></span></p>","17","evaluation","61","20","10C,13A,19C,21B","40","58","17","","","","","","","","","","","","","","",""
"","","","","","html-keyboard-response","234","486713","0.0-25.0-2.8","6c06767d-0888-4cae-a531-fd9c338ac0a5","null","<p style=""text-align: center;"">+</p>","null","fixation","","","","","","","","","","","","","","","","","","","","",""
"","","","","","html-slider-response","235","487716","0.0-25.0-0.9","6c06767d-0888-4cae-a531-fd9c338ac0a5","1000","
                  <p style=""text-align: center;"">₪64
                                                <br>50%</p>
                  <p id=""wtp"" style=""text-align:center; margin-top: 0px; margin-bottom: 0px; font-size: 40px"";>&ensp;</p>","-","viewing","0","25","1B,3B,4A","","","","","","","","","","","","","","","","","",""
"","","","","","html-slider-response","236","489784","0.0-25.0-1.9","6c06767d-0888-4cae-a531-fd9c338ac0a5","2066","
                  <p style=""text-align: center;"">₪64
                                                <br>50%</p>
                  <p id=""wtp"" style=""text-align:center; margin-top: 0px; margin-bottom: 0px; font-size: 40px"";>מוכנים לשלם: <span id=""c_p_y""></span></p>","29","evaluation","1","25","1B,3B,4A","50","64","29","","","","","","","","","","","","","","",""
"","","","","","html-keyboard-response","237","490795","0.0-25.0-2.9","6c06767d-0888-4cae-a531-fd9c338ac0a5","null","<p style=""text-align: center;"">+</p>","null","fixation","","","","","","","","","","","","","","","","","","","","",""
"","","","","","html-slider-response","238","491803","0.0-25.0-0.10","6c06767d-0888-4cae-a531-fd9c338ac0a5","1000","
                  <p style=""text-align: center;"">₪4
                                                <br>25%</p>
                  <p id=""wtp"" style=""text-align:center; margin-top: 0px; margin-bottom: 0px; font-size: 40px"";>&ensp;</p>","-","viewing","0","1","6C,29B,30C","","","","","","","","","","","","","","","","","",""
"","","","","","html-slider-response","239","493712","0.0-25.0-1.10","6c06767d-0888-4cae-a531-fd9c338ac0a5","1908","
                  <p style=""text-align: center;"">₪4
                                                <br>25%</p>
                  <p id=""wtp"" style=""text-align:center; margin-top: 0px; margin-bottom: 0px; font-size: 40px"";>מוכנים לשלם: <span id=""c_p_y""></span></p>","1","evaluation","14","1","6C,29B,30C","25","4","1","","","","","","","","","","","","","","",""
"","","","","","html-keyboard-response","240","494788","0.0-25.0-2.10","6c06767d-0888-4cae-a531-fd9c338ac0a5","null","<p style=""text-align: center;"">+</p>","null","fixation","","","","","","","","","","","","","","","","","","","","",""
"","","","","","html-slider-response","241","495792","0.0-25.0-0.11","6c06767d-0888-4cae-a531-fd9c338ac0a5","1000","
                  <p style=""text-align: center;"">₪11
                                                <br>45%</p>
                  <p id=""wtp"" style=""text-align:center; margin-top: 0px; margin-bottom: 0px; font-size: 40px"";>&ensp;</p>","-","viewing","0","6","14B,21C,25C","","","","","","","","","","","","","","","","","",""
"","","","","","html-slider-response","242","498936","0.0-25.0-1.11","6c06767d-0888-4cae-a531-fd9c338ac0a5","3143","
                  <p style=""text-align: center;"">₪11
                                                <br>45%</p>
                  <p id=""wtp"" style=""text-align:center; margin-top: 0px; margin-bottom: 0px; font-size: 40px"";>מוכנים לשלם: <span id=""c_p_y""></span></p>","2","evaluation","32","6","14B,21C,25C","45","11","2","","","","","","","","","","","","","","",""
"","","","","","html-keyboard-response","243","499594","0.0-25.0-2.11","6c06767d-0888-4cae-a531-fd9c338ac0a5","null","<p style=""text-align: center;"">+</p>","null","fixation","","","","","","","","","","","","","","","","","","","","",""
"","","","","","html-slider-response","244","500596","0.0-25.0-0.12","6c06767d-0888-4cae-a531-fd9c338ac0a5","1000","
                  <p style=""text-align: center;"">₪39
                                                <br>60%</p>
                  <p id=""wtp"" style=""text-align:center; margin-top: 0px; margin-bottom: 0px; font-size: 40px"";>&ensp;</p>","-","viewing","0","15","9C,25B","","","","","","","","","","","","","","","","","",""
"","","","","","html-slider-response","245","503408","0.0-25.0-1.12","6c06767d-0888-4cae-a531-fd9c338ac0a5","2811","
                  <p style=""text-align: center;"">₪39
                                                <br>60%</p>
                  <p id=""wtp"" style=""text-align:center; margin-top: 0px; margin-bottom: 0px; font-size: 40px"";>מוכנים לשלם: <span id=""c_p_y""></span></p>","20","evaluation","51","15","9C,25B","60","39","20","","","","","","","","","","","","","","",""
"","","","","","html-keyboard-response","246","504742","0.0-25.0-2.12","6c06767d-0888-4cae-a531-fd9c338ac0a5","null","<p style=""text-align: center;"">+</p>","null","fixation","","","","","","","","","","","","","","","","","","","","",""
"","","","","","html-slider-response","247","505758","0.0-25.0-0.13","6c06767d-0888-4cae-a531-fd9c338ac0a5","1000","
                  <p style=""text-align: center;"">₪58
                                                <br>45%</p>
                  <p id=""wtp"" style=""text-align:center; margin-top: 0px; margin-bottom: 0px; font-size: 40px"";>&ensp;</p>","-","viewing","0","21","11C,18C,25A","","","","","","","","","","","","","","","","","",""
"","","","","","html-slider-response","248","508000","0.0-25.0-1.13","6c06767d-0888-4cae-a531-fd9c338ac0a5","2241","
                  <p style=""text-align: center;"">₪58
                                                <br>45%</p>
                  <p id=""wtp"" style=""text-align:center; margin-top: 0px; margin-bottom: 0px; font-size: 40px"";>מוכנים לשלם: <span id=""c_p_y""></span></p>","19","evaluation","6","21","11C,18C,25A","45","58","19","","","","","","","","","","","","","","",""
"","","","","","html-keyboard-response","249","508594","0.0-25.0-2.13","6c06767d-0888-4cae-a531-fd9c338ac0a5","null","<p style=""text-align: center;"">+</p>","null","fixation","","","","","","","","","","","","","","","","","","","","",""
"","","","","","html-slider-response","250","509611","0.0-25.0-0.14","6c06767d-0888-4cae-a531-fd9c338ac0a5","1000","
                  <p style=""text-align: center;"">₪76
                                                <br>65%</p>
                  <p id=""wtp"" style=""text-align:center; margin-top: 0px; margin-bottom: 0px; font-size: 40px"";>&ensp;</p>","-","viewing","0","29","8C,19A,24B","","","","","","","","","","","","","","","","","",""
"","","","","","html-slider-response","251","512152","0.0-25.0-1.14","6c06767d-0888-4cae-a531-fd9c338ac0a5","2540","
                  <p style=""text-align: center;"">₪76
                                                <br>65%</p>
                  <p id=""wtp"" style=""text-align:center; margin-top: 0px; margin-bottom: 0px; font-size: 40px"";>מוכנים לשלם: <span id=""c_p_y""></span></p>","33","evaluation","31","29","8C,19A,24B","65","76","33","","","","","","","","","","","","","","",""
"","","","","","html-keyboard-response","252","512831","0.0-25.0-2.14","6c06767d-0888-4cae-a531-fd9c338ac0a5","null","<p style=""text-align: center;"">+</p>","null","fixation","","","","","","","","","","","","","","","","","","","","",""
"","","","","","html-slider-response","253","513833","0.0-25.0-0.15","6c06767d-0888-4cae-a531-fd9c338ac0a5","1000","
