"success","timeout","failed_images","failed_audio","failed_video","trial_type","trial_index","time_elapsed","internal_node_id","subject_id","rt","stimulus","response","part","slider_start","ID","set_ID","prob","amount","last_location","actual_choice","actual_EV","binary_id","trinary_id","catch","A_key","D_key","choice_prob","choice_amount","chosen_part","potential_prize_prob","potential_prize_amount","won_prize","total_prize","prize_cost","remaining_budget","accuracy"
"true","false","[]","[]","[]","preload","0","187","0.0-0.0","9f4864a0-f288-4233-97bb-7895ea53da8d","","","","","","","","","","","","","","","","","","","","","","","","","","",""
"","","","","","html-keyboard-response","1","831759","0.0-1.0","9f4864a0-f288-4233-97bb-7895ea53da8d","null","
          <h1>שלום וברוכים הבאים!</h1>
          <p>לפניכם ניסוי בקבלת החלטות עם שני חלקים.
          <br><br>לחצו על העכבר כדי להמשיך.</p>","0","example","","","","","","","","","","","","","","","","","","","","","","",""
"","","","","","html-keyboard-response","2","838270","0.0-2.0","9f4864a0-f288-4233-97bb-7895ea53da8d","null","
        <h1>חלק 1</h1>
        <p>בקרוב יוצגו בפניכם הגרלות.
        <br>עליכם לבחור את המחיר המירבי שתהיו מוכנים לשלם כדי להשתתף בהגרלה שתוצג.
        <br>יש לכם תקציב של ₪80 לכל הגרלה. 
        <br>נסו להעריך כל הגרלה בנפרד ולחשוב כמה היא שווה עבורכם, ₪80 זמינים לכל הגרלה בנפרד.
        <br><br>לחצו על העכבר כדי להמשיך.</p>","1","instructions","","","","","","","","","","","","","","","","","","","","","","",""
"","","","","","html-keyboard-response","3","842854","0.0-3.0","9f4864a0-f288-4233-97bb-7895ea53da8d","null","
        <p>בסוף הניסוי, המחשב יבחר את אחת ההגרלות ויקבע מחיר לכרטיס עבורה. 
        <br>במידה והמחיר שבחרתם נמוך מהמחיר שנבחר על ידי המחשב, לא תשתתפו בהגרלה ותשארו עם מלוא התקציב.
        <br>במידה והמחיר שבחרתם גבוה מהמחיר שנבחר על ידי המחשב, תשלמו את המחיר שנקבע ותשתתפו בהגרלה.
        <br><br>לחצו על העכבר כדי להמשיך.</p>","1","instructions","","","","","","","","","","","","","","","","","","","","","","",""
"","","","","","html-slider-response","4","854702","0.0-4.0","9f4864a0-f288-4233-97bb-7895ea53da8d","11744","
        <p style=""font-size: 42px;"">נתחיל עם דוגמא: 
        <br>ההגרלה מטה מציעה 65% סיכוי לזכות ב-₪40 
        <br>&emsp;&emsp;&emsp;&emsp;&emsp;&emsp;&emsp;&emsp;&ensp;35% סיכוי לזכות ב-₪0.
        <br><br>מה המחיר המירבי שתהיו מוכנים לשלם על כרטיס להגרלה זו בין 0 ל-₪80?
        <br>הזיזו את העכבר על פני המלבן ולחצו כדי לבצע בחירה.</p>
        
        <p style=""text-align: center;"">₪40<br>65%</p>

        <p id=""wtp"" style=""text-align:center; margin-top: 0px; margin-bottom: 0px; font-size: 40px"";>מוכנים לשלם: <span id=""c_p_y""></span></p>","5","example","50","","","","","","","","","","","","","","","","","","","","","",""
"","","","","","html-keyboard-response","5","859022","0.0-5.0","9f4864a0-f288-4233-97bb-7895ea53da8d","null","<p>יפה מאוד!
                <br> בחרתם שתהיו מוכנים לשלם ₪5 כדי להשתתף בהגרלה:
                <br><p style=""text-align: center;"">₪40<br>65%</p>
                <p>נשמע נכון?
                <br>נניח שהגרלה זו נבחרה בסוף הניסוי.
                <br>כעת המחשב יקבע מחיר עבורה באקראי.
                <br>לחצו על העכבר להמשך.</p>","1","example","","","","","","","","","","","","","","","","","","","","","","",""
"","","","","","html-keyboard-response","6","868822","0.0-6.0","9f4864a0-f288-4233-97bb-7895ea53da8d","null","<p>המחשב קבע מחיר: ₪40
                <br>ואתם בחרתם לשלם לכל היותר: ₪5
                <br><br>מכיוון שהמחיר שבחרתם נמוך מהמחיר שנקבע, לא תתשתתפו בהגרלה.
                <br>במקרה כזה, בסוף הניסוי תקבלו את כל התקציב ההתחלתי של ₪80.
                <br><br>לחצו על העכבר להמשך.</p>","1","example","","","","","","","","","","","","","","","","","","","","","","",""
"","","","","","html-slider-response","7","876798","0.0-7.0","9f4864a0-f288-4233-97bb-7895ea53da8d","7718","<p style=""font-size: 42px;"">הנה עוד דוגמא:
                <br>ההגרלה מטה מציעה 35% סיכוי לזכות ב-₪18 
                <br>&emsp;&emsp;&emsp;&emsp;&emsp;&emsp;&emsp;&emsp;&ensp;65% סיכוי לזכות ב-₪0.</p>
        
                <p style=""text-align: center;"">₪18<br>35%</p>
                <p id=""wtp"" style=""text-align:center; margin-top: 0px; margin-bottom: 0px; font-size: 40px"";>מוכנים לשלם: <span id=""c_p_y""></span></p>","3","example","55","","","","","","","","","","","","","","","","","","","","","",""
"","","","","","html-keyboard-response","8","880222","0.0-8.0","9f4864a0-f288-4233-97bb-7895ea53da8d","null","<p>הייתם מוכנים לשלם  ₪3 כדי להשתתף בהגרלה:
                <p style=""text-align: center;"">₪18<br>35%</p>
                <p>כעת נניח שהמחשב בחר את ההגרלה הזו בסוף הניסוי, וקבע עבורה מחיר.
                <br><br>לחצו על העכבר כדי להמשיך.</p>","1","instructions","","","","","","","","","","","","","","","","","","","","","","",""
"","","","","","html-keyboard-response","9","891310","0.0-9.0","9f4864a0-f288-4233-97bb-7895ea53da8d","null","<p>המחשב קבע מחיר להגרלה: ₪1<br>ואתם בחרתם לשלם לכל היותר: ₪3
                <br><br>כעת המחיר שנקבע נמוך מזה שבחרתם, אז תשלמו את המחיר שקבע המחשב (₪1) ותשתתפו בהגרלה.
                <br>במקרה כזה, תסיימו את הניסוי עם תקציב של ₪79 ועם סיכוי לזכות ב-₪18 נוספים מההגרלה.
                <br>כלומר, תוכלו לקבל ₪79 אם לא תזכו בהגרלה, או ₪97 אם תזכו בהגרלה.
                <br><br>לחצו על העכבר להמשך.</p>","1","example","","","","","","","","","","","","","","","","","","","","","","",""
"","","","","","html-keyboard-response","10","897350","0.0-10.0","9f4864a0-f288-4233-97bb-7895ea53da8d","null","<p>במהלך הניסוי, קודם תראו את ההגרלה ורק לאחר מכן תוכלו לבחור.
                <p>כמו כן, יהיו לכם מספר שניות מוגבל להגיב.
                <p>בואו ננסה זאת עם ההגרלה הקודמת.
                <br>לחצו על העכבר כדי להמשיך.</p>","1","instructions","","","","","","","","","","","","","","","","","","","","","","",""
"","","","","","html-slider-response","11","898615","0.0-11.0","9f4864a0-f288-4233-97bb-7895ea53da8d","1000","
                    <p style=""text-align: center;"">₪18<br>35%</p>
                    <p id=""wtp"" style=""text-align:center; margin-top: 0px; margin-bottom: 0px; font-size: 40px"";>&ensp;</p>","31","instructions","0","","","","","","","","","","","","","","","","","","","","","",""
"","","","","","html-slider-response","12","900910","0.0-12.0","9f4864a0-f288-4233-97bb-7895ea53da8d","2032","
                    <p style=""text-align: center;"">₪18<br>35%</p>
                    <p id=""wtp"" style=""text-align:center; margin-top: 0px; margin-bottom: 0px; font-size: 40px"";>מוכנים לשלם: <span id=""c_p_y""></span></p>","2","instructions","72","","","","","","","","","","","","","","","","","","","","","",""
"","","","","","html-keyboard-response","13","902318","0.0-13.0","9f4864a0-f288-4233-97bb-7895ea53da8d","null","<p>יפה. הפעם בחרתם לשלם לכל היותר ₪2.
                <br><br>לחצו על העכבר כדי להמשיך.</p>","1","instructions","","","","","","","","","","","","","","","","","","","","","","",""
"","","","","","html-keyboard-response","14","931582","0.0-15.0","9f4864a0-f288-4233-97bb-7895ea53da8d","null","<p>כעת נתחיל את הניסוי.
                <br><br>אתם תראו הגרלות ותתבקשו לבחור כמה תהיו מוכנים לשלם כדי להשתתף בהן.
                <br>יש לכם תקציב של ₪80 עבור כל הגרלה.
                <br>בסוף הניסוי הגרלה אחת תבחר באקראי ותשוחק.
                <br><br>לחצו על העכבר כדי להתחיל את הניסוי.</p>","1","instructions","","","","","","","","","","","","","","","","","","","","","","",""
"","","","","","html-keyboard-response","15","932839","0.0-16.0","9f4864a0-f288-4233-97bb-7895ea53da8d","null","<p style=""text-align: center;"">+</p>","null","fixation","","","","","","","","","","","","","","","","","","","","","","",""
"","","","","","html-slider-response","16","933852","0.0-17.0-0.0","9f4864a0-f288-4233-97bb-7895ea53da8d","1000","
                  <p style=""text-align: center;"">₪18
                                                <br>25%</p>
                  <p id=""wtp"" style=""text-align:center; margin-top: 0px; margin-bottom: 0px; font-size: 40px"";>&ensp;</p>","-","viewing","0","9","14A,23A","","","","","","","","","","","","","","","","","","","",""
"","","","","","html-slider-response","17","936950","0.0-17.0-1.0","9f4864a0-f288-4233-97bb-7895ea53da8d","3096","
                  <p style=""text-align: center;"">₪18
                                                <br>25%</p>
                  <p id=""wtp"" style=""text-align:center; margin-top: 0px; margin-bottom: 0px; font-size: 40px"";>מוכנים לשלם: <span id=""c_p_y""></span></p>","6","evaluation","65","9","14A,23A","25","18","6","","","","","","","","","","","","","","","","",""
"","","","","","html-keyboard-response","18","937920","0.0-17.0-2.0","9f4864a0-f288-4233-97bb-7895ea53da8d","null","<p style=""text-align: center;"">+</p>","null","fixation","","","","","","","","","","","","","","","","","","","","","","",""
"","","","","","html-slider-response","19","938927","0.0-17.0-0.1","9f4864a0-f288-4233-97bb-7895ea53da8d","1000","
                  <p style=""text-align: center;"">₪58
                                                <br>40%</p>
                  <p id=""wtp"" style=""text-align:center; margin-top: 0px; margin-bottom: 0px; font-size: 40px"";>&ensp;</p>","-","viewing","0","20","10C,13A,19C,21B","","","","","","","","","","","","","","","","","","","",""
"","","","","","html-slider-response","20","942940","0.0-17.0-1.1","9f4864a0-f288-4233-97bb-7895ea53da8d","null","
                  <p style=""text-align: center;"">₪58
                                                <br>40%</p>
                  <p id=""wtp"" style=""text-align:center; margin-top: 0px; margin-bottom: 0px; font-size: 40px"";>מוכנים לשלם: <span id=""c_p_y""></span></p>","null","evaluation","37","20","10C,13A,19C,21B","40","58","26","","","","","","","","","","","","","","","","",""
"","","","","","html-keyboard-response","21","944023","0.0-17.0-2.1","9f4864a0-f288-4233-97bb-7895ea53da8d","null","<p style=""text-align: center;"">+</p>","null","fixation","","","","","","","","","","","","","","","","","","","","","","",""
"","","","","","html-slider-response","22","945026","0.0-17.0-0.2","9f4864a0-f288-4233-97bb-7895ea53da8d","1000","
                  <p style=""text-align: center;"">₪39
                                                <br>60%</p>
                  <p id=""wtp"" style=""text-align:center; margin-top: 0px; margin-bottom: 0px; font-size: 40px"";>&ensp;</p>","-","viewing","0","15","9C,25B","","","","","","","","","","","","","","","","","","","",""
"","","","","","html-slider-response","23","947278","0.0-17.0-1.2","9f4864a0-f288-4233-97bb-7895ea53da8d","2251","
                  <p style=""text-align: center;"">₪39
                                                <br>60%</p>
                  <p id=""wtp"" style=""text-align:center; margin-top: 0px; margin-bottom: 0px; font-size: 40px"";>מוכנים לשלם: <span id=""c_p_y""></span></p>","24","evaluation","29","15","9C,25B","60","39","24","","","","","","","","","","","","","","","","",""
"","","","","","html-keyboard-response","24","948280","0.0-17.0-2.2","9f4864a0-f288-4233-97bb-7895ea53da8d","null","<p style=""text-align: center;"">+</p>","null","fixation","","","","","","","","","","","","","","","","","","","","","","",""
"","","","","","html-slider-response","25","949288","0.0-17.0-0.3","9f4864a0-f288-4233-97bb-7895ea53da8d","1000","
                  <p style=""text-align: center;"">₪79
                                                <br>65%</p>
                  <p id=""wtp"" style=""text-align:center; margin-top: 0px; margin-bottom: 0px; font-size: 40px"";>&ensp;</p>","-","viewing","0","31","8A","","","","","","","","","","","","","","","","","","","",""
"","","","","","html-slider-response","26","952285","0.0-17.0-1.3","9f4864a0-f288-4233-97bb-7895ea53da8d","2997","
                  <p style=""text-align: center;"">₪79
                                                <br>65%</p>
                  <p id=""wtp"" style=""text-align:center; margin-top: 0px; margin-bottom: 0px; font-size: 40px"";>מוכנים לשלם: <span id=""c_p_y""></span></p>","24","evaluation","29","31","8A","65","79","24","","","","","","","","","","","","","","","","",""
"","","","","","html-keyboard-response","27","952959","0.0-17.0-2.3","9f4864a0-f288-4233-97bb-7895ea53da8d","null","<p style=""text-align: center;"">+</p>","null","fixation","","","","","","","","","","","","","","","","","","","","","","",""
"","","","","","html-slider-response","28","953969","0.0-17.0-0.4","9f4864a0-f288-4233-97bb-7895ea53da8d","1000","
                  <p style=""text-align: center;"">₪4
                                                <br>25%</p>
                  <p id=""wtp"" style=""text-align:center; margin-top: 0px; margin-bottom: 0px; font-size: 40px"";>&ensp;</p>","-","viewing","0","1","6C,29B,30C","","","","","","","","","","","","","","","","","","","",""
"","","","","","html-slider-response","29","956237","0.0-17.0-1.4","9f4864a0-f288-4233-97bb-7895ea53da8d","2267","
                  <p style=""text-align: center;"">₪4
                                                <br>25%</p>
                  <p id=""wtp"" style=""text-align:center; margin-top: 0px; margin-bottom: 0px; font-size: 40px"";>מוכנים לשלם: <span id=""c_p_y""></span></p>","0","evaluation","33","1","6C,29B,30C","25","4","0","","","","","","","","","","","","","","","","",""
"","","","","","html-keyboard-response","30","957295","0.0-17.0-2.4","9f4864a0-f288-4233-97bb-7895ea53da8d","null","<p style=""text-align: center;"">+</p>","null","fixation","","","","","","","","","","","","","","","","","","","","","","",""
"","","","","","html-slider-response","31","958297","0.0-17.0-0.5","9f4864a0-f288-4233-97bb-7895ea53da8d","1000","
                  <p style=""text-align: center;"">₪4
                                                <br>50%</p>
                  <p id=""wtp"" style=""text-align:center; margin-top: 0px; margin-bottom: 0px; font-size: 40px"";>&ensp;</p>","-","viewing","0","2","4C,17B","","","","","","","","","","","","","","","","","","","",""
"","","","","","html-slider-response","32","959661","0.0-17.0-1.5","9f4864a0-f288-4233-97bb-7895ea53da8d","1363","
                  <p style=""text-align: center;"">₪4
                                                <br>50%</p>
                  <p id=""wtp"" style=""text-align:center; margin-top: 0px; margin-bottom: 0px; font-size: 40px"";>מוכנים לשלם: <span id=""c_p_y""></span></p>","1","evaluation","16","2","4C,17B","50","4","2","","","","","","","","","","","","","","","","",""
"","","","","","html-keyboard-response","33","960837","0.0-17.0-2.5","9f4864a0-f288-4233-97bb-7895ea53da8d","null","<p style=""text-align: center;"">+</p>","null","fixation","","","","","","","","","","","","","","","","","","","","","","",""
"","","","","","html-slider-response","34","961845","0.0-17.0-0.6","9f4864a0-f288-4233-97bb-7895ea53da8d","1000","
                  <p style=""text-align: center;"">₪79
                                                <br>40%</p>
                  <p id=""wtp"" style=""text-align:center; margin-top: 0px; margin-bottom: 0px; font-size: 40px"";>&ensp;</p>","-","viewing","0","30","9B","","","","","","","","","","","","","","","","","","","",""
"","","","","","html-slider-response","35","964389","0.0-17.0-1.6","9f4864a0-f288-4233-97bb-7895ea53da8d","2544","
                  <p style=""text-align: center;"">₪79
                                                <br>40%</p>
                  <p id=""wtp"" style=""text-align:center; margin-top: 0px; margin-bottom: 0px; font-size: 40px"";>מוכנים לשלם: <span id=""c_p_y""></span></p>","10","evaluation","62","30","9B","40","79","10","","","","","","","","","","","","","","","","",""
"","","","","","html-keyboard-response","36","965064","0.0-17.0-2.6","9f4864a0-f288-4233-97bb-7895ea53da8d","null","<p style=""text-align: center;"">+</p>","null","fixation","","","","","","","","","","","","","","","","","","","","","","",""
"","","","","","html-slider-response","37","966080","0.0-17.0-0.7","9f4864a0-f288-4233-97bb-7895ea53da8d","1000","
                  <p style=""text-align: center;"">₪36
                                                <br>60%</p>
                  <p id=""wtp"" style=""text-align:center; margin-top: 0px; margin-bottom: 0px; font-size: 40px"";>&ensp;</p>","-","viewing","0","12","1C,7C,15C","","","","","","","","","","","","","","","","","","","",""
"","","","","","html-slider-response","38","970081","0.0-17.0-1.7","9f4864a0-f288-4233-97bb-7895ea53da8d","null","
                  <p style=""text-align: center;"">₪36
                                                <br>60%</p>
                  <p id=""wtp"" style=""text-align:center; margin-top: 0px; margin-bottom: 0px; font-size: 40px"";>מוכנים לשלם: <span id=""c_p_y""></span></p>","null","evaluation","59","12","1C,7C,15C","60","36","14","","","","","","","","","","","","","","","","",""
"","","","","","html-keyboard-response","39","970712","0.0-17.0-2.7","9f4864a0-f288-4233-97bb-7895ea53da8d","null","<p style=""text-align: center;"">+</p>","null","fixation","","","","","","","","","","","","","","","","","","","","","","",""
"","","","","","html-slider-response","40","971729","0.0-17.0-0.8","9f4864a0-f288-4233-97bb-7895ea53da8d","1000","
                  <p style=""text-align: center;"">₪11
                                                <br>25%</p>
                  <p id=""wtp"" style=""text-align:center; margin-top: 0px; margin-bottom: 0px; font-size: 40px"";>&ensp;</p>","-","viewing","0","5","12A,27B,28B,30B","","","","","","","","","","","","","","","","","","","",""
"","","","","","html-slider-response","41","974950","0.0-17.0-1.8","9f4864a0-f288-4233-97bb-7895ea53da8d","3219","
                  <p style=""text-align: center;"">₪11
                                                <br>25%</p>
                  <p id=""wtp"" style=""text-align:center; margin-top: 0px; margin-bottom: 0px; font-size: 40px"";>מוכנים לשלם: <span id=""c_p_y""></span></p>","7","evaluation","35","5","12A,27B,28B,30B","25","11","7","","","","","","","","","","","","","","","","",""
"","","","","","html-keyboard-response","42","975568","0.0-17.0-2.8","9f4864a0-f288-4233-97bb-7895ea53da8d","null","<p style=""text-align: center;"">+</p>","null","fixation","","","","","","","","","","","","","","","","","","","","","","",""
"","","","","","html-slider-response","43","976570","0.0-17.0-0.9","9f4864a0-f288-4233-97bb-7895ea53da8d","1000","
                  <p style=""text-align: center;"">₪71
                                                <br>55%</p>
                  <p id=""wtp"" style=""text-align:center; margin-top: 0px; margin-bottom: 0px; font-size: 40px"";>&ensp;</p>","-","viewing","0","27","5B,18A","","","","","","","","","","","","","","","","","","","",""
"","","","","","html-slider-response","44","978773","0.0-17.0-1.9","9f4864a0-f288-4233-97bb-7895ea53da8d","2202","
                  <p style=""text-align: center;"">₪71
                                                <br>55%</p>
                  <p id=""wtp"" style=""text-align:center; margin-top: 0px; margin-bottom: 0px; font-size: 40px"";>מוכנים לשלם: <span id=""c_p_y""></span></p>","25","evaluation","79","27","5B,18A","55","71","25","","","","","","","","","","","","","","","","",""
"","","","","","html-keyboard-response","45","979365","0.0-17.0-2.9","9f4864a0-f288-4233-97bb-7895ea53da8d","null","<p style=""text-align: center;"">+</p>","null","fixation","","","","","","","","","","","","","","","","","","","","","","",""
"","","","","","html-slider-response","46","980380","0.0-17.0-0.10","9f4864a0-f288-4233-97bb-7895ea53da8d","1000","
                  <p style=""text-align: center;"">₪64
                                                <br>25%</p>
                  <p id=""wtp"" style=""text-align:center; margin-top: 0px; margin-bottom: 0px; font-size: 40px"";>&ensp;</p>","-","viewing","0","24","6A,21A","","","","","","","","","","","","","","","","","","","",""
"","","","","","html-slider-response","47","981301","0.0-17.0-1.10","9f4864a0-f288-4233-97bb-7895ea53da8d","920","
                  <p style=""text-align: center;"">₪64
                                                <br>25%</p>
                  <p id=""wtp"" style=""text-align:center; margin-top: 0px; margin-bottom: 0px; font-size: 40px"";>מוכנים לשלם: <span id=""c_p_y""></span></p>","13","evaluation","38","24","6A,21A","25","64","14","","","","","","","","","","","","","","","","",""
"","","","","","html-keyboard-response","48","982790","0.0-17.0-2.10","9f4864a0-f288-4233-97bb-7895ea53da8d","null","<p style=""text-align: center;"">+</p>","null","fixation","","","","","","","","","","","","","","","","","","","","","","",""
"","","","","","html-slider-response","49","983792","0.0-17.0-0.11","9f4864a0-f288-4233-97bb-7895ea53da8d","1000","
                  <p style=""text-align: center;"">₪11
                                                <br>20%</p>
                  <p id=""wtp"" style=""text-align:center; margin-top: 0px; margin-bottom: 0px; font-size: 40px"";>&ensp;</p>","-","viewing","0","4","12C,17C,23C,28C","","","","","","","","","","","","","","","","","","","",""
"","","","","","html-slider-response","50","985926","0.0-17.0-1.11","9f4864a0-f288-4233-97bb-7895ea53da8d","2133","
                  <p style=""text-align: center;"">₪11
                                                <br>20%</p>
                  <p id=""wtp"" style=""text-align:center; margin-top: 0px; margin-bottom: 0px; font-size: 40px"";>מוכנים לשלם: <span id=""c_p_y""></span></p>","4","evaluation","35","4","12C,17C,23C,28C","20","11","4","","","","","","","","","","","","","","","","",""
"","","","","","html-keyboard-response","51","986586","0.0-17.0-2.11","9f4864a0-f288-4233-97bb-7895ea53da8d","null","<p style=""text-align: center;"">+</p>","null","fixation","","","","","","","","","","","","","","","","","","","","","","",""
"","","","","","html-slider-response","52","987588","0.0-17.0-0.12","9f4864a0-f288-4233-97bb-7895ea53da8d","1000","
                  <p style=""text-align: center;"">₪61
                                                <br>45%</p>
                  <p id=""wtp"" style=""text-align:center; margin-top: 0px; margin-bottom: 0px; font-size: 40px"";>&ensp;</p>","-","viewing","0","22","10A,11A","","","","","","","","","","","","","","","","","","","",""
"","","","","","html-slider-response","53","990629","0.0-17.0-1.12","9f4864a0-f288-4233-97bb-7895ea53da8d","3040","
                  <p style=""text-align: center;"">₪61
                                                <br>45%</p>
                  <p id=""wtp"" style=""text-align:center; margin-top: 0px; margin-bottom: 0px; font-size: 40px"";>מוכנים לשלם: <span id=""c_p_y""></span></p>","10","evaluation","9","22","10A,11A","45","61","11","","","","","","","","","","","","","","","","",""
"","","","","","html-keyboard-response","54","991503","0.0-17.0-2.12","9f4864a0-f288-4233-97bb-7895ea53da8d","null","<p style=""text-align: center;"">+</p>","null","fixation","","","","","","","","","","","","","","","","","","","","","","",""
"","","","","","html-slider-response","55","992511","0.0-17.0-0.13","9f4864a0-f288-4233-97bb-7895ea53da8d","1000","
                  <p style=""text-align: center;"">₪16
                                                <br>20%</p>
                  <p id=""wtp"" style=""text-align:center; margin-top: 0px; margin-bottom: 0px; font-size: 40px"";>&ensp;</p>","-","viewing","0","8","14C,17A,20C,27A","","","","","","","","","","","","","","","","","","","",""
"","","","","","html-slider-response","56","993405","0.0-17.0-1.13","9f4864a0-f288-4233-97bb-7895ea53da8d","894","
                  <p style=""text-align: center;"">₪16
                                                <br>20%</p>
                  <p id=""wtp"" style=""text-align:center; margin-top: 0px; margin-bottom: 0px; font-size: 40px"";>מוכנים לשלם: <span id=""c_p_y""></span></p>","8","evaluation","8","8","14C,17A,20C,27A","20","16","8","","","","","","","","","","","","","","","","",""
"","","","","","html-keyboard-response","57","994832","0.0-17.0-2.13","9f4864a0-f288-4233-97bb-7895ea53da8d","null","<p style=""text-align: center;"">+</p>","null","fixation","","","","","","","","","","","","","","","","","","","","","","",""
"","","","","","html-slider-response","58","995844","0.0-17.0-0.14","9f4864a0-f288-4233-97bb-7895ea53da8d","1000","
                  <p style=""text-align: center;"">₪4
                                                <br>75%</p>
                  <p id=""wtp"" style=""text-align:center; margin-top: 0px; margin-bottom: 0px; font-size: 40px"";>&ensp;</p>","-","viewing","0","3","12B,20B,23B,27C,29C","","","","","","","","","","","","","","","","","","","",""
"","","","","","html-slider-response","59","998061","0.0-17.0-1.14","9f4864a0-f288-4233-97bb-7895ea53da8d","2216","
                  <p style=""text-align: center;"">₪4
                                                <br>75%</p>
                  <p id=""wtp"" style=""text-align:center; margin-top: 0px; margin-bottom: 0px; font-size: 40px"";>מוכנים לשלם: <span id=""c_p_y""></span></p>","1","evaluation","54","3","12B,20B,23B,27C,29C","75","4","1","","","","","","","","","","","","","","","","",""
"","","","","","html-keyboard-response","60","999560","0.0-17.0-2.14","9f4864a0-f288-4233-97bb-7895ea53da8d","null","<p style=""text-align: center;"">+</p>","null","fixation","","","","","","","","","","","","","","","","","","","","","","",""
"","","","","","html-slider-response","61","1000568","0.0-17.0-0.15","9f4864a0-f288-4233-97bb-7895ea53da8d","1000","
                  <p style=""text-align: center;"">₪71
                                                <br>75%</p>
                  <p id=""wtp"" style=""text-align:center; margin-top: 0px; margin-bottom: 0px; font-size: 40px"";>&ensp;</p>","-","viewing","0","28","8B","","","","","","","","","","","","","","","","","","","",""
"","","","","","html-slider-response","62","1002077","0.0-17.0-1.15","9f4864a0-f288-4233-97bb-7895ea53da8d","1507","
                  <p style=""text-align: center;"">₪71
                                                <br>75%</p>
                  <p id=""wtp"" style=""text-align:center; margin-top: 0px; margin-bottom: 0px; font-size: 40px"";>מוכנים לשלם: <span id=""c_p_y""></span></p>","14","evaluation","63","28","8B","75","71","15","","","","","","","","","","","","","","","","",""
"","","","","","html-keyboard-response","63","1002869","0.0-17.0-2.15","9f4864a0-f288-4233-97bb-7895ea53da8d","null","<p style=""text-align: center;"">+</p>","null","fixation","","","","","","","","","","","","","","","","","","","","","","",""
"","","","","","html-slider-response","64","1003885","0.0-17.0-0.16","9f4864a0-f288-4233-97bb-7895ea53da8d","1000","
                  <p style=""text-align: center;"">₪58
                                                <br>45%</p>
                  <p id=""wtp"" style=""text-align:center; margin-top: 0px; margin-bottom: 0px; font-size: 40px"";>&ensp;</p>","-","viewing","0","21","11C,18C,25A","","","","","","","","","","","","","","","","","","","",""
"","","","","","html-slider-response","65","1005877","0.0-17.0-1.16","9f4864a0-f288-4233-97bb-7895ea53da8d","1991","
                  <p style=""text-align: center;"">₪58
                                                <br>45%</p>
                  <p id=""wtp"" style=""text-align:center; margin-top: 0px; margin-bottom: 0px; font-size: 40px"";>מוכנים לשלם: <span id=""c_p_y""></span></p>","10","evaluation","6","21","11C,18C,25A","45","58","10","","","","","","","","","","","","","","","","",""
"","","","","","html-keyboard-response","66","1007086","0.0-17.0-2.16","9f4864a0-f288-4233-97bb-7895ea53da8d","null","<p style=""text-align: center;"">+</p>","null","fixation","","","","","","","","","","","","","","","","","","","","","","",""
"","","","","","html-slider-response","67","1008091","0.0-17.0-0.17","9f4864a0-f288-4233-97bb-7895ea53da8d","1000","
                  <p style=""text-align: center;"">₪43
                                                <br>75%</p>
                  <p id=""wtp"" style=""text-align:center; margin-top: 0px; margin-bottom: 0px; font-size: 40px"";>&ensp;</p>","-","viewing","0","18","11B,19B,24A,26A","","","","","","","","","","","","","","","","","","","",""
"","","","","","html-slider-response","68","1009237","0.0-17.0-1.17","9f4864a0-f288-4233-97bb-7895ea53da8d","1146","
                  <p style=""text-align: center;"">₪43
                                                <br>75%</p>
                  <p id=""wtp"" style=""text-align:center; margin-top: 0px; margin-bottom: 0px; font-size: 40px"";>מוכנים לשלם: <span id=""c_p_y""></span></p>","23","evaluation","25","18","11B,19B,24A,26A","75","43","23","","","","","","","","","","","","","","","","",""
"","","","","","html-keyboard-response","69","1010166","0.0-17.0-2.17","9f4864a0-f288-4233-97bb-7895ea53da8d","null","<p style=""text-align: center;"">+</p>","null","fixation","","","","","","","","","","","","","","","","","","","","","","",""
"","","","","","html-slider-response","70","1011176","0.0-17.0-0.18","9f4864a0-f288-4233-97bb-7895ea53da8d","1000","
                  <p style=""text-align: center;"">₪11
                                                <br>75%</p>
                  <p id=""wtp"" style=""text-align:center; margin-top: 0px; margin-bottom: 0px; font-size: 40px"";>&ensp;</p>","-","viewing","0","7","6B,18B,22C,24C,29A","","","","","","","","","","","","","","","","","","","",""
"","","","","","html-slider-response","71","1012036","0.0-17.0-1.18","9f4864a0-f288-4233-97bb-7895ea53da8d","860","
                  <p style=""text-align: center;"">₪11
                                                <br>75%</p>
                  <p id=""wtp"" style=""text-align:center; margin-top: 0px; margin-bottom: 0px; font-size: 40px"";>מוכנים לשלם: <span id=""c_p_y""></span></p>","1","evaluation","3","7","6B,18B,22C,24C,29A","75","11","1","","","","","","","","","","","","","","","","",""
"","","","","","html-keyboard-response","72","1012564","0.0-17.0-2.18","9f4864a0-f288-4233-97bb-7895ea53da8d","null","<p style=""text-align: center;"">+</p>","null","fixation","","","","","","","","","","","","","","","","","","","","","","",""
"","","","","","html-slider-response","73","1013565","0.0-17.0-0.19","9f4864a0-f288-4233-97bb-7895ea53da8d","1000","
                  <p style=""text-align: center;"">₪43
                                                <br>60%</p>
                  <p id=""wtp"" style=""text-align:center; margin-top: 0px; margin-bottom: 0px; font-size: 40px"";>&ensp;</p>","-","viewing","0","17","2A,7A,9A,15B","","","","","","","","","","","","","","","","","","","",""
"","","","","","html-slider-response","74","1015877","0.0-17.0-1.19","9f4864a0-f288-4233-97bb-7895ea53da8d","2311","
                  <p style=""text-align: center;"">₪43
                                                <br>60%</p>
                  <p id=""wtp"" style=""text-align:center; margin-top: 0px; margin-bottom: 0px; font-size: 40px"";>מוכנים לשלם: <span id=""c_p_y""></span></p>","17","evaluation","44","17","2A,7A,9A,15B","60","43","17","","","","","","","","","","","","","","","","",""
"","","","","","html-keyboard-response","75","1017378","0.0-17.0-2.19","9f4864a0-f288-4233-97bb-7895ea53da8d","null","<p style=""text-align: center;"">+</p>","null","fixation","","","","","","","","","","","","","","","","","","","","","","",""
"","","","","","html-slider-response","76","1018379","0.0-17.0-0.20","9f4864a0-f288-4233-97bb-7895ea53da8d","1000","
                  <p style=""text-align: center;"">₪76
                                                <br>65%</p>
                  <p id=""wtp"" style=""text-align:center; margin-top: 0px; margin-bottom: 0px; font-size: 40px"";>&ensp;</p>","-","viewing","0","29","8C,19A,24B","","","","","","","","","","","","","","","","","","","",""
"","","","","","html-slider-response","77","1019781","0.0-17.0-1.20","9f4864a0-f288-4233-97bb-7895ea53da8d","1400","
                  <p style=""text-align: center;"">₪76
                                                <br>65%</p>
                  <p id=""wtp"" style=""text-align:center; margin-top: 0px; margin-bottom: 0px; font-size: 40px"";>מוכנים לשלם: <span id=""c_p_y""></span></p>","32","evaluation","27","29","8C,19A,24B","65","76","32","","","","","","","","","","","","","","","","",""
"","","","","","html-keyboard-response","78","1020992","0.0-17.0-2.20","9f4864a0-f288-4233-97bb-7895ea53da8d","null","<p style=""text-align: center;"">+</p>","null","fixation","","","","","","","","","","","","","","","","","","","","","","",""
"","","","","","html-slider-response","79","1021993","0.0-17.0-0.21","9f4864a0-f288-4233-97bb-7895ea53da8d","1000","
                  <p style=""text-align: center;"">₪11
                                                <br>45%</p>
                  <p id=""wtp"" style=""text-align:center; margin-top: 0px; margin-bottom: 0px; font-size: 40px"";>&ensp;</p>","-","viewing","0","6","14B,21C,25C","","","","","","","","","","","","","","","","","","","",""
"","","","","","html-slider-response","80","1023077","0.0-17.0-1.21","9f4864a0-f288-4233-97bb-7895ea53da8d","1083","
                  <p style=""text-align: center;"">₪11
                                                <br>45%</p>
                  <p id=""wtp"" style=""text-align:center; margin-top: 0px; margin-bottom: 0px; font-size: 40px"";>מוכנים לשלם: <span id=""c_p_y""></span></p>","4","evaluation","75","6","14B,21C,25C","45","11","4","","","","","","","","","","","","","","","","",""
"","","","","","html-keyboard-response","81","1023705","0.0-17.0-2.21","9f4864a0-f288-4233-97bb-7895ea53da8d","null","<p style=""text-align: center;"">+</p>","null","fixation","","","","","","","","","","","","","","","","","","","","","","",""
"","","","","","html-slider-response","82","1024715","0.0-17.0-0.22","9f4864a0-f288-4233-97bb-7895ea53da8d","1000","
                  <p style=""text-align: center;"">₪61
                                                <br>55%</p>
                  <p id=""wtp"" style=""text-align:center; margin-top: 0px; margin-bottom: 0px; font-size: 40px"";>&ensp;</p>","-","viewing","0","23","7B,26B","","","","","","","","","","","","","","","","","","","",""
"","","","","","html-slider-response","83","1025669","0.0-17.0-1.22","9f4864a0-f288-4233-97bb-7895ea53da8d","954","
                  <p style=""text-align: center;"">₪61
                                                <br>55%</p>
                  <p id=""wtp"" style=""text-align:center; margin-top: 0px; margin-bottom: 0px; font-size: 40px"";>מוכנים לשלם: <span id=""c_p_y""></span></p>","14","evaluation","51","23","7B,26B","55","61","14","","","","","","","","","","","","","","","","",""
"","","","","","html-keyboard-response","84","1026975","0.0-17.0-2.22","9f4864a0-f288-4233-97bb-7895ea53da8d","null","<p style=""text-align: center;"">+</p>","null","fixation","","","","","","","","","","","","","","","","","","","","","","",""
"","","","","","html-slider-response","85","1027990","0.0-17.0-0.23","9f4864a0-f288-4233-97bb-7895ea53da8d","1000","
                  <p style=""text-align: center;"">₪64
                                                <br>50%</p>
                  <p id=""wtp"" style=""text-align:center; margin-top: 0px; margin-bottom: 0px; font-size: 40px"";>&ensp;</p>","-","viewing","0","25","1B,3B,4A","","","","","","","","","","","","","","","","","","","",""
"","","","","","html-slider-response","86","1030965","0.0-17.0-1.23","9f4864a0-f288-4233-97bb-7895ea53da8d","2974","
                  <p style=""text-align: center;"">₪64
                                                <br>50%</p>
                  <p id=""wtp"" style=""text-align:center; margin-top: 0px; margin-bottom: 0px; font-size: 40px"";>מוכנים לשלם: <span id=""c_p_y""></span></p>","23","evaluation","39","25","1B,3B,4A","50","64","23","","","","","","","","","","","","","","","","",""
"","","","","","html-keyboard-response","87","1032013","0.0-17.0-2.23","9f4864a0-f288-4233-97bb-7895ea53da8d","null","<p style=""text-align: center;"">+</p>","null","fixation","","","","","","","","","","","","","","","","","","","","","","",""
"","","","","","html-slider-response","88","1033017","0.0-17.0-0.24","9f4864a0-f288-4233-97bb-7895ea53da8d","1000","
                  <p style=""text-align: center;"">₪36
                                                <br>30%</p>
                  <p id=""wtp"" style=""text-align:center; margin-top: 0px; margin-bottom: 0px; font-size: 40px"";>&ensp;</p>","-","viewing","0","11","3C,20A,22A","","","","","","","","","","","","","","","","","","","",""
"","","","","","html-slider-response","89","1034885","0.0-17.0-1.24","9f4864a0-f288-4233-97bb-7895ea53da8d","1867","
                  <p style=""text-align: center;"">₪36
                                                <br>30%</p>
                  <p id=""wtp"" style=""text-align:center; margin-top: 0px; margin-bottom: 0px; font-size: 40px"";>מוכנים לשלם: <span id=""c_p_y""></span></p>","7","evaluation","23","11","3C,20A,22A","30","36","8","","","","","","","","","","","","","","","","",""
"","","","","","html-keyboard-response","90","1035483","0.0-17.0-2.24","9f4864a0-f288-4233-97bb-7895ea53da8d","null","<p style=""text-align: center;"">+</p>","null","fixation","","","","","","","","","","","","","","","","","","","","","","",""
"","","","","","html-slider-response","91","1036487","0.0-17.0-0.25","9f4864a0-f288-4233-97bb-7895ea53da8d","1000","
                  <p style=""text-align: center;"">₪58
                                                <br>30%</p>
                  <p id=""wtp"" style=""text-align:center; margin-top: 0px; margin-bottom: 0px; font-size: 40px"";>&ensp;</p>","-","viewing","0","19","13C,30A","","","","","","","","","","","","","","","","","","","",""
"","","","","","html-slider-response","92","1038933","0.0-17.0-1.25","9f4864a0-f288-4233-97bb-7895ea53da8d","2445","
                  <p style=""text-align: center;"">₪58
                                                <br>30%</p>
                  <p id=""wtp"" style=""text-align:center; margin-top: 0px; margin-bottom: 0px; font-size: 40px"";>מוכנים לשלם: <span id=""c_p_y""></span></p>","10","evaluation","18","19","13C,30A","30","58","10","","","","","","","","","","","","","","","","",""
"","","","","","html-keyboard-response","93","1039812","0.0-17.0-2.25","9f4864a0-f288-4233-97bb-7895ea53da8d","null","<p style=""text-align: center;"">+</p>","null","fixation","","","","","","","","","","","","","","","","","","","","","","",""
"","","","","","html-slider-response","94","1040814","0.0-17.0-0.26","9f4864a0-f288-4233-97bb-7895ea53da8d","1000","
                  <p style=""text-align: center;"">₪36
                                                <br>75%</p>
                  <p id=""wtp"" style=""text-align:center; margin-top: 0px; margin-bottom: 0px; font-size: 40px"";>&ensp;</p>","-","viewing","0","14","4B,5A,13B,16B","","","","","","","","","","","","","","","","","","","",""
"","","","","","html-slider-response","95","1042389","0.0-17.0-1.26","9f4864a0-f288-4233-97bb-7895ea53da8d","1574","
                  <p style=""text-align: center;"">₪36
                                                <br>75%</p>
                  <p id=""wtp"" style=""text-align:center; margin-top: 0px; margin-bottom: 0px; font-size: 40px"";>מוכנים לשלם: <span id=""c_p_y""></span></p>","20","evaluation","43","14","4B,5A,13B,16B","75","36","20","","","","","","","","","","","","","","","","",""
"","","","","","html-keyboard-response","96","1043420","0.0-17.0-2.26","9f4864a0-f288-4233-97bb-7895ea53da8d","null","<p style=""text-align: center;"">+</p>","null","fixation","","","","","","","","","","","","","","","","","","","","","","",""
"","","","","","html-slider-response","97","1044436","0.0-17.0-0.27","9f4864a0-f288-4233-97bb-7895ea53da8d","1000","
                  <p style=""text-align: center;"">₪36
                                                <br>70%</p>
                  <p id=""wtp"" style=""text-align:center; margin-top: 0px; margin-bottom: 0px; font-size: 40px"";>&ensp;</p>","-","viewing","0","13","3A,5C,10B","","","","","","","","","","","","","","","","","","","",""
"","","","","","html-slider-response","98","1045605","0.0-17.0-1.27","9f4864a0-f288-4233-97bb-7895ea53da8d","1167","
                  <p style=""text-align: center;"">₪36
                                                <br>70%</p>
                  <p id=""wtp"" style=""text-align:center; margin-top: 0px; margin-bottom: 0px; font-size: 40px"";>מוכנים לשלם: <span id=""c_p_y""></span></p>","14","evaluation","55","13","3A,5C,10B","70","36","14","","","","","","","","","","","","","","","","",""
"","","","","","html-keyboard-response","99","1046711","0.0-17.0-2.27","9f4864a0-f288-4233-97bb-7895ea53da8d","null","<p style=""text-align: center;"">+</p>","null","fixation","","","","","","","","","","","","","","","","","","","","","","",""
"","","","","","html-slider-response","100","1047715","0.0-17.0-0.28","9f4864a0-f288-4233-97bb-7895ea53da8d","1000","
                  <p style=""text-align: center;"">₪18
                                                <br>50%</p>
                  <p id=""wtp"" style=""text-align:center; margin-top: 0px; margin-bottom: 0px; font-size: 40px"";>&ensp;</p>","-","viewing","0","10","2C,16C,22B,28A","","","","","","","","","","","","","","","","","","","",""
"","","","","","html-slider-response","101","1049157","0.0-17.0-1.28","9f4864a0-f288-4233-97bb-7895ea53da8d","1441","
                  <p style=""text-align: center;"">₪18
                                                <br>50%</p>
                  <p id=""wtp"" style=""text-align:center; margin-top: 0px; margin-bottom: 0px; font-size: 40px"";>מוכנים לשלם: <span id=""c_p_y""></span></p>","9","evaluation","69","10","2C,16C,22B,28A","50","18","9","","","","","","","","","","","","","","","","",""
"","","","","","html-keyboard-response","102","1049809","0.0-17.0-2.28","9f4864a0-f288-4233-97bb-7895ea53da8d","null","<p style=""text-align: center;"">+</p>","null","fixation","","","","","","","","","","","","","","","","","","","","","","",""
"","","","","","html-slider-response","103","1050818","0.0-17.0-0.29","9f4864a0-f288-4233-97bb-7895ea53da8d","1000","
                  <p style=""text-align: center;"">₪71
                                                <br>45%</p>
                  <p id=""wtp"" style=""text-align:center; margin-top: 0px; margin-bottom: 0px; font-size: 40px"";>&ensp;</p>","-","viewing","0","26","2B,16A","","","","","","","","","","","","","","","","","","","",""
"","","","","","html-slider-response","104","1051869","0.0-17.0-1.29","9f4864a0-f288-4233-97bb-7895ea53da8d","1050","
                  <p style=""text-align: center;"">₪71
                                                <br>45%</p>
                  <p id=""wtp"" style=""text-align:center; margin-top: 0px; margin-bottom: 0px; font-size: 40px"";>מוכנים לשלם: <span id=""c_p_y""></span></p>","28","evaluation","49","26","2B,16A","45","71","28","","","","","","","","","","","","","","","","",""
"","","","","","html-keyboard-response","105","1053231","0.0-17.0-2.29","9f4864a0-f288-4233-97bb-7895ea53da8d","null","<p style=""text-align: center;"">+</p>","null","fixation","","","","","","","","","","","","","","","","","","","","","","",""
"","","","","","html-slider-response","106","1054235","0.0-17.0-0.30","9f4864a0-f288-4233-97bb-7895ea53da8d","1000","
                  <p style=""text-align: center;"">₪39
                                                <br>65%</p>
                  <p id=""wtp"" style=""text-align:center; margin-top: 0px; margin-bottom: 0px; font-size: 40px"";>&ensp;</p>","-","viewing","0","16","1A,15A,26C","","","","","","","","","","","","","","","","","","","",""
"","","","","","html-slider-response","107","1056332","0.0-17.0-1.30","9f4864a0-f288-4233-97bb-7895ea53da8d","2097","
                  <p style=""text-align: center;"">₪39
                                                <br>65%</p>
                  <p id=""wtp"" style=""text-align:center; margin-top: 0px; margin-bottom: 0px; font-size: 40px"";>מוכנים לשלם: <span id=""c_p_y""></span></p>","19","evaluation","14","16","1A,15A,26C","65","39","19","","","","","","","","","","","","","","","","",""
"","","","","","html-keyboard-response","108","1057643","0.0-17.0-2.30","9f4864a0-f288-4233-97bb-7895ea53da8d","null","<p style=""text-align: center;"">+</p>","null","fixation","","","","","","","","","","","","","","","","","","","","","","",""
"","","","","","html-keyboard-response","109","1058655","0.0-18.0","9f4864a0-f288-4233-97bb-7895ea53da8d","null","<p style=""text-align: center;"">+</p>","null","fixation","","","","","","","","","","","","","","","","","","","","","","",""
"","","","","","html-keyboard-response","110","1066692","0.0-19.0","9f4864a0-f288-4233-97bb-7895ea53da8d","null","<p>הפסקה.
          <br>לחצו כדי להמשיך.</p>","1","scan_wait","","","","","","","","","","","","","","","","","","","","","","",""
"","","","","","html-keyboard-response","111","1067698","0.0-20.0","9f4864a0-f288-4233-97bb-7895ea53da8d","null","<p style=""text-align: center;"">+</p>","null","fixation","","","","","","","","","","","","","","","","","","","","","","",""
"","","","","","html-slider-response","112","1068699","0.0-21.0-0.0","9f4864a0-f288-4233-97bb-7895ea53da8d","1000","
                  <p style=""text-align: center;"">₪18
                                                <br>50%</p>
                  <p id=""wtp"" style=""text-align:center; margin-top: 0px; margin-bottom: 0px; font-size: 40px"";>&ensp;</p>","-","viewing","0","10","2C,16C,22B,28A","","","","","","","","","","","","","","","","","","","",""
"","","","","","html-slider-response","113","1070525","0.0-21.0-1.0","9f4864a0-f288-4233-97bb-7895ea53da8d","1826","
                  <p style=""text-align: center;"">₪18
                                                <br>50%</p>
                  <p id=""wtp"" style=""text-align:center; margin-top: 0px; margin-bottom: 0px; font-size: 40px"";>מוכנים לשלם: <span id=""c_p_y""></span></p>","9","evaluation","78","10","2C,16C,22B,28A","50","18","9","","","","","","","","","","","","","","","","",""
"","","","","","html-keyboard-response","114","1071613","0.0-21.0-2.0","9f4864a0-f288-4233-97bb-7895ea53da8d","null","<p style=""text-align: center;"">+</p>","null","fixation","","","","","","","","","","","","","","","","","","","","","","",""
"","","","","","html-slider-response","115","1072621","0.0-21.0-0.1","9f4864a0-f288-4233-97bb-7895ea53da8d","1000","
                  <p style=""text-align: center;"">₪4
                                                <br>75%</p>
                  <p id=""wtp"" style=""text-align:center; margin-top: 0px; margin-bottom: 0px; font-size: 40px"";>&ensp;</p>","-","viewing","0","3","12B,20B,23B,27C,29C","","","","","","","","","","","","","","","","","","","",""
"","","","","","html-slider-response","116","1074197","0.0-21.0-1.1","9f4864a0-f288-4233-97bb-7895ea53da8d","1576","
                  <p style=""text-align: center;"">₪4
                                                <br>75%</p>
                  <p id=""wtp"" style=""text-align:center; margin-top: 0px; margin-bottom: 0px; font-size: 40px"";>מוכנים לשלם: <span id=""c_p_y""></span></p>","0","evaluation","27","3","12B,20B,23B,27C,29C","75","4","1","","","","","","","","","","","","","","","","",""
"","","","","","html-keyboard-response","117","1074823","0.0-21.0-2.1","9f4864a0-f288-4233-97bb-7895ea53da8d","null","<p style=""text-align: center;"">+</p>","null","fixation","","","","","","","","","","","","","","","","","","","","","","",""
"","","","","","html-slider-response","118","1075825","0.0-21.0-0.2","9f4864a0-f288-4233-97bb-7895ea53da8d","1000","
                  <p style=""text-align: center;"">₪43
                                                <br>75%</p>
                  <p id=""wtp"" style=""text-align:center; margin-top: 0px; margin-bottom: 0px; font-size: 40px"";>&ensp;</p>","-","viewing","0","18","11B,19B,24A,26A","","","","","","","","","","","","","","","","","","","",""
"","","","","","html-slider-response","119","1076477","0.0-21.0-1.2","9f4864a0-f288-4233-97bb-7895ea53da8d","652","
                  <p style=""text-align: center;"">₪43
                                                <br>75%</p>
                  <p id=""wtp"" style=""text-align:center; margin-top: 0px; margin-bottom: 0px; font-size: 40px"";>מוכנים לשלם: <span id=""c_p_y""></span></p>","11","evaluation","73","18","11B,19B,24A,26A","75","43","11","","","","","","","","","","","","","","","","",""
"","","","","","html-keyboard-response","120","1077910","0.0-21.0-2.2","9f4864a0-f288-4233-97bb-7895ea53da8d","null","<p style=""text-align: center;"">+</p>","null","fixation","","","","","","","","","","","","","","","","","","","","","","",""
"","","","","","html-slider-response","121","1078917","0.0-21.0-0.3","9f4864a0-f288-4233-97bb-7895ea53da8d","1000","
                  <p style=""text-align: center;"">₪58
                                                <br>30%</p>
                  <p id=""wtp"" style=""text-align:center; margin-top: 0px; margin-bottom: 0px; font-size: 40px"";>&ensp;</p>","-","viewing","0","19","13C,30A","","","","","","","","","","","","","","","","","","","",""
"","","","","","html-slider-response","122","1079829","0.0-21.0-1.3","9f4864a0-f288-4233-97bb-7895ea53da8d","912","
                  <p style=""text-align: center;"">₪58
                                                <br>30%</p>
                  <p id=""wtp"" style=""text-align:center; margin-top: 0px; margin-bottom: 0px; font-size: 40px"";>מוכנים לשלם: <span id=""c_p_y""></span></p>","2","evaluation","4","19","13C,30A","30","58","2","","","","","","","","","","","","","","","","",""
"","","","","","html-keyboard-response","123","1081294","0.0-21.0-2.3","9f4864a0-f288-4233-97bb-7895ea53da8d","null","<p style=""text-align: center;"">+</p>","null","fixation","","","","","","","","","","","","","","","","","","","","","","",""
"","","","","","html-slider-response","124","1082303","0.0-21.0-0.4","9f4864a0-f288-4233-97bb-7895ea53da8d","1000","
                  <p style=""text-align: center;"">₪61
                                                <br>45%</p>
                  <p id=""wtp"" style=""text-align:center; margin-top: 0px; margin-bottom: 0px; font-size: 40px"";>&ensp;</p>","-","viewing","0","22","10A,11A","","","","","","","","","","","","","","","","","","","",""
"","","","","","html-slider-response","125","1083629","0.0-21.0-1.4","9f4864a0-f288-4233-97bb-7895ea53da8d","1326","
                  <p style=""text-align: center;"">₪61
                                                <br>45%</p>
                  <p id=""wtp"" style=""text-align:center; margin-top: 0px; margin-bottom: 0px; font-size: 40px"";>מוכנים לשלם: <span id=""c_p_y""></span></p>","14","evaluation","69","22","10A,11A","45","61","14","","","","","","","","","","","","","","","","",""
"","","","","","html-keyboard-response","126","1084364","0.0-21.0-2.4","9f4864a0-f288-4233-97bb-7895ea53da8d","null","<p style=""text-align: center;"">+</p>","null","fixation","","","","","","","","","","","","","","","","","","","","","","",""
"","","","","","html-slider-response","127","1085365","0.0-21.0-0.5","9f4864a0-f288-4233-97bb-7895ea53da8d","1000","
                  <p style=""text-align: center;"">₪18
                                                <br>25%</p>
                  <p id=""wtp"" style=""text-align:center; margin-top: 0px; margin-bottom: 0px; font-size: 40px"";>&ensp;</p>","-","viewing","0","9","14A,23A","","","","","","","","","","","","","","","","","","","",""
"","","","","","html-slider-response","128","1088334","0.0-21.0-1.5","9f4864a0-f288-4233-97bb-7895ea53da8d","2968","
                  <p style=""text-align: center;"">₪18
                                                <br>25%</p>
                  <p id=""wtp"" style=""text-align:center; margin-top: 0px; margin-bottom: 0px; font-size: 40px"";>מוכנים לשלם: <span id=""c_p_y""></span></p>","11","evaluation","16","9","14A,23A","25","18","11","","","","","","","","","","","","","","","","",""
"","","","","","html-keyboard-response","129","1089260","0.0-21.0-2.5","9f4864a0-f288-4233-97bb-7895ea53da8d","null","<p style=""text-align: center;"">+</p>","null","fixation","","","","","","","","","","","","","","","","","","","","","","",""
"","","","","","html-slider-response","130","1090277","0.0-21.0-0.6","9f4864a0-f288-4233-97bb-7895ea53da8d","1000","
                  <p style=""text-align: center;"">₪36
                                                <br>60%</p>
                  <p id=""wtp"" style=""text-align:center; margin-top: 0px; margin-bottom: 0px; font-size: 40px"";>&ensp;</p>","-","viewing","0","12","1C,7C,15C","","","","","","","","","","","","","","","","","","","",""
"","","","","","html-slider-response","131","1092950","0.0-21.0-1.6","9f4864a0-f288-4233-97bb-7895ea53da8d","2673","
                  <p style=""text-align: center;"">₪36
                                                <br>60%</p>
                  <p id=""wtp"" style=""text-align:center; margin-top: 0px; margin-bottom: 0px; font-size: 40px"";>מוכנים לשלם: <span id=""c_p_y""></span></p>","26","evaluation","34","12","1C,7C,15C","60","36","26","","","","","","","","","","","","","","","","",""
"","","","","","html-keyboard-response","132","1093757","0.0-21.0-2.6","9f4864a0-f288-4233-97bb-7895ea53da8d","null","<p style=""text-align: center;"">+</p>","null","fixation","","","","","","","","","","","","","","","","","","","","","","",""
"","","","","","html-slider-response","133","1094759","0.0-21.0-0.7","9f4864a0-f288-4233-97bb-7895ea53da8d","1000","
                  <p style=""text-align: center;"">₪4
                                                <br>50%</p>
                  <p id=""wtp"" style=""text-align:center; margin-top: 0px; margin-bottom: 0px; font-size: 40px"";>&ensp;</p>","-","viewing","0","2","4C,17B","","","","","","","","","","","","","","","","","","","",""
"","","","","","html-slider-response","134","1096646","0.0-21.0-1.7","9f4864a0-f288-4233-97bb-7895ea53da8d","1886","
                  <p style=""text-align: center;"">₪4
                                                <br>50%</p>
                  <p id=""wtp"" style=""text-align:center; margin-top: 0px; margin-bottom: 0px; font-size: 40px"";>מוכנים לשלם: <span id=""c_p_y""></span></p>","1","evaluation","12","2","4C,17B","50","4","2","","","","","","","","","","","","","","","","",""
"","","","","","html-keyboard-response","135","1098076","0.0-21.0-2.7","9f4864a0-f288-4233-97bb-7895ea53da8d","null","<p style=""text-align: center;"">+</p>","null","fixation","","","","","","","","","","","","","","","","","","","","","","",""
"","","","","","html-slider-response","136","1099078","0.0-21.0-0.8","9f4864a0-f288-4233-97bb-7895ea53da8d","1000","
                  <p style=""text-align: center;"">₪39
                                                <br>65%</p>
                  <p id=""wtp"" style=""text-align:center; margin-top: 0px; margin-bottom: 0px; font-size: 40px"";>&ensp;</p>","-","viewing","0","16","1A,15A,26C","","","","","","","","","","","","","","","","","","","",""
"","","","","","html-slider-response","137","1100918","0.0-21.0-1.8","9f4864a0-f288-4233-97bb-7895ea53da8d","1839","
                  <p style=""text-align: center;"">₪39
                                                <br>65%</p>
                  <p id=""wtp"" style=""text-align:center; margin-top: 0px; margin-bottom: 0px; font-size: 40px"";>מוכנים לשלם: <span id=""c_p_y""></span></p>","21","evaluation","76","16","1A,15A,26C","65","39","21","","","","","","","","","","","","","","","","",""
"","","","","","html-keyboard-response","138","1101888","0.0-21.0-2.8","9f4864a0-f288-4233-97bb-7895ea53da8d","null","<p style=""text-align: center;"">+</p>","null","fixation","","","","","","","","","","","","","","","","","","","","","","",""
"","","","","","html-slider-response","139","1102899","0.0-21.0-0.9","9f4864a0-f288-4233-97bb-7895ea53da8d","1000","
                  <p style=""text-align: center;"">₪64
                                                <br>50%</p>
                  <p id=""wtp"" style=""text-align:center; margin-top: 0px; margin-bottom: 0px; font-size: 40px"";>&ensp;</p>","-","viewing","0","25","1B,3B,4A","","","","","","","","","","","","","","","","","","","",""
"","","","","","html-slider-response","140","1106086","0.0-21.0-1.9","9f4864a0-f288-4233-97bb-7895ea53da8d","3185","
                  <p style=""text-align: center;"">₪64
                                                <br>50%</p>
                  <p id=""wtp"" style=""text-align:center; margin-top: 0px; margin-bottom: 0px; font-size: 40px"";>מוכנים לשלם: <span id=""c_p_y""></span></p>","30","evaluation","63","25","1B,3B,4A","50","64","30","","","","","","","","","","","","","","","","",""
"","","","","","html-keyboard-response","141","1107500","0.0-21.0-2.9","9f4864a0-f288-4233-97bb-7895ea53da8d","null","<p style=""text-align: center;"">+</p>","null","fixation","","","","","","","","","","","","","","","","","","","","","","",""
"","","","","","html-slider-response","142","1108505","0.0-21.0-0.10","9f4864a0-f288-4233-97bb-7895ea53da8d","1000","
                  <p style=""text-align: center;"">₪79
                                                <br>65%</p>
                  <p id=""wtp"" style=""text-align:center; margin-top: 0px; margin-bottom: 0px; font-size: 40px"";>&ensp;</p>","-","viewing","0","31","8A","","","","","","","","","","","","","","","","","","","",""
"","","","","","html-slider-response","143","1112278","0.0-21.0-1.10","9f4864a0-f288-4233-97bb-7895ea53da8d","3772","
                  <p style=""text-align: center;"">₪79
                                                <br>65%</p>
                  <p id=""wtp"" style=""text-align:center; margin-top: 0px; margin-bottom: 0px; font-size: 40px"";>מוכנים לשלם: <span id=""c_p_y""></span></p>","34","evaluation","56","31","8A","65","79","34","","","","","","","","","","","","","","","","",""
"","","","","","html-keyboard-response","144","1113743","0.0-21.0-2.10","9f4864a0-f288-4233-97bb-7895ea53da8d","null","<p style=""text-align: center;"">+</p>","null","fixation","","","","","","","","","","","","","","","","","","","","","","",""
"","","","","","html-slider-response","145","1114754","0.0-21.0-0.11","9f4864a0-f288-4233-97bb-7895ea53da8d","1000","
                  <p style=""text-align: center;"">₪76
                                                <br>65%</p>
                  <p id=""wtp"" style=""text-align:center; margin-top: 0px; margin-bottom: 0px; font-size: 40px"";>&ensp;</p>","-","viewing","0","29","8C,19A,24B","","","","","","","","","","","","","","","","","","","",""
"","","","","","html-slider-response","146","1117174","0.0-21.0-1.11","9f4864a0-f288-4233-97bb-7895ea53da8d","2420","
                  <p style=""text-align: center;"">₪76
                                                <br>65%</p>
                  <p id=""wtp"" style=""text-align:center; margin-top: 0px; margin-bottom: 0px; font-size: 40px"";>מוכנים לשלם: <span id=""c_p_y""></span></p>","33","evaluation","15","29","8C,19A,24B","65","76","33","","","","","","","","","","","","","","","","",""
"","","","","","html-keyboard-response","147","1118280","0.0-21.0-2.11","9f4864a0-f288-4233-97bb-7895ea53da8d","null","<p style=""text-align: center;"">+</p>","null","fixation","","","","","","","","","","","","","","","","","","","","","","",""
"","","","","","html-slider-response","148","1119282","0.0-21.0-0.12","9f4864a0-f288-4233-97bb-7895ea53da8d","1000","
                  <p style=""text-align: center;"">₪71
                                                <br>45%</p>
                  <p id=""wtp"" style=""text-align:center; margin-top: 0px; margin-bottom: 0px; font-size: 40px"";>&ensp;</p>","-","viewing","0","26","2B,16A","","","","","","","","","","","","","","","","","","","",""
"","","","","","html-slider-response","149","1122614","0.0-21.0-1.12","9f4864a0-f288-4233-97bb-7895ea53da8d","3331","
                  <p style=""text-align: center;"">₪71
                                                <br>45%</p>
                  <p id=""wtp"" style=""text-align:center; margin-top: 0px; margin-bottom: 0px; font-size: 40px"";>מוכנים לשלם: <span id=""c_p_y""></span></p>","18","evaluation","56","26","2B,16A","45","71","19","","","","","","","","","","","","","","","","",""
"","","","","","html-keyboard-response","150","1123824","0.0-21.0-2.12","9f4864a0-f288-4233-97bb-7895ea53da8d","null","<p style=""text-align: center;"">+</p>","null","fixation","","","","","","","","","","","","","","","","","","","","","","",""
"","","","","","html-slider-response","151","1124830","0.0-21.0-0.13","9f4864a0-f288-4233-97bb-7895ea53da8d","1000","
                  <p style=""text-align: center;"">₪36
                                                <br>75%</p>
                  <p id=""wtp"" style=""text-align:center; margin-top: 0px; margin-bottom: 0px; font-size: 40px"";>&ensp;</p>","-","viewing","0","14","4B,5A,13B,16B","","","","","","","","","","","","","","","","","","","",""
"","","","","","html-slider-response","152","1126758","0.0-21.0-1.13","9f4864a0-f288-4233-97bb-7895ea53da8d","1927","
                  <p style=""text-align: center;"">₪36
                                                <br>75%</p>
                  <p id=""wtp"" style=""text-align:center; margin-top: 0px; margin-bottom: 0px; font-size: 40px"";>מוכנים לשלם: <span id=""c_p_y""></span></p>","30","evaluation","47","14","4B,5A,13B,16B","75","36","30","","","","","","","","","","","","","","","","",""
"","","","","","html-keyboard-response","153","1127965","0.0-21.0-2.13","9f4864a0-f288-4233-97bb-7895ea53da8d","null","<p style=""text-align: center;"">+</p>","null","fixation","","","","","","","","","","","","","","","","","","","","","","",""
"","","","","","html-slider-response","154","1128981","0.0-21.0-0.14","9f4864a0-f288-4233-97bb-7895ea53da8d","1000","
                  <p style=""text-align: center;"">₪16
                                                <br>20%</p>
                  <p id=""wtp"" style=""text-align:center; margin-top: 0px; margin-bottom: 0px; font-size: 40px"";>&ensp;</p>","-","viewing","0","8","14C,17A,20C,27A","","","","","","","","","","","","","","","","","","","",""
"","","","","","html-slider-response","155","1132733","0.0-21.0-1.14","9f4864a0-f288-4233-97bb-7895ea53da8d","3752","
                  <p style=""text-align: center;"">₪16
                                                <br>20%</p>
                  <p id=""wtp"" style=""text-align:center; margin-top: 0px; margin-bottom: 0px; font-size: 40px"";>מוכנים לשלם: <span id=""c_p_y""></span></p>","12","evaluation","31","8","14C,17A,20C,27A","20","16","12","","","","","","","","","","","","","","","","",""
"","","","","","html-keyboard-response","156","1133448","0.0-21.0-2.14","9f4864a0-f288-4233-97bb-7895ea53da8d","null","<p style=""text-align: center;"">+</p>","null","fixation","","","","","","","","","","","","","","","","","","","","","","",""
"","","","","","html-slider-response","157","1134450","0.0-21.0-0.15","9f4864a0-f288-4233-97bb-7895ea53da8d","1000","
                  <p style=""text-align: center;"">₪64
                                                <br>25%</p>
                  <p id=""wtp"" style=""text-align:center; margin-top: 0px; margin-bottom: 0px; font-size: 40px"";>&ensp;</p>","-","viewing","0","24","6A,21A","","","","","","","","","","","","","","","","","","","",""
"","","","","","html-slider-response","158","1138451","0.0-21.0-1.15","9f4864a0-f288-4233-97bb-7895ea53da8d","null","
                  <p style=""text-align: center;"">₪64
                                                <br>25%</p>
                  <p id=""wtp"" style=""text-align:center; margin-top: 0px; margin-bottom: 0px; font-size: 40px"";>מוכנים לשלם: <span id=""c_p_y""></span></p>","null","evaluation","22","24","6A,21A","25","64","9","","","","","","","","","","","","","","","","",""
"","","","","","html-keyboard-response","159","1139354","0.0-21.0-2.15","9f4864a0-f288-4233-97bb-7895ea53da8d","null","<p style=""text-align: center;"">+</p>","null","fixation","","","","","","","","","","","","","","","","","","","","","","",""
"","","","","","html-slider-response","160","1140361","0.0-21.0-0.16","9f4864a0-f288-4233-97bb-7895ea53da8d","1000","
                  <p style=""text-align: center;"">₪79
                                                <br>40%</p>
                  <p id=""wtp"" style=""text-align:center; margin-top: 0px; margin-bottom: 0px; font-size: 40px"";>&ensp;</p>","-","viewing","0","30","9B","","","","","","","","","","","","","","","","","","","",""
"","","","","","html-slider-response","161","1141926","0.0-21.0-1.16","9f4864a0-f288-4233-97bb-7895ea53da8d","1564","
                  <p style=""text-align: center;"">₪79
                                                <br>40%</p>
                  <p id=""wtp"" style=""text-align:center; margin-top: 0px; margin-bottom: 0px; font-size: 40px"";>מוכנים לשלם: <span id=""c_p_y""></span></p>","11","evaluation","76","30","9B","40","79","11","","","","","","","","","","","","","","","","",""
"","","","","","html-keyboard-response","162","1142631","0.0-21.0-2.16","9f4864a0-f288-4233-97bb-7895ea53da8d","null","<p style=""text-align: center;"">+</p>","null","fixation","","","","","","","","","","","","","","","","","","","","","","",""
"","","","","","html-slider-response","163","1143642","0.0-21.0-0.17","9f4864a0-f288-4233-97bb-7895ea53da8d","1000","
                  <p style=""text-align: center;"">₪61
                                                <br>55%</p>
                  <p id=""wtp"" style=""text-align:center; margin-top: 0px; margin-bottom: 0px; font-size: 40px"";>&ensp;</p>","-","viewing","0","23","7B,26B","","","","","","","","","","","","","","","","","","","",""
"","","","","","html-slider-response","164","1146190","0.0-21.0-1.17","9f4864a0-f288-4233-97bb-7895ea53da8d","2547","
                  <p style=""text-align: center;"">₪61
                                                <br>55%</p>
                  <p id=""wtp"" style=""text-align:center; margin-top: 0px; margin-bottom: 0px; font-size: 40px"";>מוכנים לשלם: <span id=""c_p_y""></span></p>","25","evaluation","60","23","7B,26B","55","61","25","","","","","","","","","","","","","","","","",""
"","","","","","html-keyboard-response","165","1146887","0.0-21.0-2.17","9f4864a0-f288-4233-97bb-7895ea53da8d","null","<p style=""text-align: center;"">+</p>","null","fixation","","","","","","","","","","","","","","","","","","","","","","",""
"","","","","","html-slider-response","166","1147898","0.0-21.0-0.18","9f4864a0-f288-4233-97bb-7895ea53da8d","1000","
                  <p style=""text-align: center;"">₪43
                                                <br>60%</p>
                  <p id=""wtp"" style=""text-align:center; margin-top: 0px; margin-bottom: 0px; font-size: 40px"";>&ensp;</p>","-","viewing","0","17","2A,7A,9A,15B","","","","","","","","","","","","","","","","","","","",""
"","","","","","html-slider-response","167","1149686","0.0-21.0-1.18","9f4864a0-f288-4233-97bb-7895ea53da8d","1787","
                  <p style=""text-align: center;"">₪43
                                                <br>60%</p>
                  <p id=""wtp"" style=""text-align:center; margin-top: 0px; margin-bottom: 0px; font-size: 40px"";>מוכנים לשלם: <span id=""c_p_y""></span></p>","23","evaluation","35","17","2A,7A,9A,15B","60","43","23","","","","","","","","","","","","","","","","",""
"","","","","","html-keyboard-response","168","1150422","0.0-21.0-2.18","9f4864a0-f288-4233-97bb-7895ea53da8d","null","<p style=""text-align: center;"">+</p>","null","fixation","","","","","","","","","","","","","","","","","","","","","","",""
"","","","","","html-slider-response","169","1151436","0.0-21.0-0.19","9f4864a0-f288-4233-97bb-7895ea53da8d","1000","
                  <p style=""text-align: center;"">₪11
                                                <br>20%</p>
                  <p id=""wtp"" style=""text-align:center; margin-top: 0px; margin-bottom: 0px; font-size: 40px"";>&ensp;</p>","-","viewing","0","4","12C,17C,23C,28C","","","","","","","","","","","","","","","","","","","",""
"","","","","","html-slider-response","170","1153670","0.0-21.0-1.19","9f4864a0-f288-4233-97bb-7895ea53da8d","2233","
                  <p style=""text-align: center;"">₪11
                                                <br>20%</p>
                  <p id=""wtp"" style=""text-align:center; margin-top: 0px; margin-bottom: 0px; font-size: 40px"";>מוכנים לשלם: <span id=""c_p_y""></span></p>","0","evaluation","27","4","12C,17C,23C,28C","20","11","1","","","","","","","","","","","","","","","","",""
"","","","","","html-keyboard-response","171","1154693","0.0-21.0-2.19","9f4864a0-f288-4233-97bb-7895ea53da8d","null","<p style=""text-align: center;"">+</p>","null","fixation","","","","","","","","","","","","","","","","","","","","","","",""
"","","","","","html-slider-response","172","1155704","0.0-21.0-0.20","9f4864a0-f288-4233-97bb-7895ea53da8d","1000","
                  <p style=""text-align: center;"">₪4
                                                <br>25%</p>
                  <p id=""wtp"" style=""text-align:center; margin-top: 0px; margin-bottom: 0px; font-size: 40px"";>&ensp;</p>","-","viewing","0","1","6C,29B,30C","","","","","","","","","","","","","","","","","","","",""
"","","","","","html-slider-response","173","1157286","0.0-21.0-1.20","9f4864a0-f288-4233-97bb-7895ea53da8d","1580","
                  <p style=""text-align: center;"">₪4
                                                <br>25%</p>
                  <p id=""wtp"" style=""text-align:center; margin-top: 0px; margin-bottom: 0px; font-size: 40px"";>מוכנים לשלם: <span id=""c_p_y""></span></p>","1","evaluation","7","1","6C,29B,30C","25","4","1","","","","","","","","","","","","","","","","",""
"","","","","","html-keyboard-response","174","1158422","0.0-21.0-2.20","9f4864a0-f288-4233-97bb-7895ea53da8d","null","<p style=""text-align: center;"">+</p>","null","fixation","","","","","","","","","","","","","","","","","","","","","","",""
"","","","","","html-slider-response","175","1159432","0.0-21.0-0.21","9f4864a0-f288-4233-97bb-7895ea53da8d","1000","
                  <p style=""text-align: center;"">₪71
                                                <br>55%</p>
                  <p id=""wtp"" style=""text-align:center; margin-top: 0px; margin-bottom: 0px; font-size: 40px"";>&ensp;</p>","-","viewing","0","27","5B,18A","","","","","","","","","","","","","","","","","","","",""
"","","","","","html-slider-response","176","1161894","0.0-21.0-1.21","9f4864a0-f288-4233-97bb-7895ea53da8d","2461","
                  <p style=""text-align: center;"">₪71
                                                <br>55%</p>
                  <p id=""wtp"" style=""text-align:center; margin-top: 0px; margin-bottom: 0px; font-size: 40px"";>מוכנים לשלם: <span id=""c_p_y""></span></p>","21","evaluation","78","27","5B,18A","55","71","21","","","","","","","","","","","","","","","","",""
"","","","","","html-keyboard-response","177","1163110","0.0-21.0-2.21","9f4864a0-f288-4233-97bb-7895ea53da8d","null","<p style=""text-align: center;"">+</p>","null","fixation","","","","","","","","","","","","","","","","","","","","","","",""
"","","","","","html-slider-response","178","1164119","0.0-21.0-0.22","9f4864a0-f288-4233-97bb-7895ea53da8d","1000","
                  <p style=""text-align: center;"">₪58
                                                <br>45%</p>
                  <p id=""wtp"" style=""text-align:center; margin-top: 0px; margin-bottom: 0px; font-size: 40px"";>&ensp;</p>","-","viewing","0","21","11C,18C,25A","","","","","","","","","","","","","","","","","","","",""
"","","","","","html-slider-response","179","1165718","0.0-21.0-1.22","9f4864a0-f288-4233-97bb-7895ea53da8d","1598","
                  <p style=""text-align: center;"">₪58
                                                <br>45%</p>
                  <p id=""wtp"" style=""text-align:center; margin-top: 0px; margin-bottom: 0px; font-size: 40px"";>מוכנים לשלם: <span id=""c_p_y""></span></p>","14","evaluation","13","21","11C,18C,25A","45","58","14","","","","","","","","","","","","","","","","",""
"","","","","","html-keyboard-response","180","1166398","0.0-21.0-2.22","9f4864a0-f288-4233-97bb-7895ea53da8d","null","<p style=""text-align: center;"">+</p>","null","fixation","","","","","","","","","","","","","","","","","","","","","","",""
"","","","","","html-slider-response","181","1167400","0.0-21.0-0.23","9f4864a0-f288-4233-97bb-7895ea53da8d","1000","
                  <p style=""text-align: center;"">₪71
                                                <br>75%</p>
                  <p id=""wtp"" style=""text-align:center; margin-top: 0px; margin-bottom: 0px; font-size: 40px"";>&ensp;</p>","-","viewing","0","28","8B","","","","","","","","","","","","","","","","","","","",""
"","","","","","html-slider-response","182","1169334","0.0-21.0-1.23","9f4864a0-f288-4233-97bb-7895ea53da8d","1932","
                  <p style=""text-align: center;"">₪71
                                                <br>75%</p>
                  <p id=""wtp"" style=""text-align:center; margin-top: 0px; margin-bottom: 0px; font-size: 40px"";>מוכנים לשלם: <span id=""c_p_y""></span></p>","38","evaluation","22","28","8B","75","71","38","","","","","","","","","","","","","","","","",""
"","","","","","html-keyboard-response","183","1170818","0.0-21.0-2.23","9f4864a0-f288-4233-97bb-7895ea53da8d","null","<p style=""text-align: center;"">+</p>","null","fixation","","","","","","","","","","","","","","","","","","","","","","",""
"","","","","","html-slider-response","184","1171832","0.0-21.0-0.24","9f4864a0-f288-4233-97bb-7895ea53da8d","1000","
                  <p style=""text-align: center;"">₪11
                                                <br>75%</p>
                  <p id=""wtp"" style=""text-align:center; margin-top: 0px; margin-bottom: 0px; font-size: 40px"";>&ensp;</p>","-","viewing","0","7","6B,18B,22C,24C,29A","","","","","","","","","","","","","","","","","","","",""
"","","","","","html-slider-response","185","1174070","0.0-21.0-1.24","9f4864a0-f288-4233-97bb-7895ea53da8d","2237","
                  <p style=""text-align: center;"">₪11
                                                <br>75%</p>
                  <p id=""wtp"" style=""text-align:center; margin-top: 0px; margin-bottom: 0px; font-size: 40px"";>מוכנים לשלם: <span id=""c_p_y""></span></p>","6","evaluation","29","7","6B,18B,22C,24C,29A","75","11","6","","","","","","","","","","","","","","","","",""
"","","","","","html-keyboard-response","186","1175520","0.0-21.0-2.24","9f4864a0-f288-4233-97bb-7895ea53da8d","null","<p style=""text-align: center;"">+</p>","null","fixation","","","","","","","","","","","","","","","","","","","","","","",""
"","","","","","html-slider-response","187","1176535","0.0-21.0-0.25","9f4864a0-f288-4233-97bb-7895ea53da8d","1000","
                  <p style=""text-align: center;"">₪11
                                                <br>25%</p>
                  <p id=""wtp"" style=""text-align:center; margin-top: 0px; margin-bottom: 0px; font-size: 40px"";>&ensp;</p>","-","viewing","0","5","12A,27B,28B,30B","","","","","","","","","","","","","","","","","","","",""
"","","","","","html-slider-response","188","1178350","0.0-21.0-1.25","9f4864a0-f288-4233-97bb-7895ea53da8d","1814","
                  <p style=""text-align: center;"">₪11
                                                <br>25%</p>
                  <p id=""wtp"" style=""text-align:center; margin-top: 0px; margin-bottom: 0px; font-size: 40px"";>מוכנים לשלם: <span id=""c_p_y""></span></p>","4","evaluation","74","5","12A,27B,28B,30B","25","11","5","","","","","","","","","","","","","","","","",""
"","","","","","html-keyboard-response","189","1178928","0.0-21.0-2.25","9f4864a0-f288-4233-97bb-7895ea53da8d","null","<p style=""text-align: center;"">+</p>","null","fixation","","","","","","","","","","","","","","","","","","","","","","",""
"","","","","","html-slider-response","190","1179932","0.0-21.0-0.26","9f4864a0-f288-4233-97bb-7895ea53da8d","1000","
                  <p style=""text-align: center;"">₪11
                                                <br>45%</p>
                  <p id=""wtp"" style=""text-align:center; margin-top: 0px; margin-bottom: 0px; font-size: 40px"";>&ensp;</p>","-","viewing","0","6","14B,21C,25C","","","","","","","","","","","","","","","","","","","",""
"","","","","","html-slider-response","191","1182878","0.0-21.0-1.26","9f4864a0-f288-4233-97bb-7895ea53da8d","2944","
                  <p style=""text-align: center;"">₪11
                                                <br>45%</p>
                  <p id=""wtp"" style=""text-align:center; margin-top: 0px; margin-bottom: 0px; font-size: 40px"";>מוכנים לשלם: <span id=""c_p_y""></span></p>","2","evaluation","22","6","14B,21C,25C","45","11","3","","","","","","","","","","","","","","","","",""
"","","","","","html-keyboard-response","192","1183520","0.0-21.0-2.26","9f4864a0-f288-4233-97bb-7895ea53da8d","null","<p style=""text-align: center;"">+</p>","null","fixation","","","","","","","","","","","","","","","","","","","","","","",""
"","","","","","html-slider-response","193","1184536","0.0-21.0-0.27","9f4864a0-f288-4233-97bb-7895ea53da8d","1000","
                  <p style=""text-align: center;"">₪39
                                                <br>60%</p>
                  <p id=""wtp"" style=""text-align:center; margin-top: 0px; margin-bottom: 0px; font-size: 40px"";>&ensp;</p>","-","viewing","0","15","9C,25B","","","","","","","","","","","","","","","","","","","",""
"","","","","","html-slider-response","194","1185766","0.0-21.0-1.27","9f4864a0-f288-4233-97bb-7895ea53da8d","1228","
                  <p style=""text-align: center;"">₪39
                                                <br>60%</p>
                  <p id=""wtp"" style=""text-align:center; margin-top: 0px; margin-bottom: 0px; font-size: 40px"";>מוכנים לשלם: <span id=""c_p_y""></span></p>","11","evaluation","29","15","9C,25B","60","39","11","","","","","","","","","","","","","","","","",""
"","","","","","html-keyboard-response","195","1186782","0.0-21.0-2.27","9f4864a0-f288-4233-97bb-7895ea53da8d","null","<p style=""text-align: center;"">+</p>","null","fixation","","","","","","","","","","","","","","","","","","","","","","",""
"","","","","","html-slider-response","196","1187790","0.0-21.0-0.28","9f4864a0-f288-4233-97bb-7895ea53da8d","1000","
                  <p style=""text-align: center;"">₪36
                                                <br>30%</p>
                  <p id=""wtp"" style=""text-align:center; margin-top: 0px; margin-bottom: 0px; font-size: 40px"";>&ensp;</p>","-","viewing","0","11","3C,20A,22A","","","","","","","","","","","","","","","","","","","",""
"","","","","","html-slider-response","197","1188758","0.0-21.0-1.28","9f4864a0-f288-4233-97bb-7895ea53da8d","966","
                  <p style=""text-align: center;"">₪36
                                                <br>30%</p>
                  <p id=""wtp"" style=""text-align:center; margin-top: 0px; margin-bottom: 0px; font-size: 40px"";>מוכנים לשלם: <span id=""c_p_y""></span></p>","6","evaluation","1","11","3C,20A,22A","30","36","7","","","","","","","","","","","","","","","","",""
"","","","","","html-keyboard-response","198","1190214","0.0-21.0-2.28","9f4864a0-f288-4233-97bb-7895ea53da8d","null","<p style=""text-align: center;"">+</p>","null","fixation","","","","","","","","","","","","","","","","","","","","","","",""
"","","","","","html-slider-response","199","1191226","0.0-21.0-0.29","9f4864a0-f288-4233-97bb-7895ea53da8d","1000","
                  <p style=""text-align: center;"">₪36
                                                <br>70%</p>
                  <p id=""wtp"" style=""text-align:center; margin-top: 0px; margin-bottom: 0px; font-size: 40px"";>&ensp;</p>","-","viewing","0","13","3A,5C,10B","","","","","","","","","","","","","","","","","","","",""
"","","","","","html-slider-response","200","1192317","0.0-21.0-1.29","9f4864a0-f288-4233-97bb-7895ea53da8d","1090","
                  <p style=""text-align: center;"">₪36
                                                <br>70%</p>
                  <p id=""wtp"" style=""text-align:center; margin-top: 0px; margin-bottom: 0px; font-size: 40px"";>מוכנים לשלם: <span id=""c_p_y""></span></p>","27","evaluation","4","13","3A,5C,10B","70","36","27","","","","","","","","","","","","","","","","",""
"","","","","","html-keyboard-response","201","1193299","0.0-21.0-2.29","9f4864a0-f288-4233-97bb-7895ea53da8d","null","<p style=""text-align: center;"">+</p>","null","fixation","","","","","","","","","","","","","","","","","","","","","","",""
"","","","","","html-slider-response","202","1194301","0.0-21.0-0.30","9f4864a0-f288-4233-97bb-7895ea53da8d","1000","
                  <p style=""text-align: center;"">₪58
                                                <br>40%</p>
                  <p id=""wtp"" style=""text-align:center; margin-top: 0px; margin-bottom: 0px; font-size: 40px"";>&ensp;</p>","-","viewing","0","20","10C,13A,19C,21B","","","","","","","","","","","","","","","","","","","",""
"","","","","","html-slider-response","203","1195725","0.0-21.0-1.30","9f4864a0-f288-4233-97bb-7895ea53da8d","1423","
                  <p style=""text-align: center;"">₪58
                                                <br>40%</p>
                  <p id=""wtp"" style=""text-align:center; margin-top: 0px; margin-bottom: 0px; font-size: 40px"";>מוכנים לשלם: <span id=""c_p_y""></span></p>","4","evaluation","15","20","10C,13A,19C,21B","40","58","4","","","","","","","","","","","","","","","","",""
"","","","","","html-keyboard-response","204","1197094","0.0-21.0-2.30","9f4864a0-f288-4233-97bb-7895ea53da8d","null","<p style=""text-align: center;"">+</p>","null","fixation","","","","","","","","","","","","","","","","","","","","","","",""
"","","","","","html-keyboard-response","205","1198096","0.0-22.0","9f4864a0-f288-4233-97bb-7895ea53da8d","null","<p style=""text-align: center;"">+</p>","null","fixation","","","","","","","","","","","","","","","","","","","","","","",""
"","","","","","html-keyboard-response","206","1202861","0.0-23.0","9f4864a0-f288-4233-97bb-7895ea53da8d","null","<p>הפסקה.
          <br>לחצו כדי להמשיך.</p>","1","scan_wait","","","","","","","","","","","","","","","","","","","","","","",""
"","","","","","html-keyboard-response","207","1203863","0.0-24.0","9f4864a0-f288-4233-97bb-7895ea53da8d","null","<p style=""text-align: center;"">+</p>","null","fixation","","","","","","","","","","","","","","","","","","","","","","",""
"","","","","","html-slider-response","208","1204873","0.0-25.0-0.0","9f4864a0-f288-4233-97bb-7895ea53da8d","1000","
                  <p style=""text-align: center;"">₪4
                                                <br>50%</p>
                  <p id=""wtp"" style=""text-align:center; margin-top: 0px; margin-bottom: 0px; font-size: 40px"";>&ensp;</p>","-","viewing","0","2","4C,17B","","","","","","","","","","","","","","","","","","","",""
"","","","","","html-slider-response","209","1207245","0.0-25.0-1.0","9f4864a0-f288-4233-97bb-7895ea53da8d","2371","
                  <p style=""text-align: center;"">₪4
                                                <br>50%</p>
                  <p id=""wtp"" style=""text-align:center; margin-top: 0px; margin-bottom: 0px; font-size: 40px"";>מוכנים לשלם: <span id=""c_p_y""></span></p>","1","evaluation","31","2","4C,17B","50","4","1","","","","","","","","","","","","","","","","",""
"","","","","","html-keyboard-response","210","1207781","0.0-25.0-2.0","9f4864a0-f288-4233-97bb-7895ea53da8d","null","<p style=""text-align: center;"">+</p>","null","fixation","","","","","","","","","","","","","","","","","","","","","","",""
"","","","","","html-slider-response","211","1208790","0.0-25.0-0.1","9f4864a0-f288-4233-97bb-7895ea53da8d","1000","
                  <p style=""text-align: center;"">₪39
                                                <br>65%</p>
                  <p id=""wtp"" style=""text-align:center; margin-top: 0px; margin-bottom: 0px; font-size: 40px"";>&ensp;</p>","-","viewing","0","16","1A,15A,26C","","","","","","","","","","","","","","","","","","","",""
"","","","","","html-slider-response","212","1210365","0.0-25.0-1.1","9f4864a0-f288-4233-97bb-7895ea53da8d","1575","
                  <p style=""text-align: center;"">₪39
                                                <br>65%</p>
                  <p id=""wtp"" style=""text-align:center; margin-top: 0px; margin-bottom: 0px; font-size: 40px"";>מוכנים לשלם: <span id=""c_p_y""></span></p>","16","evaluation","31","16","1A,15A,26C","65","39","16","","","","","","","","","","","","","","","","",""
"","","","","","html-keyboard-response","213","1211176","0.0-25.0-2.1","9f4864a0-f288-4233-97bb-7895ea53da8d","null","<p style=""text-align: center;"">+</p>","null","fixation","","","","","","","","","","","","","","","","","","","","","","",""
"","","","","","html-slider-response","214","1212190","0.0-25.0-0.2","9f4864a0-f288-4233-97bb-7895ea53da8d","1000","
                  <p style=""text-align: center;"">₪64
                                                <br>25%</p>
                  <p id=""wtp"" style=""text-align:center; margin-top: 0px; margin-bottom: 0px; font-size: 40px"";>&ensp;</p>","-","viewing","0","24","6A,21A","","","","","","","","","","","","","","","","","","","",""
"","","","","","html-slider-response","215","1213669","0.0-25.0-1.2","9f4864a0-f288-4233-97bb-7895ea53da8d","1479","
                  <p style=""text-align: center;"">₪64
                                                <br>25%</p>
                  <p id=""wtp"" style=""text-align:center; margin-top: 0px; margin-bottom: 0px; font-size: 40px"";>מוכנים לשלם: <span id=""c_p_y""></span></p>","7","evaluation","33","24","6A,21A","25","64","8","","","","","","","","","","","","","","","","",""
"","","","","","html-keyboard-response","216","1214843","0.0-25.0-2.2","9f4864a0-f288-4233-97bb-7895ea53da8d","null","<p style=""text-align: center;"">+</p>","null","fixation","","","","","","","","","","","","","","","","","","","","","","",""
"","","","","","html-slider-response","217","1215851","0.0-25.0-0.3","9f4864a0-f288-4233-97bb-7895ea53da8d","1000","
                  <p style=""text-align: center;"">₪18
                                                <br>25%</p>
                  <p id=""wtp"" style=""text-align:center; margin-top: 0px; margin-bottom: 0px; font-size: 40px"";>&ensp;</p>","-","viewing","0","9","14A,23A","","","","","","","","","","","","","","","","","","","",""
"","","","","","html-slider-response","218","1216965","0.0-25.0-1.3","9f4864a0-f288-4233-97bb-7895ea53da8d","1113","
                  <p style=""text-align: center;"">₪18
                                                <br>25%</p>
                  <p id=""wtp"" style=""text-align:center; margin-top: 0px; margin-bottom: 0px; font-size: 40px"";>מוכנים לשלם: <span id=""c_p_y""></span></p>","2","evaluation","53","9","14A,23A","25","18","3","","","","","","","","","","","","","","","","",""
"","","","","","html-keyboard-response","219","1217649","0.0-25.0-2.3","9f4864a0-f288-4233-97bb-7895ea53da8d","null","<p style=""text-align: center;"">+</p>","null","fixation","","","","","","","","","","","","","","","","","","","","","","",""
"","","","","","html-slider-response","220","1218653","0.0-25.0-0.4","9f4864a0-f288-4233-97bb-7895ea53da8d","1000","
                  <p style=""text-align: center;"">₪79
                                                <br>40%</p>
                  <p id=""wtp"" style=""text-align:center; margin-top: 0px; margin-bottom: 0px; font-size: 40px"";>&ensp;</p>","-","viewing","0","30","9B","","","","","","","","","","","","","","","","","","","",""
"","","","","","html-slider-response","221","1219493","0.0-25.0-1.4","9f4864a0-f288-4233-97bb-7895ea53da8d","839","
                  <p style=""text-align: center;"">₪79
                                                <br>40%</p>
                  <p id=""wtp"" style=""text-align:center; margin-top: 0px; margin-bottom: 0px; font-size: 40px"";>מוכנים לשלם: <span id=""c_p_y""></span></p>","5","evaluation","7","30","9B","40","79","6","","","","","","","","","","","","","","","","",""
"","","","","","html-keyboard-response","222","1220449","0.0-25.0-2.4","9f4864a0-f288-4233-97bb-7895ea53da8d","null","<p style=""text-align: center;"">+</p>","null","fixation","","","","","","","","","","","","","","","","","","","","","","",""
"","","","","","html-slider-response","223","1221459","0.0-25.0-0.5","9f4864a0-f288-4233-97bb-7895ea53da8d","1000","
                  <p style=""text-align: center;"">₪36
                                                <br>75%</p>
                  <p id=""wtp"" style=""text-align:center; margin-top: 0px; margin-bottom: 0px; font-size: 40px"";>&ensp;</p>","-","viewing","0","14","4B,5A,13B,16B","","","","","","","","","","","","","","","","","","","",""
"","","","","","html-slider-response","224","1222509","0.0-25.0-1.5","9f4864a0-f288-4233-97bb-7895ea53da8d","1049","
                  <p style=""text-align: center;"">₪36
                                                <br>75%</p>
                  <p id=""wtp"" style=""text-align:center; margin-top: 0px; margin-bottom: 0px; font-size: 40px"";>מוכנים לשלם: <span id=""c_p_y""></span></p>","11","evaluation","79","14","4B,5A,13B,16B","75","36","11","","","","","","","","","","","","","","","","",""
"","","","","","html-keyboard-response","225","1223105","0.0-25.0-2.5","9f4864a0-f288-4233-97bb-7895ea53da8d","null","<p style=""text-align: center;"">+</p>","null","fixation","","","","","","","","","","","","","","","","","","","","","","",""
"","","","","","html-slider-response","226","1224118","0.0-25.0-0.6","9f4864a0-f288-4233-97bb-7895ea53da8d","1000","
                  <p style=""text-align: center;"">₪36
                                                <br>70%</p>
                  <p id=""wtp"" style=""text-align:center; margin-top: 0px; margin-bottom: 0px; font-size: 40px"";>&ensp;</p>","-","viewing","0","13","3A,5C,10B","","","","","","","","","","","","","","","","","","","",""
"","","","","","html-slider-response","227","1224941","0.0-25.0-1.6","9f4864a0-f288-4233-97bb-7895ea53da8d","822","
                  <p style=""text-align: center;"">₪36
                                                <br>70%</p>
                  <p id=""wtp"" style=""text-align:center; margin-top: 0px; margin-bottom: 0px; font-size: 40px"";>מוכנים לשלם: <span id=""c_p_y""></span></p>","9","evaluation","35","13","3A,5C,10B","70","36","9","","","","","","","","","","","","","","","","",""
"","","","","","html-keyboard-response","228","1225601","0.0-25.0-2.6","9f4864a0-f288-4233-97bb-7895ea53da8d","null","<p style=""text-align: center;"">+</p>","null","fixation","","","","","","","","","","","","","","","","","","","","","","",""
"","","","","","html-slider-response","229","1226611","0.0-25.0-0.7","9f4864a0-f288-4233-97bb-7895ea53da8d","1000","
                  <p style=""text-align: center;"">₪18
                                                <br>50%</p>
                  <p id=""wtp"" style=""text-align:center; margin-top: 0px; margin-bottom: 0px; font-size: 40px"";>&ensp;</p>","-","viewing","0","10","2C,16C,22B,28A","","","","","","","","","","","","","","","","","","","",""
"","","","","","html-slider-response","230","1227717","0.0-25.0-1.7","9f4864a0-f288-4233-97bb-7895ea53da8d","1105","
                  <p style=""text-align: center;"">₪18
                                                <br>50%</p>
                  <p id=""wtp"" style=""text-align:center; margin-top: 0px; margin-bottom: 0px; font-size: 40px"";>מוכנים לשלם: <span id=""c_p_y""></span></p>","1","evaluation","51","10","2C,16C,22B,28A","50","18","2","","","","","","","","","","","","","","","","",""
"","","","","","html-keyboard-response","231","1229004","0.0-25.0-2.7","9f4864a0-f288-4233-97bb-7895ea53da8d","null","<p style=""text-align: center;"">+</p>","null","fixation","","","","","","","","","","","","","","","","","","","","","","",""
"","","","","","html-slider-response","232","1230012","0.0-25.0-0.8","9f4864a0-f288-4233-97bb-7895ea53da8d","1000","
                  <p style=""text-align: center;"">₪11
                                                <br>25%</p>
                  <p id=""wtp"" style=""text-align:center; margin-top: 0px; margin-bottom: 0px; font-size: 40px"";>&ensp;</p>","-","viewing","0","5","12A,27B,28B,30B","","","","","","","","","","","","","","","","","","","",""
"","","","","","html-slider-response","233","1231965","0.0-25.0-1.8","9f4864a0-f288-4233-97bb-7895ea53da8d","1952","
                  <p style=""text-align: center;"">₪11
                                                <br>25%</p>
                  <p id=""wtp"" style=""text-align:center; margin-top: 0px; margin-bottom: 0px; font-size: 40px"";>מוכנים לשלם: <span id=""c_p_y""></span></p>","1","evaluation","74","5","12A,27B,28B,30B","25","11","1","","","","","","","","","","","","","","","","",""
"","","","","","html-keyboard-response","234","1232898","0.0-25.0-2.8","9f4864a0-f288-4233-97bb-7895ea53da8d","null","<p style=""text-align: center;"">+</p>","null","fixation","","","","","","","","","","","","","","","","","","","","","","",""
"","","","","","html-slider-response","235","1233902","0.0-25.0-0.9","9f4864a0-f288-4233-97bb-7895ea53da8d","1000","
                  <p style=""text-align: center;"">₪64
                                                <br>50%</p>
                  <p id=""wtp"" style=""text-align:center; margin-top: 0px; margin-bottom: 0px; font-size: 40px"";>&ensp;</p>","-","viewing","0","25","1B,3B,4A","","","","","","","","","","","","","","","","","","","",""
"","","","","","html-slider-response","236","1235581","0.0-25.0-1.9","9f4864a0-f288-4233-97bb-7895ea53da8d","1678","
                  <p style=""text-align: center;"">₪64
                                                <br>50%</p>
                  <p id=""wtp"" style=""text-align:center; margin-top: 0px; margin-bottom: 0px; font-size: 40px"";>מוכנים לשלם: <span id=""c_p_y""></span></p>","9","evaluation","19","25","1B,3B,4A","50","64","9","","","","","","","","","","","","","","","","",""
"","","","","","html-keyboard-response","237","1236958","0.0-25.0-2.9","9f4864a0-f288-4233-97bb-7895ea53da8d","null","<p style=""text-align: center;"">+</p>","null","fixation","","","","","","","","","","","","","","","","","","","","","","",""
"","","","","","html-slider-response","238","1237966","0.0-25.0-0.10","9f4864a0-f288-4233-97bb-7895ea53da8d","1000","
                  <p style=""text-align: center;"">₪58
                                                <br>45%</p>
                  <p id=""wtp"" style=""text-align:center; margin-top: 0px; margin-bottom: 0px; font-size: 40px"";>&ensp;</p>","-","viewing","0","21","11C,18C,25A","","","","","","","","","","","","","","","","","","","",""
"","","","","","html-slider-response","239","1240189","0.0-25.0-1.10","9f4864a0-f288-4233-97bb-7895ea53da8d","2222","
                  <p style=""text-align: center;"">₪58
                                                <br>45%</p>
                  <p id=""wtp"" style=""text-align:center; margin-top: 0px; margin-bottom: 0px; font-size: 40px"";>מוכנים לשלם: <span id=""c_p_y""></span></p>","9","evaluation","16","21","11C,18C,25A","45","58","9","","","","","","","","","","","","","","","","",""
"","","","","","html-keyboard-response","240","1241641","0.0-25.0-2.10","9f4864a0-f288-4233-97bb-7895ea53da8d","null","<p style=""text-align: center;"">+</p>","null","fixation","","","","","","","","","","","","","","","","","","","","","","",""
"","","","","","html-slider-response","241","1242655","0.0-25.0-0.11","9f4864a0-f288-4233-97bb-7895ea53da8d","1000","
                  <p style=""text-align: center;"">₪11
                                                <br>20%</p>
                  <p id=""wtp"" style=""text-align:center; margin-top: 0px; margin-bottom: 0px; font-size: 40px"";>&ensp;</p>","-","viewing","0","4","12C,17C,23C,28C","","","","","","","","","","","","","","","","","","","",""
"","","","","","html-slider-response","242","1244565","0.0-25.0-1.11","9f4864a0-f288-4233-97bb-7895ea53da8d","1909","
                  <p style=""text-align: center;"">₪11
                                                <br>20%</p>
                  <p id=""wtp"" style=""text-align:center; margin-top: 0px; margin-bottom: 0px; font-size: 40px"";>מוכנים לשלם: <span id=""c_p_y""></span></p>","0","evaluation","66","4","12C,17C,23C,28C","20","11","0","","","","","","","","","","","","","","","","",""
"","","","","","html-keyboard-response","243","1245294","0.0-25.0-2.11","9f4864a0-f288-4233-97bb-7895ea53da8d","null","<p style=""text-align: center;"">+</p>","null","fixation","","","","","","","","","","","","","","","","","","","","","","",""
"","","","","","html-slider-response","244","1246298","0.0-25.0-0.12","9f4864a0-f288-4233-97bb-7895ea53da8d","1000","
                  <p style=""text-align: center;"">₪71
                                                <br>45%</p>
                  <p id=""wtp"" style=""text-align:center; margin-top: 0px; margin-bottom: 0px; font-size: 40px"";>&ensp;</p>","-","viewing","0","26","2B,16A","","","","","","","","","","","","","","","","","","","",""
"","","","","","html-slider-response","245","1247797","0.0-25.0-1.12","9f4864a0-f288-4233-97bb-7895ea53da8d","1499","
                  <p style=""text-align: center;"">₪71
                                                <br>45%</p>
                  <p id=""wtp"" style=""text-align:center; margin-top: 0px; margin-bottom: 0px; font-size: 40px"";>מוכנים לשלם: <span id=""c_p_y""></span></p>","12","evaluation","15","26","2B,16A","45","71","12","","","","","","","","","","","","","","","","",""
"","","","","","html-keyboard-response","246","1248677","0.0-25.0-2.12","9f4864a0-f288-4233-97bb-7895ea53da8d","null","<p style=""text-align: center;"">+</p>","null","fixation","","","","","","","","","","","","","","","","","","","","","","",""
"","","","","","html-slider-response","247","1249684","0.0-25.0-0.13","9f4864a0-f288-4233-97bb-7895ea53da8d","1000","
                  <p style=""text-align: center;"">₪61
                                                <br>55%</p>
                  <p id=""wtp"" style=""text-align:center; margin-top: 0px; margin-bottom: 0px; font-size: 40px"";>&ensp;</p>","-","viewing","0","23","7B,26B","","","","","","","","","","","","","","","","","","","",""
"","","","","","html-slider-response","248","1252550","0.0-25.0-1.13","9f4864a0-f288-4233-97bb-7895ea53da8d","2864","
                  <p style=""text-align: center;"">₪61
                                                <br>55%</p>
                  <p id=""wtp"" style=""text-align:center; margin-top: 0px; margin-bottom: 0px; font-size: 40px"";>מוכנים לשלם: <span id=""c_p_y""></span></p>","22","evaluation","76","23","7B,26B","55","61","22","","","","","","","","","","","","","","","","",""
