"success","timeout","failed_images","failed_audio","failed_video","trial_type","trial_index","time_elapsed","internal_node_id","subject_id","rt","stimulus","response","part","slider_start","ID","set_ID","prob","amount","last_location","actual_choice","actual_EV","binary_id","trinary_id","catch","direction","A_key","S_key","D_key","choice_prob","choice_amount","potential_prize_prob","potential_prize_amount","won_prize","total_prize","remaining_budget","accuracy"
"true","false","[]","[]","[]","preload","0","5","0.0-0.0","d139fd97-7d25-46cc-8d4b-ecde8190ff27","","","","","","","","","","","","","","","","","","","","","","","","","","",""
"","","","","","html-keyboard-response","1","35753","0.0-1.0","d139fd97-7d25-46cc-8d4b-ecde8190ff27","null","
          <h1>שלום וברוכים הבאים!</h1>
          <p>לפניכם ניסוי בקבלת החלטות עם שני חלקים.
          <br><br>לחצו על העכבר כדי להמשיך.</p>","0","example","","","","","","","","","","","","","","","","","","","","","","",""
"","","","","","html-keyboard-response","2","55432","0.0-2.0","d139fd97-7d25-46cc-8d4b-ecde8190ff27","null","
        <h1>חלק 1</h1>
        <p>בקרוב יוצגו בפניכם הגרלות.
        <br>עליכם לבחור את המחיר המירבי שתהיו מוכנים לשלם כדי להשתתף בהגרלה שתוצג.
        <br>יש לכם תקציב של ₪80 לכל הגרלה. 
        <br>נסו להעריך כל הגרלה בנפרד ולחשוב כמה היא שווה עבורכם, ₪80 זמינים לכל הגרלה בנפרד.
        <br><br>לחצו על העכבר כדי להמשיך.</p>","1","instructions","","","","","","","","","","","","","","","","","","","","","","",""
"","","","","","html-keyboard-response","3","72225","0.0-3.0","d139fd97-7d25-46cc-8d4b-ecde8190ff27","null","
        <p>בסוף הניסוי, המחשב יבחר את אחת ההגרלות ויקבע מחיר לכרטיס עבורה. 
        <br>במידה והמחיר שבחרתם נמוך מהמחיר שנבחר על ידי המחשב, לא תשתתפו בהגרלה ותשארו עם מלוא התקציב.
        <br>במידה והמחיר שבחרתם גבוה מהמחיר שנבחר על ידי המחשב, תשלמו את המחיר שנקבע ותשתתפו בהגרלה.
        <br><br>לחצו על העכבר כדי להמשיך.</p>","1","instructions","","","","","","","","","","","","","","","","","","","","","","",""
"","","","","","html-slider-response","4","107433","0.0-4.0","d139fd97-7d25-46cc-8d4b-ecde8190ff27","35105","
        <p style=""font-size: 42px;"">נתחיל עם דוגמא: 
        <br>ההגרלה מטה מציעה 65% סיכוי לזכות ב-₪40 
        <br>&emsp;&emsp;&emsp;&emsp;&emsp;&emsp;&emsp;&emsp;&ensp;35% סיכוי לזכות ב-₪0.
        <br><br>מה המחיר המירבי שתהיו מוכנים לשלם על כרטיס להגרלה זו בין 0 ל-₪80?
        <br>הזיזו את העכבר על פני המלבן ולחצו כדי לבצע בחירה.</p>
        
        <p style=""text-align: center;"">₪40<br>65%</p>

        <p id=""wtp"" style=""text-align:center; margin-top: 0px; margin-bottom: 0px; font-size: 40px"";>מוכנים לשלם: <span id=""c_p_y""></span></p>","50","example","13","","","","","","","","","","","","","","","","","","","","","",""
"","","","","","html-keyboard-response","5","126129","0.0-5.0","d139fd97-7d25-46cc-8d4b-ecde8190ff27","null","<p>יפה מאוד!
                <br> בחרתם שתהיו מוכנים לשלם ₪50 כדי להשתתף בהגרלה:
                <br><p style=""text-align: center;"">₪40<br>65%</p>
                <p>נשמע נכון?
                <br>נניח שהגרלה זו נבחרה בסוף הניסוי.
                <br>כעת המחשב יקבע מחיר עבורה באקראי.
                <br>לחצו על העכבר להמשך.</p>","1","example","","","","","","","","","","","","","","","","","","","","","","",""
"","","","","","html-keyboard-response","6","136449","0.0-6.0","d139fd97-7d25-46cc-8d4b-ecde8190ff27","null","<p>המחשב קבע מחיר: ₪78
                <br>ואתם בחרתם לשלם לכל היותר: ₪50
                <br><br>מכיוון שהמחיר שבחרתם נמוך מהמחיר שנקבע, לא תתשתתפו בהגרלה.
                <br>במקרה כזה, בסוף הניסוי תקבלו את כל התקציב ההתחלתי של ₪80.
                <br><br>לחצו על העכבר להמשך.</p>","1","example","","","","","","","","","","","","","","","","","","","","","","",""
"","","","","","html-slider-response","7","148873","0.0-7.0","d139fd97-7d25-46cc-8d4b-ecde8190ff27","12163","<p style=""font-size: 42px;"">הנה עוד דוגמא:
                <br>ההגרלה מטה מציעה 35% סיכוי לזכות ב-₪18 
                <br>&emsp;&emsp;&emsp;&emsp;&emsp;&emsp;&emsp;&emsp;&ensp;65% סיכוי לזכות ב-₪0.</p>
        
                <p style=""text-align: center;"">₪18<br>35%</p>
                <p id=""wtp"" style=""text-align:center; margin-top: 0px; margin-bottom: 0px; font-size: 40px"";>מוכנים לשלם: <span id=""c_p_y""></span></p>","15","example","12","","","","","","","","","","","","","","","","","","","","","",""
"","","","","","html-keyboard-response","8","158305","0.0-8.0","d139fd97-7d25-46cc-8d4b-ecde8190ff27","null","<p>הייתם מוכנים לשלם  ₪15 כדי להשתתף בהגרלה:
                <p style=""text-align: center;"">₪18<br>35%</p>
                <p>כעת נניח שהמחשב בחר את ההגרלה הזו בסוף הניסוי, וקבע עבורה מחיר.
                <br><br>לחצו על העכבר כדי להמשיך.</p>","1","instructions","","","","","","","","","","","","","","","","","","","","","","",""
"","","","","","html-keyboard-response","9","183321","0.0-9.0","d139fd97-7d25-46cc-8d4b-ecde8190ff27","null","<p>המחשב קבע מחיר להגרלה: ₪8<br>ואתם בחרתם לשלם לכל היותר: ₪15
                <br><br>כעת המחיר שנקבע נמוך מזה שבחרתם, אז תשלמו את המחיר שקבע המחשב (₪8) ותשתתפו בהגרלה.
                <br>במקרה כזה, תסיימו את הניסוי עם תקציב של ₪72 ועם סיכוי לזכות ב-₪18 נוספים מההגרלה.
                <br>כלומר, תוכלו לקבל ₪72 אם לא תזכו בהגרלה, או ₪90 אם תזכו בהגרלה.
                <br><br>לחצו על העכבר להמשך.</p>","1","example","","","","","","","","","","","","","","","","","","","","","","",""
"","","","","","html-keyboard-response","10","201001","0.0-10.0","d139fd97-7d25-46cc-8d4b-ecde8190ff27","null","<p>במהלך הניסוי, קודם תראו את ההגרלה ורק לאחר מכן תוכלו לבחור.
                <p>כמו כן, יהיו לכם מספר שניות מוגבל להגיב.
                <p>בואו ננסה זאת עם ההגרלה הקודמת.
                <br>לחצו על העכבר כדי להמשיך.</p>","1","instructions","","","","","","","","","","","","","","","","","","","","","","",""
"","","","","","html-slider-response","11","202277","0.0-11.0","d139fd97-7d25-46cc-8d4b-ecde8190ff27","1000","
                    <p style=""text-align: center;"">₪18<br>35%</p>
                    <p id=""wtp"" style=""text-align:center; margin-top: 0px; margin-bottom: 0px; font-size: 40px"";>&ensp;</p>","46","instructions","0","","","","","","","","","","","","","","","","","","","","","",""
"","","","","","html-slider-response","12","206533","0.0-12.0","d139fd97-7d25-46cc-8d4b-ecde8190ff27","null","
                    <p style=""text-align: center;"">₪18<br>35%</p>
                    <p id=""wtp"" style=""text-align:center; margin-top: 0px; margin-bottom: 0px; font-size: 40px"";>מוכנים לשלם: <span id=""c_p_y""></span></p>","null","instructions","18","","","","","","","","","","","","","","","","","","","","","",""
"","","","","","html-keyboard-response","13","207041","0.0-13.0","d139fd97-7d25-46cc-8d4b-ecde8190ff27","null","<p>לא הגבתם בזמן המוקצב לתגובה. 
                <br>נסו להגיב מהר יותר בפעם הבאה.
                <br><br>לחצו על העכבר כדי להמשיך.</p>","1","instructions","","","","","","","","","","","","","","","","","","","","","","",""
"","","","","","html-slider-response","14","210249","0.0-14.0-0.0","d139fd97-7d25-46cc-8d4b-ecde8190ff27","2949","
                    <p style=""text-align: center;"">₪40<br>65%</p>
                    <p id=""wtp"" style=""text-align:center; margin-top: 0px; margin-bottom: 0px; font-size: 40px"";>מוכנים לשלם: <span id=""c_p_y""></span></p>","51","instructions","73","","","","","","","","","","","","","","","","","","","","","",""
"","","","","","html-keyboard-response","15","213473","0.0-14.0-1.0","d139fd97-7d25-46cc-8d4b-ecde8190ff27","null","<p>יפה. הפעם בחרתם לשלם לכל היותר ₪51.
                <br><br>לחצו על העכבר כדי להמשיך.</p>","1","instructions","","","","","","","","","","","","","","","","","","","","","","",""
"","","","","","html-keyboard-response","16","221225","0.0-15.0","d139fd97-7d25-46cc-8d4b-ecde8190ff27","null","<p>כעת נתחיל את הניסוי.
                <br><br>אתם תראו הגרלות ותתבקשו לבחור כמה תהיו מוכנים לשלם כדי להשתתף בהן.
                <br>יש לכם תקציב של ₪80 עבור כל הגרלה.
                <br>בסוף הניסוי הגרלה אחת תבחר באקראי ותשוחק.
                <br><br>לחצו על העכבר כדי להתחיל את הניסוי.</p>","1","instructions","","","","","","","","","","","","","","","","","","","","","","",""
"","","","","","html-keyboard-response","17","222477","0.0-16.0","d139fd97-7d25-46cc-8d4b-ecde8190ff27","null","<p style=""text-align: center;"">+</p>","null","fixation","","","","","","","","","","","","","","","","","","","","","","",""
"","","","","","html-slider-response","18","223481","0.0-17.0-0.0","d139fd97-7d25-46cc-8d4b-ecde8190ff27","1000","
                  <p style=""text-align: center;"">₪71
                                                <br>55%</p>
                  <p id=""wtp"" style=""text-align:center; margin-top: 0px; margin-bottom: 0px; font-size: 40px"";>&ensp;</p>","-","viewing","0","27","5B,18A","","","","","","","","","","","","","","","","","","","",""
"","","","","","html-slider-response","19","227369","0.0-17.0-1.0","d139fd97-7d25-46cc-8d4b-ecde8190ff27","3887","
                  <p style=""text-align: center;"">₪71
                                                <br>55%</p>
                  <p id=""wtp"" style=""text-align:center; margin-top: 0px; margin-bottom: 0px; font-size: 40px"";>מוכנים לשלם: <span id=""c_p_y""></span></p>","67","evaluation","72","27","5B,18A","55","71","66","","","","","","","","","","","","","","","","",""
"","","","","","html-keyboard-response","20","228553","0.0-17.0-2.0","d139fd97-7d25-46cc-8d4b-ecde8190ff27","null","<p style=""text-align: center;"">+</p>","null","fixation","","","","","","","","","","","","","","","","","","","","","","",""
"","","","","","html-slider-response","21","229570","0.0-17.0-0.1","d139fd97-7d25-46cc-8d4b-ecde8190ff27","1000","
                  <p style=""text-align: center;"">₪43
                                                <br>60%</p>
                  <p id=""wtp"" style=""text-align:center; margin-top: 0px; margin-bottom: 0px; font-size: 40px"";>&ensp;</p>","-","viewing","0","17","2A,7A,9A,15B","","","","","","","","","","","","","","","","","","","",""
"","","","","","html-slider-response","22","233575","0.0-17.0-1.1","d139fd97-7d25-46cc-8d4b-ecde8190ff27","null","
                  <p style=""text-align: center;"">₪43
                                                <br>60%</p>
                  <p id=""wtp"" style=""text-align:center; margin-top: 0px; margin-bottom: 0px; font-size: 40px"";>מוכנים לשלם: <span id=""c_p_y""></span></p>","null","evaluation","33","17","2A,7A,9A,15B","60","43","49","","","","","","","","","","","","","","","","",""
"","","","","","html-keyboard-response","23","234858","0.0-17.0-2.1","d139fd97-7d25-46cc-8d4b-ecde8190ff27","null","<p style=""text-align: center;"">+</p>","null","fixation","","","","","","","","","","","","","","","","","","","","","","",""
"","","","","","html-slider-response","24","235872","0.0-17.0-0.2","d139fd97-7d25-46cc-8d4b-ecde8190ff27","1000","
                  <p style=""text-align: center;"">₪71
                                                <br>45%</p>
                  <p id=""wtp"" style=""text-align:center; margin-top: 0px; margin-bottom: 0px; font-size: 40px"";>&ensp;</p>","-","viewing","0","26","2B,16A","","","","","","","","","","","","","","","","","","","",""
"","","","","","html-slider-response","25","237721","0.0-17.0-1.2","d139fd97-7d25-46cc-8d4b-ecde8190ff27","1848","
                  <p style=""text-align: center;"">₪71
                                                <br>45%</p>
                  <p id=""wtp"" style=""text-align:center; margin-top: 0px; margin-bottom: 0px; font-size: 40px"";>מוכנים לשלם: <span id=""c_p_y""></span></p>","54","evaluation","24","26","2B,16A","45","71","54","","","","","","","","","","","","","","","","",""
"","","","","","html-keyboard-response","26","238389","0.0-17.0-2.2","d139fd97-7d25-46cc-8d4b-ecde8190ff27","null","<p style=""text-align: center;"">+</p>","null","fixation","","","","","","","","","","","","","","","","","","","","","","",""
"","","","","","html-slider-response","27","239391","0.0-17.0-0.3","d139fd97-7d25-46cc-8d4b-ecde8190ff27","1000","
                  <p style=""text-align: center;"">₪61
                                                <br>45%</p>
                  <p id=""wtp"" style=""text-align:center; margin-top: 0px; margin-bottom: 0px; font-size: 40px"";>&ensp;</p>","-","viewing","0","22","10A,11A","","","","","","","","","","","","","","","","","","","",""
"","","","","","html-slider-response","28","241657","0.0-17.0-1.3","d139fd97-7d25-46cc-8d4b-ecde8190ff27","2265","
                  <p style=""text-align: center;"">₪61
                                                <br>45%</p>
                  <p id=""wtp"" style=""text-align:center; margin-top: 0px; margin-bottom: 0px; font-size: 40px"";>מוכנים לשלם: <span id=""c_p_y""></span></p>","58","evaluation","1","22","10A,11A","45","61","58","","","","","","","","","","","","","","","","",""
"","","","","","html-keyboard-response","29","242166","0.0-17.0-2.3","d139fd97-7d25-46cc-8d4b-ecde8190ff27","null","<p style=""text-align: center;"">+</p>","null","fixation","","","","","","","","","","","","","","","","","","","","","","",""
"","","","","","html-slider-response","30","243179","0.0-17.0-0.4","d139fd97-7d25-46cc-8d4b-ecde8190ff27","1000","
                  <p style=""text-align: center;"">₪4
                                                <br>50%</p>
                  <p id=""wtp"" style=""text-align:center; margin-top: 0px; margin-bottom: 0px; font-size: 40px"";>&ensp;</p>","-","viewing","0","2","4C,17B","","","","","","","","","","","","","","","","","","","",""
"","","","","","html-slider-response","31","244905","0.0-17.0-1.4","d139fd97-7d25-46cc-8d4b-ecde8190ff27","1725","
                  <p style=""text-align: center;"">₪4
                                                <br>50%</p>
                  <p id=""wtp"" style=""text-align:center; margin-top: 0px; margin-bottom: 0px; font-size: 40px"";>מוכנים לשלם: <span id=""c_p_y""></span></p>","13","evaluation","68","2","4C,17B","50","4","13","","","","","","","","","","","","","","","","",""
"","","","","","html-keyboard-response","32","246081","0.0-17.0-2.4","d139fd97-7d25-46cc-8d4b-ecde8190ff27","null","<p style=""text-align: center;"">+</p>","null","fixation","","","","","","","","","","","","","","","","","","","","","","",""
"","","","","","html-slider-response","33","247095","0.0-17.0-0.5","d139fd97-7d25-46cc-8d4b-ecde8190ff27","1000","
                  <p style=""text-align: center;"">₪64
                                                <br>25%</p>
                  <p id=""wtp"" style=""text-align:center; margin-top: 0px; margin-bottom: 0px; font-size: 40px"";>&ensp;</p>","-","viewing","0","24","6A,21A","","","","","","","","","","","","","","","","","","","",""
"","","","","","html-slider-response","34","249665","0.0-17.0-1.5","d139fd97-7d25-46cc-8d4b-ecde8190ff27","2569","
                  <p style=""text-align: center;"">₪64
                                                <br>25%</p>
                  <p id=""wtp"" style=""text-align:center; margin-top: 0px; margin-bottom: 0px; font-size: 40px"";>מוכנים לשלם: <span id=""c_p_y""></span></p>","57","evaluation","69","24","6A,21A","25","64","56","","","","","","","","","","","","","","","","",""
"","","","","","html-keyboard-response","35","250888","0.0-17.0-2.5","d139fd97-7d25-46cc-8d4b-ecde8190ff27","null","<p style=""text-align: center;"">+</p>","null","fixation","","","","","","","","","","","","","","","","","","","","","","",""
"","","","","","html-slider-response","36","251897","0.0-17.0-0.6","d139fd97-7d25-46cc-8d4b-ecde8190ff27","1000","
                  <p style=""text-align: center;"">₪58
                                                <br>30%</p>
                  <p id=""wtp"" style=""text-align:center; margin-top: 0px; margin-bottom: 0px; font-size: 40px"";>&ensp;</p>","-","viewing","0","19","13C,30A","","","","","","","","","","","","","","","","","","","",""
"","","","","","html-slider-response","37","255863","0.0-17.0-1.6","d139fd97-7d25-46cc-8d4b-ecde8190ff27","3964","
                  <p style=""text-align: center;"">₪58
                                                <br>30%</p>
                  <p id=""wtp"" style=""text-align:center; margin-top: 0px; margin-bottom: 0px; font-size: 40px"";>מוכנים לשלם: <span id=""c_p_y""></span></p>","56","evaluation","15","19","13C,30A","30","58","55","","","","","","","","","","","","","","","","",""
"","","","","","html-keyboard-response","38","256381","0.0-17.0-2.6","d139fd97-7d25-46cc-8d4b-ecde8190ff27","null","<p style=""text-align: center;"">+</p>","null","fixation","","","","","","","","","","","","","","","","","","","","","","",""
"","","","","","html-slider-response","39","257384","0.0-17.0-0.7","d139fd97-7d25-46cc-8d4b-ecde8190ff27","1000","
                  <p style=""text-align: center;"">₪11
                                                <br>45%</p>
                  <p id=""wtp"" style=""text-align:center; margin-top: 0px; margin-bottom: 0px; font-size: 40px"";>&ensp;</p>","-","viewing","0","6","14B,21C,25C","","","","","","","","","","","","","","","","","","","",""
"","","","","","html-slider-response","40","260767","0.0-17.0-1.7","d139fd97-7d25-46cc-8d4b-ecde8190ff27","3382","
                  <p style=""text-align: center;"">₪11
                                                <br>45%</p>
                  <p id=""wtp"" style=""text-align:center; margin-top: 0px; margin-bottom: 0px; font-size: 40px"";>מוכנים לשלם: <span id=""c_p_y""></span></p>","16","evaluation","30","6","14B,21C,25C","45","11","17","","","","","","","","","","","","","","","","",""
"","","","","","html-keyboard-response","41","261345","0.0-17.0-2.7","d139fd97-7d25-46cc-8d4b-ecde8190ff27","null","<p style=""text-align: center;"">+</p>","null","fixation","","","","","","","","","","","","","","","","","","","","","","",""
"","","","","","html-slider-response","42","262352","0.0-17.0-0.8","d139fd97-7d25-46cc-8d4b-ecde8190ff27","1000","
                  <p style=""text-align: center;"">₪71
                                                <br>75%</p>
                  <p id=""wtp"" style=""text-align:center; margin-top: 0px; margin-bottom: 0px; font-size: 40px"";>&ensp;</p>","-","viewing","0","28","8B","","","","","","","","","","","","","","","","","","","",""
"","","","","","html-slider-response","43","265255","0.0-17.0-1.8","d139fd97-7d25-46cc-8d4b-ecde8190ff27","2902","
                  <p style=""text-align: center;"">₪71
                                                <br>75%</p>
                  <p id=""wtp"" style=""text-align:center; margin-top: 0px; margin-bottom: 0px; font-size: 40px"";>מוכנים לשלם: <span id=""c_p_y""></span></p>","62","evaluation","9","28","8B","75","71","61","","","","","","","","","","","","","","","","",""
"","","","","","html-keyboard-response","44","266100","0.0-17.0-2.8","d139fd97-7d25-46cc-8d4b-ecde8190ff27","null","<p style=""text-align: center;"">+</p>","null","fixation","","","","","","","","","","","","","","","","","","","","","","",""
"","","","","","html-slider-response","45","267101","0.0-17.0-0.9","d139fd97-7d25-46cc-8d4b-ecde8190ff27","1000","
                  <p style=""text-align: center;"">₪64
                                                <br>50%</p>
                  <p id=""wtp"" style=""text-align:center; margin-top: 0px; margin-bottom: 0px; font-size: 40px"";>&ensp;</p>","-","viewing","0","25","1B,3B,4A","","","","","","","","","","","","","","","","","","","",""
"","","","","","html-slider-response","46","270415","0.0-17.0-1.9","d139fd97-7d25-46cc-8d4b-ecde8190ff27","3312","
                  <p style=""text-align: center;"">₪64
                                                <br>50%</p>
                  <p id=""wtp"" style=""text-align:center; margin-top: 0px; margin-bottom: 0px; font-size: 40px"";>מוכנים לשלם: <span id=""c_p_y""></span></p>","52","evaluation","61","25","1B,3B,4A","50","64","52","","","","","","","","","","","","","","","","",""
"","","","","","html-keyboard-response","47","271356","0.0-17.0-2.9","d139fd97-7d25-46cc-8d4b-ecde8190ff27","null","<p style=""text-align: center;"">+</p>","null","fixation","","","","","","","","","","","","","","","","","","","","","","",""
"","","","","","html-slider-response","48","272374","0.0-17.0-0.10","d139fd97-7d25-46cc-8d4b-ecde8190ff27","1000","
                  <p style=""text-align: center;"">₪58
                                                <br>45%</p>
                  <p id=""wtp"" style=""text-align:center; margin-top: 0px; margin-bottom: 0px; font-size: 40px"";>&ensp;</p>","-","viewing","0","21","11C,18C,25A","","","","","","","","","","","","","","","","","","","",""
"","","","","","html-slider-response","49","275503","0.0-17.0-1.10","d139fd97-7d25-46cc-8d4b-ecde8190ff27","3128","
                  <p style=""text-align: center;"">₪58
                                                <br>45%</p>
                  <p id=""wtp"" style=""text-align:center; margin-top: 0px; margin-bottom: 0px; font-size: 40px"";>מוכנים לשלם: <span id=""c_p_y""></span></p>","51","evaluation","7","21","11C,18C,25A","45","58","50","","","","","","","","","","","","","","","","",""
"","","","","","html-keyboard-response","50","276757","0.0-17.0-2.10","d139fd97-7d25-46cc-8d4b-ecde8190ff27","null","<p style=""text-align: center;"">+</p>","null","fixation","","","","","","","","","","","","","","","","","","","","","","",""
"","","","","","html-slider-response","51","277767","0.0-17.0-0.11","d139fd97-7d25-46cc-8d4b-ecde8190ff27","1000","
                  <p style=""text-align: center;"">₪11
                                                <br>25%</p>
                  <p id=""wtp"" style=""text-align:center; margin-top: 0px; margin-bottom: 0px; font-size: 40px"";>&ensp;</p>","-","viewing","0","5","12A,27B,28B,30B","","","","","","","","","","","","","","","","","","","",""
"","","","","","html-slider-response","52","279887","0.0-17.0-1.11","d139fd97-7d25-46cc-8d4b-ecde8190ff27","2119","
                  <p style=""text-align: center;"">₪11
                                                <br>25%</p>
                  <p id=""wtp"" style=""text-align:center; margin-top: 0px; margin-bottom: 0px; font-size: 40px"";>מוכנים לשלם: <span id=""c_p_y""></span></p>","61","evaluation","80","5","12A,27B,28B,30B","25","11","61","","","","","","","","","","","","","","","","",""
"","","","","","html-keyboard-response","53","281095","0.0-17.0-2.11","d139fd97-7d25-46cc-8d4b-ecde8190ff27","null","<p style=""text-align: center;"">+</p>","null","fixation","","","","","","","","","","","","","","","","","","","","","","",""
"","","","","","html-slider-response","54","282097","0.0-17.0-0.12","d139fd97-7d25-46cc-8d4b-ecde8190ff27","1000","
                  <p style=""text-align: center;"">₪18
                                                <br>25%</p>
                  <p id=""wtp"" style=""text-align:center; margin-top: 0px; margin-bottom: 0px; font-size: 40px"";>&ensp;</p>","-","viewing","0","9","14A,23A","","","","","","","","","","","","","","","","","","","",""
"","","","","","html-slider-response","55","284551","0.0-17.0-1.12","d139fd97-7d25-46cc-8d4b-ecde8190ff27","2453","
                  <p style=""text-align: center;"">₪18
                                                <br>25%</p>
                  <p id=""wtp"" style=""text-align:center; margin-top: 0px; margin-bottom: 0px; font-size: 40px"";>מוכנים לשלם: <span id=""c_p_y""></span></p>","15","evaluation","4","9","14A,23A","25","18","15","","","","","","","","","","","","","","","","",""
"","","","","","html-keyboard-response","56","285403","0.0-17.0-2.12","d139fd97-7d25-46cc-8d4b-ecde8190ff27","null","<p style=""text-align: center;"">+</p>","null","fixation","","","","","","","","","","","","","","","","","","","","","","",""
"","","","","","html-slider-response","57","286419","0.0-17.0-0.13","d139fd97-7d25-46cc-8d4b-ecde8190ff27","1000","
                  <p style=""text-align: center;"">₪16
                                                <br>20%</p>
                  <p id=""wtp"" style=""text-align:center; margin-top: 0px; margin-bottom: 0px; font-size: 40px"";>&ensp;</p>","-","viewing","0","8","14C,17A,20C,27A","","","","","","","","","","","","","","","","","","","",""
"","","","","","html-slider-response","58","289479","0.0-17.0-1.13","d139fd97-7d25-46cc-8d4b-ecde8190ff27","3059","
                  <p style=""text-align: center;"">₪16
                                                <br>20%</p>
                  <p id=""wtp"" style=""text-align:center; margin-top: 0px; margin-bottom: 0px; font-size: 40px"";>מוכנים לשלם: <span id=""c_p_y""></span></p>","46","evaluation","38","8","14C,17A,20C,27A","20","16","46","","","","","","","","","","","","","","","","",""
"","","","","","html-keyboard-response","59","290879","0.0-17.0-2.13","d139fd97-7d25-46cc-8d4b-ecde8190ff27","null","<p style=""text-align: center;"">+</p>","null","fixation","","","","","","","","","","","","","","","","","","","","","","",""
"","","","","","html-slider-response","60","291885","0.0-17.0-0.14","d139fd97-7d25-46cc-8d4b-ecde8190ff27","1000","
                  <p style=""text-align: center;"">₪36
                                                <br>70%</p>
                  <p id=""wtp"" style=""text-align:center; margin-top: 0px; margin-bottom: 0px; font-size: 40px"";>&ensp;</p>","-","viewing","0","13","3A,5C,10B","","","","","","","","","","","","","","","","","","","",""
"","","","","","html-slider-response","61","295887","0.0-17.0-1.14","d139fd97-7d25-46cc-8d4b-ecde8190ff27","null","
                  <p style=""text-align: center;"">₪36
                                                <br>70%</p>
                  <p id=""wtp"" style=""text-align:center; margin-top: 0px; margin-bottom: 0px; font-size: 40px"";>מוכנים לשלם: <span id=""c_p_y""></span></p>","null","evaluation","5","13","3A,5C,10B","70","36","64","","","","","","","","","","","","","","","","",""
"","","","","","html-keyboard-response","62","297345","0.0-17.0-2.14","d139fd97-7d25-46cc-8d4b-ecde8190ff27","null","<p style=""text-align: center;"">+</p>","null","fixation","","","","","","","","","","","","","","","","","","","","","","",""
"","","","","","html-slider-response","63","298355","0.0-17.0-0.15","d139fd97-7d25-46cc-8d4b-ecde8190ff27","1000","
                  <p style=""text-align: center;"">₪58
                                                <br>40%</p>
                  <p id=""wtp"" style=""text-align:center; margin-top: 0px; margin-bottom: 0px; font-size: 40px"";>&ensp;</p>","-","viewing","0","20","10C,13A,19C,21B","","","","","","","","","","","","","","","","","","","",""
"","","","","","html-slider-response","64","299975","0.0-17.0-1.15","d139fd97-7d25-46cc-8d4b-ecde8190ff27","1619","
                  <p style=""text-align: center;"">₪58
                                                <br>40%</p>
                  <p id=""wtp"" style=""text-align:center; margin-top: 0px; margin-bottom: 0px; font-size: 40px"";>מוכנים לשלם: <span id=""c_p_y""></span></p>","65","evaluation","74","20","10C,13A,19C,21B","40","58","65","","","","","","","","","","","","","","","","",""
"","","","","","html-keyboard-response","65","301180","0.0-17.0-2.15","d139fd97-7d25-46cc-8d4b-ecde8190ff27","null","<p style=""text-align: center;"">+</p>","null","fixation","","","","","","","","","","","","","","","","","","","","","","",""
"","","","","","html-slider-response","66","302190","0.0-17.0-0.16","d139fd97-7d25-46cc-8d4b-ecde8190ff27","1000","
                  <p style=""text-align: center;"">₪4
                                                <br>25%</p>
                  <p id=""wtp"" style=""text-align:center; margin-top: 0px; margin-bottom: 0px; font-size: 40px"";>&ensp;</p>","-","viewing","0","1","6C,29B,30C","","","","","","","","","","","","","","","","","","","",""
"","","","","","html-slider-response","67","303879","0.0-17.0-1.16","d139fd97-7d25-46cc-8d4b-ecde8190ff27","1688","
                  <p style=""text-align: center;"">₪4
                                                <br>25%</p>
                  <p id=""wtp"" style=""text-align:center; margin-top: 0px; margin-bottom: 0px; font-size: 40px"";>מוכנים לשלם: <span id=""c_p_y""></span></p>","15","evaluation","55","1","6C,29B,30C","25","4","15","","","","","","","","","","","","","","","","",""
"","","","","","html-keyboard-response","68","305191","0.0-17.0-2.16","d139fd97-7d25-46cc-8d4b-ecde8190ff27","null","<p style=""text-align: center;"">+</p>","null","fixation","","","","","","","","","","","","","","","","","","","","","","",""
"","","","","","html-slider-response","69","306196","0.0-17.0-0.17","d139fd97-7d25-46cc-8d4b-ecde8190ff27","1000","
                  <p style=""text-align: center;"">₪39
                                                <br>65%</p>
                  <p id=""wtp"" style=""text-align:center; margin-top: 0px; margin-bottom: 0px; font-size: 40px"";>&ensp;</p>","-","viewing","0","16","1A,15A,26C","","","","","","","","","","","","","","","","","","","",""
"","","","","","html-slider-response","70","308423","0.0-17.0-1.17","d139fd97-7d25-46cc-8d4b-ecde8190ff27","2225","
                  <p style=""text-align: center;"">₪39
                                                <br>65%</p>
                  <p id=""wtp"" style=""text-align:center; margin-top: 0px; margin-bottom: 0px; font-size: 40px"";>מוכנים לשלם: <span id=""c_p_y""></span></p>","48","evaluation","10","16","1A,15A,26C","65","39","48","","","","","","","","","","","","","","","","",""
"","","","","","html-keyboard-response","71","309060","0.0-17.0-2.17","d139fd97-7d25-46cc-8d4b-ecde8190ff27","null","<p style=""text-align: center;"">+</p>","null","fixation","","","","","","","","","","","","","","","","","","","","","","",""
"","","","","","html-slider-response","72","310063","0.0-17.0-0.18","d139fd97-7d25-46cc-8d4b-ecde8190ff27","1000","
                  <p style=""text-align: center;"">₪61
                                                <br>55%</p>
                  <p id=""wtp"" style=""text-align:center; margin-top: 0px; margin-bottom: 0px; font-size: 40px"";>&ensp;</p>","-","viewing","0","23","7B,26B","","","","","","","","","","","","","","","","","","","",""
"","","","","","html-slider-response","73","311113","0.0-17.0-1.18","d139fd97-7d25-46cc-8d4b-ecde8190ff27","1046","
                  <p style=""text-align: center;"">₪61
                                                <br>55%</p>
                  <p id=""wtp"" style=""text-align:center; margin-top: 0px; margin-bottom: 0px; font-size: 40px"";>מוכנים לשלם: <span id=""c_p_y""></span></p>","64","evaluation","76","23","7B,26B","55","61","63","","","","","","","","","","","","","","","","",""
"","","","","","html-keyboard-response","74","312180","0.0-17.0-2.18","d139fd97-7d25-46cc-8d4b-ecde8190ff27","null","<p style=""text-align: center;"">+</p>","null","fixation","","","","","","","","","","","","","","","","","","","","","","",""
"","","","","","html-slider-response","75","313182","0.0-17.0-0.19","d139fd97-7d25-46cc-8d4b-ecde8190ff27","1000","
                  <p style=""text-align: center;"">₪18
                                                <br>50%</p>
                  <p id=""wtp"" style=""text-align:center; margin-top: 0px; margin-bottom: 0px; font-size: 40px"";>&ensp;</p>","-","viewing","0","10","2C,16C,22B,28A","","","","","","","","","","","","","","","","","","","",""
"","","","","","html-slider-response","76","315457","0.0-17.0-1.19","d139fd97-7d25-46cc-8d4b-ecde8190ff27","2274","
                  <p style=""text-align: center;"">₪18
                                                <br>50%</p>
                  <p id=""wtp"" style=""text-align:center; margin-top: 0px; margin-bottom: 0px; font-size: 40px"";>מוכנים לשלם: <span id=""c_p_y""></span></p>","51","evaluation","72","10","2C,16C,22B,28A","50","18","51","","","","","","","","","","","","","","","","",""
"","","","","","html-keyboard-response","77","316693","0.0-17.0-2.19","d139fd97-7d25-46cc-8d4b-ecde8190ff27","null","<p style=""text-align: center;"">+</p>","null","fixation","","","","","","","","","","","","","","","","","","","","","","",""
"","","","","","html-slider-response","78","317705","0.0-17.0-0.20","d139fd97-7d25-46cc-8d4b-ecde8190ff27","1000","
                  <p style=""text-align: center;"">₪39
                                                <br>60%</p>
                  <p id=""wtp"" style=""text-align:center; margin-top: 0px; margin-bottom: 0px; font-size: 40px"";>&ensp;</p>","-","viewing","0","15","9C,25B","","","","","","","","","","","","","","","","","","","",""
"","","","","","html-slider-response","79","320313","0.0-17.0-1.20","d139fd97-7d25-46cc-8d4b-ecde8190ff27","2606","
                  <p style=""text-align: center;"">₪39
                                                <br>60%</p>
                  <p id=""wtp"" style=""text-align:center; margin-top: 0px; margin-bottom: 0px; font-size: 40px"";>מוכנים לשלם: <span id=""c_p_y""></span></p>","58","evaluation","63","15","9C,25B","60","39","58","","","","","","","","","","","","","","","","",""
"","","","","","html-keyboard-response","80","321237","0.0-17.0-2.20","d139fd97-7d25-46cc-8d4b-ecde8190ff27","null","<p style=""text-align: center;"">+</p>","null","fixation","","","","","","","","","","","","","","","","","","","","","","",""
"","","","","","html-slider-response","81","322241","0.0-17.0-0.21","d139fd97-7d25-46cc-8d4b-ecde8190ff27","1000","
                  <p style=""text-align: center;"">₪79
                                                <br>40%</p>
                  <p id=""wtp"" style=""text-align:center; margin-top: 0px; margin-bottom: 0px; font-size: 40px"";>&ensp;</p>","-","viewing","0","30","9B","","","","","","","","","","","","","","","","","","","",""
"","","","","","html-slider-response","82","324161","0.0-17.0-1.21","d139fd97-7d25-46cc-8d4b-ecde8190ff27","1920","
                  <p style=""text-align: center;"">₪79
                                                <br>40%</p>
                  <p id=""wtp"" style=""text-align:center; margin-top: 0px; margin-bottom: 0px; font-size: 40px"";>מוכנים לשלם: <span id=""c_p_y""></span></p>","39","evaluation","10","30","9B","40","79","39","","","","","","","","","","","","","","","","",""
"","","","","","html-keyboard-response","83","325509","0.0-17.0-2.21","d139fd97-7d25-46cc-8d4b-ecde8190ff27","null","<p style=""text-align: center;"">+</p>","null","fixation","","","","","","","","","","","","","","","","","","","","","","",""
"","","","","","html-slider-response","84","326515","0.0-17.0-0.22","d139fd97-7d25-46cc-8d4b-ecde8190ff27","1000","
                  <p style=""text-align: center;"">₪43
                                                <br>75%</p>
                  <p id=""wtp"" style=""text-align:center; margin-top: 0px; margin-bottom: 0px; font-size: 40px"";>&ensp;</p>","-","viewing","0","18","11B,19B,24A,26A","","","","","","","","","","","","","","","","","","","",""
"","","","","","html-slider-response","85","328017","0.0-17.0-1.22","d139fd97-7d25-46cc-8d4b-ecde8190ff27","1500","
                  <p style=""text-align: center;"">₪43
                                                <br>75%</p>
                  <p id=""wtp"" style=""text-align:center; margin-top: 0px; margin-bottom: 0px; font-size: 40px"";>מוכנים לשלם: <span id=""c_p_y""></span></p>","69","evaluation","37","18","11B,19B,24A,26A","75","43","69","","","","","","","","","","","","","","","","",""
"","","","","","html-keyboard-response","86","329231","0.0-17.0-2.22","d139fd97-7d25-46cc-8d4b-ecde8190ff27","null","<p style=""text-align: center;"">+</p>","null","fixation","","","","","","","","","","","","","","","","","","","","","","",""
"","","","","","html-slider-response","87","330245","0.0-17.0-0.23","d139fd97-7d25-46cc-8d4b-ecde8190ff27","1000","
                  <p style=""text-align: center;"">₪76
                                                <br>65%</p>
                  <p id=""wtp"" style=""text-align:center; margin-top: 0px; margin-bottom: 0px; font-size: 40px"";>&ensp;</p>","-","viewing","0","29","8C,19A,24B","","","","","","","","","","","","","","","","","","","",""
"","","","","","html-slider-response","88","332553","0.0-17.0-1.23","d139fd97-7d25-46cc-8d4b-ecde8190ff27","2307","
                  <p style=""text-align: center;"">₪76
                                                <br>65%</p>
                  <p id=""wtp"" style=""text-align:center; margin-top: 0px; margin-bottom: 0px; font-size: 40px"";>מוכנים לשלם: <span id=""c_p_y""></span></p>","66","evaluation","32","29","8C,19A,24B","65","76","66","","","","","","","","","","","","","","","","",""
"","","","","","html-keyboard-response","89","333893","0.0-17.0-2.23","d139fd97-7d25-46cc-8d4b-ecde8190ff27","null","<p style=""text-align: center;"">+</p>","null","fixation","","","","","","","","","","","","","","","","","","","","","","",""
"","","","","","html-slider-response","90","334896","0.0-17.0-0.24","d139fd97-7d25-46cc-8d4b-ecde8190ff27","1000","
                  <p style=""text-align: center;"">₪11
                                                <br>75%</p>
                  <p id=""wtp"" style=""text-align:center; margin-top: 0px; margin-bottom: 0px; font-size: 40px"";>&ensp;</p>","-","viewing","0","7","6B,18B,22C,24C,29A","","","","","","","","","","","","","","","","","","","",""
"","","","","","html-slider-response","91","338129","0.0-17.0-1.24","d139fd97-7d25-46cc-8d4b-ecde8190ff27","3232","
                  <p style=""text-align: center;"">₪11
                                                <br>75%</p>
                  <p id=""wtp"" style=""text-align:center; margin-top: 0px; margin-bottom: 0px; font-size: 40px"";>מוכנים לשלם: <span id=""c_p_y""></span></p>","48","evaluation","65","7","6B,18B,22C,24C,29A","75","11","48","","","","","","","","","","","","","","","","",""
"","","","","","html-keyboard-response","92","338799","0.0-17.0-2.24","d139fd97-7d25-46cc-8d4b-ecde8190ff27","null","<p style=""text-align: center;"">+</p>","null","fixation","","","","","","","","","","","","","","","","","","","","","","",""
"","","","","","html-slider-response","93","339802","0.0-17.0-0.25","d139fd97-7d25-46cc-8d4b-ecde8190ff27","1000","
                  <p style=""text-align: center;"">₪11
                                                <br>20%</p>
                  <p id=""wtp"" style=""text-align:center; margin-top: 0px; margin-bottom: 0px; font-size: 40px"";>&ensp;</p>","-","viewing","0","4","12C,17C,23C,28C","","","","","","","","","","","","","","","","","","","",""
"","","","","","html-slider-response","94","342505","0.0-17.0-1.25","d139fd97-7d25-46cc-8d4b-ecde8190ff27","2702","
                  <p style=""text-align: center;"">₪11
                                                <br>20%</p>
                  <p id=""wtp"" style=""text-align:center; margin-top: 0px; margin-bottom: 0px; font-size: 40px"";>מוכנים לשלם: <span id=""c_p_y""></span></p>","10","evaluation","39","4","12C,17C,23C,28C","20","11","11","","","","","","","","","","","","","","","","",""
"","","","","","html-keyboard-response","95","343468","0.0-17.0-2.25","d139fd97-7d25-46cc-8d4b-ecde8190ff27","null","<p style=""text-align: center;"">+</p>","null","fixation","","","","","","","","","","","","","","","","","","","","","","",""
"","","","","","html-slider-response","96","344475","0.0-17.0-0.26","d139fd97-7d25-46cc-8d4b-ecde8190ff27","1000","
                  <p style=""text-align: center;"">₪4
                                                <br>75%</p>
                  <p id=""wtp"" style=""text-align:center; margin-top: 0px; margin-bottom: 0px; font-size: 40px"";>&ensp;</p>","-","viewing","0","3","12B,20B,23B,27C,29C","","","","","","","","","","","","","","","","","","","",""
"","","","","","html-slider-response","97","347857","0.0-17.0-1.26","d139fd97-7d25-46cc-8d4b-ecde8190ff27","3381","
                  <p style=""text-align: center;"">₪4
                                                <br>75%</p>
                  <p id=""wtp"" style=""text-align:center; margin-top: 0px; margin-bottom: 0px; font-size: 40px"";>מוכנים לשלם: <span id=""c_p_y""></span></p>","30","evaluation","36","3","12B,20B,23B,27C,29C","75","4","30","","","","","","","","","","","","","","","","",""
"","","","","","html-keyboard-response","98","348527","0.0-17.0-2.26","d139fd97-7d25-46cc-8d4b-ecde8190ff27","null","<p style=""text-align: center;"">+</p>","null","fixation","","","","","","","","","","","","","","","","","","","","","","",""
"","","","","","html-slider-response","99","349530","0.0-17.0-0.27","d139fd97-7d25-46cc-8d4b-ecde8190ff27","1000","
                  <p style=""text-align: center;"">₪36
                                                <br>75%</p>
                  <p id=""wtp"" style=""text-align:center; margin-top: 0px; margin-bottom: 0px; font-size: 40px"";>&ensp;</p>","-","viewing","0","14","4B,5A,13B,16B","","","","","","","","","","","","","","","","","","","",""
"","","","","","html-slider-response","100","352841","0.0-17.0-1.27","d139fd97-7d25-46cc-8d4b-ecde8190ff27","3310","
                  <p style=""text-align: center;"">₪36
                                                <br>75%</p>
                  <p id=""wtp"" style=""text-align:center; margin-top: 0px; margin-bottom: 0px; font-size: 40px"";>מוכנים לשלם: <span id=""c_p_y""></span></p>","62","evaluation","27","14","4B,5A,13B,16B","75","36","62","","","","","","","","","","","","","","","","",""
"","","","","","html-keyboard-response","101","353879","0.0-17.0-2.27","d139fd97-7d25-46cc-8d4b-ecde8190ff27","null","<p style=""text-align: center;"">+</p>","null","fixation","","","","","","","","","","","","","","","","","","","","","","",""
"","","","","","html-slider-response","102","354897","0.0-17.0-0.28","d139fd97-7d25-46cc-8d4b-ecde8190ff27","1000","
                  <p style=""text-align: center;"">₪79
                                                <br>65%</p>
                  <p id=""wtp"" style=""text-align:center; margin-top: 0px; margin-bottom: 0px; font-size: 40px"";>&ensp;</p>","-","viewing","0","31","8A","","","","","","","","","","","","","","","","","","","",""
"","","","","","html-slider-response","103","357457","0.0-17.0-1.28","d139fd97-7d25-46cc-8d4b-ecde8190ff27","2559","
                  <p style=""text-align: center;"">₪79
                                                <br>65%</p>
                  <p id=""wtp"" style=""text-align:center; margin-top: 0px; margin-bottom: 0px; font-size: 40px"";>מוכנים לשלם: <span id=""c_p_y""></span></p>","67","evaluation","26","31","8A","65","79","67","","","","","","","","","","","","","","","","",""
"","","","","","html-keyboard-response","104","358062","0.0-17.0-2.28","d139fd97-7d25-46cc-8d4b-ecde8190ff27","null","<p style=""text-align: center;"">+</p>","null","fixation","","","","","","","","","","","","","","","","","","","","","","",""
"","","","","","html-slider-response","105","359078","0.0-17.0-0.29","d139fd97-7d25-46cc-8d4b-ecde8190ff27","1000","
                  <p style=""text-align: center;"">₪36
                                                <br>60%</p>
                  <p id=""wtp"" style=""text-align:center; margin-top: 0px; margin-bottom: 0px; font-size: 40px"";>&ensp;</p>","-","viewing","0","12","1C,7C,15C","","","","","","","","","","","","","","","","","","","",""
"","","","","","html-slider-response","106","362113","0.0-17.0-1.29","d139fd97-7d25-46cc-8d4b-ecde8190ff27","3034","
                  <p style=""text-align: center;"">₪36
                                                <br>60%</p>
                  <p id=""wtp"" style=""text-align:center; margin-top: 0px; margin-bottom: 0px; font-size: 40px"";>מוכנים לשלם: <span id=""c_p_y""></span></p>","55","evaluation","80","12","1C,7C,15C","60","36","55","","","","","","","","","","","","","","","","",""
"","","","","","html-keyboard-response","107","363059","0.0-17.0-2.29","d139fd97-7d25-46cc-8d4b-ecde8190ff27","null","<p style=""text-align: center;"">+</p>","null","fixation","","","","","","","","","","","","","","","","","","","","","","",""
"","","","","","html-slider-response","108","364070","0.0-17.0-0.30","d139fd97-7d25-46cc-8d4b-ecde8190ff27","1000","
                  <p style=""text-align: center;"">₪36
                                                <br>30%</p>
                  <p id=""wtp"" style=""text-align:center; margin-top: 0px; margin-bottom: 0px; font-size: 40px"";>&ensp;</p>","-","viewing","0","11","3C,20A,22A","","","","","","","","","","","","","","","","","","","",""
"","","","","","html-slider-response","109","368078","0.0-17.0-1.30","d139fd97-7d25-46cc-8d4b-ecde8190ff27","null","
                  <p style=""text-align: center;"">₪36
                                                <br>30%</p>
                  <p id=""wtp"" style=""text-align:center; margin-top: 0px; margin-bottom: 0px; font-size: 40px"";>מוכנים לשלם: <span id=""c_p_y""></span></p>","null","evaluation","47","11","3C,20A,22A","30","36","35","","","","","","","","","","","","","","","","",""
"","","","","","html-keyboard-response","110","368612","0.0-17.0-2.30","d139fd97-7d25-46cc-8d4b-ecde8190ff27","null","<p style=""text-align: center;"">+</p>","null","fixation","","","","","","","","","","","","","","","","","","","","","","",""
"","","","","","html-keyboard-response","111","369617","0.0-18.0","d139fd97-7d25-46cc-8d4b-ecde8190ff27","null","<p style=""text-align: center;"">+</p>","null","fixation","","","","","","","","","","","","","","","","","","","","","","",""
"","","","","","html-keyboard-response","112","378041","0.0-19.0","d139fd97-7d25-46cc-8d4b-ecde8190ff27","null","<p>הפסקה.
          <br>לחצו כדי להמשיך.</p>","1","scan_wait","","","","","","","","","","","","","","","","","","","","","","",""
"","","","","","html-keyboard-response","113","379043","0.0-20.0","d139fd97-7d25-46cc-8d4b-ecde8190ff27","null","<p style=""text-align: center;"">+</p>","null","fixation","","","","","","","","","","","","","","","","","","","","","","",""
"","","","","","html-slider-response","114","380054","0.0-21.0-0.0","d139fd97-7d25-46cc-8d4b-ecde8190ff27","1000","
                  <p style=""text-align: center;"">₪58
                                                <br>30%</p>
                  <p id=""wtp"" style=""text-align:center; margin-top: 0px; margin-bottom: 0px; font-size: 40px"";>&ensp;</p>","-","viewing","0","19","13C,30A","","","","","","","","","","","","","","","","","","","",""
"","","","","","html-slider-response","115","383113","0.0-21.0-1.0","d139fd97-7d25-46cc-8d4b-ecde8190ff27","3057","
                  <p style=""text-align: center;"">₪58
                                                <br>30%</p>
                  <p id=""wtp"" style=""text-align:center; margin-top: 0px; margin-bottom: 0px; font-size: 40px"";>מוכנים לשלם: <span id=""c_p_y""></span></p>","58","evaluation","9","19","13C,30A","30","58","58","","","","","","","","","","","","","","","","",""
"","","","","","html-keyboard-response","116","384114","0.0-21.0-2.0","d139fd97-7d25-46cc-8d4b-ecde8190ff27","null","<p style=""text-align: center;"">+</p>","null","fixation","","","","","","","","","","","","","","","","","","","","","","",""
"","","","","","html-slider-response","117","385117","0.0-21.0-0.1","d139fd97-7d25-46cc-8d4b-ecde8190ff27","1000","
                  <p style=""text-align: center;"">₪4
                                                <br>50%</p>
                  <p id=""wtp"" style=""text-align:center; margin-top: 0px; margin-bottom: 0px; font-size: 40px"";>&ensp;</p>","-","viewing","0","2","4C,17B","","","","","","","","","","","","","","","","","","","",""
"","","","","","html-slider-response","118","389119","0.0-21.0-1.1","d139fd97-7d25-46cc-8d4b-ecde8190ff27","null","
                  <p style=""text-align: center;"">₪4
                                                <br>50%</p>
                  <p id=""wtp"" style=""text-align:center; margin-top: 0px; margin-bottom: 0px; font-size: 40px"";>מוכנים לשלם: <span id=""c_p_y""></span></p>","null","evaluation","23","2","4C,17B","50","4","21","","","","","","","","","","","","","","","","",""
"","","","","","html-keyboard-response","119","390098","0.0-21.0-2.1","d139fd97-7d25-46cc-8d4b-ecde8190ff27","null","<p style=""text-align: center;"">+</p>","null","fixation","","","","","","","","","","","","","","","","","","","","","","",""
"","","","","","html-slider-response","120","391110","0.0-21.0-0.2","d139fd97-7d25-46cc-8d4b-ecde8190ff27","1000","
                  <p style=""text-align: center;"">₪64
                                                <br>50%</p>
                  <p id=""wtp"" style=""text-align:center; margin-top: 0px; margin-bottom: 0px; font-size: 40px"";>&ensp;</p>","-","viewing","0","25","1B,3B,4A","","","","","","","","","","","","","","","","","","","",""
"","","","","","html-slider-response","121","393289","0.0-21.0-1.2","d139fd97-7d25-46cc-8d4b-ecde8190ff27","2177","
                  <p style=""text-align: center;"">₪64
                                                <br>50%</p>
                  <p id=""wtp"" style=""text-align:center; margin-top: 0px; margin-bottom: 0px; font-size: 40px"";>מוכנים לשלם: <span id=""c_p_y""></span></p>","67","evaluation","42","25","1B,3B,4A","50","64","67","","","","","","","","","","","","","","","","",""
"","","","","","html-keyboard-response","122","394004","0.0-21.0-2.2","d139fd97-7d25-46cc-8d4b-ecde8190ff27","null","<p style=""text-align: center;"">+</p>","null","fixation","","","","","","","","","","","","","","","","","","","","","","",""
"","","","","","html-slider-response","123","395007","0.0-21.0-0.3","d139fd97-7d25-46cc-8d4b-ecde8190ff27","1000","
                  <p style=""text-align: center;"">₪18
                                                <br>50%</p>
                  <p id=""wtp"" style=""text-align:center; margin-top: 0px; margin-bottom: 0px; font-size: 40px"";>&ensp;</p>","-","viewing","0","10","2C,16C,22B,28A","","","","","","","","","","","","","","","","","","","",""
"","","","","","html-slider-response","124","397057","0.0-21.0-1.3","d139fd97-7d25-46cc-8d4b-ecde8190ff27","2049","
                  <p style=""text-align: center;"">₪18
                                                <br>50%</p>
                  <p id=""wtp"" style=""text-align:center; margin-top: 0px; margin-bottom: 0px; font-size: 40px"";>מוכנים לשלם: <span id=""c_p_y""></span></p>","14","evaluation","50","10","2C,16C,22B,28A","50","18","14","","","","","","","","","","","","","","","","",""
"","","","","","html-keyboard-response","125","398285","0.0-21.0-2.3","d139fd97-7d25-46cc-8d4b-ecde8190ff27","null","<p style=""text-align: center;"">+</p>","null","fixation","","","","","","","","","","","","","","","","","","","","","","",""
"","","","","","html-slider-response","126","399300","0.0-21.0-0.4","d139fd97-7d25-46cc-8d4b-ecde8190ff27","1000","
                  <p style=""text-align: center;"">₪43
                                                <br>75%</p>
                  <p id=""wtp"" style=""text-align:center; margin-top: 0px; margin-bottom: 0px; font-size: 40px"";>&ensp;</p>","-","viewing","0","18","11B,19B,24A,26A","","","","","","","","","","","","","","","","","","","",""
"","","","","","html-slider-response","127","401185","0.0-21.0-1.4","d139fd97-7d25-46cc-8d4b-ecde8190ff27","1883","
                  <p style=""text-align: center;"">₪43
                                                <br>75%</p>
                  <p id=""wtp"" style=""text-align:center; margin-top: 0px; margin-bottom: 0px; font-size: 40px"";>מוכנים לשלם: <span id=""c_p_y""></span></p>","75","evaluation","39","18","11B,19B,24A,26A","75","43","74","","","","","","","","","","","","","","","","",""
"","","","","","html-keyboard-response","128","402580","0.0-21.0-2.4","d139fd97-7d25-46cc-8d4b-ecde8190ff27","null","<p style=""text-align: center;"">+</p>","null","fixation","","","","","","","","","","","","","","","","","","","","","","",""
"","","","","","html-slider-response","129","403586","0.0-21.0-0.5","d139fd97-7d25-46cc-8d4b-ecde8190ff27","1000","
                  <p style=""text-align: center;"">₪71
                                                <br>75%</p>
                  <p id=""wtp"" style=""text-align:center; margin-top: 0px; margin-bottom: 0px; font-size: 40px"";>&ensp;</p>","-","viewing","0","28","8B","","","","","","","","","","","","","","","","","","","",""
"","","","","","html-slider-response","130","405145","0.0-21.0-1.5","d139fd97-7d25-46cc-8d4b-ecde8190ff27","1558","
                  <p style=""text-align: center;"">₪71
                                                <br>75%</p>
                  <p id=""wtp"" style=""text-align:center; margin-top: 0px; margin-bottom: 0px; font-size: 40px"";>מוכנים לשלם: <span id=""c_p_y""></span></p>","76","evaluation","56","28","8B","75","71","76","","","","","","","","","","","","","","","","",""
"","","","","","html-keyboard-response","131","406508","0.0-21.0-2.5","d139fd97-7d25-46cc-8d4b-ecde8190ff27","null","<p style=""text-align: center;"">+</p>","null","fixation","","","","","","","","","","","","","","","","","","","","","","",""
"","","","","","html-slider-response","132","407525","0.0-21.0-0.6","d139fd97-7d25-46cc-8d4b-ecde8190ff27","1000","
                  <p style=""text-align: center;"">₪43
                                                <br>60%</p>
                  <p id=""wtp"" style=""text-align:center; margin-top: 0px; margin-bottom: 0px; font-size: 40px"";>&ensp;</p>","-","viewing","0","17","2A,7A,9A,15B","","","","","","","","","","","","","","","","","","","",""
"","","","","","html-slider-response","133","410225","0.0-21.0-1.6","d139fd97-7d25-46cc-8d4b-ecde8190ff27","2699","
                  <p style=""text-align: center;"">₪43
                                                <br>60%</p>
                  <p id=""wtp"" style=""text-align:center; margin-top: 0px; margin-bottom: 0px; font-size: 40px"";>מוכנים לשלם: <span id=""c_p_y""></span></p>","50","evaluation","55","17","2A,7A,9A,15B","60","43","50","","","","","","","","","","","","","","","","",""
"","","","","","html-keyboard-response","134","411074","0.0-21.0-2.6","d139fd97-7d25-46cc-8d4b-ecde8190ff27","null","<p style=""text-align: center;"">+</p>","null","fixation","","","","","","","","","","","","","","","","","","","","","","",""
"","","","","","html-slider-response","135","412077","0.0-21.0-0.7","d139fd97-7d25-46cc-8d4b-ecde8190ff27","1000","
                  <p style=""text-align: center;"">₪36
                                                <br>70%</p>
                  <p id=""wtp"" style=""text-align:center; margin-top: 0px; margin-bottom: 0px; font-size: 40px"";>&ensp;</p>","-","viewing","0","13","3A,5C,10B","","","","","","","","","","","","","","","","","","","",""
"","","","","","html-slider-response","136","415265","0.0-21.0-1.7","d139fd97-7d25-46cc-8d4b-ecde8190ff27","3187","
                  <p style=""text-align: center;"">₪36
                                                <br>70%</p>
                  <p id=""wtp"" style=""text-align:center; margin-top: 0px; margin-bottom: 0px; font-size: 40px"";>מוכנים לשלם: <span id=""c_p_y""></span></p>","66","evaluation","14","13","3A,5C,10B","70","36","65","","","","","","","","","","","","","","","","",""
"","","","","","html-keyboard-response","137","416212","0.0-21.0-2.7","d139fd97-7d25-46cc-8d4b-ecde8190ff27","null","<p style=""text-align: center;"">+</p>","null","fixation","","","","","","","","","","","","","","","","","","","","","","",""
"","","","","","html-slider-response","138","417224","0.0-21.0-0.8","d139fd97-7d25-46cc-8d4b-ecde8190ff27","1000","
                  <p style=""text-align: center;"">₪11
                                                <br>75%</p>
                  <p id=""wtp"" style=""text-align:center; margin-top: 0px; margin-bottom: 0px; font-size: 40px"";>&ensp;</p>","-","viewing","0","7","6B,18B,22C,24C,29A","","","","","","","","","","","","","","","","","","","",""
"","","","","","html-slider-response","139","420785","0.0-21.0-1.8","d139fd97-7d25-46cc-8d4b-ecde8190ff27","3560","
                  <p style=""text-align: center;"">₪11
                                                <br>75%</p>
                  <p id=""wtp"" style=""text-align:center; margin-top: 0px; margin-bottom: 0px; font-size: 40px"";>מוכנים לשלם: <span id=""c_p_y""></span></p>","21","evaluation","46","7","6B,18B,22C,24C,29A","75","11","21","","","","","","","","","","","","","","","","",""
"","","","","","html-keyboard-response","140","421526","0.0-21.0-2.8","d139fd97-7d25-46cc-8d4b-ecde8190ff27","null","<p style=""text-align: center;"">+</p>","null","fixation","","","","","","","","","","","","","","","","","","","","","","",""
"","","","","","html-slider-response","141","422528","0.0-21.0-0.9","d139fd97-7d25-46cc-8d4b-ecde8190ff27","1000","
                  <p style=""text-align: center;"">₪11
                                                <br>20%</p>
                  <p id=""wtp"" style=""text-align:center; margin-top: 0px; margin-bottom: 0px; font-size: 40px"";>&ensp;</p>","-","viewing","0","4","12C,17C,23C,28C","","","","","","","","","","","","","","","","","","","",""
"","","","","","html-slider-response","142","424225","0.0-21.0-1.9","d139fd97-7d25-46cc-8d4b-ecde8190ff27","1695","
                  <p style=""text-align: center;"">₪11
                                                <br>20%</p>
                  <p id=""wtp"" style=""text-align:center; margin-top: 0px; margin-bottom: 0px; font-size: 40px"";>מוכנים לשלם: <span id=""c_p_y""></span></p>","18","evaluation","73","4","12C,17C,23C,28C","20","11","18","","","","","","","","","","","","","","","","",""
"","","","","","html-keyboard-response","143","425655","0.0-21.0-2.9","d139fd97-7d25-46cc-8d4b-ecde8190ff27","null","<p style=""text-align: center;"">+</p>","null","fixation","","","","","","","","","","","","","","","","","","","","","","",""
"","","","","","html-slider-response","144","426656","0.0-21.0-0.10","d139fd97-7d25-46cc-8d4b-ecde8190ff27","1000","
                  <p style=""text-align: center;"">₪18
                                                <br>25%</p>
                  <p id=""wtp"" style=""text-align:center; margin-top: 0px; margin-bottom: 0px; font-size: 40px"";>&ensp;</p>","-","viewing","0","9","14A,23A","","","","","","","","","","","","","","","","","","","",""
"","","","","","html-slider-response","145","427793","0.0-21.0-1.10","d139fd97-7d25-46cc-8d4b-ecde8190ff27","1135","
                  <p style=""text-align: center;"">₪18
                                                <br>25%</p>
                  <p id=""wtp"" style=""text-align:center; margin-top: 0px; margin-bottom: 0px; font-size: 40px"";>מוכנים לשלם: <span id=""c_p_y""></span></p>","28","evaluation","40","9","14A,23A","25","18","28","","","","","","","","","","","","","","","","",""
"","","","","","html-keyboard-response","146","428855","0.0-21.0-2.10","d139fd97-7d25-46cc-8d4b-ecde8190ff27","null","<p style=""text-align: center;"">+</p>","null","fixation","","","","","","","","","","","","","","","","","","","","","","",""
"","","","","","html-slider-response","147","429857","0.0-21.0-0.11","d139fd97-7d25-46cc-8d4b-ecde8190ff27","1000","
                  <p style=""text-align: center;"">₪36
                                                <br>75%</p>
                  <p id=""wtp"" style=""text-align:center; margin-top: 0px; margin-bottom: 0px; font-size: 40px"";>&ensp;</p>","-","viewing","0","14","4B,5A,13B,16B","","","","","","","","","","","","","","","","","","","",""
"","","","","","html-slider-response","148","432833","0.0-21.0-1.11","d139fd97-7d25-46cc-8d4b-ecde8190ff27","2975","
                  <p style=""text-align: center;"">₪36
                                                <br>75%</p>
                  <p id=""wtp"" style=""text-align:center; margin-top: 0px; margin-bottom: 0px; font-size: 40px"";>מוכנים לשלם: <span id=""c_p_y""></span></p>","64","evaluation","0","14","4B,5A,13B,16B","75","36","64","","","","","","","","","","","","","","","","",""
"","","","","","html-keyboard-response","149","434144","0.0-21.0-2.11","d139fd97-7d25-46cc-8d4b-ecde8190ff27","null","<p style=""text-align: center;"">+</p>","null","fixation","","","","","","","","","","","","","","","","","","","","","","",""
"","","","","","html-slider-response","150","435145","0.0-21.0-0.12","d139fd97-7d25-46cc-8d4b-ecde8190ff27","1000","
                  <p style=""text-align: center;"">₪16
                                                <br>20%</p>
                  <p id=""wtp"" style=""text-align:center; margin-top: 0px; margin-bottom: 0px; font-size: 40px"";>&ensp;</p>","-","viewing","0","8","14C,17A,20C,27A","","","","","","","","","","","","","","","","","","","",""
"","","","","","html-slider-response","151","438681","0.0-21.0-1.12","d139fd97-7d25-46cc-8d4b-ecde8190ff27","3535","
                  <p style=""text-align: center;"">₪16
                                                <br>20%</p>
                  <p id=""wtp"" style=""text-align:center; margin-top: 0px; margin-bottom: 0px; font-size: 40px"";>מוכנים לשלם: <span id=""c_p_y""></span></p>","49","evaluation","33","8","14C,17A,20C,27A","20","16","48","","","","","","","","","","","","","","","","",""
"","","","","","html-keyboard-response","152","439236","0.0-21.0-2.12","d139fd97-7d25-46cc-8d4b-ecde8190ff27","null","<p style=""text-align: center;"">+</p>","null","fixation","","","","","","","","","","","","","","","","","","","","","","",""
"","","","","","html-slider-response","153","440239","0.0-21.0-0.13","d139fd97-7d25-46cc-8d4b-ecde8190ff27","1000","
                  <p style=""text-align: center;"">₪64
                                                <br>25%</p>
                  <p id=""wtp"" style=""text-align:center; margin-top: 0px; margin-bottom: 0px; font-size: 40px"";>&ensp;</p>","-","viewing","0","24","6A,21A","","","","","","","","","","","","","","","","","","","",""
"","","","","","html-slider-response","154","444251","0.0-21.0-1.13","d139fd97-7d25-46cc-8d4b-ecde8190ff27","null","
                  <p style=""text-align: center;"">₪64
                                                <br>25%</p>
                  <p id=""wtp"" style=""text-align:center; margin-top: 0px; margin-bottom: 0px; font-size: 40px"";>מוכנים לשלם: <span id=""c_p_y""></span></p>","null","evaluation","4","24","6A,21A","25","64","47","","","","","","","","","","","","","","","","",""
"","","","","","html-keyboard-response","155","444964","0.0-21.0-2.13","d139fd97-7d25-46cc-8d4b-ecde8190ff27","null","<p style=""text-align: center;"">+</p>","null","fixation","","","","","","","","","","","","","","","","","","","","","","",""
"","","","","","html-slider-response","156","445974","0.0-21.0-0.14","d139fd97-7d25-46cc-8d4b-ecde8190ff27","1000","
                  <p style=""text-align: center;"">₪79
                                                <br>40%</p>
                  <p id=""wtp"" style=""text-align:center; margin-top: 0px; margin-bottom: 0px; font-size: 40px"";>&ensp;</p>","-","viewing","0","30","9B","","","","","","","","","","","","","","","","","","","",""
"","","","","","html-slider-response","157","447193","0.0-21.0-1.14","d139fd97-7d25-46cc-8d4b-ecde8190ff27","1218","
                  <p style=""text-align: center;"">₪79
                                                <br>40%</p>
                  <p id=""wtp"" style=""text-align:center; margin-top: 0px; margin-bottom: 0px; font-size: 40px"";>מוכנים לשלם: <span id=""c_p_y""></span></p>","34","evaluation","44","30","9B","40","79","34","","","","","","","","","","","","","","","","",""
"","","","","","html-keyboard-response","158","447966","0.0-21.0-2.14","d139fd97-7d25-46cc-8d4b-ecde8190ff27","null","<p style=""text-align: center;"">+</p>","null","fixation","","","","","","","","","","","","","","","","","","","","","","",""
"","","","","","html-slider-response","159","448969","0.0-21.0-0.15","d139fd97-7d25-46cc-8d4b-ecde8190ff27","1000","
                  <p style=""text-align: center;"">₪58
                                                <br>45%</p>
                  <p id=""wtp"" style=""text-align:center; margin-top: 0px; margin-bottom: 0px; font-size: 40px"";>&ensp;</p>","-","viewing","0","21","11C,18C,25A","","","","","","","","","","","","","","","","","","","",""
"","","","","","html-slider-response","160","450345","0.0-21.0-1.15","d139fd97-7d25-46cc-8d4b-ecde8190ff27","1375","
                  <p style=""text-align: center;"">₪58
                                                <br>45%</p>
                  <p id=""wtp"" style=""text-align:center; margin-top: 0px; margin-bottom: 0px; font-size: 40px"";>מוכנים לשלם: <span id=""c_p_y""></span></p>","49","evaluation","12","21","11C,18C,25A","45","58","49","","","","","","","","","","","","","","","","",""
"","","","","","html-keyboard-response","161","451818","0.0-21.0-2.15","d139fd97-7d25-46cc-8d4b-ecde8190ff27","null","<p style=""text-align: center;"">+</p>","null","fixation","","","","","","","","","","","","","","","","","","","","","","",""
"","","","","","html-slider-response","162","452827","0.0-21.0-0.16","d139fd97-7d25-46cc-8d4b-ecde8190ff27","1000","
                  <p style=""text-align: center;"">₪4
                                                <br>25%</p>
                  <p id=""wtp"" style=""text-align:center; margin-top: 0px; margin-bottom: 0px; font-size: 40px"";>&ensp;</p>","-","viewing","0","1","6C,29B,30C","","","","","","","","","","","","","","","","","","","",""
"","","","","","html-slider-response","163","454841","0.0-21.0-1.16","d139fd97-7d25-46cc-8d4b-ecde8190ff27","2013","
                  <p style=""text-align: center;"">₪4
                                                <br>25%</p>
                  <p id=""wtp"" style=""text-align:center; margin-top: 0px; margin-bottom: 0px; font-size: 40px"";>מוכנים לשלם: <span id=""c_p_y""></span></p>","12","evaluation","24","1","6C,29B,30C","25","4","13","","","","","","","","","","","","","","","","",""
"","","","","","html-keyboard-response","164","455601","0.0-21.0-2.16","d139fd97-7d25-46cc-8d4b-ecde8190ff27","null","<p style=""text-align: center;"">+</p>","null","fixation","","","","","","","","","","","","","","","","","","","","","","",""
"","","","","","html-slider-response","165","456616","0.0-21.0-0.17","d139fd97-7d25-46cc-8d4b-ecde8190ff27","1000","
                  <p style=""text-align: center;"">₪71
                                                <br>45%</p>
                  <p id=""wtp"" style=""text-align:center; margin-top: 0px; margin-bottom: 0px; font-size: 40px"";>&ensp;</p>","-","viewing","0","26","2B,16A","","","","","","","","","","","","","","","","","","","",""
"","","","","","html-slider-response","166","459425","0.0-21.0-1.17","d139fd97-7d25-46cc-8d4b-ecde8190ff27","2807","
                  <p style=""text-align: center;"">₪71
                                                <br>45%</p>
                  <p id=""wtp"" style=""text-align:center; margin-top: 0px; margin-bottom: 0px; font-size: 40px"";>מוכנים לשלם: <span id=""c_p_y""></span></p>","47","evaluation","7","26","2B,16A","45","71","47","","","","","","","","","","","","","","","","",""
"","","","","","html-keyboard-response","167","460122","0.0-21.0-2.17","d139fd97-7d25-46cc-8d4b-ecde8190ff27","null","<p style=""text-align: center;"">+</p>","null","fixation","","","","","","","","","","","","","","","","","","","","","","",""
"","","","","","html-slider-response","168","461132","0.0-21.0-0.18","d139fd97-7d25-46cc-8d4b-ecde8190ff27","1000","
                  <p style=""text-align: center;"">₪39
                                                <br>60%</p>
                  <p id=""wtp"" style=""text-align:center; margin-top: 0px; margin-bottom: 0px; font-size: 40px"";>&ensp;</p>","-","viewing","0","15","9C,25B","","","","","","","","","","","","","","","","","","","",""
"","","","","","html-slider-response","169","464593","0.0-21.0-1.18","d139fd97-7d25-46cc-8d4b-ecde8190ff27","3460","
                  <p style=""text-align: center;"">₪39
                                                <br>60%</p>
                  <p id=""wtp"" style=""text-align:center; margin-top: 0px; margin-bottom: 0px; font-size: 40px"";>מוכנים לשלם: <span id=""c_p_y""></span></p>","40","evaluation","54","15","9C,25B","60","39","40","","","","","","","","","","","","","","","","",""
"","","","","","html-keyboard-response","170","466096","0.0-21.0-2.18","d139fd97-7d25-46cc-8d4b-ecde8190ff27","null","<p style=""text-align: center;"">+</p>","null","fixation","","","","","","","","","","","","","","","","","","","","","","",""
"","","","","","html-slider-response","171","467099","0.0-21.0-0.19","d139fd97-7d25-46cc-8d4b-ecde8190ff27","1000","
                  <p style=""text-align: center;"">₪36
                                                <br>60%</p>
                  <p id=""wtp"" style=""text-align:center; margin-top: 0px; margin-bottom: 0px; font-size: 40px"";>&ensp;</p>","-","viewing","0","12","1C,7C,15C","","","","","","","","","","","","","","","","","","","",""
"","","","","","html-slider-response","172","468825","0.0-21.0-1.19","d139fd97-7d25-46cc-8d4b-ecde8190ff27","1725","
                  <p style=""text-align: center;"">₪36
                                                <br>60%</p>
                  <p id=""wtp"" style=""text-align:center; margin-top: 0px; margin-bottom: 0px; font-size: 40px"";>מוכנים לשלם: <span id=""c_p_y""></span></p>","40","evaluation","33","12","1C,7C,15C","60","36","40","","","","","","","","","","","","","","","","",""
"","","","","","html-keyboard-response","173","470160","0.0-21.0-2.19","d139fd97-7d25-46cc-8d4b-ecde8190ff27","null","<p style=""text-align: center;"">+</p>","null","fixation","","","","","","","","","","","","","","","","","","","","","","",""
"","","","","","html-slider-response","174","471162","0.0-21.0-0.20","d139fd97-7d25-46cc-8d4b-ecde8190ff27","1000","
                  <p style=""text-align: center;"">₪61
                                                <br>45%</p>
                  <p id=""wtp"" style=""text-align:center; margin-top: 0px; margin-bottom: 0px; font-size: 40px"";>&ensp;</p>","-","viewing","0","22","10A,11A","","","","","","","","","","","","","","","","","","","",""
"","","","","","html-slider-response","175","473961","0.0-21.0-1.20","d139fd97-7d25-46cc-8d4b-ecde8190ff27","2798","
                  <p style=""text-align: center;"">₪61
                                                <br>45%</p>
                  <p id=""wtp"" style=""text-align:center; margin-top: 0px; margin-bottom: 0px; font-size: 40px"";>מוכנים לשלם: <span id=""c_p_y""></span></p>","50","evaluation","20","22","10A,11A","45","61","50","","","","","","","","","","","","","","","","",""
"","","","","","html-keyboard-response","176","474867","0.0-21.0-2.20","d139fd97-7d25-46cc-8d4b-ecde8190ff27","null","<p style=""text-align: center;"">+</p>","null","fixation","","","","","","","","","","","","","","","","","","","","","","",""
"","","","","","html-slider-response","177","475876","0.0-21.0-0.21","d139fd97-7d25-46cc-8d4b-ecde8190ff27","1000","
                  <p style=""text-align: center;"">₪76
                                                <br>65%</p>
                  <p id=""wtp"" style=""text-align:center; margin-top: 0px; margin-bottom: 0px; font-size: 40px"";>&ensp;</p>","-","viewing","0","29","8C,19A,24B","","","","","","","","","","","","","","","","","","","",""
"","","","","","html-slider-response","178","479057","0.0-21.0-1.21","d139fd97-7d25-46cc-8d4b-ecde8190ff27","3180","
                  <p style=""text-align: center;"">₪76
                                                <br>65%</p>
                  <p id=""wtp"" style=""text-align:center; margin-top: 0px; margin-bottom: 0px; font-size: 40px"";>מוכנים לשלם: <span id=""c_p_y""></span></p>","65","evaluation","19","29","8C,19A,24B","65","76","65","","","","","","","","","","","","","","","","",""
"","","","","","html-keyboard-response","179","479566","0.0-21.0-2.21","d139fd97-7d25-46cc-8d4b-ecde8190ff27","null","<p style=""text-align: center;"">+</p>","null","fixation","","","","","","","","","","","","","","","","","","","","","","",""
"","","","","","html-slider-response","180","480573","0.0-21.0-0.22","d139fd97-7d25-46cc-8d4b-ecde8190ff27","1000","
                  <p style=""text-align: center;"">₪36
                                                <br>30%</p>
                  <p id=""wtp"" style=""text-align:center; margin-top: 0px; margin-bottom: 0px; font-size: 40px"";>&ensp;</p>","-","viewing","0","11","3C,20A,22A","","","","","","","","","","","","","","","","","","","",""
"","","","","","html-slider-response","181","483561","0.0-21.0-1.22","d139fd97-7d25-46cc-8d4b-ecde8190ff27","2987","
                  <p style=""text-align: center;"">₪36
                                                <br>30%</p>
                  <p id=""wtp"" style=""text-align:center; margin-top: 0px; margin-bottom: 0px; font-size: 40px"";>מוכנים לשלם: <span id=""c_p_y""></span></p>","30","evaluation","12","11","3C,20A,22A","30","36","30","","","","","","","","","","","","","","","","",""
"","","","","","html-keyboard-response","182","485001","0.0-21.0-2.22","d139fd97-7d25-46cc-8d4b-ecde8190ff27","null","<p style=""text-align: center;"">+</p>","null","fixation","","","","","","","","","","","","","","","","","","","","","","",""
"","","","","","html-slider-response","183","486008","0.0-21.0-0.23","d139fd97-7d25-46cc-8d4b-ecde8190ff27","1000","
                  <p style=""text-align: center;"">₪39
                                                <br>65%</p>
                  <p id=""wtp"" style=""text-align:center; margin-top: 0px; margin-bottom: 0px; font-size: 40px"";>&ensp;</p>","-","viewing","0","16","1A,15A,26C","","","","","","","","","","","","","","","","","","","",""
"","","","","","html-slider-response","184","489241","0.0-21.0-1.23","d139fd97-7d25-46cc-8d4b-ecde8190ff27","3232","
                  <p style=""text-align: center;"">₪39
                                                <br>65%</p>
                  <p id=""wtp"" style=""text-align:center; margin-top: 0px; margin-bottom: 0px; font-size: 40px"";>מוכנים לשלם: <span id=""c_p_y""></span></p>","60","evaluation","53","16","1A,15A,26C","65","39","60","","","","","","","","","","","","","","","","",""
"","","","","","html-keyboard-response","185","490575","0.0-21.0-2.23","d139fd97-7d25-46cc-8d4b-ecde8190ff27","null","<p style=""text-align: center;"">+</p>","null","fixation","","","","","","","","","","","","","","","","","","","","","","",""
"","","","","","html-slider-response","186","491581","0.0-21.0-0.24","d139fd97-7d25-46cc-8d4b-ecde8190ff27","1000","
                  <p style=""text-align: center;"">₪4
                                                <br>75%</p>
                  <p id=""wtp"" style=""text-align:center; margin-top: 0px; margin-bottom: 0px; font-size: 40px"";>&ensp;</p>","-","viewing","0","3","12B,20B,23B,27C,29C","","","","","","","","","","","","","","","","","","","",""
"","","","","","html-slider-response","187","493761","0.0-21.0-1.24","d139fd97-7d25-46cc-8d4b-ecde8190ff27","2179","
                  <p style=""text-align: center;"">₪4
                                                <br>75%</p>
                  <p id=""wtp"" style=""text-align:center; margin-top: 0px; margin-bottom: 0px; font-size: 40px"";>מוכנים לשלם: <span id=""c_p_y""></span></p>","11","evaluation","76","3","12B,20B,23B,27C,29C","75","4","11","","","","","","","","","","","","","","","","",""
"","","","","","html-keyboard-response","188","494687","0.0-21.0-2.24","d139fd97-7d25-46cc-8d4b-ecde8190ff27","null","<p style=""text-align: center;"">+</p>","null","fixation","","","","","","","","","","","","","","","","","","","","","","",""
"","","","","","html-slider-response","189","495690","0.0-21.0-0.25","d139fd97-7d25-46cc-8d4b-ecde8190ff27","1000","
                  <p style=""text-align: center;"">₪71
                                                <br>55%</p>
                  <p id=""wtp"" style=""text-align:center; margin-top: 0px; margin-bottom: 0px; font-size: 40px"";>&ensp;</p>","-","viewing","0","27","5B,18A","","","","","","","","","","","","","","","","","","","",""
"","","","","","html-slider-response","190","499473","0.0-21.0-1.25","d139fd97-7d25-46cc-8d4b-ecde8190ff27","3781","
                  <p style=""text-align: center;"">₪71
                                                <br>55%</p>
                  <p id=""wtp"" style=""text-align:center; margin-top: 0px; margin-bottom: 0px; font-size: 40px"";>מוכנים לשלם: <span id=""c_p_y""></span></p>","61","evaluation","49","27","5B,18A","55","71","60","","","","","","","","","","","","","","","","",""
"","","","","","html-keyboard-response","191","500570","0.0-21.0-2.25","d139fd97-7d25-46cc-8d4b-ecde8190ff27","null","<p style=""text-align: center;"">+</p>","null","fixation","","","","","","","","","","","","","","","","","","","","","","",""
"","","","","","html-slider-response","192","501573","0.0-21.0-0.26","d139fd97-7d25-46cc-8d4b-ecde8190ff27","1000","
                  <p style=""text-align: center;"">₪11
                                                <br>45%</p>
                  <p id=""wtp"" style=""text-align:center; margin-top: 0px; margin-bottom: 0px; font-size: 40px"";>&ensp;</p>","-","viewing","0","6","14B,21C,25C","","","","","","","","","","","","","","","","","","","",""
"","","","","","html-slider-response","193","504473","0.0-21.0-1.26","d139fd97-7d25-46cc-8d4b-ecde8190ff27","2899","
                  <p style=""text-align: center;"">₪11
                                                <br>45%</p>
                  <p id=""wtp"" style=""text-align:center; margin-top: 0px; margin-bottom: 0px; font-size: 40px"";>מוכנים לשלם: <span id=""c_p_y""></span></p>","13","evaluation","0","6","14B,21C,25C","45","11","13","","","","","","","","","","","","","","","","",""
"","","","","","html-keyboard-response","194","505020","0.0-21.0-2.26","d139fd97-7d25-46cc-8d4b-ecde8190ff27","null","<p style=""text-align: center;"">+</p>","null","fixation","","","","","","","","","","","","","","","","","","","","","","",""
"","","","","","html-slider-response","195","506032","0.0-21.0-0.27","d139fd97-7d25-46cc-8d4b-ecde8190ff27","1000","
                  <p style=""text-align: center;"">₪61
                                                <br>55%</p>
                  <p id=""wtp"" style=""text-align:center; margin-top: 0px; margin-bottom: 0px; font-size: 40px"";>&ensp;</p>","-","viewing","0","23","7B,26B","","","","","","","","","","","","","","","","","","","",""
"","","","","","html-slider-response","196","508937","0.0-21.0-1.27","d139fd97-7d25-46cc-8d4b-ecde8190ff27","2903","
                  <p style=""text-align: center;"">₪61
                                                <br>55%</p>
                  <p id=""wtp"" style=""text-align:center; margin-top: 0px; margin-bottom: 0px; font-size: 40px"";>מוכנים לשלם: <span id=""c_p_y""></span></p>","66","evaluation","38","23","7B,26B","55","61","66","","","","","","","","","","","","","","","","",""
"","","","","","html-keyboard-response","197","509548","0.0-21.0-2.27","d139fd97-7d25-46cc-8d4b-ecde8190ff27","null","<p style=""text-align: center;"">+</p>","null","fixation","","","","","","","","","","","","","","","","","","","","","","",""
"","","","","","html-slider-response","198","510560","0.0-21.0-0.28","d139fd97-7d25-46cc-8d4b-ecde8190ff27","1000","
                  <p style=""text-align: center;"">₪11
                                                <br>25%</p>
                  <p id=""wtp"" style=""text-align:center; margin-top: 0px; margin-bottom: 0px; font-size: 40px"";>&ensp;</p>","-","viewing","0","5","12A,27B,28B,30B","","","","","","","","","","","","","","","","","","","",""
"","","","","","html-slider-response","199","512921","0.0-21.0-1.28","d139fd97-7d25-46cc-8d4b-ecde8190ff27","2359","
                  <p style=""text-align: center;"">₪11
                                                <br>25%</p>
                  <p id=""wtp"" style=""text-align:center; margin-top: 0px; margin-bottom: 0px; font-size: 40px"";>מוכנים לשלם: <span id=""c_p_y""></span></p>","19","evaluation","56","5","12A,27B,28B,30B","25","11","20","","","","","","","","","","","","","","","","",""
"","","","","","html-keyboard-response","200","514060","0.0-21.0-2.28","d139fd97-7d25-46cc-8d4b-ecde8190ff27","null","<p style=""text-align: center;"">+</p>","null","fixation","","","","","","","","","","","","","","","","","","","","","","",""
"","","","","","html-slider-response","201","515066","0.0-21.0-0.29","d139fd97-7d25-46cc-8d4b-ecde8190ff27","1000","
                  <p style=""text-align: center;"">₪58
                                                <br>40%</p>
                  <p id=""wtp"" style=""text-align:center; margin-top: 0px; margin-bottom: 0px; font-size: 40px"";>&ensp;</p>","-","viewing","0","20","10C,13A,19C,21B","","","","","","","","","","","","","","","","","","","",""
"","","","","","html-slider-response","202","517897","0.0-21.0-1.29","d139fd97-7d25-46cc-8d4b-ecde8190ff27","2829","
                  <p style=""text-align: center;"">₪58
                                                <br>40%</p>
                  <p id=""wtp"" style=""text-align:center; margin-top: 0px; margin-bottom: 0px; font-size: 40px"";>מוכנים לשלם: <span id=""c_p_y""></span></p>","64","evaluation","67","20","10C,13A,19C,21B","40","58","64","","","","","","","","","","","","","","","","",""
"","","","","","html-keyboard-response","203","518803","0.0-21.0-2.29","d139fd97-7d25-46cc-8d4b-ecde8190ff27","null","<p style=""text-align: center;"">+</p>","null","fixation","","","","","","","","","","","","","","","","","","","","","","",""
"","","","","","html-slider-response","204","519815","0.0-21.0-0.30","d139fd97-7d25-46cc-8d4b-ecde8190ff27","1000","
                  <p style=""text-align: center;"">₪79
                                                <br>65%</p>
                  <p id=""wtp"" style=""text-align:center; margin-top: 0px; margin-bottom: 0px; font-size: 40px"";>&ensp;</p>","-","viewing","0","31","8A","","","","","","","","","","","","","","","","","","","",""
"","","","","","html-slider-response","205","521769","0.0-21.0-1.30","d139fd97-7d25-46cc-8d4b-ecde8190ff27","1952","
                  <p style=""text-align: center;"">₪79
                                                <br>65%</p>
                  <p id=""wtp"" style=""text-align:center; margin-top: 0px; margin-bottom: 0px; font-size: 40px"";>מוכנים לשלם: <span id=""c_p_y""></span></p>","55","evaluation","49","31","8A","65","79","54","","","","","","","","","","","","","","","","",""
"","","","","","html-keyboard-response","206","522599","0.0-21.0-2.30","d139fd97-7d25-46cc-8d4b-ecde8190ff27","null","<p style=""text-align: center;"">+</p>","null","fixation","","","","","","","","","","","","","","","","","","","","","","",""
"","","","","","html-keyboard-response","207","523607","0.0-22.0","d139fd97-7d25-46cc-8d4b-ecde8190ff27","null","<p style=""text-align: center;"">+</p>","null","fixation","","","","","","","","","","","","","","","","","","","","","","",""
"","","","","","html-keyboard-response","208","535841","0.0-23.0","d139fd97-7d25-46cc-8d4b-ecde8190ff27","null","<p>הפסקה.
          <br>לחצו כדי להמשיך.</p>","1","scan_wait","","","","","","","","","","","","","","","","","","","","","","",""
"","","","","","html-keyboard-response","209","536842","0.0-24.0","d139fd97-7d25-46cc-8d4b-ecde8190ff27","null","<p style=""text-align: center;"">+</p>","null","fixation","","","","","","","","","","","","","","","","","","","","","","",""
"","","","","","html-slider-response","210","537850","0.0-25.0-0.0","d139fd97-7d25-46cc-8d4b-ecde8190ff27","1000","
                  <p style=""text-align: center;"">₪39
                                                <br>65%</p>
                  <p id=""wtp"" style=""text-align:center; margin-top: 0px; margin-bottom: 0px; font-size: 40px"";>&ensp;</p>","-","viewing","0","16","1A,15A,26C","","","","","","","","","","","","","","","","","","","",""
"","","","","","html-slider-response","211","541049","0.0-25.0-1.0","d139fd97-7d25-46cc-8d4b-ecde8190ff27","3198","
                  <p style=""text-align: center;"">₪39
                                                <br>65%</p>
                  <p id=""wtp"" style=""text-align:center; margin-top: 0px; margin-bottom: 0px; font-size: 40px"";>מוכנים לשלם: <span id=""c_p_y""></span></p>","50","evaluation","32","16","1A,15A,26C","65","39","50","","","","","","","","","","","","","","","","",""
"","","","","","html-keyboard-response","212","542196","0.0-25.0-2.0","d139fd97-7d25-46cc-8d4b-ecde8190ff27","null","<p style=""text-align: center;"">+</p>","null","fixation","","","","","","","","","","","","","","","","","","","","","","",""
"","","","","","html-slider-response","213","543207","0.0-25.0-0.1","d139fd97-7d25-46cc-8d4b-ecde8190ff27","1000","
                  <p style=""text-align: center;"">₪11
                                                <br>25%</p>
                  <p id=""wtp"" style=""text-align:center; margin-top: 0px; margin-bottom: 0px; font-size: 40px"";>&ensp;</p>","-","viewing","0","5","12A,27B,28B,30B","","","","","","","","","","","","","","","","","","","",""
"","","","","","html-slider-response","214","545377","0.0-25.0-1.1","d139fd97-7d25-46cc-8d4b-ecde8190ff27","2168","
                  <p style=""text-align: center;"">₪11
                                                <br>25%</p>
                  <p id=""wtp"" style=""text-align:center; margin-top: 0px; margin-bottom: 0px; font-size: 40px"";>מוכנים לשלם: <span id=""c_p_y""></span></p>","9","evaluation","15","5","12A,27B,28B,30B","25","11","10","","","","","","","","","","","","","","","","",""
"","","","","","html-keyboard-response","215","546358","0.0-25.0-2.1","d139fd97-7d25-46cc-8d4b-ecde8190ff27","null","<p style=""text-align: center;"">+</p>","null","fixation","","","","","","","","","","","","","","","","","","","","","","",""
"","","","","","html-slider-response","216","547371","0.0-25.0-0.2","d139fd97-7d25-46cc-8d4b-ecde8190ff27","1000","
                  <p style=""text-align: center;"">₪16
                                                <br>20%</p>
                  <p id=""wtp"" style=""text-align:center; margin-top: 0px; margin-bottom: 0px; font-size: 40px"";>&ensp;</p>","-","viewing","0","8","14C,17A,20C,27A","","","","","","","","","","","","","","","","","","","",""
"","","","","","html-slider-response","217","549921","0.0-25.0-1.2","d139fd97-7d25-46cc-8d4b-ecde8190ff27","2548","
                  <p style=""text-align: center;"">₪16
                                                <br>20%</p>
                  <p id=""wtp"" style=""text-align:center; margin-top: 0px; margin-bottom: 0px; font-size: 40px"";>מוכנים לשלם: <span id=""c_p_y""></span></p>","17","evaluation","72","8","14C,17A,20C,27A","20","16","18","","","","","","","","","","","","","","","","",""
"","","","","","html-keyboard-response","218","550753","0.0-25.0-2.2","d139fd97-7d25-46cc-8d4b-ecde8190ff27","null","<p style=""text-align: center;"">+</p>","null","fixation","","","","","","","","","","","","","","","","","","","","","","",""
"","","","","","html-slider-response","219","551771","0.0-25.0-0.3","d139fd97-7d25-46cc-8d4b-ecde8190ff27","1000","
                  <p style=""text-align: center;"">₪4
                                                <br>25%</p>
                  <p id=""wtp"" style=""text-align:center; margin-top: 0px; margin-bottom: 0px; font-size: 40px"";>&ensp;</p>","-","viewing","0","1","6C,29B,30C","","","","","","","","","","","","","","","","","","","",""
"","","","","","html-slider-response","220","554801","0.0-25.0-1.3","d139fd97-7d25-46cc-8d4b-ecde8190ff27","3029","
                  <p style=""text-align: center;"">₪4
                                                <br>25%</p>
                  <p id=""wtp"" style=""text-align:center; margin-top: 0px; margin-bottom: 0px; font-size: 40px"";>מוכנים לשלם: <span id=""c_p_y""></span></p>","40","evaluation","65","1","6C,29B,30C","25","4","40","","","","","","","","","","","","","","","","",""
"","","","","","html-keyboard-response","221","556206","0.0-25.0-2.3","d139fd97-7d25-46cc-8d4b-ecde8190ff27","null","<p style=""text-align: center;"">+</p>","null","fixation","","","","","","","","","","","","","","","","","","","","","","",""
"","","","","","html-slider-response","222","557221","0.0-25.0-0.4","d139fd97-7d25-46cc-8d4b-ecde8190ff27","1000","
                  <p style=""text-align: center;"">₪18
                                                <br>50%</p>
                  <p id=""wtp"" style=""text-align:center; margin-top: 0px; margin-bottom: 0px; font-size: 40px"";>&ensp;</p>","-","viewing","0","10","2C,16C,22B,28A","","","","","","","","","","","","","","","","","","","",""
"","","","","","html-slider-response","223","559153","0.0-25.0-1.4","d139fd97-7d25-46cc-8d4b-ecde8190ff27","1931","
                  <p style=""text-align: center;"">₪18
                                                <br>50%</p>
                  <p id=""wtp"" style=""text-align:center; margin-top: 0px; margin-bottom: 0px; font-size: 40px"";>מוכנים לשלם: <span id=""c_p_y""></span></p>","21","evaluation","72","10","2C,16C,22B,28A","50","18","22","","","","","","","","","","","","","","","","",""
"","","","","","html-keyboard-response","224","560558","0.0-25.0-2.4","d139fd97-7d25-46cc-8d4b-ecde8190ff27","null","<p style=""text-align: center;"">+</p>","null","fixation","","","","","","","","","","","","","","","","","","","","","","",""
"","","","","","html-slider-response","225","561567","0.0-25.0-0.5","d139fd97-7d25-46cc-8d4b-ecde8190ff27","1000","
                  <p style=""text-align: center;"">₪61
                                                <br>55%</p>
                  <p id=""wtp"" style=""text-align:center; margin-top: 0px; margin-bottom: 0px; font-size: 40px"";>&ensp;</p>","-","viewing","0","23","7B,26B","","","","","","","","","","","","","","","","","","","",""
"","","","","","html-slider-response","226","563657","0.0-25.0-1.5","d139fd97-7d25-46cc-8d4b-ecde8190ff27","2089","
                  <p style=""text-align: center;"">₪61
                                                <br>55%</p>
                  <p id=""wtp"" style=""text-align:center; margin-top: 0px; margin-bottom: 0px; font-size: 40px"";>מוכנים לשלם: <span id=""c_p_y""></span></p>","65","evaluation","35","23","7B,26B","55","61","65","","","","","","","","","","","","","","","","",""
"","","","","","html-keyboard-response","227","565135","0.0-25.0-2.5","d139fd97-7d25-46cc-8d4b-ecde8190ff27","null","<p style=""text-align: center;"">+</p>","null","fixation","","","","","","","","","","","","","","","","","","","","","","",""
"","","","","","html-slider-response","228","566138","0.0-25.0-0.6","d139fd97-7d25-46cc-8d4b-ecde8190ff27","1000","
                  <p style=""text-align: center;"">₪58
                                                <br>30%</p>
                  <p id=""wtp"" style=""text-align:center; margin-top: 0px; margin-bottom: 0px; font-size: 40px"";>&ensp;</p>","-","viewing","0","19","13C,30A","","","","","","","","","","","","","","","","","","","",""
"","","","","","html-slider-response","229","569673","0.0-25.0-1.6","d139fd97-7d25-46cc-8d4b-ecde8190ff27","3534","
                  <p style=""text-align: center;"">₪58
                                                <br>30%</p>
                  <p id=""wtp"" style=""text-align:center; margin-top: 0px; margin-bottom: 0px; font-size: 40px"";>מוכנים לשלם: <span id=""c_p_y""></span></p>","49","evaluation","8","19","13C,30A","30","58","49","","","","","","","","","","","","","","","","",""
"","","","","","html-keyboard-response","230","570672","0.0-25.0-2.6","d139fd97-7d25-46cc-8d4b-ecde8190ff27","null","<p style=""text-align: center;"">+</p>","null","fixation","","","","","","","","","","","","","","","","","","","","","","",""
"","","","","","html-slider-response","231","571675","0.0-25.0-0.7","d139fd97-7d25-46cc-8d4b-ecde8190ff27","1000","
                  <p style=""text-align: center;"">₪58
                                                <br>45%</p>
                  <p id=""wtp"" style=""text-align:center; margin-top: 0px; margin-bottom: 0px; font-size: 40px"";>&ensp;</p>","-","viewing","0","21","11C,18C,25A","","","","","","","","","","","","","","","","","","","",""
"","","","","","html-slider-response","232","575217","0.0-25.0-1.7","d139fd97-7d25-46cc-8d4b-ecde8190ff27","3540","
                  <p style=""text-align: center;"">₪58
                                                <br>45%</p>
                  <p id=""wtp"" style=""text-align:center; margin-top: 0px; margin-bottom: 0px; font-size: 40px"";>מוכנים לשלם: <span id=""c_p_y""></span></p>","48","evaluation","59","21","11C,18C,25A","45","58","48","","","","","","","","","","","","","","","","",""
"","","","","","html-keyboard-response","233","575807","0.0-25.0-2.7","d139fd97-7d25-46cc-8d4b-ecde8190ff27","null","<p style=""text-align: center;"">+</p>","null","fixation","","","","","","","","","","","","","","","","","","","","","","",""
"","","","","","html-slider-response","234","576816","0.0-25.0-0.8","d139fd97-7d25-46cc-8d4b-ecde8190ff27","1000","
                  <p style=""text-align: center;"">₪76
                                                <br>65%</p>
                  <p id=""wtp"" style=""text-align:center; margin-top: 0px; margin-bottom: 0px; font-size: 40px"";>&ensp;</p>","-","viewing","0","29","8C,19A,24B","","","","","","","","","","","","","","","","","","","",""
"","","","","","html-slider-response","235","578097","0.0-25.0-1.8","d139fd97-7d25-46cc-8d4b-ecde8190ff27","1279","
                  <p style=""text-align: center;"">₪76
                                                <br>65%</p>
                  <p id=""wtp"" style=""text-align:center; margin-top: 0px; margin-bottom: 0px; font-size: 40px"";>מוכנים לשלם: <span id=""c_p_y""></span></p>","66","evaluation","53","29","8C,19A,24B","65","76","66","","","","","","","","","","","","","","","","",""
"","","","","","html-keyboard-response","236","579379","0.0-25.0-2.8","d139fd97-7d25-46cc-8d4b-ecde8190ff27","null","<p style=""text-align: center;"">+</p>","null","fixation","","","","","","","","","","","","","","","","","","","","","","",""
"","","","","","html-slider-response","237","580383","0.0-25.0-0.9","d139fd97-7d25-46cc-8d4b-ecde8190ff27","1000","
                  <p style=""text-align: center;"">₪71
                                                <br>55%</p>
                  <p id=""wtp"" style=""text-align:center; margin-top: 0px; margin-bottom: 0px; font-size: 40px"";>&ensp;</p>","-","viewing","0","27","5B,18A","","","","","","","","","","","","","","","","","","","",""
"","","","","","html-slider-response","238","582681","0.0-25.0-1.9","d139fd97-7d25-46cc-8d4b-ecde8190ff27","2298","
                  <p style=""text-align: center;"">₪71
                                                <br>55%</p>
                  <p id=""wtp"" style=""text-align:center; margin-top: 0px; margin-bottom: 0px; font-size: 40px"";>מוכנים לשלם: <span id=""c_p_y""></span></p>","51","evaluation","8","27","5B,18A","55","71","51","","","","","","","","","","","","","","","","",""
"","","","","","html-keyboard-response","239","583284","0.0-25.0-2.9","d139fd97-7d25-46cc-8d4b-ecde8190ff27","null","<p style=""text-align: center;"">+</p>","null","fixation","","","","","","","","","","","","","","","","","","","","","","",""
"","","","","","html-slider-response","240","584300","0.0-25.0-0.10","d139fd97-7d25-46cc-8d4b-ecde8190ff27","1000","
                  <p style=""text-align: center;"">₪36
                                                <br>30%</p>
                  <p id=""wtp"" style=""text-align:center; margin-top: 0px; margin-bottom: 0px; font-size: 40px"";>&ensp;</p>","-","viewing","0","11","3C,20A,22A","","","","","","","","","","","","","","","","","","","",""
"","","","","","html-slider-response","241","587593","0.0-25.0-1.10","d139fd97-7d25-46cc-8d4b-ecde8190ff27","3292","
                  <p style=""text-align: center;"">₪36
                                                <br>30%</p>
                  <p id=""wtp"" style=""text-align:center; margin-top: 0px; margin-bottom: 0px; font-size: 40px"";>מוכנים לשלם: <span id=""c_p_y""></span></p>","37","evaluation","5","11","3C,20A,22A","30","36","37","","","","","","","","","","","","","","","","",""
"","","","","","html-keyboard-response","242","588375","0.0-25.0-2.10","d139fd97-7d25-46cc-8d4b-ecde8190ff27","null","<p style=""text-align: center;"">+</p>","null","fixation","","","","","","","","","","","","","","","","","","","","","","",""
"","","","","","html-slider-response","243","589380","0.0-25.0-0.11","d139fd97-7d25-46cc-8d4b-ecde8190ff27","1000","
                  <p style=""text-align: center;"">₪71
                                                <br>45%</p>
                  <p id=""wtp"" style=""text-align:center; margin-top: 0px; margin-bottom: 0px; font-size: 40px"";>&ensp;</p>","-","viewing","0","26","2B,16A","","","","","","","","","","","","","","","","","","","",""
"","","","","","html-slider-response","244","592425","0.0-25.0-1.11","d139fd97-7d25-46cc-8d4b-ecde8190ff27","3044","
                  <p style=""text-align: center;"">₪71
                                                <br>45%</p>
                  <p id=""wtp"" style=""text-align:center; margin-top: 0px; margin-bottom: 0px; font-size: 40px"";>מוכנים לשלם: <span id=""c_p_y""></span></p>","51","evaluation","68","26","2B,16A","45","71","50","","","","","","","","","","","","","","","","",""
"","","","","","html-keyboard-response","245","593840","0.0-25.0-2.11","d139fd97-7d25-46cc-8d4b-ecde8190ff27","null","<p style=""text-align: center;"">+</p>","null","fixation","","","","","","","","","","","","","","","","","","","","","","",""
"","","","","","html-slider-response","246","594856","0.0-25.0-0.12","d139fd97-7d25-46cc-8d4b-ecde8190ff27","1000","
                  <p style=""text-align: center;"">₪71
                                                <br>75%</p>
                  <p id=""wtp"" style=""text-align:center; margin-top: 0px; margin-bottom: 0px; font-size: 40px"";>&ensp;</p>","-","viewing","0","28","8B","","","","","","","","","","","","","","","","","","","",""
"","","","","","html-slider-response","247","598345","0.0-25.0-1.12","d139fd97-7d25-46cc-8d4b-ecde8190ff27","3488","
                  <p style=""text-align: center;"">₪71
                                                <br>75%</p>
                  <p id=""wtp"" style=""text-align:center; margin-top: 0px; margin-bottom: 0px; font-size: 40px"";>מוכנים לשלם: <span id=""c_p_y""></span></p>","75","evaluation","42","28","8B","75","71","74","","","","","","","","","","","","","","","","",""
"","","","","","html-keyboard-response","248","599615","0.0-25.0-2.12","d139fd97-7d25-46cc-8d4b-ecde8190ff27","null","<p style=""text-align: center;"">+</p>","null","fixation","","","","","","","","","","","","","","","","","","","","","","",""
"","","","","","html-slider-response","249","600631","0.0-25.0-0.13","d139fd97-7d25-46cc-8d4b-ecde8190ff27","1000","
