success,timeout,failed_images,failed_audio,failed_video,trial_type,trial_index,time_elapsed,internal_node_id,subject_id,rt,stimulus,response,part,slider_start,ID,set_ID,prob,amount,last_location,actual_choice,actual_EV,binary_id,trinary_id,catch,A_key,D_key,choice_prob,choice_amount,total_prize
TRUE,FALSE,[],[],[],preload,0,4,0.0-0.0,320c3ad2-b2ad-4b68-81b8-648f6021ea3d,,,,,,,,,,,,,,,,,,,,
,,,,,html-keyboard-response,1,18799,0.0-1.0,320c3ad2-b2ad-4b68-81b8-648f6021ea3d,null,"
          <h1>שלום וברוכים הבאים!</h1>
          <p>לפניכם ניסוי בקבלת החלטות עם שני חלקים.
          <br><br>לחצו על העכבר כדי להמשיך.</p>",0,example,,,,,,,,,,,,,,,,
,,,,,html-keyboard-response,2,29015,0.0-2.0,320c3ad2-b2ad-4b68-81b8-648f6021ea3d,null,"
        <h1>חלק 1</h1>
        <p>בקרוב יוצגו בפניכם הגרלות.
        <br>עליכם לבחור את המחיר המירבי שתהיו מוכנים לשלם כדי להשתתף בהגרלה שתוצג.
        <br>יש לכם תקציב של ₪80 לכל הגרלה. 
        <br>נסו להעריך כל הגרלה בנפרד ולחשוב כמה היא שווה עבורכם, ₪80 זמינים לכל הגרלה בנפרד.
        <br><br>לחצו על העכבר כדי להמשיך.</p>",1,instructions,,,,,,,,,,,,,,,,
,,,,,html-keyboard-response,3,42590,0.0-3.0,320c3ad2-b2ad-4b68-81b8-648f6021ea3d,null,"
        <p>בסוף הניסוי, המחשב יבחר את אחת ההגרלות ויקבע מחיר לכרטיס עבורה. 
        <br>במידה והמחיר שבחרתם נמוך מהמחיר שנבחר על ידי המחשב, לא תשתתפו בהגרלה ותשארו עם מלוא התקציב.
        <br>במידה והמחיר שבחרתם גבוה מהמחיר שנבחר על ידי המחשב, תשלמו את המחיר שנקבע ותשתתפו בהגרלה.
        <br><br>לחצו על העכבר כדי להמשיך.</p>",1,instructions,,,,,,,,,,,,,,,,
,,,,,html-slider-response,4,66094,0.0-4.0,320c3ad2-b2ad-4b68-81b8-648f6021ea3d,23391,"
        <p style=""font-size: 42px;"">נתחיל עם דוגמא: 
        <br>ההגרלה מטה מציעה 65% סיכוי לזכות ב-₪40 
        <br>&emsp;&emsp;&emsp;&emsp;&emsp;&emsp;&emsp;&emsp;&ensp;35% סיכוי לזכות ב-₪0.
        <br><br>מה המחיר המירבי שתהיו מוכנים לשלם על כרטיס להגרלה זו בין 0 ל-₪80?
        <br>הזיזו את העכבר על פני המלבן ולחצו כדי לבצע בחירה.</p>
        
        <p style=""text-align: center;"">₪40<br>65%</p>

        <p id=""wtp"" style=""text-align:center; margin-top: 0px; margin-bottom: 0px; font-size: 40px"";>מוכנים לשלם: <span id=""c_p_y""></span></p>",25,example,80,,,,,,,,,,,,,,,
,,,,,html-keyboard-response,5,74678,0.0-5.0,320c3ad2-b2ad-4b68-81b8-648f6021ea3d,null,"<p>יפה מאוד!
                <br> בחרתם שתהיו מוכנים לשלם ₪25 כדי להשתתף בהגרלה:
                <br><p style=""text-align: center;"">₪40<br>65%</p>
                <p>נשמע נכון?
                <br>נניח שהגרלה זו נבחרה בסוף הניסוי.
                <br>כעת המחשב יקבע מחיר עבורה באקראי.
                <br>לחצו על העכבר להמשך.</p>",1,example,,,,,,,,,,,,,,,,
,,,,,html-keyboard-response,6,82550,0.0-6.0,320c3ad2-b2ad-4b68-81b8-648f6021ea3d,null,"<p>המחשב קבע מחיר: ₪50
                <br>ואתם בחרתם לשלם לכל היותר: ₪25
                <br><br>מכיוון שהמחיר שבחרתם נמוך מהמחיר שנקבע, לא תתשתתפו בהגרלה.
                <br>במקרה כזה, בסוף הניסוי תקבלו את כל התקציב ההתחלתי של ₪80.
                <br><br>לחצו על העכבר להמשך.</p>",1,example,,,,,,,,,,,,,,,,
,,,,,html-slider-response,7,90710,0.0-7.0,320c3ad2-b2ad-4b68-81b8-648f6021ea3d,7897,"<p style=""font-size: 42px;"">הנה עוד דוגמא:
                <br>ההגרלה מטה מציעה 35% סיכוי לזכות ב-₪18 
                <br>&emsp;&emsp;&emsp;&emsp;&emsp;&emsp;&emsp;&emsp;&ensp;65% סיכוי לזכות ב-₪0.</p>
        
                <p style=""text-align: center;"">₪18<br>35%</p>
                <p id=""wtp"" style=""text-align:center; margin-top: 0px; margin-bottom: 0px; font-size: 40px"";>מוכנים לשלם: <span id=""c_p_y""></span></p>",16,example,13,,,,,,,,,,,,,,,
,,,,,html-keyboard-response,8,95662,0.0-8.0,320c3ad2-b2ad-4b68-81b8-648f6021ea3d,null,"<p>הייתם מוכנים לשלם  ₪16 כדי להשתתף בהגרלה:
                <p style=""text-align: center;"">₪18<br>35%</p>
                <p>כעת נניח שהמחשב בחר את ההגרלה הזו בסוף הניסוי, וקבע עבורה מחיר.
                <br><br>לחצו על העכבר כדי להמשיך.</p>",1,instructions,,,,,,,,,,,,,,,,
,,,,,html-keyboard-response,9,120751,0.0-9.0,320c3ad2-b2ad-4b68-81b8-648f6021ea3d,null,"<p>המחשב קבע מחיר להגרלה: ₪13<br>ואתם בחרתם לשלם לכל היותר: ₪16
                <br><br>כעת המחיר שנקבע נמוך מזה שבחרתם, אז תשלמו את המחיר שקבע המחשב (₪13) ותשתתפו בהגרלה.
                <br>במקרה כזה, תסיימו את הניסוי עם תקציב של ₪67 ועם סיכוי לזכות ב-₪18 נוספים מההגרלה.
                <br>כלומר, תוכלו לקבל ₪67 אם לא תזכו בהגרלה, או ₪85 אם תזכו בהגרלה.
                <br><br>לחצו על העכבר להמשך.</p>",1,example,,,,,,,,,,,,,,,,
,,,,,html-keyboard-response,10,127543,0.0-10.0,320c3ad2-b2ad-4b68-81b8-648f6021ea3d,null,"<p>במהלך הניסוי, קודם תראו את ההגרלה ורק לאחר מכן תוכלו לבחור.
                <p>כמו כן, יהיו לכם מספר שניות מוגבל להגיב.
                <p>בואו ננסה זאת עם ההגרלה הקודמת.
                <br>לחצו על העכבר כדי להמשיך.</p>",1,instructions,,,,,,,,,,,,,,,,
,,,,,html-slider-response,11,128811,0.0-11.0,320c3ad2-b2ad-4b68-81b8-648f6021ea3d,1000,"
                    <p style=""text-align: center;"">₪18<br>35%</p>
                    <p id=""wtp"" style=""text-align:center; margin-top: 0px; margin-bottom: 0px; font-size: 40px"";>&ensp;</p>",50,instructions,0,,,,,,,,,,,,,,,
,,,,,html-slider-response,12,130967,0.0-12.0,320c3ad2-b2ad-4b68-81b8-648f6021ea3d,1904,"
                    <p style=""text-align: center;"">₪18<br>35%</p>
                    <p id=""wtp"" style=""text-align:center; margin-top: 0px; margin-bottom: 0px; font-size: 40px"";>מוכנים לשלם: <span id=""c_p_y""></span></p>",14,instructions,5,,,,,,,,,,,,,,,
,,,,,html-keyboard-response,13,134183,0.0-13.0,320c3ad2-b2ad-4b68-81b8-648f6021ea3d,null,"<p>יפה. הפעם בחרתם לשלם לכל היותר ₪14.
                <br><br>לחצו על העכבר כדי להמשיך.</p>",1,instructions,,,,,,,,,,,,,,,,
,,,,,html-keyboard-response,14,140143,0.0-15.0,320c3ad2-b2ad-4b68-81b8-648f6021ea3d,null,"<p>כעת נתחיל את הניסוי.
                <br><br>אתם תראו הגרלות ותתבקשו לבחור כמה תהיו מוכנים לשלם כדי להשתתף בהן.
                <br>יש לכם תקציב של ₪80 עבור כל הגרלה.
                <br>בסוף הניסוי הגרלה אחת תבחר באקראי ותשוחק.
                <br><br>לחצו על העכבר כדי להתחיל את הניסוי.</p>",1,instructions,,,,,,,,,,,,,,,,
,,,,,html-keyboard-response,15,141421,0.0-16.0,320c3ad2-b2ad-4b68-81b8-648f6021ea3d,null,"<p style=""text-align: center;"">+</p>",null,fixation,,,,,,,,,,,,,,,,
,,,,,html-slider-response,16,142423,0.0-17.0-0.0,320c3ad2-b2ad-4b68-81b8-648f6021ea3d,1000,"
                  <p style=""text-align: center;"">₪79
                                                <br>40%</p>
                  <p id=""wtp"" style=""text-align:center; margin-top: 0px; margin-bottom: 0px; font-size: 40px"";>&ensp;</p>",-,viewing,0,30,9B,,,,,,,,,,,,,
,,,,,html-slider-response,17,145367,0.0-17.0-1.0,320c3ad2-b2ad-4b68-81b8-648f6021ea3d,2942,"
                  <p style=""text-align: center;"">₪79
                                                <br>40%</p>
                  <p id=""wtp"" style=""text-align:center; margin-top: 0px; margin-bottom: 0px; font-size: 40px"";>מוכנים לשלם: <span id=""c_p_y""></span></p>",70,evaluation,52,30,9B,40,79,70,,,,,,,,,,
,,,,,html-keyboard-response,18,146483,0.0-17.0-2.0,320c3ad2-b2ad-4b68-81b8-648f6021ea3d,null,"<p style=""text-align: center;"">+</p>",null,fixation,,,,,,,,,,,,,,,,
,,,,,html-slider-response,19,147493,0.0-17.0-0.1,320c3ad2-b2ad-4b68-81b8-648f6021ea3d,1000,"
                  <p style=""text-align: center;"">₪43
                                                <br>60%</p>
                  <p id=""wtp"" style=""text-align:center; margin-top: 0px; margin-bottom: 0px; font-size: 40px"";>&ensp;</p>",-,viewing,0,17,"2A,7A,9A,15B",,,,,,,,,,,,,
,,,,,html-slider-response,20,150559,0.0-17.0-1.1,320c3ad2-b2ad-4b68-81b8-648f6021ea3d,3065,"
                  <p style=""text-align: center;"">₪43
                                                <br>60%</p>
                  <p id=""wtp"" style=""text-align:center; margin-top: 0px; margin-bottom: 0px; font-size: 40px"";>מוכנים לשלם: <span id=""c_p_y""></span></p>",35,evaluation,80,17,"2A,7A,9A,15B",60,43,35,,,,,,,,,,
,,,,,html-keyboard-response,21,151900,0.0-17.0-2.1,320c3ad2-b2ad-4b68-81b8-648f6021ea3d,null,"<p style=""text-align: center;"">+</p>",null,fixation,,,,,,,,,,,,,,,,
,,,,,html-slider-response,22,152914,0.0-17.0-0.2,320c3ad2-b2ad-4b68-81b8-648f6021ea3d,1000,"
                  <p style=""text-align: center;"">₪4
                                                <br>50%</p>
                  <p id=""wtp"" style=""text-align:center; margin-top: 0px; margin-bottom: 0px; font-size: 40px"";>&ensp;</p>",-,viewing,0,2,"4C,17B",,,,,,,,,,,,,
,,,,,html-slider-response,23,155447,0.0-17.0-1.2,320c3ad2-b2ad-4b68-81b8-648f6021ea3d,2532,"
                  <p style=""text-align: center;"">₪4
                                                <br>50%</p>
                  <p id=""wtp"" style=""text-align:center; margin-top: 0px; margin-bottom: 0px; font-size: 40px"";>מוכנים לשלם: <span id=""c_p_y""></span></p>",1,evaluation,15,2,"4C,17B",50,4,2,,,,,,,,,,
,,,,,html-keyboard-response,24,156232,0.0-17.0-2.2,320c3ad2-b2ad-4b68-81b8-648f6021ea3d,null,"<p style=""text-align: center;"">+</p>",null,fixation,,,,,,,,,,,,,,,,
,,,,,html-slider-response,25,157236,0.0-17.0-0.3,320c3ad2-b2ad-4b68-81b8-648f6021ea3d,1000,"
                  <p style=""text-align: center;"">₪61
                                                <br>55%</p>
                  <p id=""wtp"" style=""text-align:center; margin-top: 0px; margin-bottom: 0px; font-size: 40px"";>&ensp;</p>",-,viewing,0,23,"7B,26B",,,,,,,,,,,,,
,,,,,html-slider-response,26,160647,0.0-17.0-1.3,320c3ad2-b2ad-4b68-81b8-648f6021ea3d,3410,"
                  <p style=""text-align: center;"">₪61
                                                <br>55%</p>
                  <p id=""wtp"" style=""text-align:center; margin-top: 0px; margin-bottom: 0px; font-size: 40px"";>מוכנים לשלם: <span id=""c_p_y""></span></p>",48,evaluation,27,23,"7B,26B",55,61,48,,,,,,,,,,
,,,,,html-keyboard-response,27,161593,0.0-17.0-2.3,320c3ad2-b2ad-4b68-81b8-648f6021ea3d,null,"<p style=""text-align: center;"">+</p>",null,fixation,,,,,,,,,,,,,,,,
,,,,,html-slider-response,28,162609,0.0-17.0-0.4,320c3ad2-b2ad-4b68-81b8-648f6021ea3d,1000,"
                  <p style=""text-align: center;"">₪71
                                                <br>45%</p>
                  <p id=""wtp"" style=""text-align:center; margin-top: 0px; margin-bottom: 0px; font-size: 40px"";>&ensp;</p>",-,viewing,0,26,"2B,16A",,,,,,,,,,,,,
,,,,,html-slider-response,29,166621,0.0-17.0-1.4,320c3ad2-b2ad-4b68-81b8-648f6021ea3d,null,"
                  <p style=""text-align: center;"">₪71
                                                <br>45%</p>
                  <p id=""wtp"" style=""text-align:center; margin-top: 0px; margin-bottom: 0px; font-size: 40px"";>מוכנים לשלם: <span id=""c_p_y""></span></p>",null,evaluation,73,26,"2B,16A",45,71,49,,,,,,,,,,
,,,,,html-keyboard-response,30,167759,0.0-17.0-2.4,320c3ad2-b2ad-4b68-81b8-648f6021ea3d,null,"<p style=""text-align: center;"">+</p>",null,fixation,,,,,,,,,,,,,,,,
,,,,,html-slider-response,31,168773,0.0-17.0-0.5,320c3ad2-b2ad-4b68-81b8-648f6021ea3d,1000,"
                  <p style=""text-align: center;"">₪36
                                                <br>30%</p>
                  <p id=""wtp"" style=""text-align:center; margin-top: 0px; margin-bottom: 0px; font-size: 40px"";>&ensp;</p>",-,viewing,0,11,"3C,20A,22A",,,,,,,,,,,,,
,,,,,html-slider-response,32,171175,0.0-17.0-1.5,320c3ad2-b2ad-4b68-81b8-648f6021ea3d,2401,"
                  <p style=""text-align: center;"">₪36
                                                <br>30%</p>
                  <p id=""wtp"" style=""text-align:center; margin-top: 0px; margin-bottom: 0px; font-size: 40px"";>מוכנים לשלם: <span id=""c_p_y""></span></p>",19,evaluation,28,11,"3C,20A,22A",30,36,19,,,,,,,,,,
,,,,,html-keyboard-response,33,172632,0.0-17.0-2.5,320c3ad2-b2ad-4b68-81b8-648f6021ea3d,null,"<p style=""text-align: center;"">+</p>",null,fixation,,,,,,,,,,,,,,,,
,,,,,html-slider-response,34,173634,0.0-17.0-0.6,320c3ad2-b2ad-4b68-81b8-648f6021ea3d,1000,"
                  <p style=""text-align: center;"">₪4
                                                <br>25%</p>
                  <p id=""wtp"" style=""text-align:center; margin-top: 0px; margin-bottom: 0px; font-size: 40px"";>&ensp;</p>",-,viewing,0,1,"6C,29B,30C",,,,,,,,,,,,,
,,,,,html-slider-response,35,175159,0.0-17.0-1.6,320c3ad2-b2ad-4b68-81b8-648f6021ea3d,1524,"
                  <p style=""text-align: center;"">₪4
                                                <br>25%</p>
                  <p id=""wtp"" style=""text-align:center; margin-top: 0px; margin-bottom: 0px; font-size: 40px"";>מוכנים לשלם: <span id=""c_p_y""></span></p>",2,evaluation,55,1,"6C,29B,30C",25,4,2,,,,,,,,,,
,,,,,html-keyboard-response,36,175827,0.0-17.0-2.6,320c3ad2-b2ad-4b68-81b8-648f6021ea3d,null,"<p style=""text-align: center;"">+</p>",null,fixation,,,,,,,,,,,,,,,,
,,,,,html-slider-response,37,176829,0.0-17.0-0.7,320c3ad2-b2ad-4b68-81b8-648f6021ea3d,1000,"
                  <p style=""text-align: center;"">₪39
                                                <br>65%</p>
                  <p id=""wtp"" style=""text-align:center; margin-top: 0px; margin-bottom: 0px; font-size: 40px"";>&ensp;</p>",-,viewing,0,16,"1A,15A,26C",,,,,,,,,,,,,
,,,,,html-slider-response,38,179822,0.0-17.0-1.7,320c3ad2-b2ad-4b68-81b8-648f6021ea3d,2993,"
                  <p style=""text-align: center;"">₪39
                                                <br>65%</p>
                  <p id=""wtp"" style=""text-align:center; margin-top: 0px; margin-bottom: 0px; font-size: 40px"";>מוכנים לשלם: <span id=""c_p_y""></span></p>",28,evaluation,37,16,"1A,15A,26C",65,39,28,,,,,,,,,,
,,,,,html-keyboard-response,39,180923,0.0-17.0-2.7,320c3ad2-b2ad-4b68-81b8-648f6021ea3d,null,"<p style=""text-align: center;"">+</p>",null,fixation,,,,,,,,,,,,,,,,
,,,,,html-slider-response,40,181932,0.0-17.0-0.8,320c3ad2-b2ad-4b68-81b8-648f6021ea3d,1000,"
                  <p style=""text-align: center;"">₪43
                                                <br>75%</p>
                  <p id=""wtp"" style=""text-align:center; margin-top: 0px; margin-bottom: 0px; font-size: 40px"";>&ensp;</p>",-,viewing,0,18,"11B,19B,24A,26A",,,,,,,,,,,,,
,,,,,html-slider-response,41,183534,0.0-17.0-1.8,320c3ad2-b2ad-4b68-81b8-648f6021ea3d,1600,"
                  <p style=""text-align: center;"">₪43
                                                <br>75%</p>
                  <p id=""wtp"" style=""text-align:center; margin-top: 0px; margin-bottom: 0px; font-size: 40px"";>מוכנים לשלם: <span id=""c_p_y""></span></p>",14,evaluation,33,18,"11B,19B,24A,26A",75,43,14,,,,,,,,,,
,,,,,html-keyboard-response,42,184642,0.0-17.0-2.8,320c3ad2-b2ad-4b68-81b8-648f6021ea3d,null,"<p style=""text-align: center;"">+</p>",null,fixation,,,,,,,,,,,,,,,,
,,,,,html-slider-response,43,185644,0.0-17.0-0.9,320c3ad2-b2ad-4b68-81b8-648f6021ea3d,1000,"
                  <p style=""text-align: center;"">₪16
                                                <br>20%</p>
                  <p id=""wtp"" style=""text-align:center; margin-top: 0px; margin-bottom: 0px; font-size: 40px"";>&ensp;</p>",-,viewing,0,8,"14C,17A,20C,27A",,,,,,,,,,,,,
,,,,,html-slider-response,44,187646,0.0-17.0-1.9,320c3ad2-b2ad-4b68-81b8-648f6021ea3d,2001,"
                  <p style=""text-align: center;"">₪16
                                                <br>20%</p>
                  <p id=""wtp"" style=""text-align:center; margin-top: 0px; margin-bottom: 0px; font-size: 40px"";>מוכנים לשלם: <span id=""c_p_y""></span></p>",12,evaluation,60,8,"14C,17A,20C,27A",20,16,13,,,,,,,,,,
,,,,,html-keyboard-response,45,188832,0.0-17.0-2.9,320c3ad2-b2ad-4b68-81b8-648f6021ea3d,null,"<p style=""text-align: center;"">+</p>",null,fixation,,,,,,,,,,,,,,,,
,,,,,html-slider-response,46,189835,0.0-17.0-0.10,320c3ad2-b2ad-4b68-81b8-648f6021ea3d,1000,"
                  <p style=""text-align: center;"">₪71
                                                <br>55%</p>
                  <p id=""wtp"" style=""text-align:center; margin-top: 0px; margin-bottom: 0px; font-size: 40px"";>&ensp;</p>",-,viewing,0,27,"5B,18A",,,,,,,,,,,,,
,,,,,html-slider-response,47,193836,0.0-17.0-1.10,320c3ad2-b2ad-4b68-81b8-648f6021ea3d,null,"
                  <p style=""text-align: center;"">₪71
                                                <br>55%</p>
                  <p id=""wtp"" style=""text-align:center; margin-top: 0px; margin-bottom: 0px; font-size: 40px"";>מוכנים לשלם: <span id=""c_p_y""></span></p>",null,evaluation,70,27,"5B,18A",55,71,47,,,,,,,,,,
,,,,,html-keyboard-response,48,194761,0.0-17.0-2.10,320c3ad2-b2ad-4b68-81b8-648f6021ea3d,null,"<p style=""text-align: center;"">+</p>",null,fixation,,,,,,,,,,,,,,,,
,,,,,html-slider-response,49,195763,0.0-17.0-0.11,320c3ad2-b2ad-4b68-81b8-648f6021ea3d,1000,"
                  <p style=""text-align: center;"">₪79
                                                <br>65%</p>
                  <p id=""wtp"" style=""text-align:center; margin-top: 0px; margin-bottom: 0px; font-size: 40px"";>&ensp;</p>",-,viewing,0,31,8A,,,,,,,,,,,,,
,,,,,html-slider-response,50,198118,0.0-17.0-1.11,320c3ad2-b2ad-4b68-81b8-648f6021ea3d,2355,"
                  <p style=""text-align: center;"">₪79
                                                <br>65%</p>
                  <p id=""wtp"" style=""text-align:center; margin-top: 0px; margin-bottom: 0px; font-size: 40px"";>מוכנים לשלם: <span id=""c_p_y""></span></p>",38,evaluation,29,31,8A,65,79,38,,,,,,,,,,
,,,,,html-keyboard-response,51,199348,0.0-17.0-2.11,320c3ad2-b2ad-4b68-81b8-648f6021ea3d,null,"<p style=""text-align: center;"">+</p>",null,fixation,,,,,,,,,,,,,,,,
,,,,,html-slider-response,52,200361,0.0-17.0-0.12,320c3ad2-b2ad-4b68-81b8-648f6021ea3d,1000,"
                  <p style=""text-align: center;"">₪18
                                                <br>25%</p>
                  <p id=""wtp"" style=""text-align:center; margin-top: 0px; margin-bottom: 0px; font-size: 40px"";>&ensp;</p>",-,viewing,0,9,"14A,23A",,,,,,,,,,,,,
,,,,,html-slider-response,53,202374,0.0-17.0-1.12,320c3ad2-b2ad-4b68-81b8-648f6021ea3d,2012,"
                  <p style=""text-align: center;"">₪18
                                                <br>25%</p>
                  <p id=""wtp"" style=""text-align:center; margin-top: 0px; margin-bottom: 0px; font-size: 40px"";>מוכנים לשלם: <span id=""c_p_y""></span></p>",5,evaluation,25,9,"14A,23A",25,18,5,,,,,,,,,,
,,,,,html-keyboard-response,54,203495,0.0-17.0-2.12,320c3ad2-b2ad-4b68-81b8-648f6021ea3d,null,"<p style=""text-align: center;"">+</p>",null,fixation,,,,,,,,,,,,,,,,
,,,,,html-slider-response,55,204498,0.0-17.0-0.13,320c3ad2-b2ad-4b68-81b8-648f6021ea3d,1000,"
                  <p style=""text-align: center;"">₪11
                                                <br>75%</p>
                  <p id=""wtp"" style=""text-align:center; margin-top: 0px; margin-bottom: 0px; font-size: 40px"";>&ensp;</p>",-,viewing,0,7,"6B,18B,22C,24C,29A",,,,,,,,,,,,,
,,,,,html-slider-response,56,207814,0.0-17.0-1.13,320c3ad2-b2ad-4b68-81b8-648f6021ea3d,3316,"
                  <p style=""text-align: center;"">₪11
                                                <br>75%</p>
                  <p id=""wtp"" style=""text-align:center; margin-top: 0px; margin-bottom: 0px; font-size: 40px"";>מוכנים לשלם: <span id=""c_p_y""></span></p>",7,evaluation,62,7,"6B,18B,22C,24C,29A",75,11,8,,,,,,,,,,
,,,,,html-keyboard-response,57,209299,0.0-17.0-2.13,320c3ad2-b2ad-4b68-81b8-648f6021ea3d,null,"<p style=""text-align: center;"">+</p>",null,fixation,,,,,,,,,,,,,,,,
,,,,,html-slider-response,58,210306,0.0-17.0-0.14,320c3ad2-b2ad-4b68-81b8-648f6021ea3d,1000,"
                  <p style=""text-align: center;"">₪11
                                                <br>25%</p>
                  <p id=""wtp"" style=""text-align:center; margin-top: 0px; margin-bottom: 0px; font-size: 40px"";>&ensp;</p>",-,viewing,0,5,"12A,27B,28B,30B",,,,,,,,,,,,,
,,,,,html-slider-response,59,213150,0.0-17.0-1.14,320c3ad2-b2ad-4b68-81b8-648f6021ea3d,2843,"
                  <p style=""text-align: center;"">₪11
                                                <br>25%</p>
                  <p id=""wtp"" style=""text-align:center; margin-top: 0px; margin-bottom: 0px; font-size: 40px"";>מוכנים לשלם: <span id=""c_p_y""></span></p>",1,evaluation,14,5,"12A,27B,28B,30B",25,11,2,,,,,,,,,,
,,,,,html-keyboard-response,60,214160,0.0-17.0-2.14,320c3ad2-b2ad-4b68-81b8-648f6021ea3d,null,"<p style=""text-align: center;"">+</p>",null,fixation,,,,,,,,,,,,,,,,
,,,,,html-slider-response,61,215166,0.0-17.0-0.15,320c3ad2-b2ad-4b68-81b8-648f6021ea3d,1000,"
                  <p style=""text-align: center;"">₪58
                                                <br>40%</p>
                  <p id=""wtp"" style=""text-align:center; margin-top: 0px; margin-bottom: 0px; font-size: 40px"";>&ensp;</p>",-,viewing,0,20,"10C,13A,19C,21B",,,,,,,,,,,,,
,,,,,html-slider-response,62,219173,0.0-17.0-1.15,320c3ad2-b2ad-4b68-81b8-648f6021ea3d,null,"
                  <p style=""text-align: center;"">₪58
                                                <br>40%</p>
                  <p id=""wtp"" style=""text-align:center; margin-top: 0px; margin-bottom: 0px; font-size: 40px"";>מוכנים לשלם: <span id=""c_p_y""></span></p>",null,evaluation,63,20,"10C,13A,19C,21B",40,58,11,,,,,,,,,,
,,,,,html-keyboard-response,63,220034,0.0-17.0-2.15,320c3ad2-b2ad-4b68-81b8-648f6021ea3d,null,"<p style=""text-align: center;"">+</p>",null,fixation,,,,,,,,,,,,,,,,
,,,,,html-slider-response,64,221044,0.0-17.0-0.16,320c3ad2-b2ad-4b68-81b8-648f6021ea3d,1000,"
                  <p style=""text-align: center;"">₪71
                                                <br>75%</p>
                  <p id=""wtp"" style=""text-align:center; margin-top: 0px; margin-bottom: 0px; font-size: 40px"";>&ensp;</p>",-,viewing,0,28,8B,,,,,,,,,,,,,
,,,,,html-slider-response,65,222326,0.0-17.0-1.16,320c3ad2-b2ad-4b68-81b8-648f6021ea3d,1281,"
                  <p style=""text-align: center;"">₪71
                                                <br>75%</p>
                  <p id=""wtp"" style=""text-align:center; margin-top: 0px; margin-bottom: 0px; font-size: 40px"";>מוכנים לשלם: <span id=""c_p_y""></span></p>",30,evaluation,79,28,8B,75,71,30,,,,,,,,,,
,,,,,html-keyboard-response,66,223624,0.0-17.0-2.16,320c3ad2-b2ad-4b68-81b8-648f6021ea3d,null,"<p style=""text-align: center;"">+</p>",null,fixation,,,,,,,,,,,,,,,,
,,,,,html-slider-response,67,224628,0.0-17.0-0.17,320c3ad2-b2ad-4b68-81b8-648f6021ea3d,1000,"
                  <p style=""text-align: center;"">₪36
                                                <br>60%</p>
                  <p id=""wtp"" style=""text-align:center; margin-top: 0px; margin-bottom: 0px; font-size: 40px"";>&ensp;</p>",-,viewing,0,12,"1C,7C,15C",,,,,,,,,,,,,
,,,,,html-slider-response,68,225990,0.0-17.0-1.17,320c3ad2-b2ad-4b68-81b8-648f6021ea3d,1361,"
                  <p style=""text-align: center;"">₪36
                                                <br>60%</p>
                  <p id=""wtp"" style=""text-align:center; margin-top: 0px; margin-bottom: 0px; font-size: 40px"";>מוכנים לשלם: <span id=""c_p_y""></span></p>",26,evaluation,54,12,"1C,7C,15C",60,36,27,,,,,,,,,,
,,,,,html-keyboard-response,69,227307,0.0-17.0-2.17,320c3ad2-b2ad-4b68-81b8-648f6021ea3d,null,"<p style=""text-align: center;"">+</p>",null,fixation,,,,,,,,,,,,,,,,
,,,,,html-slider-response,70,228322,0.0-17.0-0.18,320c3ad2-b2ad-4b68-81b8-648f6021ea3d,1000,"
                  <p style=""text-align: center;"">₪39
                                                <br>60%</p>
                  <p id=""wtp"" style=""text-align:center; margin-top: 0px; margin-bottom: 0px; font-size: 40px"";>&ensp;</p>",-,viewing,0,15,"9C,25B",,,,,,,,,,,,,
,,,,,html-slider-response,71,229910,0.0-17.0-1.18,320c3ad2-b2ad-4b68-81b8-648f6021ea3d,1587,"
                  <p style=""text-align: center;"">₪39
                                                <br>60%</p>
                  <p id=""wtp"" style=""text-align:center; margin-top: 0px; margin-bottom: 0px; font-size: 40px"";>מוכנים לשלם: <span id=""c_p_y""></span></p>",17,evaluation,21,15,"9C,25B",60,39,17,,,,,,,,,,
,,,,,html-keyboard-response,72,230681,0.0-17.0-2.18,320c3ad2-b2ad-4b68-81b8-648f6021ea3d,null,"<p style=""text-align: center;"">+</p>",null,fixation,,,,,,,,,,,,,,,,
,,,,,html-slider-response,73,231698,0.0-17.0-0.19,320c3ad2-b2ad-4b68-81b8-648f6021ea3d,1000,"
                  <p style=""text-align: center;"">₪11
                                                <br>45%</p>
                  <p id=""wtp"" style=""text-align:center; margin-top: 0px; margin-bottom: 0px; font-size: 40px"";>&ensp;</p>",-,viewing,0,6,"14B,21C,25C",,,,,,,,,,,,,
,,,,,html-slider-response,74,233670,0.0-17.0-1.19,320c3ad2-b2ad-4b68-81b8-648f6021ea3d,1971,"
                  <p style=""text-align: center;"">₪11
                                                <br>45%</p>
                  <p id=""wtp"" style=""text-align:center; margin-top: 0px; margin-bottom: 0px; font-size: 40px"";>מוכנים לשלם: <span id=""c_p_y""></span></p>",6,evaluation,14,6,"14B,21C,25C",45,11,6,,,,,,,,,,
,,,,,html-keyboard-response,75,235046,0.0-17.0-2.19,320c3ad2-b2ad-4b68-81b8-648f6021ea3d,null,"<p style=""text-align: center;"">+</p>",null,fixation,,,,,,,,,,,,,,,,
,,,,,html-slider-response,76,236048,0.0-17.0-0.20,320c3ad2-b2ad-4b68-81b8-648f6021ea3d,1000,"
                  <p style=""text-align: center;"">₪64
                                                <br>25%</p>
                  <p id=""wtp"" style=""text-align:center; margin-top: 0px; margin-bottom: 0px; font-size: 40px"";>&ensp;</p>",-,viewing,0,24,"6A,21A",,,,,,,,,,,,,
,,,,,html-slider-response,77,239534,0.0-17.0-1.20,320c3ad2-b2ad-4b68-81b8-648f6021ea3d,3486,"
                  <p style=""text-align: center;"">₪64
                                                <br>25%</p>
                  <p id=""wtp"" style=""text-align:center; margin-top: 0px; margin-bottom: 0px; font-size: 40px"";>מוכנים לשלם: <span id=""c_p_y""></span></p>",15,evaluation,44,24,"6A,21A",25,64,15,,,,,,,,,,
,,,,,html-keyboard-response,78,240898,0.0-17.0-2.20,320c3ad2-b2ad-4b68-81b8-648f6021ea3d,null,"<p style=""text-align: center;"">+</p>",null,fixation,,,,,,,,,,,,,,,,
,,,,,html-slider-response,79,241905,0.0-17.0-0.21,320c3ad2-b2ad-4b68-81b8-648f6021ea3d,1000,"
                  <p style=""text-align: center;"">₪76
                                                <br>65%</p>
                  <p id=""wtp"" style=""text-align:center; margin-top: 0px; margin-bottom: 0px; font-size: 40px"";>&ensp;</p>",-,viewing,0,29,"8C,19A,24B",,,,,,,,,,,,,
,,,,,html-slider-response,80,243679,0.0-17.0-1.21,320c3ad2-b2ad-4b68-81b8-648f6021ea3d,1773,"
                  <p style=""text-align: center;"">₪76
                                                <br>65%</p>
                  <p id=""wtp"" style=""text-align:center; margin-top: 0px; margin-bottom: 0px; font-size: 40px"";>מוכנים לשלם: <span id=""c_p_y""></span></p>",32,evaluation,31,29,"8C,19A,24B",65,76,32,,,,,,,,,,
,,,,,html-keyboard-response,81,244347,0.0-17.0-2.21,320c3ad2-b2ad-4b68-81b8-648f6021ea3d,null,"<p style=""text-align: center;"">+</p>",null,fixation,,,,,,,,,,,,,,,,
,,,,,html-slider-response,82,245354,0.0-17.0-0.22,320c3ad2-b2ad-4b68-81b8-648f6021ea3d,1000,"
                  <p style=""text-align: center;"">₪36
                                                <br>70%</p>
                  <p id=""wtp"" style=""text-align:center; margin-top: 0px; margin-bottom: 0px; font-size: 40px"";>&ensp;</p>",-,viewing,0,13,"3A,5C,10B",,,,,,,,,,,,,
,,,,,html-slider-response,83,249295,0.0-17.0-1.22,320c3ad2-b2ad-4b68-81b8-648f6021ea3d,3940,"
                  <p style=""text-align: center;"">₪36
                                                <br>70%</p>
                  <p id=""wtp"" style=""text-align:center; margin-top: 0px; margin-bottom: 0px; font-size: 40px"";>מוכנים לשלם: <span id=""c_p_y""></span></p>",20,evaluation,9,13,"3A,5C,10B",70,36,20,,,,,,,,,,
,,,,,html-keyboard-response,84,250720,0.0-17.0-2.22,320c3ad2-b2ad-4b68-81b8-648f6021ea3d,null,"<p style=""text-align: center;"">+</p>",null,fixation,,,,,,,,,,,,,,,,
,,,,,html-slider-response,85,251725,0.0-17.0-0.23,320c3ad2-b2ad-4b68-81b8-648f6021ea3d,1000,"
                  <p style=""text-align: center;"">₪58
                                                <br>45%</p>
                  <p id=""wtp"" style=""text-align:center; margin-top: 0px; margin-bottom: 0px; font-size: 40px"";>&ensp;</p>",-,viewing,0,21,"11C,18C,25A",,,,,,,,,,,,,
,,,,,html-slider-response,86,254327,0.0-17.0-1.23,320c3ad2-b2ad-4b68-81b8-648f6021ea3d,2600,"
                  <p style=""text-align: center;"">₪58
                                                <br>45%</p>
                  <p id=""wtp"" style=""text-align:center; margin-top: 0px; margin-bottom: 0px; font-size: 40px"";>מוכנים לשלם: <span id=""c_p_y""></span></p>",23,evaluation,33,21,"11C,18C,25A",45,58,23,,,,,,,,,,
,,,,,html-keyboard-response,87,255122,0.0-17.0-2.23,320c3ad2-b2ad-4b68-81b8-648f6021ea3d,null,"<p style=""text-align: center;"">+</p>",null,fixation,,,,,,,,,,,,,,,,
,,,,,html-slider-response,88,256139,0.0-17.0-0.24,320c3ad2-b2ad-4b68-81b8-648f6021ea3d,1000,"
                  <p style=""text-align: center;"">₪64
                                                <br>50%</p>
                  <p id=""wtp"" style=""text-align:center; margin-top: 0px; margin-bottom: 0px; font-size: 40px"";>&ensp;</p>",-,viewing,0,25,"1B,3B,4A",,,,,,,,,,,,,
,,,,,html-slider-response,89,259591,0.0-17.0-1.24,320c3ad2-b2ad-4b68-81b8-648f6021ea3d,3451,"
                  <p style=""text-align: center;"">₪64
                                                <br>50%</p>
                  <p id=""wtp"" style=""text-align:center; margin-top: 0px; margin-bottom: 0px; font-size: 40px"";>מוכנים לשלם: <span id=""c_p_y""></span></p>",37,evaluation,0,25,"1B,3B,4A",50,64,37,,,,,,,,,,
,,,,,html-keyboard-response,90,260530,0.0-17.0-2.24,320c3ad2-b2ad-4b68-81b8-648f6021ea3d,null,"<p style=""text-align: center;"">+</p>",null,fixation,,,,,,,,,,,,,,,,
,,,,,html-slider-response,91,261532,0.0-17.0-0.25,320c3ad2-b2ad-4b68-81b8-648f6021ea3d,1000,"
                  <p style=""text-align: center;"">₪58
                                                <br>30%</p>
                  <p id=""wtp"" style=""text-align:center; margin-top: 0px; margin-bottom: 0px; font-size: 40px"";>&ensp;</p>",-,viewing,0,19,"13C,30A",,,,,,,,,,,,,
,,,,,html-slider-response,92,264031,0.0-17.0-1.25,320c3ad2-b2ad-4b68-81b8-648f6021ea3d,2498,"
                  <p style=""text-align: center;"">₪58
                                                <br>30%</p>
                  <p id=""wtp"" style=""text-align:center; margin-top: 0px; margin-bottom: 0px; font-size: 40px"";>מוכנים לשלם: <span id=""c_p_y""></span></p>",32,evaluation,69,19,"13C,30A",30,58,32,,,,,,,,,,
,,,,,html-keyboard-response,93,264819,0.0-17.0-2.25,320c3ad2-b2ad-4b68-81b8-648f6021ea3d,null,"<p style=""text-align: center;"">+</p>",null,fixation,,,,,,,,,,,,,,,,
,,,,,html-slider-response,94,265822,0.0-17.0-0.26,320c3ad2-b2ad-4b68-81b8-648f6021ea3d,1000,"
                  <p style=""text-align: center;"">₪4
                                                <br>75%</p>
                  <p id=""wtp"" style=""text-align:center; margin-top: 0px; margin-bottom: 0px; font-size: 40px"";>&ensp;</p>",-,viewing,0,3,"12B,20B,23B,27C,29C",,,,,,,,,,,,,
,,,,,html-slider-response,95,268943,0.0-17.0-1.26,320c3ad2-b2ad-4b68-81b8-648f6021ea3d,3119,"
                  <p style=""text-align: center;"">₪4
                                                <br>75%</p>
                  <p id=""wtp"" style=""text-align:center; margin-top: 0px; margin-bottom: 0px; font-size: 40px"";>מוכנים לשלם: <span id=""c_p_y""></span></p>",4,evaluation,24,3,"12B,20B,23B,27C,29C",75,4,4,,,,,,,,,,
,,,,,html-keyboard-response,96,269916,0.0-17.0-2.26,320c3ad2-b2ad-4b68-81b8-648f6021ea3d,null,"<p style=""text-align: center;"">+</p>",null,fixation,,,,,,,,,,,,,,,,
,,,,,html-slider-response,97,270922,0.0-17.0-0.27,320c3ad2-b2ad-4b68-81b8-648f6021ea3d,1000,"
                  <p style=""text-align: center;"">₪61
                                                <br>45%</p>
                  <p id=""wtp"" style=""text-align:center; margin-top: 0px; margin-bottom: 0px; font-size: 40px"";>&ensp;</p>",-,viewing,0,22,"10A,11A",,,,,,,,,,,,,
,,,,,html-slider-response,98,273727,0.0-17.0-1.27,320c3ad2-b2ad-4b68-81b8-648f6021ea3d,2803,"
                  <p style=""text-align: center;"">₪61
                                                <br>45%</p>
                  <p id=""wtp"" style=""text-align:center; margin-top: 0px; margin-bottom: 0px; font-size: 40px"";>מוכנים לשלם: <span id=""c_p_y""></span></p>",45,evaluation,9,22,"10A,11A",45,61,45,,,,,,,,,,
,,,,,html-keyboard-response,99,274585,0.0-17.0-2.27,320c3ad2-b2ad-4b68-81b8-648f6021ea3d,null,"<p style=""text-align: center;"">+</p>",null,fixation,,,,,,,,,,,,,,,,
,,,,,html-slider-response,100,275587,0.0-17.0-0.28,320c3ad2-b2ad-4b68-81b8-648f6021ea3d,1000,"
                  <p style=""text-align: center;"">₪18
                                                <br>50%</p>
                  <p id=""wtp"" style=""text-align:center; margin-top: 0px; margin-bottom: 0px; font-size: 40px"";>&ensp;</p>",-,viewing,0,10,"2C,16C,22B,28A",,,,,,,,,,,,,
,,,,,html-slider-response,101,277487,0.0-17.0-1.28,320c3ad2-b2ad-4b68-81b8-648f6021ea3d,1898,"
                  <p style=""text-align: center;"">₪18
                                                <br>50%</p>
                  <p id=""wtp"" style=""text-align:center; margin-top: 0px; margin-bottom: 0px; font-size: 40px"";>מוכנים לשלם: <span id=""c_p_y""></span></p>",4,evaluation,48,10,"2C,16C,22B,28A",50,18,4,,,,,,,,,,
,,,,,html-keyboard-response,102,278326,0.0-17.0-2.28,320c3ad2-b2ad-4b68-81b8-648f6021ea3d,null,"<p style=""text-align: center;"">+</p>",null,fixation,,,,,,,,,,,,,,,,
,,,,,html-slider-response,103,279344,0.0-17.0-0.29,320c3ad2-b2ad-4b68-81b8-648f6021ea3d,1000,"
                  <p style=""text-align: center;"">₪11
                                                <br>20%</p>
                  <p id=""wtp"" style=""text-align:center; margin-top: 0px; margin-bottom: 0px; font-size: 40px"";>&ensp;</p>",-,viewing,0,4,"12C,17C,23C,28C",,,,,,,,,,,,,
,,,,,html-slider-response,104,280551,0.0-17.0-1.29,320c3ad2-b2ad-4b68-81b8-648f6021ea3d,1206,"
                  <p style=""text-align: center;"">₪11
                                                <br>20%</p>
                  <p id=""wtp"" style=""text-align:center; margin-top: 0px; margin-bottom: 0px; font-size: 40px"";>מוכנים לשלם: <span id=""c_p_y""></span></p>",5,evaluation,0,4,"12C,17C,23C,28C",20,11,5,,,,,,,,,,
,,,,,html-keyboard-response,105,281776,0.0-17.0-2.29,320c3ad2-b2ad-4b68-81b8-648f6021ea3d,null,"<p style=""text-align: center;"">+</p>",null,fixation,,,,,,,,,,,,,,,,
,,,,,html-slider-response,106,282779,0.0-17.0-0.30,320c3ad2-b2ad-4b68-81b8-648f6021ea3d,1000,"
                  <p style=""text-align: center;"">₪36
                                                <br>75%</p>
                  <p id=""wtp"" style=""text-align:center; margin-top: 0px; margin-bottom: 0px; font-size: 40px"";>&ensp;</p>",-,viewing,0,14,"4B,5A,13B,16B",,,,,,,,,,,,,
,,,,,html-slider-response,107,286789,0.0-17.0-1.30,320c3ad2-b2ad-4b68-81b8-648f6021ea3d,null,"
                  <p style=""text-align: center;"">₪36
                                                <br>75%</p>
                  <p id=""wtp"" style=""text-align:center; margin-top: 0px; margin-bottom: 0px; font-size: 40px"";>מוכנים לשלם: <span id=""c_p_y""></span></p>",null,evaluation,16,14,"4B,5A,13B,16B",75,36,20,,,,,,,,,,
,,,,,html-keyboard-response,108,287632,0.0-17.0-2.30,320c3ad2-b2ad-4b68-81b8-648f6021ea3d,null,"<p style=""text-align: center;"">+</p>",null,fixation,,,,,,,,,,,,,,,,
,,,,,html-keyboard-response,109,288635,0.0-18.0,320c3ad2-b2ad-4b68-81b8-648f6021ea3d,null,"<p style=""text-align: center;"">+</p>",null,fixation,,,,,,,,,,,,,,,,
,,,,,html-keyboard-response,110,290903,0.0-19.0,320c3ad2-b2ad-4b68-81b8-648f6021ea3d,null,"<p>הפסקה.
          <br>לחצו כדי להמשיך.</p>",1,scan_wait,,,,,,,,,,,,,,,,
,,,,,html-keyboard-response,111,291918,0.0-20.0,320c3ad2-b2ad-4b68-81b8-648f6021ea3d,null,"<p style=""text-align: center;"">+</p>",null,fixation,,,,,,,,,,,,,,,,
,,,,,html-slider-response,112,292935,0.0-21.0-0.0,320c3ad2-b2ad-4b68-81b8-648f6021ea3d,1000,"
                  <p style=""text-align: center;"">₪58
                                                <br>45%</p>
                  <p id=""wtp"" style=""text-align:center; margin-top: 0px; margin-bottom: 0px; font-size: 40px"";>&ensp;</p>",-,viewing,0,21,"11C,18C,25A",,,,,,,,,,,,,
,,,,,html-slider-response,113,295647,0.0-21.0-1.0,320c3ad2-b2ad-4b68-81b8-648f6021ea3d,2711,"
                  <p style=""text-align: center;"">₪58
                                                <br>45%</p>
                  <p id=""wtp"" style=""text-align:center; margin-top: 0px; margin-bottom: 0px; font-size: 40px"";>מוכנים לשלם: <span id=""c_p_y""></span></p>",22,evaluation,28,21,"11C,18C,25A",45,58,22,,,,,,,,,,
,,,,,html-keyboard-response,114,296284,0.0-21.0-2.0,320c3ad2-b2ad-4b68-81b8-648f6021ea3d,null,"<p style=""text-align: center;"">+</p>",null,fixation,,,,,,,,,,,,,,,,
,,,,,html-slider-response,115,297285,0.0-21.0-0.1,320c3ad2-b2ad-4b68-81b8-648f6021ea3d,1000,"
                  <p style=""text-align: center;"">₪36
                                                <br>60%</p>
                  <p id=""wtp"" style=""text-align:center; margin-top: 0px; margin-bottom: 0px; font-size: 40px"";>&ensp;</p>",-,viewing,0,12,"1C,7C,15C",,,,,,,,,,,,,
,,,,,html-slider-response,116,299031,0.0-21.0-1.1,320c3ad2-b2ad-4b68-81b8-648f6021ea3d,1744,"
                  <p style=""text-align: center;"">₪36
                                                <br>60%</p>
                  <p id=""wtp"" style=""text-align:center; margin-top: 0px; margin-bottom: 0px; font-size: 40px"";>מוכנים לשלם: <span id=""c_p_y""></span></p>",14,evaluation,33,12,"1C,7C,15C",60,36,15,,,,,,,,,,
,,,,,html-keyboard-response,117,299801,0.0-21.0-2.1,320c3ad2-b2ad-4b68-81b8-648f6021ea3d,null,"<p style=""text-align: center;"">+</p>",null,fixation,,,,,,,,,,,,,,,,
,,,,,html-slider-response,118,300807,0.0-21.0-0.2,320c3ad2-b2ad-4b68-81b8-648f6021ea3d,1000,"
                  <p style=""text-align: center;"">₪4
                                                <br>50%</p>
                  <p id=""wtp"" style=""text-align:center; margin-top: 0px; margin-bottom: 0px; font-size: 40px"";>&ensp;</p>",-,viewing,0,2,"4C,17B",,,,,,,,,,,,,
,,,,,html-slider-response,119,302727,0.0-21.0-1.2,320c3ad2-b2ad-4b68-81b8-648f6021ea3d,1918,"
                  <p style=""text-align: center;"">₪4
                                                <br>50%</p>
                  <p id=""wtp"" style=""text-align:center; margin-top: 0px; margin-bottom: 0px; font-size: 40px"";>מוכנים לשלם: <span id=""c_p_y""></span></p>",0,evaluation,19,2,"4C,17B",50,4,1,,,,,,,,,,
,,,,,html-keyboard-response,120,303963,0.0-21.0-2.2,320c3ad2-b2ad-4b68-81b8-648f6021ea3d,null,"<p style=""text-align: center;"">+</p>",null,fixation,,,,,,,,,,,,,,,,
,,,,,html-slider-response,121,304975,0.0-21.0-0.3,320c3ad2-b2ad-4b68-81b8-648f6021ea3d,1000,"
                  <p style=""text-align: center;"">₪64
                                                <br>25%</p>
                  <p id=""wtp"" style=""text-align:center; margin-top: 0px; margin-bottom: 0px; font-size: 40px"";>&ensp;</p>",-,viewing,0,24,"6A,21A",,,,,,,,,,,,,
,,,,,html-slider-response,122,308447,0.0-21.0-1.3,320c3ad2-b2ad-4b68-81b8-648f6021ea3d,3471,"
                  <p style=""text-align: center;"">₪64
                                                <br>25%</p>
                  <p id=""wtp"" style=""text-align:center; margin-top: 0px; margin-bottom: 0px; font-size: 40px"";>מוכנים לשלם: <span id=""c_p_y""></span></p>",20,evaluation,6,24,"6A,21A",25,64,20,,,,,,,,,,
,,,,,html-keyboard-response,123,309030,0.0-21.0-2.3,320c3ad2-b2ad-4b68-81b8-648f6021ea3d,null,"<p style=""text-align: center;"">+</p>",null,fixation,,,,,,,,,,,,,,,,
,,,,,html-slider-response,124,310045,0.0-21.0-0.4,320c3ad2-b2ad-4b68-81b8-648f6021ea3d,1000,"
                  <p style=""text-align: center;"">₪79
                                                <br>65%</p>
                  <p id=""wtp"" style=""text-align:center; margin-top: 0px; margin-bottom: 0px; font-size: 40px"";>&ensp;</p>",-,viewing,0,31,8A,,,,,,,,,,,,,
,,,,,html-slider-response,125,313023,0.0-21.0-1.4,320c3ad2-b2ad-4b68-81b8-648f6021ea3d,2976,"
                  <p style=""text-align: center;"">₪79
                                                <br>65%</p>
                  <p id=""wtp"" style=""text-align:center; margin-top: 0px; margin-bottom: 0px; font-size: 40px"";>מוכנים לשלם: <span id=""c_p_y""></span></p>",48,evaluation,52,31,8A,65,79,48,,,,,,,,,,
,,,,,html-keyboard-response,126,313869,0.0-21.0-2.4,320c3ad2-b2ad-4b68-81b8-648f6021ea3d,null,"<p style=""text-align: center;"">+</p>",null,fixation,,,,,,,,,,,,,,,,
,,,,,html-slider-response,127,314871,0.0-21.0-0.5,320c3ad2-b2ad-4b68-81b8-648f6021ea3d,1000,"
                  <p style=""text-align: center;"">₪36
                                                <br>75%</p>
                  <p id=""wtp"" style=""text-align:center; margin-top: 0px; margin-bottom: 0px; font-size: 40px"";>&ensp;</p>",-,viewing,0,14,"4B,5A,13B,16B",,,,,,,,,,,,,
,,,,,html-slider-response,128,318703,0.0-21.0-1.5,320c3ad2-b2ad-4b68-81b8-648f6021ea3d,3831,"
                  <p style=""text-align: center;"">₪36
                                                <br>75%</p>
                  <p id=""wtp"" style=""text-align:center; margin-top: 0px; margin-bottom: 0px; font-size: 40px"";>מוכנים לשלם: <span id=""c_p_y""></span></p>",14,evaluation,76,14,"4B,5A,13B,16B",75,36,14,,,,,,,,,,
,,,,,html-keyboard-response,129,319822,0.0-21.0-2.5,320c3ad2-b2ad-4b68-81b8-648f6021ea3d,null,"<p style=""text-align: center;"">+</p>",null,fixation,,,,,,,,,,,,,,,,
,,,,,html-slider-response,130,320827,0.0-21.0-0.6,320c3ad2-b2ad-4b68-81b8-648f6021ea3d,1000,"
                  <p style=""text-align: center;"">₪71
                                                <br>45%</p>
                  <p id=""wtp"" style=""text-align:center; margin-top: 0px; margin-bottom: 0px; font-size: 40px"";>&ensp;</p>",-,viewing,0,26,"2B,16A",,,,,,,,,,,,,
,,,,,html-slider-response,131,324039,0.0-21.0-1.6,320c3ad2-b2ad-4b68-81b8-648f6021ea3d,3211,"
                  <p style=""text-align: center;"">₪71
                                                <br>45%</p>
                  <p id=""wtp"" style=""text-align:center; margin-top: 0px; margin-bottom: 0px; font-size: 40px"";>מוכנים לשלם: <span id=""c_p_y""></span></p>",38,evaluation,51,26,"2B,16A",45,71,38,,,,,,,,,,
,,,,,html-keyboard-response,132,325264,0.0-21.0-2.6,320c3ad2-b2ad-4b68-81b8-648f6021ea3d,null,"<p style=""text-align: center;"">+</p>",null,fixation,,,,,,,,,,,,,,,,
,,,,,html-slider-response,133,326280,0.0-21.0-0.7,320c3ad2-b2ad-4b68-81b8-648f6021ea3d,1000,"
                  <p style=""text-align: center;"">₪71
                                                <br>75%</p>
                  <p id=""wtp"" style=""text-align:center; margin-top: 0px; margin-bottom: 0px; font-size: 40px"";>&ensp;</p>",-,viewing,0,28,8B,,,,,,,,,,,,,
,,,,,html-slider-response,134,329743,0.0-21.0-1.7,320c3ad2-b2ad-4b68-81b8-648f6021ea3d,3462,"
                  <p style=""text-align: center;"">₪71
                                                <br>75%</p>
                  <p id=""wtp"" style=""text-align:center; margin-top: 0px; margin-bottom: 0px; font-size: 40px"";>מוכנים לשלם: <span id=""c_p_y""></span></p>",48,evaluation,7,28,8B,75,71,48,,,,,,,,,,
,,,,,html-keyboard-response,135,330549,0.0-21.0-2.7,320c3ad2-b2ad-4b68-81b8-648f6021ea3d,null,"<p style=""text-align: center;"">+</p>",null,fixation,,,,,,,,,,,,,,,,
,,,,,html-slider-response,136,331553,0.0-21.0-0.8,320c3ad2-b2ad-4b68-81b8-648f6021ea3d,1000,"
                  <p style=""text-align: center;"">₪43
                                                <br>60%</p>
                  <p id=""wtp"" style=""text-align:center; margin-top: 0px; margin-bottom: 0px; font-size: 40px"";>&ensp;</p>",-,viewing,0,17,"2A,7A,9A,15B",,,,,,,,,,,,,
,,,,,html-slider-response,137,333623,0.0-21.0-1.8,320c3ad2-b2ad-4b68-81b8-648f6021ea3d,2069,"
                  <p style=""text-align: center;"">₪43
                                                <br>60%</p>
                  <p id=""wtp"" style=""text-align:center; margin-top: 0px; margin-bottom: 0px; font-size: 40px"";>מוכנים לשלם: <span id=""c_p_y""></span></p>",21,evaluation,25,17,"2A,7A,9A,15B",60,43,21,,,,,,,,,,
,,,,,html-keyboard-response,138,334441,0.0-21.0-2.8,320c3ad2-b2ad-4b68-81b8-648f6021ea3d,null,"<p style=""text-align: center;"">+</p>",null,fixation,,,,,,,,,,,,,,,,
,,,,,html-slider-response,139,335452,0.0-21.0-0.9,320c3ad2-b2ad-4b68-81b8-648f6021ea3d,1000,"
                  <p style=""text-align: center;"">₪58
                                                <br>40%</p>
                  <p id=""wtp"" style=""text-align:center; margin-top: 0px; margin-bottom: 0px; font-size: 40px"";>&ensp;</p>",-,viewing,0,20,"10C,13A,19C,21B",,,,,,,,,,,,,
,,,,,html-slider-response,140,338799,0.0-21.0-1.9,320c3ad2-b2ad-4b68-81b8-648f6021ea3d,3345,"
                  <p style=""text-align: center;"">₪58
                                                <br>40%</p>
                  <p id=""wtp"" style=""text-align:center; margin-top: 0px; margin-bottom: 0px; font-size: 40px"";>מוכנים לשלם: <span id=""c_p_y""></span></p>",19,evaluation,46,20,"10C,13A,19C,21B",40,58,20,,,,,,,,,,
,,,,,html-keyboard-response,141,339911,0.0-21.0-2.9,320c3ad2-b2ad-4b68-81b8-648f6021ea3d,null,"<p style=""text-align: center;"">+</p>",null,fixation,,,,,,,,,,,,,,,,
,,,,,html-slider-response,142,340922,0.0-21.0-0.10,320c3ad2-b2ad-4b68-81b8-648f6021ea3d,1000,"
                  <p style=""text-align: center;"">₪36
                                                <br>30%</p>
                  <p id=""wtp"" style=""text-align:center; margin-top: 0px; margin-bottom: 0px; font-size: 40px"";>&ensp;</p>",-,viewing,0,11,"3C,20A,22A",,,,,,,,,,,,,
,,,,,html-slider-response,143,342807,0.0-21.0-1.10,320c3ad2-b2ad-4b68-81b8-648f6021ea3d,1884,"
                  <p style=""text-align: center;"">₪36
                                                <br>30%</p>
                  <p id=""wtp"" style=""text-align:center; margin-top: 0px; margin-bottom: 0px; font-size: 40px"";>מוכנים לשלם: <span id=""c_p_y""></span></p>",12,evaluation,14,11,"3C,20A,22A",30,36,13,,,,,,,,,,
,,,,,html-keyboard-response,144,344186,0.0-21.0-2.10,320c3ad2-b2ad-4b68-81b8-648f6021ea3d,null,"<p style=""text-align: center;"">+</p>",null,fixation,,,,,,,,,,,,,,,,
,,,,,html-slider-response,145,345196,0.0-21.0-0.11,320c3ad2-b2ad-4b68-81b8-648f6021ea3d,1000,"
                  <p style=""text-align: center;"">₪11
                                                <br>45%</p>
                  <p id=""wtp"" style=""text-align:center; margin-top: 0px; margin-bottom: 0px; font-size: 40px"";>&ensp;</p>",-,viewing,0,6,"14B,21C,25C",,,,,,,,,,,,,
,,,,,html-slider-response,146,347911,0.0-21.0-1.11,320c3ad2-b2ad-4b68-81b8-648f6021ea3d,2714,"
                  <p style=""text-align: center;"">₪11
                                                <br>45%</p>
                  <p id=""wtp"" style=""text-align:center; margin-top: 0px; margin-bottom: 0px; font-size: 40px"";>מוכנים לשלם: <span id=""c_p_y""></span></p>",5,evaluation,23,6,"14B,21C,25C",45,11,5,,,,,,,,,,
,,,,,html-keyboard-response,147,349281,0.0-21.0-2.11,320c3ad2-b2ad-4b68-81b8-648f6021ea3d,null,"<p style=""text-align: center;"">+</p>",null,fixation,,,,,,,,,,,,,,,,
,,,,,html-slider-response,148,350298,0.0-21.0-0.12,320c3ad2-b2ad-4b68-81b8-648f6021ea3d,1000,"
                  <p style=""text-align: center;"">₪76
                                                <br>65%</p>
                  <p id=""wtp"" style=""text-align:center; margin-top: 0px; margin-bottom: 0px; font-size: 40px"";>&ensp;</p>",-,viewing,0,29,"8C,19A,24B",,,,,,,,,,,,,
,,,,,html-slider-response,149,354304,0.0-21.0-1.12,320c3ad2-b2ad-4b68-81b8-648f6021ea3d,null,"
                  <p style=""text-align: center;"">₪76
                                                <br>65%</p>
                  <p id=""wtp"" style=""text-align:center; margin-top: 0px; margin-bottom: 0px; font-size: 40px"";>מוכנים לשלם: <span id=""c_p_y""></span></p>",null,evaluation,71,29,"8C,19A,24B",65,76,31,,,,,,,,,,
,,,,,html-keyboard-response,150,355180,0.0-21.0-2.12,320c3ad2-b2ad-4b68-81b8-648f6021ea3d,null,"<p style=""text-align: center;"">+</p>",null,fixation,,,,,,,,,,,,,,,,
,,,,,html-slider-response,151,356191,0.0-21.0-0.13,320c3ad2-b2ad-4b68-81b8-648f6021ea3d,1000,"
                  <p style=""text-align: center;"">₪4
                                                <br>25%</p>
                  <p id=""wtp"" style=""text-align:center; margin-top: 0px; margin-bottom: 0px; font-size: 40px"";>&ensp;</p>",-,viewing,0,1,"6C,29B,30C",,,,,,,,,,,,,
,,,,,html-slider-response,152,357487,0.0-21.0-1.13,320c3ad2-b2ad-4b68-81b8-648f6021ea3d,1295,"
                  <p style=""text-align: center;"">₪4
                                                <br>25%</p>
                  <p id=""wtp"" style=""text-align:center; margin-top: 0px; margin-bottom: 0px; font-size: 40px"";>מוכנים לשלם: <span id=""c_p_y""></span></p>",1,evaluation,17,1,"6C,29B,30C",25,4,1,,,,,,,,,,
,,,,,html-keyboard-response,153,358126,0.0-21.0-2.13,320c3ad2-b2ad-4b68-81b8-648f6021ea3d,null,"<p style=""text-align: center;"">+</p>",null,fixation,,,,,,,,,,,,,,,,
,,,,,html-slider-response,154,359128,0.0-21.0-0.14,320c3ad2-b2ad-4b68-81b8-648f6021ea3d,1000,"
                  <p style=""text-align: center;"">₪79
                                                <br>40%</p>
                  <p id=""wtp"" style=""text-align:center; margin-top: 0px; margin-bottom: 0px; font-size: 40px"";>&ensp;</p>",-,viewing,0,30,9B,,,,,,,,,,,,,
,,,,,html-slider-response,155,362951,0.0-21.0-1.14,320c3ad2-b2ad-4b68-81b8-648f6021ea3d,3822,"
                  <p style=""text-align: center;"">₪79
                                                <br>40%</p>
                  <p id=""wtp"" style=""text-align:center; margin-top: 0px; margin-bottom: 0px; font-size: 40px"";>מוכנים לשלם: <span id=""c_p_y""></span></p>",35,evaluation,74,30,9B,40,79,35,,,,,,,,,,
,,,,,html-keyboard-response,156,364218,0.0-21.0-2.14,320c3ad2-b2ad-4b68-81b8-648f6021ea3d,null,"<p style=""text-align: center;"">+</p>",null,fixation,,,,,,,,,,,,,,,,
,,,,,html-slider-response,157,365230,0.0-21.0-0.15,320c3ad2-b2ad-4b68-81b8-648f6021ea3d,1000,"
                  <p style=""text-align: center;"">₪58
                                                <br>30%</p>
                  <p id=""wtp"" style=""text-align:center; margin-top: 0px; margin-bottom: 0px; font-size: 40px"";>&ensp;</p>",-,viewing,0,19,"13C,30A",,,,,,,,,,,,,
,,,,,html-slider-response,158,367919,0.0-21.0-1.15,320c3ad2-b2ad-4b68-81b8-648f6021ea3d,2688,"
                  <p style=""text-align: center;"">₪58
                                                <br>30%</p>
                  <p id=""wtp"" style=""text-align:center; margin-top: 0px; margin-bottom: 0px; font-size: 40px"";>מוכנים לשלם: <span id=""c_p_y""></span></p>",14,evaluation,39,19,"13C,30A",30,58,14,,,,,,,,,,
,,,,,html-keyboard-response,159,369287,0.0-21.0-2.15,320c3ad2-b2ad-4b68-81b8-648f6021ea3d,null,"<p style=""text-align: center;"">+</p>",null,fixation,,,,,,,,,,,,,,,,
,,,,,html-slider-response,160,370304,0.0-21.0-0.16,320c3ad2-b2ad-4b68-81b8-648f6021ea3d,1000,"
                  <p style=""text-align: center;"">₪61
                                                <br>55%</p>
                  <p id=""wtp"" style=""text-align:center; margin-top: 0px; margin-bottom: 0px; font-size: 40px"";>&ensp;</p>",-,viewing,0,23,"7B,26B",,,,,,,,,,,,,
,,,,,html-slider-response,161,373455,0.0-21.0-1.16,320c3ad2-b2ad-4b68-81b8-648f6021ea3d,3150,"
                  <p style=""text-align: center;"">₪61
                                                <br>55%</p>
                  <p id=""wtp"" style=""text-align:center; margin-top: 0px; margin-bottom: 0px; font-size: 40px"";>מוכנים לשלם: <span id=""c_p_y""></span></p>",33,evaluation,47,23,"7B,26B",55,61,33,,,,,,,,,,
,,,,,html-keyboard-response,162,374862,0.0-21.0-2.16,320c3ad2-b2ad-4b68-81b8-648f6021ea3d,null,"<p style=""text-align: center;"">+</p>",null,fixation,,,,,,,,,,,,,,,,
,,,,,html-slider-response,163,375880,0.0-21.0-0.17,320c3ad2-b2ad-4b68-81b8-648f6021ea3d,1000,"
                  <p style=""text-align: center;"">₪61
                                                <br>45%</p>
                  <p id=""wtp"" style=""text-align:center; margin-top: 0px; margin-bottom: 0px; font-size: 40px"";>&ensp;</p>",-,viewing,0,22,"10A,11A",,,,,,,,,,,,,
,,,,,html-slider-response,164,379567,0.0-21.0-1.17,320c3ad2-b2ad-4b68-81b8-648f6021ea3d,3686,"
                  <p style=""text-align: center;"">₪61
                                                <br>45%</p>
                  <p id=""wtp"" style=""text-align:center; margin-top: 0px; margin-bottom: 0px; font-size: 40px"";>מוכנים לשלם: <span id=""c_p_y""></span></p>",29,evaluation,32,22,"10A,11A",45,61,29,,,,,,,,,,
,,,,,html-keyboard-response,165,380943,0.0-21.0-2.17,320c3ad2-b2ad-4b68-81b8-648f6021ea3d,null,"<p style=""text-align: center;"">+</p>",null,fixation,,,,,,,,,,,,,,,,
,,,,,html-slider-response,166,381959,0.0-21.0-0.18,320c3ad2-b2ad-4b68-81b8-648f6021ea3d,1000,"
                  <p style=""text-align: center;"">₪11
                                                <br>25%</p>
                  <p id=""wtp"" style=""text-align:center; margin-top: 0px; margin-bottom: 0px; font-size: 40px"";>&ensp;</p>",-,viewing,0,5,"12A,27B,28B,30B",,,,,,,,,,,,,
,,,,,html-slider-response,167,384719,0.0-21.0-1.18,320c3ad2-b2ad-4b68-81b8-648f6021ea3d,2759,"
                  <p style=""text-align: center;"">₪11
                                                <br>25%</p>
                  <p id=""wtp"" style=""text-align:center; margin-top: 0px; margin-bottom: 0px; font-size: 40px"";>מוכנים לשלם: <span id=""c_p_y""></span></p>",4,evaluation,18,5,"12A,27B,28B,30B",25,11,4,,,,,,,,,,
,,,,,html-keyboard-response,168,385741,0.0-21.0-2.18,320c3ad2-b2ad-4b68-81b8-648f6021ea3d,null,"<p style=""text-align: center;"">+</p>",null,fixation,,,,,,,,,,,,,,,,
,,,,,html-slider-response,169,386750,0.0-21.0-0.19,320c3ad2-b2ad-4b68-81b8-648f6021ea3d,1000,"
                  <p style=""text-align: center;"">₪4
                                                <br>75%</p>
                  <p id=""wtp"" style=""text-align:center; margin-top: 0px; margin-bottom: 0px; font-size: 40px"";>&ensp;</p>",-,viewing,0,3,"12B,20B,23B,27C,29C",,,,,,,,,,,,,
,,,,,html-slider-response,170,388999,0.0-21.0-1.19,320c3ad2-b2ad-4b68-81b8-648f6021ea3d,2248,"
                  <p style=""text-align: center;"">₪4
                                                <br>75%</p>
                  <p id=""wtp"" style=""text-align:center; margin-top: 0px; margin-bottom: 0px; font-size: 40px"";>מוכנים לשלם: <span id=""c_p_y""></span></p>",3,evaluation,1,3,"12B,20B,23B,27C,29C",75,4,3,,,,,,,,,,
,,,,,html-keyboard-response,171,390159,0.0-21.0-2.19,320c3ad2-b2ad-4b68-81b8-648f6021ea3d,null,"<p style=""text-align: center;"">+</p>",null,fixation,,,,,,,,,,,,,,,,
,,,,,html-slider-response,172,391176,0.0-21.0-0.20,320c3ad2-b2ad-4b68-81b8-648f6021ea3d,1000,"
                  <p style=""text-align: center;"">₪36
                                                <br>70%</p>
                  <p id=""wtp"" style=""text-align:center; margin-top: 0px; margin-bottom: 0px; font-size: 40px"";>&ensp;</p>",-,viewing,0,13,"3A,5C,10B",,,,,,,,,,,,,
,,,,,html-slider-response,173,395184,0.0-21.0-1.20,320c3ad2-b2ad-4b68-81b8-648f6021ea3d,null,"
                  <p style=""text-align: center;"">₪36
                                                <br>70%</p>
                  <p id=""wtp"" style=""text-align:center; margin-top: 0px; margin-bottom: 0px; font-size: 40px"";>מוכנים לשלם: <span id=""c_p_y""></span></p>",null,evaluation,18,13,"3A,5C,10B",70,36,25,,,,,,,,,,
,,,,,html-keyboard-response,174,396330,0.0-21.0-2.20,320c3ad2-b2ad-4b68-81b8-648f6021ea3d,null,"<p style=""text-align: center;"">+</p>",null,fixation,,,,,,,,,,,,,,,,
,,,,,html-slider-response,175,397338,0.0-21.0-0.21,320c3ad2-b2ad-4b68-81b8-648f6021ea3d,1000,"
                  <p style=""text-align: center;"">₪39
                                                <br>65%</p>
                  <p id=""wtp"" style=""text-align:center; margin-top: 0px; margin-bottom: 0px; font-size: 40px"";>&ensp;</p>",-,viewing,0,16,"1A,15A,26C",,,,,,,,,,,,,
,,,,,html-slider-response,176,401343,0.0-21.0-1.21,320c3ad2-b2ad-4b68-81b8-648f6021ea3d,null,"
                  <p style=""text-align: center;"">₪39
                                                <br>65%</p>
                  <p id=""wtp"" style=""text-align:center; margin-top: 0px; margin-bottom: 0px; font-size: 40px"";>מוכנים לשלם: <span id=""c_p_y""></span></p>",null,evaluation,49,16,"1A,15A,26C",65,39,21,,,,,,,,,,
,,,,,html-keyboard-response,177,402505,0.0-21.0-2.21,320c3ad2-b2ad-4b68-81b8-648f6021ea3d,null,"<p style=""text-align: center;"">+</p>",null,fixation,,,,,,,,,,,,,,,,
,,,,,html-slider-response,178,403520,0.0-21.0-0.22,320c3ad2-b2ad-4b68-81b8-648f6021ea3d,1000,"
                  <p style=""text-align: center;"">₪11
                                                <br>20%</p>
                  <p id=""wtp"" style=""text-align:center; margin-top: 0px; margin-bottom: 0px; font-size: 40px"";>&ensp;</p>",-,viewing,0,4,"12C,17C,23C,28C",,,,,,,,,,,,,
,,,,,html-slider-response,179,406847,0.0-21.0-1.22,320c3ad2-b2ad-4b68-81b8-648f6021ea3d,3326,"
                  <p style=""text-align: center;"">₪11
                                                <br>20%</p>
                  <p id=""wtp"" style=""text-align:center; margin-top: 0px; margin-bottom: 0px; font-size: 40px"";>מוכנים לשלם: <span id=""c_p_y""></span></p>",2,evaluation,58,4,"12C,17C,23C,28C",20,11,3,,,,,,,,,,
,,,,,html-keyboard-response,180,407515,0.0-21.0-2.22,320c3ad2-b2ad-4b68-81b8-648f6021ea3d,null,"<p style=""text-align: center;"">+</p>",null,fixation,,,,,,,,,,,,,,,,
,,,,,html-slider-response,181,408526,0.0-21.0-0.23,320c3ad2-b2ad-4b68-81b8-648f6021ea3d,1000,"
                  <p style=""text-align: center;"">₪39
                                                <br>60%</p>
                  <p id=""wtp"" style=""text-align:center; margin-top: 0px; margin-bottom: 0px; font-size: 40px"";>&ensp;</p>",-,viewing,0,15,"9C,25B",,,,,,,,,,,,,
,,,,,html-slider-response,182,411831,0.0-21.0-1.23,320c3ad2-b2ad-4b68-81b8-648f6021ea3d,3305,"
                  <p style=""text-align: center;"">₪39
                                                <br>60%</p>
                  <p id=""wtp"" style=""text-align:center; margin-top: 0px; margin-bottom: 0px; font-size: 40px"";>מוכנים לשלם: <span id=""c_p_y""></span></p>",23,evaluation,45,15,"9C,25B",60,39,23,,,,,,,,,,
,,,,,html-keyboard-response,183,412521,0.0-21.0-2.23,320c3ad2-b2ad-4b68-81b8-648f6021ea3d,null,"<p style=""text-align: center;"">+</p>",null,fixation,,,,,,,,,,,,,,,,
,,,,,html-slider-response,184,413523,0.0-21.0-0.24,320c3ad2-b2ad-4b68-81b8-648f6021ea3d,1000,"
                  <p style=""text-align: center;"">₪18
                                                <br>25%</p>
                  <p id=""wtp"" style=""text-align:center; margin-top: 0px; margin-bottom: 0px; font-size: 40px"";>&ensp;</p>",-,viewing,0,9,"14A,23A",,,,,,,,,,,,,
,,,,,html-slider-response,185,416119,0.0-21.0-1.24,320c3ad2-b2ad-4b68-81b8-648f6021ea3d,2595,"
                  <p style=""text-align: center;"">₪18
                                                <br>25%</p>
                  <p id=""wtp"" style=""text-align:center; margin-top: 0px; margin-bottom: 0px; font-size: 40px"";>מוכנים לשלם: <span id=""c_p_y""></span></p>",3,evaluation,24,9,"14A,23A",25,18,3,,,,,,,,,,
,,,,,html-keyboard-response,186,417617,0.0-21.0-2.24,320c3ad2-b2ad-4b68-81b8-648f6021ea3d,null,"<p style=""text-align: center;"">+</p>",null,fixation,,,,,,,,,,,,,,,,
,,,,,html-slider-response,187,418622,0.0-21.0-0.25,320c3ad2-b2ad-4b68-81b8-648f6021ea3d,1000,"
                  <p style=""text-align: center;"">₪71
                                                <br>55%</p>
                  <p id=""wtp"" style=""text-align:center; margin-top: 0px; margin-bottom: 0px; font-size: 40px"";>&ensp;</p>",-,viewing,0,27,"5B,18A",,,,,,,,,,,,,
,,,,,html-slider-response,188,421495,0.0-21.0-1.25,320c3ad2-b2ad-4b68-81b8-648f6021ea3d,2873,"
                  <p style=""text-align: center;"">₪71
                                                <br>55%</p>
                  <p id=""wtp"" style=""text-align:center; margin-top: 0px; margin-bottom: 0px; font-size: 40px"";>מוכנים לשלם: <span id=""c_p_y""></span></p>",29,evaluation,38,27,"5B,18A",55,71,29,,,,,,,,,,
,,,,,html-keyboard-response,189,422391,0.0-21.0-2.25,320c3ad2-b2ad-4b68-81b8-648f6021ea3d,null,"<p style=""text-align: center;"">+</p>",null,fixation,,,,,,,,,,,,,,,,
,,,,,html-slider-response,190,423406,0.0-21.0-0.26,320c3ad2-b2ad-4b68-81b8-648f6021ea3d,1000,"
                  <p style=""text-align: center;"">₪43
                                                <br>75%</p>
                  <p id=""wtp"" style=""text-align:center; margin-top: 0px; margin-bottom: 0px; font-size: 40px"";>&ensp;</p>",-,viewing,0,18,"11B,19B,24A,26A",,,,,,,,,,,,,
,,,,,html-slider-response,191,427408,0.0-21.0-1.26,320c3ad2-b2ad-4b68-81b8-648f6021ea3d,null,"
                  <p style=""text-align: center;"">₪43
                                                <br>75%</p>
                  <p id=""wtp"" style=""text-align:center; margin-top: 0px; margin-bottom: 0px; font-size: 40px"";>מוכנים לשלם: <span id=""c_p_y""></span></p>",null,evaluation,72,18,"11B,19B,24A,26A",75,43,32,,,,,,,,,,
,,,,,html-keyboard-response,192,428352,0.0-21.0-2.26,320c3ad2-b2ad-4b68-81b8-648f6021ea3d,null,"<p style=""text-align: center;"">+</p>",null,fixation,,,,,,,,,,,,,,,,
,,,,,html-slider-response,193,429362,0.0-21.0-0.27,320c3ad2-b2ad-4b68-81b8-648f6021ea3d,1000,"
                  <p style=""text-align: center;"">₪64
                                                <br>50%</p>
                  <p id=""wtp"" style=""text-align:center; margin-top: 0px; margin-bottom: 0px; font-size: 40px"";>&ensp;</p>",-,viewing,0,25,"1B,3B,4A",,,,,,,,,,,,,
,,,,,html-slider-response,194,432023,0.0-21.0-1.27,320c3ad2-b2ad-4b68-81b8-648f6021ea3d,2660,"
                  <p style=""text-align: center;"">₪64
                                                <br>50%</p>
                  <p id=""wtp"" style=""text-align:center; margin-top: 0px; margin-bottom: 0px; font-size: 40px"";>מוכנים לשלם: <span id=""c_p_y""></span></p>",32,evaluation,79,25,"1B,3B,4A",50,64,32,,,,,,,,,,
,,,,,html-keyboard-response,195,433175,0.0-21.0-2.27,320c3ad2-b2ad-4b68-81b8-648f6021ea3d,null,"<p style=""text-align: center;"">+</p>",null,fixation,,,,,,,,,,,,,,,,
,,,,,html-slider-response,196,434192,0.0-21.0-0.28,320c3ad2-b2ad-4b68-81b8-648f6021ea3d,1000,"
                  <p style=""text-align: center;"">₪18
                                                <br>50%</p>
                  <p id=""wtp"" style=""text-align:center; margin-top: 0px; margin-bottom: 0px; font-size: 40px"";>&ensp;</p>",-,viewing,0,10,"2C,16C,22B,28A",,,,,,,,,,,,,
,,,,,html-slider-response,197,437447,0.0-21.0-1.28,320c3ad2-b2ad-4b68-81b8-648f6021ea3d,3254,"
                  <p style=""text-align: center;"">₪18
                                                <br>50%</p>
                  <p id=""wtp"" style=""text-align:center; margin-top: 0px; margin-bottom: 0px; font-size: 40px"";>מוכנים לשלם: <span id=""c_p_y""></span></p>",8,evaluation,36,10,"2C,16C,22B,28A",50,18,9,,,,,,,,,,
,,,,,html-keyboard-response,198,438447,0.0-21.0-2.28,320c3ad2-b2ad-4b68-81b8-648f6021ea3d,null,"<p style=""text-align: center;"">+</p>",null,fixation,,,,,,,,,,,,,,,,
,,,,,html-slider-response,199,439449,0.0-21.0-0.29,320c3ad2-b2ad-4b68-81b8-648f6021ea3d,1000,"
                  <p style=""text-align: center;"">₪11
                                                <br>75%</p>
                  <p id=""wtp"" style=""text-align:center; margin-top: 0px; margin-bottom: 0px; font-size: 40px"";>&ensp;</p>",-,viewing,0,7,"6B,18B,22C,24C,29A",,,,,,,,,,,,,
,,,,,html-slider-response,200,443167,0.0-21.0-1.29,320c3ad2-b2ad-4b68-81b8-648f6021ea3d,3716,"
                  <p style=""text-align: center;"">₪11
                                                <br>75%</p>
                  <p id=""wtp"" style=""text-align:center; margin-top: 0px; margin-bottom: 0px; font-size: 40px"";>מוכנים לשלם: <span id=""c_p_y""></span></p>",7,evaluation,2,7,"6B,18B,22C,24C,29A",75,11,7,,,,,,,,,,
,,,,,html-keyboard-response,201,444377,0.0-21.0-2.29,320c3ad2-b2ad-4b68-81b8-648f6021ea3d,null,"<p style=""text-align: center;"">+</p>",null,fixation,,,,,,,,,,,,,,,,
,,,,,html-slider-response,202,445392,0.0-21.0-0.30,320c3ad2-b2ad-4b68-81b8-648f6021ea3d,1000,"
                  <p style=""text-align: center;"">₪16
                                                <br>20%</p>
                  <p id=""wtp"" style=""text-align:center; margin-top: 0px; margin-bottom: 0px; font-size: 40px"";>&ensp;</p>",-,viewing,0,8,"14C,17A,20C,27A",,,,,,,,,,,,,
,,,,,html-slider-response,203,449135,0.0-21.0-1.30,320c3ad2-b2ad-4b68-81b8-648f6021ea3d,3742,"
                  <p style=""text-align: center;"">₪16
                                                <br>20%</p>
                  <p id=""wtp"" style=""text-align:center; margin-top: 0px; margin-bottom: 0px; font-size: 40px"";>מוכנים לשלם: <span id=""c_p_y""></span></p>",2,evaluation,14,8,"14C,17A,20C,27A",20,16,3,,,,,,,,,,
,,,,,html-keyboard-response,204,450270,0.0-21.0-2.30,320c3ad2-b2ad-4b68-81b8-648f6021ea3d,null,"<p style=""text-align: center;"">+</p>",null,fixation,,,,,,,,,,,,,,,,
,,,,,html-keyboard-response,205,451271,0.0-22.0,320c3ad2-b2ad-4b68-81b8-648f6021ea3d,null,"<p style=""text-align: center;"">+</p>",null,fixation,,,,,,,,,,,,,,,,
,,,,,html-keyboard-response,206,467495,0.0-23.0,320c3ad2-b2ad-4b68-81b8-648f6021ea3d,null,"<p>הפסקה.
          <br>לחצו כדי להמשיך.</p>",1,scan_wait,,,,,,,,,,,,,,,,
,,,,,html-keyboard-response,207,468498,0.0-24.0,320c3ad2-b2ad-4b68-81b8-648f6021ea3d,null,"<p style=""text-align: center;"">+</p>",null,fixation,,,,,,,,,,,,,,,,
,,,,,html-slider-response,208,469500,0.0-25.0-0.0,320c3ad2-b2ad-4b68-81b8-648f6021ea3d,1000,"
                  <p style=""text-align: center;"">₪18
                                                <br>25%</p>
                  <p id=""wtp"" style=""text-align:center; margin-top: 0px; margin-bottom: 0px; font-size: 40px"";>&ensp;</p>",-,viewing,0,9,"14A,23A",,,,,,,,,,,,,
,,,,,html-slider-response,209,472335,0.0-25.0-1.0,320c3ad2-b2ad-4b68-81b8-648f6021ea3d,2834,"
                  <p style=""text-align: center;"">₪18
                                                <br>25%</p>
                  <p id=""wtp"" style=""text-align:center; margin-top: 0px; margin-bottom: 0px; font-size: 40px"";>מוכנים לשלם: <span id=""c_p_y""></span></p>",5,evaluation,64,9,"14A,23A",25,18,6,,,,,,,,,,
,,,,,html-keyboard-response,210,473298,0.0-25.0-2.0,320c3ad2-b2ad-4b68-81b8-648f6021ea3d,null,"<p style=""text-align: center;"">+</p>",null,fixation,,,,,,,,,,,,,,,,
,,,,,html-slider-response,211,474310,0.0-25.0-0.1,320c3ad2-b2ad-4b68-81b8-648f6021ea3d,1000,"
                  <p style=""text-align: center;"">₪36
                                                <br>60%</p>
                  <p id=""wtp"" style=""text-align:center; margin-top: 0px; margin-bottom: 0px; font-size: 40px"";>&ensp;</p>",-,viewing,0,12,"1C,7C,15C",,,,,,,,,,,,,
,,,,,html-slider-response,212,478324,0.0-25.0-1.1,320c3ad2-b2ad-4b68-81b8-648f6021ea3d,null,"
                  <p style=""text-align: center;"">₪36
                                                <br>60%</p>
                  <p id=""wtp"" style=""text-align:center; margin-top: 0px; margin-bottom: 0px; font-size: 40px"";>מוכנים לשלם: <span id=""c_p_y""></span></p>",null,evaluation,6,12,"1C,7C,15C",60,36,20,,,,,,,,,,
,,,,,html-keyboard-response,213,479245,0.0-25.0-2.1,320c3ad2-b2ad-4b68-81b8-648f6021ea3d,null,"<p style=""text-align: center;"">+</p>",null,fixation,,,,,,,,,,,,,,,,
,,,,,html-slider-response,214,480262,0.0-25.0-0.2,320c3ad2-b2ad-4b68-81b8-648f6021ea3d,1000,"
                  <p style=""text-align: center;"">₪61
                                                <br>45%</p>
                  <p id=""wtp"" style=""text-align:center; margin-top: 0px; margin-bottom: 0px; font-size: 40px"";>&ensp;</p>",-,viewing,0,22,"10A,11A",,,,,,,,,,,,,
,,,,,html-slider-response,215,483687,0.0-25.0-1.2,320c3ad2-b2ad-4b68-81b8-648f6021ea3d,3424,"
                  <p style=""text-align: center;"">₪61
                                                <br>45%</p>
                  <p id=""wtp"" style=""text-align:center; margin-top: 0px; margin-bottom: 0px; font-size: 40px"";>מוכנים לשלם: <span id=""c_p_y""></span></p>",26,evaluation,7,22,"10A,11A",45,61,27,,,,,,,,,,
,,,,,html-keyboard-response,216,484498,0.0-25.0-2.2,320c3ad2-b2ad-4b68-81b8-648f6021ea3d,null,"<p style=""text-align: center;"">+</p>",null,fixation,,,,,,,,,,,,,,,,
,,,,,html-slider-response,217,485501,0.0-25.0-0.3,320c3ad2-b2ad-4b68-81b8-648f6021ea3d,1000,"
                  <p style=""text-align: center;"">₪64
                                                <br>25%</p>
                  <p id=""wtp"" style=""text-align:center; margin-top: 0px; margin-bottom: 0px; font-size: 40px"";>&ensp;</p>",-,viewing,0,24,"6A,21A",,,,,,,,,,,,,
,,,,,html-slider-response,218,488655,0.0-25.0-1.3,320c3ad2-b2ad-4b68-81b8-648f6021ea3d,3153,"
                  <p style=""text-align: center;"">₪64
                                                <br>25%</p>
                  <p id=""wtp"" style=""text-align:center; margin-top: 0px; margin-bottom: 0px; font-size: 40px"";>מוכנים לשלם: <span id=""c_p_y""></span></p>",16,evaluation,59,24,"6A,21A",25,64,16,,,,,,,,,,
,,,,,html-keyboard-response,219,490018,0.0-25.0-2.3,320c3ad2-b2ad-4b68-81b8-648f6021ea3d,null,"<p style=""text-align: center;"">+</p>",null,fixation,,,,,,,,,,,,,,,,
,,,,,html-slider-response,220,491027,0.0-25.0-0.4,320c3ad2-b2ad-4b68-81b8-648f6021ea3d,1000,"
                  <p style=""text-align: center;"">₪18
                                                <br>50%</p>
                  <p id=""wtp"" style=""text-align:center; margin-top: 0px; margin-bottom: 0px; font-size: 40px"";>&ensp;</p>",-,viewing,0,10,"2C,16C,22B,28A",,,,,,,,,,,,,
,,,,,html-slider-response,221,492959,0.0-25.0-1.4,320c3ad2-b2ad-4b68-81b8-648f6021ea3d,1931,"
                  <p style=""text-align: center;"">₪18
                                                <br>50%</p>
                  <p id=""wtp"" style=""text-align:center; margin-top: 0px; margin-bottom: 0px; font-size: 40px"";>מוכנים לשלם: <span id=""c_p_y""></span></p>",8,evaluation,69,10,"2C,16C,22B,28A",50,18,9,,,,,,,,,,
,,,,,html-keyboard-response,222,494162,0.0-25.0-2.4,320c3ad2-b2ad-4b68-81b8-648f6021ea3d,null,"<p style=""text-align: center;"">+</p>",null,fixation,,,,,,,,,,,,,,,,
,,,,,html-slider-response,223,495166,0.0-25.0-0.5,320c3ad2-b2ad-4b68-81b8-648f6021ea3d,1000,"
                  <p style=""text-align: center;"">₪58
                                                <br>45%</p>
                  <p id=""wtp"" style=""text-align:center; margin-top: 0px; margin-bottom: 0px; font-size: 40px"";>&ensp;</p>",-,viewing,0,21,"11C,18C,25A",,,,,,,,,,,,,
,,,,,html-slider-response,224,498095,0.0-25.0-1.5,320c3ad2-b2ad-4b68-81b8-648f6021ea3d,2928,"
                  <p style=""text-align: center;"">₪58
                                                <br>45%</p>
                  <p id=""wtp"" style=""text-align:center; margin-top: 0px; margin-bottom: 0px; font-size: 40px"";>מוכנים לשלם: <span id=""c_p_y""></span></p>",26,evaluation,49,21,"11C,18C,25A",45,58,27,,,,,,,,,,
,,,,,html-keyboard-response,225,499475,0.0-25.0-2.5,320c3ad2-b2ad-4b68-81b8-648f6021ea3d,null,"<p style=""text-align: center;"">+</p>",null,fixation,,,,,,,,,,,,,,,,
,,,,,html-slider-response,226,500479,0.0-25.0-0.6,320c3ad2-b2ad-4b68-81b8-648f6021ea3d,1000,"
                  <p style=""text-align: center;"">₪79
                                                <br>40%</p>
                  <p id=""wtp"" style=""text-align:center; margin-top: 0px; margin-bottom: 0px; font-size: 40px"";>&ensp;</p>",-,viewing,0,30,9B,,,,,,,,,,,,,
,,,,,html-slider-response,227,504247,0.0-25.0-1.6,320c3ad2-b2ad-4b68-81b8-648f6021ea3d,3767,"
                  <p style=""text-align: center;"">₪79
                                                <br>40%</p>
                  <p id=""wtp"" style=""text-align:center; margin-top: 0px; margin-bottom: 0px; font-size: 40px"";>מוכנים לשלם: <span id=""c_p_y""></span></p>",36,evaluation,29,30,9B,40,79,36,,,,,,,,,,
,,,,,html-keyboard-response,228,504761,0.0-25.0-2.6,320c3ad2-b2ad-4b68-81b8-648f6021ea3d,null,"<p style=""text-align: center;"">+</p>",null,fixation,,,,,,,,,,,,,,,,
,,,,,html-slider-response,229,505763,0.0-25.0-0.7,320c3ad2-b2ad-4b68-81b8-648f6021ea3d,1000,"
                  <p style=""text-align: center;"">₪36
                                                <br>30%</p>
                  <p id=""wtp"" style=""text-align:center; margin-top: 0px; margin-bottom: 0px; font-size: 40px"";>&ensp;</p>",-,viewing,0,11,"3C,20A,22A",,,,,,,,,,,,,
,,,,,html-slider-response,230,508927,0.0-25.0-1.7,320c3ad2-b2ad-4b68-81b8-648f6021ea3d,3163,"
                  <p style=""text-align: center;"">₪36
                                                <br>30%</p>
                  <p id=""wtp"" style=""text-align:center; margin-top: 0px; margin-bottom: 0px; font-size: 40px"";>מוכנים לשלם: <span id=""c_p_y""></span></p>",10,evaluation,1,11,"3C,20A,22A",30,36,10,,,,,,,,,,
,,,,,html-keyboard-response,231,510178,0.0-25.0-2.7,320c3ad2-b2ad-4b68-81b8-648f6021ea3d,null,"<p style=""text-align: center;"">+</p>",null,fixation,,,,,,,,,,,,,,,,
,,,,,html-slider-response,232,511182,0.0-25.0-0.8,320c3ad2-b2ad-4b68-81b8-648f6021ea3d,1000,"
                  <p style=""text-align: center;"">₪71
                                                <br>75%</p>
                  <p id=""wtp"" style=""text-align:center; margin-top: 0px; margin-bottom: 0px; font-size: 40px"";>&ensp;</p>",-,viewing,0,28,8B,,,,,,,,,,,,,
,,,,,html-slider-response,233,514791,0.0-25.0-1.8,320c3ad2-b2ad-4b68-81b8-648f6021ea3d,3608,"
                  <p style=""text-align: center;"">₪71
                                                <br>75%</p>
                  <p id=""wtp"" style=""text-align:center; margin-top: 0px; margin-bottom: 0px; font-size: 40px"";>מוכנים לשלם: <span id=""c_p_y""></span></p>",31,evaluation,10,28,8B,75,71,32,,,,,,,,,,
,,,,,html-keyboard-response,234,515915,0.0-25.0-2.8,320c3ad2-b2ad-4b68-81b8-648f6021ea3d,null,"<p style=""text-align: center;"">+</p>",null,fixation,,,,,,,,,,,,,,,,
,,,,,html-slider-response,235,516924,0.0-25.0-0.9,320c3ad2-b2ad-4b68-81b8-648f6021ea3d,1000,"
                  <p style=""text-align: center;"">₪71
                                                <br>45%</p>
                  <p id=""wtp"" style=""text-align:center; margin-top: 0px; margin-bottom: 0px; font-size: 40px"";>&ensp;</p>",-,viewing,0,26,"2B,16A",,,,,,,,,,,,,
,,,,,html-slider-response,236,519831,0.0-25.0-1.9,320c3ad2-b2ad-4b68-81b8-648f6021ea3d,2905,"
                  <p style=""text-align: center;"">₪71
                                                <br>45%</p>
                  <p id=""wtp"" style=""text-align:center; margin-top: 0px; margin-bottom: 0px; font-size: 40px"";>מוכנים לשלם: <span id=""c_p_y""></span></p>",40,evaluation,56,26,"2B,16A",45,71,40,,,,,,,,,,
,,,,,html-keyboard-response,237,520966,0.0-25.0-2.9,320c3ad2-b2ad-4b68-81b8-648f6021ea3d,null,"<p style=""text-align: center;"">+</p>",null,fixation,,,,,,,,,,,,,,,,
,,,,,html-slider-response,238,521972,0.0-25.0-0.10,320c3ad2-b2ad-4b68-81b8-648f6021ea3d,1000,"
                  <p style=""text-align: center;"">₪58
                                                <br>30%</p>
                  <p id=""wtp"" style=""text-align:center; margin-top: 0px; margin-bottom: 0px; font-size: 40px"";>&ensp;</p>",-,viewing,0,19,"13C,30A",,,,,,,,,,,,,
,,,,,html-slider-response,239,525983,0.0-25.0-1.10,320c3ad2-b2ad-4b68-81b8-648f6021ea3d,null,"
                  <p style=""text-align: center;"">₪58
                                                <br>30%</p>
                  <p id=""wtp"" style=""text-align:center; margin-top: 0px; margin-bottom: 0px; font-size: 40px"";>מוכנים לשלם: <span id=""c_p_y""></span></p>",null,evaluation,63,19,"13C,30A",30,58,24,,,,,,,,,,
,,,,,html-keyboard-response,240,526938,0.0-25.0-2.10,320c3ad2-b2ad-4b68-81b8-648f6021ea3d,null,"<p style=""text-align: center;"">+</p>",null,fixation,,,,,,,,,,,,,,,,
,,,,,html-slider-response,241,527951,0.0-25.0-0.11,320c3ad2-b2ad-4b68-81b8-648f6021ea3d,1000,"
                  <p style=""text-align: center;"">₪36
                                                <br>70%</p>
                  <p id=""wtp"" style=""text-align:center; margin-top: 0px; margin-bottom: 0px; font-size: 40px"";>&ensp;</p>",-,viewing,0,13,"3A,5C,10B",,,,,,,,,,,,,
,,,,,html-slider-response,242,529023,0.0-25.0-1.11,320c3ad2-b2ad-4b68-81b8-648f6021ea3d,1071,"
                  <p style=""text-align: center;"">₪36
                                                <br>70%</p>
                  <p id=""wtp"" style=""text-align:center; margin-top: 0px; margin-bottom: 0px; font-size: 40px"";>מוכנים לשלם: <span id=""c_p_y""></span></p>",35,evaluation,46,13,"3A,5C,10B",70,36,35,,,,,,,,,,
,,,,,html-keyboard-response,243,530346,0.0-25.0-2.11,320c3ad2-b2ad-4b68-81b8-648f6021ea3d,null,"<p style=""text-align: center;"">+</p>",null,fixation,,,,,,,,,,,,,,,,
,,,,,html-slider-response,244,531357,0.0-25.0-0.12,320c3ad2-b2ad-4b68-81b8-648f6021ea3d,1000,"
                  <p style=""text-align: center;"">₪61
                                                <br>55%</p>
                  <p id=""wtp"" style=""text-align:center; margin-top: 0px; margin-bottom: 0px; font-size: 40px"";>&ensp;</p>",-,viewing,0,23,"7B,26B",,,,,,,,,,,,,
,,,,,html-slider-response,245,535359,0.0-25.0-1.12,320c3ad2-b2ad-4b68-81b8-648f6021ea3d,null,"
                  <p style=""text-align: center;"">₪61
                                                <br>55%</p>
                  <p id=""wtp"" style=""text-align:center; margin-top: 0px; margin-bottom: 0px; font-size: 40px"";>מוכנים לשלם: <span id=""c_p_y""></span></p>",null,evaluation,44,23,"7B,26B",55,61,29,,,,,,,,,,
,,,,,html-keyboard-response,246,536591,0.0-25.0-2.12,320c3ad2-b2ad-4b68-81b8-648f6021ea3d,null,"<p style=""text-align: center;"">+</p>",null,fixation,,,,,,,,,,,,,,,,
,,,,,html-slider-response,247,537607,0.0-25.0-0.13,320c3ad2-b2ad-4b68-81b8-648f6021ea3d,1000,"
                  <p style=""text-align: center;"">₪43
                                                <br>60%</p>
                  <p id=""wtp"" style=""text-align:center; margin-top: 0px; margin-bottom: 0px; font-size: 40px"";>&ensp;</p>",-,viewing,0,17,"2A,7A,9A,15B",,,,,,,,,,,,,
,,,,,html-slider-response,248,540807,0.0-25.0-1.13,320c3ad2-b2ad-4b68-81b8-648f6021ea3d,3198,"
                  <p style=""text-align: center;"">₪43
                                                <br>60%</p>
                  <p id=""wtp"" style=""text-align:center; margin-top: 0px; margin-bottom: 0px; font-size: 40px"";>מוכנים לשלם: <span id=""c_p_y""></span></p>",32,evaluation,22,17,"2A,7A,9A,15B",60,43,32,,,,,,,,,,
,,,,,html-keyboard-response,249,541476,0.0-25.0-2.13,320c3ad2-b2ad-4b68-81b8-648f6021ea3d,null,"<p style=""text-align: center;"">+</p>",null,fixation,,,,,,,,,,,,,,,,
,,,,,html-slider-response,250,542485,0.0-25.0-0.14,320c3ad2-b2ad-4b68-81b8-648f6021ea3d,1000,"
                  <p style=""text-align: center;"">₪11
                                                <br>20%</p>
                  <p id=""wtp"" style=""text-align:center; margin-top: 0px; margin-bottom: 0px; font-size: 40px"";>&ensp;</p>",-,viewing,0,4,"12C,17C,23C,28C",,,,,,,,,,,,,
,,,,,html-slider-response,251,544327,0.0-25.0-1.14,320c3ad2-b2ad-4b68-81b8-648f6021ea3d,1842,"
                  <p style=""text-align: center;"">₪11
                                                <br>20%</p>
                  <p id=""wtp"" style=""text-align:center; margin-top: 0px; margin-bottom: 0px; font-size: 40px"";>מוכנים לשלם: <span id=""c_p_y""></span></p>",6,evaluation,65,4,"12C,17C,23C,28C",20,11,6,,,,,,,,,,
,,,,,html-keyboard-response,252,545565,0.0-25.0-2.14,320c3ad2-b2ad-4b68-81b8-648f6021ea3d,null,"<p style=""text-align: center;"">+</p>",null,fixation,,,,,,,,,,,,,,,,
,,,,,html-slider-response,253,546574,0.0-25.0-0.15,320c3ad2-b2ad-4b68-81b8-648f6021ea3d,1000,"
                  <p style=""text-align: center;"">₪11
                                                <br>75%</p>
                  <p id=""wtp"" style=""text-align:center; margin-top: 0px; margin-bottom: 0px; font-size: 40px"";>&ensp;</p>",-,viewing,0,7,"6B,18B,22C,24C,29A",,,,,,,,,,,,,
,,,,,html-slider-response,254,550343,0.0-25.0-1.15,320c3ad2-b2ad-4b68-81b8-648f6021ea3d,3768,"
                  <p style=""text-align: center;"">₪11
                                                <br>75%</p>
                  <p id=""wtp"" style=""text-align:center; margin-top: 0px; margin-bottom: 0px; font-size: 40px"";>מוכנים לשלם: <span id=""c_p_y""></span></p>",4,evaluation,2,7,"6B,18B,22C,24C,29A",75,11,4,,,,,,,,,,
,,,,,html-keyboard-response,255,551740,0.0-25.0-2.15,320c3ad2-b2ad-4b68-81b8-648f6021ea3d,null,"<p style=""text-align: center;"">+</p>",null,fixation,,,,,,,,,,,,,,,,
,,,,,html-slider-response,256,552747,0.0-25.0-0.16,320c3ad2-b2ad-4b68-81b8-648f6021ea3d,1000,"
                  <p style=""text-align: center;"">₪36
                                                <br>75%</p>
                  <p id=""wtp"" style=""text-align:center; margin-top: 0px; margin-bottom: 0px; font-size: 40px"";>&ensp;</p>",-,viewing,0,14,"4B,5A,13B,16B",,,,,,,,,,,,,
,,,,,html-slider-response,257,556760,0.0-25.0-1.16,320c3ad2-b2ad-4b68-81b8-648f6021ea3d,null,"
                  <p style=""text-align: center;"">₪36
                                                <br>75%</p>
                  <p id=""wtp"" style=""text-align:center; margin-top: 0px; margin-bottom: 0px; font-size: 40px"";>מוכנים לשלם: <span id=""c_p_y""></span></p>",null,evaluation,32,14,"4B,5A,13B,16B",75,36,20,,,,,,,,,,
,,,,,html-keyboard-response,258,557407,0.0-25.0-2.16,320c3ad2-b2ad-4b68-81b8-648f6021ea3d,null,"<p style=""text-align: center;"">+</p>",null,fixation,,,,,,,,,,,,,,,,
,,,,,html-slider-response,259,558408,0.0-25.0-0.17,320c3ad2-b2ad-4b68-81b8-648f6021ea3d,1000,"
                  <p style=""text-align: center;"">₪79
                                                <br>65%</p>
                  <p id=""wtp"" style=""text-align:center; margin-top: 0px; margin-bottom: 0px; font-size: 40px"";>&ensp;</p>",-,viewing,0,31,8A,,,,,,,,,,,,,
,,,,,html-slider-response,260,559775,0.0-25.0-1.17,320c3ad2-b2ad-4b68-81b8-648f6021ea3d,1366,"
                  <p style=""text-align: center;"">₪79
                                                <br>65%</p>
                  <p id=""wtp"" style=""text-align:center; margin-top: 0px; margin-bottom: 0px; font-size: 40px"";>מוכנים לשלם: <span id=""c_p_y""></span></p>",44,evaluation,57,31,8A,65,79,44,,,,,,,,,,
,,,,,html-keyboard-response,261,561217,0.0-25.0-2.17,320c3ad2-b2ad-4b68-81b8-648f6021ea3d,null,"<p style=""text-align: center;"">+</p>",null,fixation,,,,,,,,,,,,,,,,
,,,,,html-slider-response,262,562219,0.0-25.0-0.18,320c3ad2-b2ad-4b68-81b8-648f6021ea3d,1000,"
                  <p style=""text-align: center;"">₪4
                                                <br>25%</p>
                  <p id=""wtp"" style=""text-align:center; margin-top: 0px; margin-bottom: 0px; font-size: 40px"";>&ensp;</p>",-,viewing,0,1,"6C,29B,30C",,,,,,,,,,,,,
,,,,,html-slider-response,263,563847,0.0-25.0-1.18,320c3ad2-b2ad-4b68-81b8-648f6021ea3d,1627,"
                  <p style=""text-align: center;"">₪4
                                                <br>25%</p>
                  <p id=""wtp"" style=""text-align:center; margin-top: 0px; margin-bottom: 0px; font-size: 40px"";>מוכנים לשלם: <span id=""c_p_y""></span></p>",1,evaluation,59,1,"6C,29B,30C",25,4,1,,,,,,,,,,
,,,,,html-keyboard-response,264,565300,0.0-25.0-2.18,320c3ad2-b2ad-4b68-81b8-648f6021ea3d,null,"<p style=""text-align: center;"">+</p>",null,fixation,,,,,,,,,,,,,,,,
,,,,,html-slider-response,265,566302,0.0-25.0-0.19,320c3ad2-b2ad-4b68-81b8-648f6021ea3d,1000,"
                  <p style=""text-align: center;"">₪39
                                                <br>65%</p>
                  <p id=""wtp"" style=""text-align:center; margin-top: 0px; margin-bottom: 0px; font-size: 40px"";>&ensp;</p>",-,viewing,0,16,"1A,15A,26C",,,,,,,,,,,,,
,,,,,html-slider-response,266,569839,0.0-25.0-1.19,320c3ad2-b2ad-4b68-81b8-648f6021ea3d,3536,"
                  <p style=""text-align: center;"">₪39
                                                <br>65%</p>
                  <p id=""wtp"" style=""text-align:center; margin-top: 0px; margin-bottom: 0px; font-size: 40px"";>מוכנים לשלם: <span id=""c_p_y""></span></p>",31,evaluation,79,16,"1A,15A,26C",65,39,32,,,,,,,,,,
,,,,,html-keyboard-response,267,571345,0.0-25.0-2.19,320c3ad2-b2ad-4b68-81b8-648f6021ea3d,null,"<p style=""text-align: center;"">+</p>",null,fixation,,,,,,,,,,,,,,,,
,,,,,html-slider-response,268,572353,0.0-25.0-0.20,320c3ad2-b2ad-4b68-81b8-648f6021ea3d,1000,"
                  <p style=""text-align: center;"">₪11
                                                <br>45%</p>
                  <p id=""wtp"" style=""text-align:center; margin-top: 0px; margin-bottom: 0px; font-size: 40px"";>&ensp;</p>",-,viewing,0,6,"14B,21C,25C",,,,,,,,,,,,,
,,,,,html-slider-response,269,576355,0.0-25.0-1.20,320c3ad2-b2ad-4b68-81b8-648f6021ea3d,null,"
                  <p style=""text-align: center;"">₪11
                                                <br>45%</p>
                  <p id=""wtp"" style=""text-align:center; margin-top: 0px; margin-bottom: 0px; font-size: 40px"";>מוכנים לשלם: <span id=""c_p_y""></span></p>",null,evaluation,44,6,"14B,21C,25C",45,11,6,,,,,,,,,,
,,,,,html-keyboard-response,270,576998,0.0-25.0-2.20,320c3ad2-b2ad-4b68-81b8-648f6021ea3d,null,"<p style=""text-align: center;"">+</p>",null,fixation,,,,,,,,,,,,,,,,
,,,,,html-slider-response,271,578010,0.0-25.0-0.21,320c3ad2-b2ad-4b68-81b8-648f6021ea3d,1000,"
                  <p style=""text-align: center;"">₪76
                                                <br>65%</p>
                  <p id=""wtp"" style=""text-align:center; margin-top: 0px; margin-bottom: 0px; font-size: 40px"";>&ensp;</p>",-,viewing,0,29,"8C,19A,24B",,,,,,,,,,,,,
,,,,,html-slider-response,272,581935,0.0-25.0-1.21,320c3ad2-b2ad-4b68-81b8-648f6021ea3d,3925,"
                  <p style=""text-align: center;"">₪76
                                                <br>65%</p>
                  <p id=""wtp"" style=""text-align:center; margin-top: 0px; margin-bottom: 0px; font-size: 40px"";>מוכנים לשלם: <span id=""c_p_y""></span></p>",31,evaluation,71,29,"8C,19A,24B",65,76,31,,,,,,,,,,
,,,,,html-keyboard-response,273,583295,0.0-25.0-2.21,320c3ad2-b2ad-4b68-81b8-648f6021ea3d,null,"<p style=""text-align: center;"">+</p>",null,fixation,,,,,,,,,,,,,,,,
,,,,,html-slider-response,274,584299,0.0-25.0-0.22,320c3ad2-b2ad-4b68-81b8-648f6021ea3d,1000,"
                  <p style=""text-align: center;"">₪16
                                                <br>20%</p>
                  <p id=""wtp"" style=""text-align:center; margin-top: 0px; margin-bottom: 0px; font-size: 40px"";>&ensp;</p>",-,viewing,0,8,"14C,17A,20C,27A",,,,,,,,,,,,,
,,,,,html-slider-response,275,587015,0.0-25.0-1.22,320c3ad2-b2ad-4b68-81b8-648f6021ea3d,2715,"
                  <p style=""text-align: center;"">₪16
                                                <br>20%</p>
                  <p id=""wtp"" style=""text-align:center; margin-top: 0px; margin-bottom: 0px; font-size: 40px"";>מוכנים לשלם: <span id=""c_p_y""></span></p>",1,evaluation,42,8,"14C,17A,20C,27A",20,16,2,,,,,,,,,,
,,,,,html-keyboard-response,276,587668,0.0-25.0-2.22,320c3ad2-b2ad-4b68-81b8-648f6021ea3d,null,"<p style=""text-align: center;"">+</p>",null,fixation,,,,,,,,,,,,,,,,
,,,,,html-slider-response,277,588672,0.0-25.0-0.23,320c3ad2-b2ad-4b68-81b8-648f6021ea3d,1000,"
                  <p style=""text-align: center;"">₪71
                                                <br>55%</p>
                  <p id=""wtp"" style=""text-align:center; margin-top: 0px; margin-bottom: 0px; font-size: 40px"";>&ensp;</p>",-,viewing,0,27,"5B,18A",,,,,,,,,,,,,
,,,,,html-slider-response,278,592687,0.0-25.0-1.23,320c3ad2-b2ad-4b68-81b8-648f6021ea3d,null,"
                  <p style=""text-align: center;"">₪71
                                                <br>55%</p>
                  <p id=""wtp"" style=""text-align:center; margin-top: 0px; margin-bottom: 0px; font-size: 40px"";>מוכנים לשלם: <span id=""c_p_y""></span></p>",null,evaluation,59,27,"5B,18A",55,71,36,,,,,,,,,,
,,,,,html-keyboard-response,279,594103,0.0-25.0-2.23,320c3ad2-b2ad-4b68-81b8-648f6021ea3d,null,"<p style=""text-align: center;"">+</p>",null,fixation,,,,,,,,,,,,,,,,
,,,,,html-slider-response,280,595111,0.0-25.0-0.24,320c3ad2-b2ad-4b68-81b8-648f6021ea3d,1000,"
                  <p style=""text-align: center;"">₪58
                                                <br>40%</p>
                  <p id=""wtp"" style=""text-align:center; margin-top: 0px; margin-bottom: 0px; font-size: 40px"";>&ensp;</p>",-,viewing,0,20,"10C,13A,19C,21B",,,,,,,,,,,,,
,,,,,html-slider-response,281,599128,0.0-25.0-1.24,320c3ad2-b2ad-4b68-81b8-648f6021ea3d,null,"
                  <p style=""text-align: center;"">₪58
                                                <br>40%</p>
                  <p id=""wtp"" style=""text-align:center; margin-top: 0px; margin-bottom: 0px; font-size: 40px"";>מוכנים לשלם: <span id=""c_p_y""></span></p>",null,evaluation,41,20,"10C,13A,19C,21B",40,58,30,,,,,,,,,,
,,,,,html-keyboard-response,282,599765,0.0-25.0-2.24,320c3ad2-b2ad-4b68-81b8-648f6021ea3d,null,"<p style=""text-align: center;"">+</p>",null,fixation,,,,,,,,,,,,,,,,
,,,,,html-slider-response,283,600777,0.0-25.0-0.25,320c3ad2-b2ad-4b68-81b8-648f6021ea3d,1000,"
                  <p style=""text-align: center;"">₪39
                                                <br>60%</p>
                  <p id=""wtp"" style=""text-align:center; margin-top: 0px; margin-bottom: 0px; font-size: 40px"";>&ensp;</p>",-,viewing,0,15,"9C,25B",,,,,,,,,,,,,
,,,,,html-slider-response,284,603599,0.0-25.0-1.25,320c3ad2-b2ad-4b68-81b8-648f6021ea3d,2821,"
                  <p style=""text-align: center;"">₪39
                                                <br>60%</p>
                  <p id=""wtp"" style=""text-align:center; margin-top: 0px; margin-bottom: 0px; font-size: 40px"";>מוכנים לשלם: <span id=""c_p_y""></span></p>",20,evaluation,68,15,"9C,25B",60,39,21,,,,,,,,,,
,,,,,html-keyboard-response,285,605005,0.0-25.0-2.25,320c3ad2-b2ad-4b68-81b8-648f6021ea3d,null,"<p style=""text-align: center;"">+</p>",null,fixation,,,,,,,,,,,,,,,,
,,,,,html-slider-response,286,606020,0.0-25.0-0.26,320c3ad2-b2ad-4b68-81b8-648f6021ea3d,1000,"
                  <p style=""text-align: center;"">₪64
                                                <br>50%</p>
                  <p id=""wtp"" style=""text-align:center; margin-top: 0px; margin-bottom: 0px; font-size: 40px"";>&ensp;</p>",-,viewing,0,25,"1B,3B,4A",,,,,,,,,,,,,
,,,,,html-slider-response,287,609887,0.0-25.0-1.26,320c3ad2-b2ad-4b68-81b8-648f6021ea3d,3866,"
                  <p style=""text-align: center;"">₪64
                                                <br>50%</p>
                  <p id=""wtp"" style=""text-align:center; margin-top: 0px; margin-bottom: 0px; font-size: 40px"";>מוכנים לשלם: <span id=""c_p_y""></span></p>",32,evaluation,35,25,"1B,3B,4A",50,64,32,,,,,,,,,,
,,,,,html-keyboard-response,288,610960,0.0-25.0-2.26,320c3ad2-b2ad-4b68-81b8-648f6021ea3d,null,"<p style=""text-align: center;"">+</p>",null,fixation,,,,,,,,,,,,,,,,
,,,,,html-slider-response,289,611967,0.0-25.0-0.27,320c3ad2-b2ad-4b68-81b8-648f6021ea3d,1000,"
                  <p style=""text-align: center;"">₪4
                                                <br>50%</p>
                  <p id=""wtp"" style=""text-align:center; margin-top: 0px; margin-bottom: 0px; font-size: 40px"";>&ensp;</p>",-,viewing,0,2,"4C,17B",,,,,,,,,,,,,
,,,,,html-slider-response,290,613927,0.0-25.0-1.27,320c3ad2-b2ad-4b68-81b8-648f6021ea3d,1959,"
                  <p style=""text-align: center;"">₪4
                                                <br>50%</p>
                  <p id=""wtp"" style=""text-align:center; margin-top: 0px; margin-bottom: 0px; font-size: 40px"";>מוכנים לשלם: <span id=""c_p_y""></span></p>",2,evaluation,49,2,"4C,17B",50,4,2,,,,,,,,,,
,,,,,html-keyboard-response,291,615411,0.0-25.0-2.27,320c3ad2-b2ad-4b68-81b8-648f6021ea3d,null,"<p style=""text-align: center;"">+</p>",null,fixation,,,,,,,,,,,,,,,,
,,,,,html-slider-response,292,616414,0.0-25.0-0.28,320c3ad2-b2ad-4b68-81b8-648f6021ea3d,1000,"
                  <p style=""text-align: center;"">₪43
                                                <br>75%</p>
                  <p id=""wtp"" style=""text-align:center; margin-top: 0px; margin-bottom: 0px; font-size: 40px"";>&ensp;</p>",-,viewing,0,18,"11B,19B,24A,26A",,,,,,,,,,,,,
,,,,,html-slider-response,293,620424,0.0-25.0-1.28,320c3ad2-b2ad-4b68-81b8-648f6021ea3d,null,"
                  <p style=""text-align: center;"">₪43
                                                <br>75%</p>
                  <p id=""wtp"" style=""text-align:center; margin-top: 0px; margin-bottom: 0px; font-size: 40px"";>מוכנים לשלם: <span id=""c_p_y""></span></p>",null,evaluation,40,18,"11B,19B,24A,26A",75,43,11,,,,,,,,,,
,,,,,html-keyboard-response,294,621506,0.0-25.0-2.28,320c3ad2-b2ad-4b68-81b8-648f6021ea3d,null,"<p style=""text-align: center;"">+</p>",null,fixation,,,,,,,,,,,,,,,,
,,,,,html-slider-response,295,622509,0.0-25.0-0.29,320c3ad2-b2ad-4b68-81b8-648f6021ea3d,1000,"
                  <p style=""text-align: center;"">₪4
                                                <br>75%</p>
                  <p id=""wtp"" style=""text-align:center; margin-top: 0px; margin-bottom: 0px; font-size: 40px"";>&ensp;</p>",-,viewing,0,3,"12B,20B,23B,27C,29C",,,,,,,,,,,,,
,,,,,html-slider-response,296,624079,0.0-25.0-1.29,320c3ad2-b2ad-4b68-81b8-648f6021ea3d,1570,"
                  <p style=""text-align: center;"">₪4
                                                <br>75%</p>
                  <p id=""wtp"" style=""text-align:center; margin-top: 0px; margin-bottom: 0px; font-size: 40px"";>מוכנים לשלם: <span id=""c_p_y""></span></p>",2,evaluation,40,3,"12B,20B,23B,27C,29C",75,4,3,,,,,,,,,,
,,,,,html-keyboard-response,297,625156,0.0-25.0-2.29,320c3ad2-b2ad-4b68-81b8-648f6021ea3d,null,"<p style=""text-align: center;"">+</p>",null,fixation,,,,,,,,,,,,,,,,
,,,,,html-slider-response,298,626166,0.0-25.0-0.30,320c3ad2-b2ad-4b68-81b8-648f6021ea3d,1000,"
                  <p style=""text-align: center;"">₪11
                                                <br>25%</p>
                  <p id=""wtp"" style=""text-align:center; margin-top: 0px; margin-bottom: 0px; font-size: 40px"";>&ensp;</p>",-,viewing,0,5,"12A,27B,28B,30B",,,,,,,,,,,,,
,,,,,html-slider-response,299,627927,0.0-25.0-1.30,320c3ad2-b2ad-4b68-81b8-648f6021ea3d,1760,"
                  <p style=""text-align: center;"">₪11
                                                <br>25%</p>
                  <p id=""wtp"" style=""text-align:center; margin-top: 0px; margin-bottom: 0px; font-size: 40px"";>מוכנים לשלם: <span id=""c_p_y""></span></p>",3,evaluation,39,5,"12A,27B,28B,30B",25,11,3,,,,,,,,,,
,,,,,html-keyboard-response,300,628797,0.0-25.0-2.30,320c3ad2-b2ad-4b68-81b8-648f6021ea3d,null,"<p style=""text-align: center;"">+</p>",null,fixation,,,,,,,,,,,,,,,,
,,,,,html-keyboard-response,301,629812,0.0-26.0,320c3ad2-b2ad-4b68-81b8-648f6021ea3d,null,"<p style=""text-align: center;"">+</p>",null,fixation,,,,,,,,,,,,,,,,
,,,,,html-keyboard-response,302,630527,0.0-27.0,320c3ad2-b2ad-4b68-81b8-648f6021ea3d,null,,null,delay,,,,,,,,,,,,,,,,
,,,,,html-keyboard-response,303,633992,0.0-28.0,320c3ad2-b2ad-4b68-81b8-648f6021ea3d,3464,"
        <h1>יפה מאוד! סיימתם את חלק 1!</h1>
        <p>מיד נעבור לחלק 2.</p>
        <p>לחצו רווח במקלדת כדי להמשיך.</p>", ,instructions,,,,,,,,,,,,,,,,
,,,,,html-keyboard-response,304,644624,0.0-29.0,320c3ad2-b2ad-4b68-81b8-648f6021ea3d,10568,"
          <h1>חלק 2</h1>
          <p>בחלק זה יוצגו בפניכם שתי הגרלות.
          <br>אתם מתבקשים לבחור את ההגרלה שתרצו להשתתף בה.
          <br>שימו לב! בסוף הניסוי נבחר שלב אחד באקראי ונממש את ההגרלה שבחרתם. כלומר, הבחירה שלכם יכולה להפוך לכסף אמיתי.
          <br><br>לחצו רווח כדי להמשיך.</p>", ,instructions,,,,,,,,,,,,,,,,
,,,,,html-keyboard-response,305,661856,0.0-30.0,320c3ad2-b2ad-4b68-81b8-648f6021ea3d,16520,"
          <p>בואו נתחיל בדוגמה:
          <br>לפניכם שתי הגרלות.
          <br>לחצו 'A' אם אתם מעדיפים את ההגרלה השמאלית
          <br>לחצו 'D' אם אתם מעדיפים את ההגרלה הימנית
          <p class=""lotteries"">
            <span><img src='img/A.png', width=""30""></span>
            <span><img src='img/D.png', width=""30""></span>
          </p>
          <p class=""lotteries"">
            <span>₪39</span>
            <span>₪54</span>
          </p>
          <p class=""lotteries"">
            <span>65%</span>
            <span>35%</span>
          </p>",d,example,,,,,,,,,,,,,,,,
,,,,,html-keyboard-response,306,665112,0.0-31.0,320c3ad2-b2ad-4b68-81b8-648f6021ea3d,2541,"<p>יפה מאוד!
                  <br>בחרתם את ההגרלה הימנית. נשמע נכון?
                  <br>בואו ננסה דוגמה נוספת:</p>
                  <p class=""lotteries"">
                    <span><img src='img/A.png', width=""30""></span>
                    <span><img src='img/D.png', width=""30""></span>
                  </p>
                  <p class=""lotteries"">
                    <span>₪29</span>
                    <span>₪43</span>
                  </p>
                  <p class=""lotteries"">
                    <span>30%</span>
                    <span>65%</span>
                  </p>",a,example,,,,,,,,,,,,,,,,
,,,,,html-keyboard-response,307,670720,0.0-32.0,320c3ad2-b2ad-4b68-81b8-648f6021ea3d,4906,"<p>יפה. כעת בחרתם את ההגרלה השמאלית. 
                  <br>מיד נתחיל בניסוי.
                  <br>אתם תראו זוגות של הגרלות ותתבקשו לבחור את ההגרלה המועדפת עליכם.
                  <br><br>לחצו רווח כדי להמשיך.</p>", ,instructions,,,,,,,,,,,,,,,,
,,,,,html-keyboard-response,308,672005,0.0-33.0-0.0,320c3ad2-b2ad-4b68-81b8-648f6021ea3d,null,"<p style=""text-align: center;"">+</p>",null,fixation,,,,,,,,,,,,,,,,
,,,,,html-keyboard-response,309,681640,0.0-33.0-1.0,320c3ad2-b2ad-4b68-81b8-648f6021ea3d,9634,"
