"success","timeout","failed_images","failed_audio","failed_video","trial_type","trial_index","time_elapsed","internal_node_id","subject_id","rt","stimulus","response","part","slider_start","ID","set_ID","prob","amount","last_location","actual_choice","actual_EV","binary_id","trinary_id","catch","A_key","D_key","choice_prob","choice_amount","won_prize","potential_prize_amount","potential_prize_prob","total_prize","accuracy"
"true","false","[]","[]","[]","preload","0","4","0.0-0.0","70786636-f4bf-474e-9144-0533ce8a48dd","","","","","","","","","","","","","","","","","","","","","","","",""
"","","","","","html-keyboard-response","1","10753","0.0-1.0","70786636-f4bf-474e-9144-0533ce8a48dd","null","
          <h1>שלום וברוכים הבאים!</h1>
          <p>לפניכם ניסוי בקבלת החלטות עם שני חלקים.
          <br><br>לחצו על העכבר כדי להמשיך.</p>","0","example","","","","","","","","","","","","","","","","","","","",""
"","","","","","html-keyboard-response","2","24097","0.0-2.0","70786636-f4bf-474e-9144-0533ce8a48dd","null","
        <h1>חלק 1</h1>
        <p>בקרוב יוצגו בפניכם הגרלות.
        <br>עליכם לבחור את המחיר המירבי שתהיו מוכנים לשלם כדי להשתתף בהגרלה שתוצג.
        <br>יש לכם תקציב של ₪80 לכל הגרלה. 
        <br>נסו להעריך כל הגרלה בנפרד ולחשוב כמה היא שווה עבורכם, ₪80 זמינים לכל הגרלה בנפרד.
        <br><br>לחצו על העכבר כדי להמשיך.</p>","1","instructions","","","","","","","","","","","","","","","","","","","",""
"","","","","","html-keyboard-response","3","41465","0.0-3.0","70786636-f4bf-474e-9144-0533ce8a48dd","null","
        <p>בסוף הניסוי, המחשב יבחר את אחת ההגרלות ויקבע מחיר לכרטיס עבורה. 
        <br>במידה והמחיר שבחרתם נמוך מהמחיר שנבחר על ידי המחשב, לא תשתתפו בהגרלה ותשארו עם מלוא התקציב.
        <br>במידה והמחיר שבחרתם גבוה מהמחיר שנבחר על ידי המחשב, תשלמו את המחיר שנקבע ותשתתפו בהגרלה.
        <br><br>לחצו על העכבר כדי להמשיך.</p>","1","instructions","","","","","","","","","","","","","","","","","","","",""
"","","","","","html-slider-response","4","65234","0.0-4.0","70786636-f4bf-474e-9144-0533ce8a48dd","23657","
        <p style=""font-size: 42px;"">נתחיל עם דוגמא: 
        <br>ההגרלה מטה מציעה 65% סיכוי לזכות ב-₪40 
        <br>&emsp;&emsp;&emsp;&emsp;&emsp;&emsp;&emsp;&emsp;&ensp;35% סיכוי לזכות ב-₪0.
        <br><br>מה המחיר המירבי שתהיו מוכנים לשלם על כרטיס להגרלה זו בין 0 ל-₪80?
        <br>הזיזו את העכבר על פני המלבן ולחצו כדי לבצע בחירה.</p>
        
        <p style=""text-align: center;"">₪40<br>65%</p>

        <p id=""wtp"" style=""text-align:center; margin-top: 0px; margin-bottom: 0px; font-size: 40px"";>מוכנים לשלם: <span id=""c_p_y""></span></p>","30","example","19","","","","","","","","","","","","","","","","","","",""
"","","","","","html-keyboard-response","5","74553","0.0-5.0","70786636-f4bf-474e-9144-0533ce8a48dd","null","<p>יפה מאוד!
                <br> בחרתם שתהיו מוכנים לשלם ₪30 כדי להשתתף בהגרלה:
                <br><p style=""text-align: center;"">₪40<br>65%</p>
                <p>נשמע נכון?
                <br>נניח שהגרלה זו נבחרה בסוף הניסוי.
                <br>כעת המחשב יקבע מחיר עבורה באקראי.
                <br>לחצו על העכבר להמשך.</p>","1","example","","","","","","","","","","","","","","","","","","","",""
"","","","","","html-keyboard-response","6","92513","0.0-6.0","70786636-f4bf-474e-9144-0533ce8a48dd","null","<p>המחשב קבע מחיר: ₪41
                <br>ואתם בחרתם לשלם לכל היותר: ₪30
                <br><br>מכיוון שהמחיר שבחרתם נמוך מהמחיר שנקבע, לא תתשתתפו בהגרלה.
                <br>במקרה כזה, בסוף הניסוי תקבלו את כל התקציב ההתחלתי של ₪80.
                <br><br>לחצו על העכבר להמשך.</p>","1","example","","","","","","","","","","","","","","","","","","","",""
"","","","","","html-slider-response","7","109370","0.0-7.0","70786636-f4bf-474e-9144-0533ce8a48dd","16595","<p style=""font-size: 42px;"">הנה עוד דוגמא:
                <br>ההגרלה מטה מציעה 35% סיכוי לזכות ב-₪18 
                <br>&emsp;&emsp;&emsp;&emsp;&emsp;&emsp;&emsp;&emsp;&ensp;65% סיכוי לזכות ב-₪0.</p>
        
                <p style=""text-align: center;"">₪18<br>35%</p>
                <p id=""wtp"" style=""text-align:center; margin-top: 0px; margin-bottom: 0px; font-size: 40px"";>מוכנים לשלם: <span id=""c_p_y""></span></p>","18","example","66","","","","","","","","","","","","","","","","","","",""
"","","","","","html-keyboard-response","8","114705","0.0-8.0","70786636-f4bf-474e-9144-0533ce8a48dd","null","<p>הייתם מוכנים לשלם  ₪18 כדי להשתתף בהגרלה:
                <p style=""text-align: center;"">₪18<br>35%</p>
                <p>כעת נניח שהמחשב בחר את ההגרלה הזו בסוף הניסוי, וקבע עבורה מחיר.
                <br><br>לחצו על העכבר כדי להמשיך.</p>","1","instructions","","","","","","","","","","","","","","","","","","","",""
"","","","","","html-keyboard-response","9","136498","0.0-9.0","70786636-f4bf-474e-9144-0533ce8a48dd","null","<p>המחשב קבע מחיר להגרלה: ₪16<br>ואתם בחרתם לשלם לכל היותר: ₪18
                <br><br>כעת המחיר שנקבע נמוך מזה שבחרתם, אז תשלמו את המחיר שקבע המחשב (₪16) ותשתתפו בהגרלה.
                <br>במקרה כזה, תסיימו את הניסוי עם תקציב של ₪64 ועם סיכוי לזכות ב-₪18 נוספים מההגרלה.
                <br>כלומר, תוכלו לקבל ₪64 אם לא תזכו בהגרלה, או ₪82 אם תזכו בהגרלה.
                <br><br>לחצו על העכבר להמשך.</p>","1","example","","","","","","","","","","","","","","","","","","","",""
"","","","","","html-keyboard-response","10","148282","0.0-10.0","70786636-f4bf-474e-9144-0533ce8a48dd","null","<p>במהלך הניסוי, קודם תראו את ההגרלה ורק לאחר מכן תוכלו לבחור.
                <p>כמו כן, יהיו לכם מספר שניות מוגבל להגיב.
                <p>בואו ננסה זאת עם ההגרלה הקודמת.
                <br>לחצו על העכבר כדי להמשיך.</p>","1","instructions","","","","","","","","","","","","","","","","","","","",""
"","","","","","html-slider-response","11","149544","0.0-11.0","70786636-f4bf-474e-9144-0533ce8a48dd","1000","
                    <p style=""text-align: center;"">₪18<br>35%</p>
                    <p id=""wtp"" style=""text-align:center; margin-top: 0px; margin-bottom: 0px; font-size: 40px"";>&ensp;</p>","65","instructions","0","","","","","","","","","","","","","","","","","","",""
"","","","","","html-slider-response","12","153813","0.0-12.0","70786636-f4bf-474e-9144-0533ce8a48dd","null","
                    <p style=""text-align: center;"">₪18<br>35%</p>
                    <p id=""wtp"" style=""text-align:center; margin-top: 0px; margin-bottom: 0px; font-size: 40px"";>מוכנים לשלם: <span id=""c_p_y""></span></p>","null","instructions","67","","","","","","","","","","","","","","","","","","",""
"","","","","","html-keyboard-response","13","159594","0.0-13.0","70786636-f4bf-474e-9144-0533ce8a48dd","null","<p>לא הגבתם בזמן המוקצב לתגובה. 
                <br>נסו להגיב מהר יותר בפעם הבאה.
                <br><br>לחצו על העכבר כדי להמשיך.</p>","1","instructions","","","","","","","","","","","","","","","","","","","",""
"","","","","","html-slider-response","14","163754","0.0-14.0-0.0","70786636-f4bf-474e-9144-0533ce8a48dd","3904","
                    <p style=""text-align: center;"">₪40<br>65%</p>
                    <p id=""wtp"" style=""text-align:center; margin-top: 0px; margin-bottom: 0px; font-size: 40px"";>מוכנים לשלם: <span id=""c_p_y""></span></p>","41","instructions","53","","","","","","","","","","","","","","","","","","",""
"","","","","","html-keyboard-response","15","168777","0.0-14.0-1.0","70786636-f4bf-474e-9144-0533ce8a48dd","null","<p>יפה. הפעם בחרתם לשלם לכל היותר ₪41.
                <br><br>לחצו על העכבר כדי להמשיך.</p>","1","instructions","","","","","","","","","","","","","","","","","","","",""
"","","","","","html-keyboard-response","16","180538","0.0-15.0","70786636-f4bf-474e-9144-0533ce8a48dd","null","<p>כעת נתחיל את הניסוי.
                <br><br>אתם תראו הגרלות ותתבקשו לבחור כמה תהיו מוכנים לשלם כדי להשתתף בהן.
                <br>יש לכם תקציב של ₪80 עבור כל הגרלה.
                <br>בסוף הניסוי הגרלה אחת תבחר באקראי ותשוחק.
                <br><br>לחצו על העכבר כדי להתחיל את הניסוי.</p>","1","instructions","","","","","","","","","","","","","","","","","","","",""
"","","","","","html-keyboard-response","17","181789","0.0-16.0","70786636-f4bf-474e-9144-0533ce8a48dd","null","<p style=""text-align: center;"">+</p>","null","fixation","","","","","","","","","","","","","","","","","","","",""
"","","","","","html-slider-response","18","182792","0.0-17.0-0.0","70786636-f4bf-474e-9144-0533ce8a48dd","1000","
                  <p style=""text-align: center;"">₪36
                                                <br>60%</p>
                  <p id=""wtp"" style=""text-align:center; margin-top: 0px; margin-bottom: 0px; font-size: 40px"";>&ensp;</p>","-","viewing","0","12","1C,7C,15C","","","","","","","","","","","","","","","","",""
"","","","","","html-slider-response","19","186794","0.0-17.0-1.0","70786636-f4bf-474e-9144-0533ce8a48dd","null","
                  <p style=""text-align: center;"">₪36
                                                <br>60%</p>
                  <p id=""wtp"" style=""text-align:center; margin-top: 0px; margin-bottom: 0px; font-size: 40px"";>מוכנים לשלם: <span id=""c_p_y""></span></p>","null","evaluation","56","12","1C,7C,15C","60","36","40","","","","","","","","","","","","","",""
"","","","","","html-keyboard-response","20","188097","0.0-17.0-2.0","70786636-f4bf-474e-9144-0533ce8a48dd","null","<p style=""text-align: center;"">+</p>","null","fixation","","","","","","","","","","","","","","","","","","","",""
"","","","","","html-slider-response","21","189112","0.0-17.0-0.1","70786636-f4bf-474e-9144-0533ce8a48dd","1000","
                  <p style=""text-align: center;"">₪71
                                                <br>75%</p>
                  <p id=""wtp"" style=""text-align:center; margin-top: 0px; margin-bottom: 0px; font-size: 40px"";>&ensp;</p>","-","viewing","0","28","8B","","","","","","","","","","","","","","","","",""
"","","","","","html-slider-response","22","191218","0.0-17.0-1.1","70786636-f4bf-474e-9144-0533ce8a48dd","2105","
                  <p style=""text-align: center;"">₪71
                                                <br>75%</p>
                  <p id=""wtp"" style=""text-align:center; margin-top: 0px; margin-bottom: 0px; font-size: 40px"";>מוכנים לשלם: <span id=""c_p_y""></span></p>","52","evaluation","76","28","8B","75","71","52","","","","","","","","","","","","","",""
"","","","","","html-keyboard-response","23","192719","0.0-17.0-2.1","70786636-f4bf-474e-9144-0533ce8a48dd","null","<p style=""text-align: center;"">+</p>","null","fixation","","","","","","","","","","","","","","","","","","","",""
"","","","","","html-slider-response","24","193722","0.0-17.0-0.2","70786636-f4bf-474e-9144-0533ce8a48dd","1000","
                  <p style=""text-align: center;"">₪58
                                                <br>40%</p>
                  <p id=""wtp"" style=""text-align:center; margin-top: 0px; margin-bottom: 0px; font-size: 40px"";>&ensp;</p>","-","viewing","0","20","10C,13A,19C,21B","","","","","","","","","","","","","","","","",""
"","","","","","html-slider-response","25","197241","0.0-17.0-1.2","70786636-f4bf-474e-9144-0533ce8a48dd","3519","
                  <p style=""text-align: center;"">₪58
                                                <br>40%</p>
                  <p id=""wtp"" style=""text-align:center; margin-top: 0px; margin-bottom: 0px; font-size: 40px"";>מוכנים לשלם: <span id=""c_p_y""></span></p>","20","evaluation","25","20","10C,13A,19C,21B","40","58","21","","","","","","","","","","","","","",""
"","","","","","html-keyboard-response","26","198575","0.0-17.0-2.2","70786636-f4bf-474e-9144-0533ce8a48dd","null","<p style=""text-align: center;"">+</p>","null","fixation","","","","","","","","","","","","","","","","","","","",""
"","","","","","html-slider-response","27","199589","0.0-17.0-0.3","70786636-f4bf-474e-9144-0533ce8a48dd","1000","
                  <p style=""text-align: center;"">₪64
                                                <br>50%</p>
                  <p id=""wtp"" style=""text-align:center; margin-top: 0px; margin-bottom: 0px; font-size: 40px"";>&ensp;</p>","-","viewing","0","25","1B,3B,4A","","","","","","","","","","","","","","","","",""
"","","","","","html-slider-response","28","202193","0.0-17.0-1.3","70786636-f4bf-474e-9144-0533ce8a48dd","2603","
                  <p style=""text-align: center;"">₪64
                                                <br>50%</p>
                  <p id=""wtp"" style=""text-align:center; margin-top: 0px; margin-bottom: 0px; font-size: 40px"";>מוכנים לשלם: <span id=""c_p_y""></span></p>","42","evaluation","15","25","1B,3B,4A","50","64","42","","","","","","","","","","","","","",""
"","","","","","html-keyboard-response","29","203684","0.0-17.0-2.3","70786636-f4bf-474e-9144-0533ce8a48dd","null","<p style=""text-align: center;"">+</p>","null","fixation","","","","","","","","","","","","","","","","","","","",""
"","","","","","html-slider-response","30","204701","0.0-17.0-0.4","70786636-f4bf-474e-9144-0533ce8a48dd","1000","
                  <p style=""text-align: center;"">₪11
                                                <br>25%</p>
                  <p id=""wtp"" style=""text-align:center; margin-top: 0px; margin-bottom: 0px; font-size: 40px"";>&ensp;</p>","-","viewing","0","5","12A,27B,28B,30B","","","","","","","","","","","","","","","","",""
"","","","","","html-slider-response","31","206201","0.0-17.0-1.4","70786636-f4bf-474e-9144-0533ce8a48dd","1499","
                  <p style=""text-align: center;"">₪11
                                                <br>25%</p>
                  <p id=""wtp"" style=""text-align:center; margin-top: 0px; margin-bottom: 0px; font-size: 40px"";>מוכנים לשלם: <span id=""c_p_y""></span></p>","4","evaluation","6","5","12A,27B,28B,30B","25","11","4","","","","","","","","","","","","","",""
"","","","","","html-keyboard-response","32","206953","0.0-17.0-2.4","70786636-f4bf-474e-9144-0533ce8a48dd","null","<p style=""text-align: center;"">+</p>","null","fixation","","","","","","","","","","","","","","","","","","","",""
"","","","","","html-slider-response","33","207956","0.0-17.0-0.5","70786636-f4bf-474e-9144-0533ce8a48dd","1000","
                  <p style=""text-align: center;"">₪36
                                                <br>30%</p>
                  <p id=""wtp"" style=""text-align:center; margin-top: 0px; margin-bottom: 0px; font-size: 40px"";>&ensp;</p>","-","viewing","0","11","3C,20A,22A","","","","","","","","","","","","","","","","",""
"","","","","","html-slider-response","34","210769","0.0-17.0-1.5","70786636-f4bf-474e-9144-0533ce8a48dd","2812","
                  <p style=""text-align: center;"">₪36
                                                <br>30%</p>
                  <p id=""wtp"" style=""text-align:center; margin-top: 0px; margin-bottom: 0px; font-size: 40px"";>מוכנים לשלם: <span id=""c_p_y""></span></p>","8","evaluation","31","11","3C,20A,22A","30","36","9","","","","","","","","","","","","","",""
"","","","","","html-keyboard-response","35","211806","0.0-17.0-2.5","70786636-f4bf-474e-9144-0533ce8a48dd","null","<p style=""text-align: center;"">+</p>","null","fixation","","","","","","","","","","","","","","","","","","","",""
"","","","","","html-slider-response","36","212822","0.0-17.0-0.6","70786636-f4bf-474e-9144-0533ce8a48dd","1000","
                  <p style=""text-align: center;"">₪43
                                                <br>75%</p>
                  <p id=""wtp"" style=""text-align:center; margin-top: 0px; margin-bottom: 0px; font-size: 40px"";>&ensp;</p>","-","viewing","0","18","11B,19B,24A,26A","","","","","","","","","","","","","","","","",""
"","","","","","html-slider-response","37","215545","0.0-17.0-1.6","70786636-f4bf-474e-9144-0533ce8a48dd","2721","
                  <p style=""text-align: center;"">₪43
                                                <br>75%</p>
                  <p id=""wtp"" style=""text-align:center; margin-top: 0px; margin-bottom: 0px; font-size: 40px"";>מוכנים לשלם: <span id=""c_p_y""></span></p>","40","evaluation","78","18","11B,19B,24A,26A","75","43","40","","","","","","","","","","","","","",""
"","","","","","html-keyboard-response","38","216429","0.0-17.0-2.6","70786636-f4bf-474e-9144-0533ce8a48dd","null","<p style=""text-align: center;"">+</p>","null","fixation","","","","","","","","","","","","","","","","","","","",""
"","","","","","html-slider-response","39","217439","0.0-17.0-0.7","70786636-f4bf-474e-9144-0533ce8a48dd","1000","
                  <p style=""text-align: center;"">₪79
                                                <br>65%</p>
                  <p id=""wtp"" style=""text-align:center; margin-top: 0px; margin-bottom: 0px; font-size: 40px"";>&ensp;</p>","-","viewing","0","31","8A","","","","","","","","","","","","","","","","",""
"","","","","","html-slider-response","40","221449","0.0-17.0-1.7","70786636-f4bf-474e-9144-0533ce8a48dd","null","
                  <p style=""text-align: center;"">₪79
                                                <br>65%</p>
                  <p id=""wtp"" style=""text-align:center; margin-top: 0px; margin-bottom: 0px; font-size: 40px"";>מוכנים לשלם: <span id=""c_p_y""></span></p>","null","evaluation","13","31","8A","65","79","56","","","","","","","","","","","","","",""
"","","","","","html-keyboard-response","41","222899","0.0-17.0-2.7","70786636-f4bf-474e-9144-0533ce8a48dd","null","<p style=""text-align: center;"">+</p>","null","fixation","","","","","","","","","","","","","","","","","","","",""
"","","","","","html-slider-response","42","223914","0.0-17.0-0.8","70786636-f4bf-474e-9144-0533ce8a48dd","1000","
                  <p style=""text-align: center;"">₪11
                                                <br>20%</p>
                  <p id=""wtp"" style=""text-align:center; margin-top: 0px; margin-bottom: 0px; font-size: 40px"";>&ensp;</p>","-","viewing","0","4","12C,17C,23C,28C","","","","","","","","","","","","","","","","",""
"","","","","","html-slider-response","43","226377","0.0-17.0-1.8","70786636-f4bf-474e-9144-0533ce8a48dd","2461","
                  <p style=""text-align: center;"">₪11
                                                <br>20%</p>
                  <p id=""wtp"" style=""text-align:center; margin-top: 0px; margin-bottom: 0px; font-size: 40px"";>מוכנים לשלם: <span id=""c_p_y""></span></p>","0","evaluation","44","4","12C,17C,23C,28C","20","11","1","","","","","","","","","","","","","",""
"","","","","","html-keyboard-response","44","227527","0.0-17.0-2.8","70786636-f4bf-474e-9144-0533ce8a48dd","null","<p style=""text-align: center;"">+</p>","null","fixation","","","","","","","","","","","","","","","","","","","",""
"","","","","","html-slider-response","45","228531","0.0-17.0-0.9","70786636-f4bf-474e-9144-0533ce8a48dd","1000","
                  <p style=""text-align: center;"">₪11
                                                <br>75%</p>
                  <p id=""wtp"" style=""text-align:center; margin-top: 0px; margin-bottom: 0px; font-size: 40px"";>&ensp;</p>","-","viewing","0","7","6B,18B,22C,24C,29A","","","","","","","","","","","","","","","","",""
"","","","","","html-slider-response","46","230721","0.0-17.0-1.9","70786636-f4bf-474e-9144-0533ce8a48dd","2188","
                  <p style=""text-align: center;"">₪11
                                                <br>75%</p>
                  <p id=""wtp"" style=""text-align:center; margin-top: 0px; margin-bottom: 0px; font-size: 40px"";>מוכנים לשלם: <span id=""c_p_y""></span></p>","15","evaluation","65","7","6B,18B,22C,24C,29A","75","11","15","","","","","","","","","","","","","",""
"","","","","","html-keyboard-response","47","231626","0.0-17.0-2.9","70786636-f4bf-474e-9144-0533ce8a48dd","null","<p style=""text-align: center;"">+</p>","null","fixation","","","","","","","","","","","","","","","","","","","",""
"","","","","","html-slider-response","48","232633","0.0-17.0-0.10","70786636-f4bf-474e-9144-0533ce8a48dd","1000","
                  <p style=""text-align: center;"">₪76
                                                <br>65%</p>
                  <p id=""wtp"" style=""text-align:center; margin-top: 0px; margin-bottom: 0px; font-size: 40px"";>&ensp;</p>","-","viewing","0","29","8C,19A,24B","","","","","","","","","","","","","","","","",""
"","","","","","html-slider-response","49","235225","0.0-17.0-1.10","70786636-f4bf-474e-9144-0533ce8a48dd","2590","
                  <p style=""text-align: center;"">₪76
                                                <br>65%</p>
                  <p id=""wtp"" style=""text-align:center; margin-top: 0px; margin-bottom: 0px; font-size: 40px"";>מוכנים לשלם: <span id=""c_p_y""></span></p>","50","evaluation","28","29","8C,19A,24B","65","76","50","","","","","","","","","","","","","",""
"","","","","","html-keyboard-response","50","236262","0.0-17.0-2.10","70786636-f4bf-474e-9144-0533ce8a48dd","null","<p style=""text-align: center;"">+</p>","null","fixation","","","","","","","","","","","","","","","","","","","",""
"","","","","","html-slider-response","51","237281","0.0-17.0-0.11","70786636-f4bf-474e-9144-0533ce8a48dd","1000","
                  <p style=""text-align: center;"">₪18
                                                <br>25%</p>
                  <p id=""wtp"" style=""text-align:center; margin-top: 0px; margin-bottom: 0px; font-size: 40px"";>&ensp;</p>","-","viewing","0","9","14A,23A","","","","","","","","","","","","","","","","",""
"","","","","","html-slider-response","52","240777","0.0-17.0-1.11","70786636-f4bf-474e-9144-0533ce8a48dd","3495","
                  <p style=""text-align: center;"">₪18
                                                <br>25%</p>
                  <p id=""wtp"" style=""text-align:center; margin-top: 0px; margin-bottom: 0px; font-size: 40px"";>מוכנים לשלם: <span id=""c_p_y""></span></p>","16","evaluation","51","9","14A,23A","25","18","16","","","","","","","","","","","","","",""
"","","","","","html-keyboard-response","53","241440","0.0-17.0-2.11","70786636-f4bf-474e-9144-0533ce8a48dd","null","<p style=""text-align: center;"">+</p>","null","fixation","","","","","","","","","","","","","","","","","","","",""
"","","","","","html-slider-response","54","242448","0.0-17.0-0.12","70786636-f4bf-474e-9144-0533ce8a48dd","1000","
                  <p style=""text-align: center;"">₪43
                                                <br>60%</p>
                  <p id=""wtp"" style=""text-align:center; margin-top: 0px; margin-bottom: 0px; font-size: 40px"";>&ensp;</p>","-","viewing","0","17","2A,7A,9A,15B","","","","","","","","","","","","","","","","",""
"","","","","","html-slider-response","55","245937","0.0-17.0-1.12","70786636-f4bf-474e-9144-0533ce8a48dd","3488","
                  <p style=""text-align: center;"">₪43
                                                <br>60%</p>
                  <p id=""wtp"" style=""text-align:center; margin-top: 0px; margin-bottom: 0px; font-size: 40px"";>מוכנים לשלם: <span id=""c_p_y""></span></p>","33","evaluation","3","17","2A,7A,9A,15B","60","43","33","","","","","","","","","","","","","",""
"","","","","","html-keyboard-response","56","246610","0.0-17.0-2.12","70786636-f4bf-474e-9144-0533ce8a48dd","null","<p style=""text-align: center;"">+</p>","null","fixation","","","","","","","","","","","","","","","","","","","",""
"","","","","","html-slider-response","57","247623","0.0-17.0-0.13","70786636-f4bf-474e-9144-0533ce8a48dd","1000","
                  <p style=""text-align: center;"">₪61
                                                <br>45%</p>
                  <p id=""wtp"" style=""text-align:center; margin-top: 0px; margin-bottom: 0px; font-size: 40px"";>&ensp;</p>","-","viewing","0","22","10A,11A","","","","","","","","","","","","","","","","",""
"","","","","","html-slider-response","58","251632","0.0-17.0-1.13","70786636-f4bf-474e-9144-0533ce8a48dd","null","
                  <p style=""text-align: center;"">₪61
                                                <br>45%</p>
                  <p id=""wtp"" style=""text-align:center; margin-top: 0px; margin-bottom: 0px; font-size: 40px"";>מוכנים לשלם: <span id=""c_p_y""></span></p>","null","evaluation","67","22","10A,11A","45","61","33","","","","","","","","","","","","","",""
"","","","","","html-keyboard-response","59","252680","0.0-17.0-2.13","70786636-f4bf-474e-9144-0533ce8a48dd","null","<p style=""text-align: center;"">+</p>","null","fixation","","","","","","","","","","","","","","","","","","","",""
"","","","","","html-slider-response","60","253682","0.0-17.0-0.14","70786636-f4bf-474e-9144-0533ce8a48dd","1000","
                  <p style=""text-align: center;"">₪39
                                                <br>60%</p>
                  <p id=""wtp"" style=""text-align:center; margin-top: 0px; margin-bottom: 0px; font-size: 40px"";>&ensp;</p>","-","viewing","0","15","9C,25B","","","","","","","","","","","","","","","","",""
"","","","","","html-slider-response","61","255873","0.0-17.0-1.14","70786636-f4bf-474e-9144-0533ce8a48dd","2189","
                  <p style=""text-align: center;"">₪39
                                                <br>60%</p>
                  <p id=""wtp"" style=""text-align:center; margin-top: 0px; margin-bottom: 0px; font-size: 40px"";>מוכנים לשלם: <span id=""c_p_y""></span></p>","40","evaluation","80","15","9C,25B","60","39","40","","","","","","","","","","","","","",""
"","","","","","html-keyboard-response","62","257287","0.0-17.0-2.14","70786636-f4bf-474e-9144-0533ce8a48dd","null","<p style=""text-align: center;"">+</p>","null","fixation","","","","","","","","","","","","","","","","","","","",""
"","","","","","html-slider-response","63","258297","0.0-17.0-0.15","70786636-f4bf-474e-9144-0533ce8a48dd","1000","
                  <p style=""text-align: center;"">₪36
                                                <br>75%</p>
                  <p id=""wtp"" style=""text-align:center; margin-top: 0px; margin-bottom: 0px; font-size: 40px"";>&ensp;</p>","-","viewing","0","14","4B,5A,13B,16B","","","","","","","","","","","","","","","","",""
"","","","","","html-slider-response","64","261026","0.0-17.0-1.15","70786636-f4bf-474e-9144-0533ce8a48dd","2727","
                  <p style=""text-align: center;"">₪36
                                                <br>75%</p>
                  <p id=""wtp"" style=""text-align:center; margin-top: 0px; margin-bottom: 0px; font-size: 40px"";>מוכנים לשלם: <span id=""c_p_y""></span></p>","29","evaluation","72","14","4B,5A,13B,16B","75","36","29","","","","","","","","","","","","","",""
"","","","","","html-keyboard-response","65","262044","0.0-17.0-2.15","70786636-f4bf-474e-9144-0533ce8a48dd","null","<p style=""text-align: center;"">+</p>","null","fixation","","","","","","","","","","","","","","","","","","","",""
"","","","","","html-slider-response","66","263052","0.0-17.0-0.16","70786636-f4bf-474e-9144-0533ce8a48dd","1000","
                  <p style=""text-align: center;"">₪4
                                                <br>25%</p>
                  <p id=""wtp"" style=""text-align:center; margin-top: 0px; margin-bottom: 0px; font-size: 40px"";>&ensp;</p>","-","viewing","0","1","6C,29B,30C","","","","","","","","","","","","","","","","",""
"","","","","","html-slider-response","67","264858","0.0-17.0-1.16","70786636-f4bf-474e-9144-0533ce8a48dd","1805","
                  <p style=""text-align: center;"">₪4
                                                <br>25%</p>
                  <p id=""wtp"" style=""text-align:center; margin-top: 0px; margin-bottom: 0px; font-size: 40px"";>מוכנים לשלם: <span id=""c_p_y""></span></p>","0","evaluation","8","1","6C,29B,30C","25","4","1","","","","","","","","","","","","","",""
"","","","","","html-keyboard-response","68","266351","0.0-17.0-2.16","70786636-f4bf-474e-9144-0533ce8a48dd","null","<p style=""text-align: center;"">+</p>","null","fixation","","","","","","","","","","","","","","","","","","","",""
"","","","","","html-slider-response","69","267367","0.0-17.0-0.17","70786636-f4bf-474e-9144-0533ce8a48dd","1000","
                  <p style=""text-align: center;"">₪4
                                                <br>75%</p>
                  <p id=""wtp"" style=""text-align:center; margin-top: 0px; margin-bottom: 0px; font-size: 40px"";>&ensp;</p>","-","viewing","0","3","12B,20B,23B,27C,29C","","","","","","","","","","","","","","","","",""
"","","","","","html-slider-response","70","270129","0.0-17.0-1.17","70786636-f4bf-474e-9144-0533ce8a48dd","2761","
                  <p style=""text-align: center;"">₪4
                                                <br>75%</p>
                  <p id=""wtp"" style=""text-align:center; margin-top: 0px; margin-bottom: 0px; font-size: 40px"";>מוכנים לשלם: <span id=""c_p_y""></span></p>","0","evaluation","38","3","12B,20B,23B,27C,29C","75","4","0","","","","","","","","","","","","","",""
"","","","","","html-keyboard-response","71","271510","0.0-17.0-2.17","70786636-f4bf-474e-9144-0533ce8a48dd","null","<p style=""text-align: center;"">+</p>","null","fixation","","","","","","","","","","","","","","","","","","","",""
"","","","","","html-slider-response","72","272513","0.0-17.0-0.18","70786636-f4bf-474e-9144-0533ce8a48dd","1000","
                  <p style=""text-align: center;"">₪4
                                                <br>50%</p>
                  <p id=""wtp"" style=""text-align:center; margin-top: 0px; margin-bottom: 0px; font-size: 40px"";>&ensp;</p>","-","viewing","0","2","4C,17B","","","","","","","","","","","","","","","","",""
"","","","","","html-slider-response","73","275130","0.0-17.0-1.18","70786636-f4bf-474e-9144-0533ce8a48dd","2615","
                  <p style=""text-align: center;"">₪4
                                                <br>50%</p>
                  <p id=""wtp"" style=""text-align:center; margin-top: 0px; margin-bottom: 0px; font-size: 40px"";>מוכנים לשלם: <span id=""c_p_y""></span></p>","0","evaluation","42","2","4C,17B","50","4","0","","","","","","","","","","","","","",""
"","","","","","html-keyboard-response","74","275899","0.0-17.0-2.18","70786636-f4bf-474e-9144-0533ce8a48dd","null","<p style=""text-align: center;"">+</p>","null","fixation","","","","","","","","","","","","","","","","","","","",""
"","","","","","html-slider-response","75","276904","0.0-17.0-0.19","70786636-f4bf-474e-9144-0533ce8a48dd","1000","
                  <p style=""text-align: center;"">₪79
                                                <br>40%</p>
                  <p id=""wtp"" style=""text-align:center; margin-top: 0px; margin-bottom: 0px; font-size: 40px"";>&ensp;</p>","-","viewing","0","30","9B","","","","","","","","","","","","","","","","",""
"","","","","","html-slider-response","76","280918","0.0-17.0-1.19","70786636-f4bf-474e-9144-0533ce8a48dd","null","
                  <p style=""text-align: center;"">₪79
                                                <br>40%</p>
                  <p id=""wtp"" style=""text-align:center; margin-top: 0px; margin-bottom: 0px; font-size: 40px"";>מוכנים לשלם: <span id=""c_p_y""></span></p>","null","evaluation","38","30","9B","40","79","41","","","","","","","","","","","","","",""
"","","","","","html-keyboard-response","77","281995","0.0-17.0-2.19","70786636-f4bf-474e-9144-0533ce8a48dd","null","<p style=""text-align: center;"">+</p>","null","fixation","","","","","","","","","","","","","","","","","","","",""
"","","","","","html-slider-response","78","283011","0.0-17.0-0.20","70786636-f4bf-474e-9144-0533ce8a48dd","1000","
                  <p style=""text-align: center;"">₪61
                                                <br>55%</p>
                  <p id=""wtp"" style=""text-align:center; margin-top: 0px; margin-bottom: 0px; font-size: 40px"";>&ensp;</p>","-","viewing","0","23","7B,26B","","","","","","","","","","","","","","","","",""
"","","","","","html-slider-response","79","285625","0.0-17.0-1.20","70786636-f4bf-474e-9144-0533ce8a48dd","2612","
                  <p style=""text-align: center;"">₪61
                                                <br>55%</p>
                  <p id=""wtp"" style=""text-align:center; margin-top: 0px; margin-bottom: 0px; font-size: 40px"";>מוכנים לשלם: <span id=""c_p_y""></span></p>","40","evaluation","60","23","7B,26B","55","61","40","","","","","","","","","","","","","",""
"","","","","","html-keyboard-response","80","286672","0.0-17.0-2.20","70786636-f4bf-474e-9144-0533ce8a48dd","null","<p style=""text-align: center;"">+</p>","null","fixation","","","","","","","","","","","","","","","","","","","",""
"","","","","","html-slider-response","81","287674","0.0-17.0-0.21","70786636-f4bf-474e-9144-0533ce8a48dd","1000","
                  <p style=""text-align: center;"">₪58
                                                <br>30%</p>
                  <p id=""wtp"" style=""text-align:center; margin-top: 0px; margin-bottom: 0px; font-size: 40px"";>&ensp;</p>","-","viewing","0","19","13C,30A","","","","","","","","","","","","","","","","",""
"","","","","","html-slider-response","82","290345","0.0-17.0-1.21","70786636-f4bf-474e-9144-0533ce8a48dd","2670","
                  <p style=""text-align: center;"">₪58
                                                <br>30%</p>
                  <p id=""wtp"" style=""text-align:center; margin-top: 0px; margin-bottom: 0px; font-size: 40px"";>מוכנים לשלם: <span id=""c_p_y""></span></p>","25","evaluation","77","19","13C,30A","30","58","25","","","","","","","","","","","","","",""
"","","","","","html-keyboard-response","83","291162","0.0-17.0-2.21","70786636-f4bf-474e-9144-0533ce8a48dd","null","<p style=""text-align: center;"">+</p>","null","fixation","","","","","","","","","","","","","","","","","","","",""
"","","","","","html-slider-response","84","292178","0.0-17.0-0.22","70786636-f4bf-474e-9144-0533ce8a48dd","1000","
                  <p style=""text-align: center;"">₪71
                                                <br>55%</p>
                  <p id=""wtp"" style=""text-align:center; margin-top: 0px; margin-bottom: 0px; font-size: 40px"";>&ensp;</p>","-","viewing","0","27","5B,18A","","","","","","","","","","","","","","","","",""
"","","","","","html-slider-response","85","294441","0.0-17.0-1.22","70786636-f4bf-474e-9144-0533ce8a48dd","2263","
                  <p style=""text-align: center;"">₪71
                                                <br>55%</p>
                  <p id=""wtp"" style=""text-align:center; margin-top: 0px; margin-bottom: 0px; font-size: 40px"";>מוכנים לשלם: <span id=""c_p_y""></span></p>","47","evaluation","33","27","5B,18A","55","71","47","","","","","","","","","","","","","",""
"","","","","","html-keyboard-response","86","295354","0.0-17.0-2.22","70786636-f4bf-474e-9144-0533ce8a48dd","null","<p style=""text-align: center;"">+</p>","null","fixation","","","","","","","","","","","","","","","","","","","",""
"","","","","","html-slider-response","87","296359","0.0-17.0-0.23","70786636-f4bf-474e-9144-0533ce8a48dd","1000","
                  <p style=""text-align: center;"">₪58
                                                <br>45%</p>
                  <p id=""wtp"" style=""text-align:center; margin-top: 0px; margin-bottom: 0px; font-size: 40px"";>&ensp;</p>","-","viewing","0","21","11C,18C,25A","","","","","","","","","","","","","","","","",""
"","","","","","html-slider-response","88","299945","0.0-17.0-1.23","70786636-f4bf-474e-9144-0533ce8a48dd","3585","
                  <p style=""text-align: center;"">₪58
                                                <br>45%</p>
                  <p id=""wtp"" style=""text-align:center; margin-top: 0px; margin-bottom: 0px; font-size: 40px"";>מוכנים לשלם: <span id=""c_p_y""></span></p>","31","evaluation","42","21","11C,18C,25A","45","58","31","","","","","","","","","","","","","",""
"","","","","","html-keyboard-response","89","300848","0.0-17.0-2.23","70786636-f4bf-474e-9144-0533ce8a48dd","null","<p style=""text-align: center;"">+</p>","null","fixation","","","","","","","","","","","","","","","","","","","",""
"","","","","","html-slider-response","90","301863","0.0-17.0-0.24","70786636-f4bf-474e-9144-0533ce8a48dd","1000","
                  <p style=""text-align: center;"">₪11
                                                <br>45%</p>
                  <p id=""wtp"" style=""text-align:center; margin-top: 0px; margin-bottom: 0px; font-size: 40px"";>&ensp;</p>","-","viewing","0","6","14B,21C,25C","","","","","","","","","","","","","","","","",""
"","","","","","html-slider-response","91","305193","0.0-17.0-1.24","70786636-f4bf-474e-9144-0533ce8a48dd","3329","
                  <p style=""text-align: center;"">₪11
                                                <br>45%</p>
                  <p id=""wtp"" style=""text-align:center; margin-top: 0px; margin-bottom: 0px; font-size: 40px"";>מוכנים לשלם: <span id=""c_p_y""></span></p>","5","evaluation","48","6","14B,21C,25C","45","11","5","","","","","","","","","","","","","",""
"","","","","","html-keyboard-response","92","306626","0.0-17.0-2.24","70786636-f4bf-474e-9144-0533ce8a48dd","null","<p style=""text-align: center;"">+</p>","null","fixation","","","","","","","","","","","","","","","","","","","",""
"","","","","","html-slider-response","93","307635","0.0-17.0-0.25","70786636-f4bf-474e-9144-0533ce8a48dd","1000","
                  <p style=""text-align: center;"">₪64
                                                <br>25%</p>
                  <p id=""wtp"" style=""text-align:center; margin-top: 0px; margin-bottom: 0px; font-size: 40px"";>&ensp;</p>","-","viewing","0","24","6A,21A","","","","","","","","","","","","","","","","",""
"","","","","","html-slider-response","94","311651","0.0-17.0-1.25","70786636-f4bf-474e-9144-0533ce8a48dd","null","
                  <p style=""text-align: center;"">₪64
                                                <br>25%</p>
                  <p id=""wtp"" style=""text-align:center; margin-top: 0px; margin-bottom: 0px; font-size: 40px"";>מוכנים לשלם: <span id=""c_p_y""></span></p>","null","evaluation","61","24","6A,21A","25","64","30","","","","","","","","","","","","","",""
"","","","","","html-keyboard-response","95","312607","0.0-17.0-2.25","70786636-f4bf-474e-9144-0533ce8a48dd","null","<p style=""text-align: center;"">+</p>","null","fixation","","","","","","","","","","","","","","","","","","","",""
"","","","","","html-slider-response","96","313610","0.0-17.0-0.26","70786636-f4bf-474e-9144-0533ce8a48dd","1000","
                  <p style=""text-align: center;"">₪36
                                                <br>70%</p>
                  <p id=""wtp"" style=""text-align:center; margin-top: 0px; margin-bottom: 0px; font-size: 40px"";>&ensp;</p>","-","viewing","0","13","3A,5C,10B","","","","","","","","","","","","","","","","",""
"","","","","","html-slider-response","97","317628","0.0-17.0-1.26","70786636-f4bf-474e-9144-0533ce8a48dd","null","
                  <p style=""text-align: center;"">₪36
                                                <br>70%</p>
                  <p id=""wtp"" style=""text-align:center; margin-top: 0px; margin-bottom: 0px; font-size: 40px"";>מוכנים לשלם: <span id=""c_p_y""></span></p>","null","evaluation","30","13","3A,5C,10B","70","36","22","","","","","","","","","","","","","",""
"","","","","","html-keyboard-response","98","318666","0.0-17.0-2.26","70786636-f4bf-474e-9144-0533ce8a48dd","null","<p style=""text-align: center;"">+</p>","null","fixation","","","","","","","","","","","","","","","","","","","",""
"","","","","","html-slider-response","99","319682","0.0-17.0-0.27","70786636-f4bf-474e-9144-0533ce8a48dd","1000","
                  <p style=""text-align: center;"">₪16
                                                <br>20%</p>
                  <p id=""wtp"" style=""text-align:center; margin-top: 0px; margin-bottom: 0px; font-size: 40px"";>&ensp;</p>","-","viewing","0","8","14C,17A,20C,27A","","","","","","","","","","","","","","","","",""
"","","","","","html-slider-response","100","322882","0.0-17.0-1.27","70786636-f4bf-474e-9144-0533ce8a48dd","3199","
                  <p style=""text-align: center;"">₪16
                                                <br>20%</p>
                  <p id=""wtp"" style=""text-align:center; margin-top: 0px; margin-bottom: 0px; font-size: 40px"";>מוכנים לשלם: <span id=""c_p_y""></span></p>","7","evaluation","48","8","14C,17A,20C,27A","20","16","8","","","","","","","","","","","","","",""
"","","","","","html-keyboard-response","101","323757","0.0-17.0-2.27","70786636-f4bf-474e-9144-0533ce8a48dd","null","<p style=""text-align: center;"">+</p>","null","fixation","","","","","","","","","","","","","","","","","","","",""
"","","","","","html-slider-response","102","324764","0.0-17.0-0.28","70786636-f4bf-474e-9144-0533ce8a48dd","1000","
                  <p style=""text-align: center;"">₪71
                                                <br>45%</p>
                  <p id=""wtp"" style=""text-align:center; margin-top: 0px; margin-bottom: 0px; font-size: 40px"";>&ensp;</p>","-","viewing","0","26","2B,16A","","","","","","","","","","","","","","","","",""
"","","","","","html-slider-response","103","327650","0.0-17.0-1.28","70786636-f4bf-474e-9144-0533ce8a48dd","2885","
                  <p style=""text-align: center;"">₪71
                                                <br>45%</p>
                  <p id=""wtp"" style=""text-align:center; margin-top: 0px; margin-bottom: 0px; font-size: 40px"";>מוכנים לשלם: <span id=""c_p_y""></span></p>","49","evaluation","75","26","2B,16A","45","71","49","","","","","","","","","","","","","",""
"","","","","","html-keyboard-response","104","328756","0.0-17.0-2.28","70786636-f4bf-474e-9144-0533ce8a48dd","null","<p style=""text-align: center;"">+</p>","null","fixation","","","","","","","","","","","","","","","","","","","",""
"","","","","","html-slider-response","105","329771","0.0-17.0-0.29","70786636-f4bf-474e-9144-0533ce8a48dd","1000","
                  <p style=""text-align: center;"">₪39
                                                <br>65%</p>
                  <p id=""wtp"" style=""text-align:center; margin-top: 0px; margin-bottom: 0px; font-size: 40px"";>&ensp;</p>","-","viewing","0","16","1A,15A,26C","","","","","","","","","","","","","","","","",""
"","","","","","html-slider-response","106","333410","0.0-17.0-1.29","70786636-f4bf-474e-9144-0533ce8a48dd","3637","
                  <p style=""text-align: center;"">₪39
                                                <br>65%</p>
                  <p id=""wtp"" style=""text-align:center; margin-top: 0px; margin-bottom: 0px; font-size: 40px"";>מוכנים לשלם: <span id=""c_p_y""></span></p>","30","evaluation","19","16","1A,15A,26C","65","39","30","","","","","","","","","","","","","",""
"","","","","","html-keyboard-response","107","333947","0.0-17.0-2.29","70786636-f4bf-474e-9144-0533ce8a48dd","null","<p style=""text-align: center;"">+</p>","null","fixation","","","","","","","","","","","","","","","","","","","",""
"","","","","","html-slider-response","108","334956","0.0-17.0-0.30","70786636-f4bf-474e-9144-0533ce8a48dd","1000","
                  <p style=""text-align: center;"">₪18
                                                <br>50%</p>
                  <p id=""wtp"" style=""text-align:center; margin-top: 0px; margin-bottom: 0px; font-size: 40px"";>&ensp;</p>","-","viewing","0","10","2C,16C,22B,28A","","","","","","","","","","","","","","","","",""
"","","","","","html-slider-response","109","338778","0.0-17.0-1.30","70786636-f4bf-474e-9144-0533ce8a48dd","3820","
                  <p style=""text-align: center;"">₪18
                                                <br>50%</p>
                  <p id=""wtp"" style=""text-align:center; margin-top: 0px; margin-bottom: 0px; font-size: 40px"";>מוכנים לשלם: <span id=""c_p_y""></span></p>","17","evaluation","37","10","2C,16C,22B,28A","50","18","18","","","","","","","","","","","","","",""
"","","","","","html-keyboard-response","110","339539","0.0-17.0-2.30","70786636-f4bf-474e-9144-0533ce8a48dd","null","<p style=""text-align: center;"">+</p>","null","fixation","","","","","","","","","","","","","","","","","","","",""
"","","","","","html-keyboard-response","111","340548","0.0-18.0","70786636-f4bf-474e-9144-0533ce8a48dd","null","<p style=""text-align: center;"">+</p>","null","fixation","","","","","","","","","","","","","","","","","","","",""
"","","","","","html-keyboard-response","112","357497","0.0-19.0","70786636-f4bf-474e-9144-0533ce8a48dd","null","<p>הפסקה.
          <br>לחצו כדי להמשיך.</p>","1","scan_wait","","","","","","","","","","","","","","","","","","","",""
"","","","","","html-keyboard-response","113","358513","0.0-20.0","70786636-f4bf-474e-9144-0533ce8a48dd","null","<p style=""text-align: center;"">+</p>","null","fixation","","","","","","","","","","","","","","","","","","","",""
"","","","","","html-slider-response","114","359523","0.0-21.0-0.0","70786636-f4bf-474e-9144-0533ce8a48dd","1000","
                  <p style=""text-align: center;"">₪79
                                                <br>65%</p>
                  <p id=""wtp"" style=""text-align:center; margin-top: 0px; margin-bottom: 0px; font-size: 40px"";>&ensp;</p>","-","viewing","0","31","8A","","","","","","","","","","","","","","","","",""
"","","","","","html-slider-response","115","361330","0.0-21.0-1.0","70786636-f4bf-474e-9144-0533ce8a48dd","1806","
                  <p style=""text-align: center;"">₪79
                                                <br>65%</p>
                  <p id=""wtp"" style=""text-align:center; margin-top: 0px; margin-bottom: 0px; font-size: 40px"";>מוכנים לשלם: <span id=""c_p_y""></span></p>","61","evaluation","32","31","8A","65","79","61","","","","","","","","","","","","","",""
"","","","","","html-keyboard-response","116","362790","0.0-21.0-2.0","70786636-f4bf-474e-9144-0533ce8a48dd","null","<p style=""text-align: center;"">+</p>","null","fixation","","","","","","","","","","","","","","","","","","","",""
"","","","","","html-slider-response","117","363795","0.0-21.0-0.1","70786636-f4bf-474e-9144-0533ce8a48dd","1000","
                  <p style=""text-align: center;"">₪71
                                                <br>45%</p>
                  <p id=""wtp"" style=""text-align:center; margin-top: 0px; margin-bottom: 0px; font-size: 40px"";>&ensp;</p>","-","viewing","0","26","2B,16A","","","","","","","","","","","","","","","","",""
"","","","","","html-slider-response","118","367298","0.0-21.0-1.1","70786636-f4bf-474e-9144-0533ce8a48dd","3502","
                  <p style=""text-align: center;"">₪71
                                                <br>45%</p>
                  <p id=""wtp"" style=""text-align:center; margin-top: 0px; margin-bottom: 0px; font-size: 40px"";>מוכנים לשלם: <span id=""c_p_y""></span></p>","43","evaluation","60","26","2B,16A","45","71","42","","","","","","","","","","","","","",""
"","","","","","html-keyboard-response","119","368404","0.0-21.0-2.1","70786636-f4bf-474e-9144-0533ce8a48dd","null","<p style=""text-align: center;"">+</p>","null","fixation","","","","","","","","","","","","","","","","","","","",""
"","","","","","html-slider-response","120","369417","0.0-21.0-0.2","70786636-f4bf-474e-9144-0533ce8a48dd","1000","
                  <p style=""text-align: center;"">₪71
                                                <br>75%</p>
                  <p id=""wtp"" style=""text-align:center; margin-top: 0px; margin-bottom: 0px; font-size: 40px"";>&ensp;</p>","-","viewing","0","28","8B","","","","","","","","","","","","","","","","",""
"","","","","","html-slider-response","121","372442","0.0-21.0-1.2","70786636-f4bf-474e-9144-0533ce8a48dd","3023","
                  <p style=""text-align: center;"">₪71
                                                <br>75%</p>
                  <p id=""wtp"" style=""text-align:center; margin-top: 0px; margin-bottom: 0px; font-size: 40px"";>מוכנים לשלם: <span id=""c_p_y""></span></p>","58","evaluation","47","28","8B","75","71","57","","","","","","","","","","","","","",""
"","","","","","html-keyboard-response","122","373475","0.0-21.0-2.2","70786636-f4bf-474e-9144-0533ce8a48dd","null","<p style=""text-align: center;"">+</p>","null","fixation","","","","","","","","","","","","","","","","","","","",""
"","","","","","html-slider-response","123","374480","0.0-21.0-0.3","70786636-f4bf-474e-9144-0533ce8a48dd","1000","
                  <p style=""text-align: center;"">₪11
                                                <br>20%</p>
                  <p id=""wtp"" style=""text-align:center; margin-top: 0px; margin-bottom: 0px; font-size: 40px"";>&ensp;</p>","-","viewing","0","4","12C,17C,23C,28C","","","","","","","","","","","","","","","","",""
"","","","","","html-slider-response","124","377746","0.0-21.0-1.3","70786636-f4bf-474e-9144-0533ce8a48dd","3264","
                  <p style=""text-align: center;"">₪11
                                                <br>20%</p>
                  <p id=""wtp"" style=""text-align:center; margin-top: 0px; margin-bottom: 0px; font-size: 40px"";>מוכנים לשלם: <span id=""c_p_y""></span></p>","6","evaluation","63","4","12C,17C,23C,28C","20","11","6","","","","","","","","","","","","","",""
"","","","","","html-keyboard-response","125","378792","0.0-21.0-2.3","70786636-f4bf-474e-9144-0533ce8a48dd","null","<p style=""text-align: center;"">+</p>","null","fixation","","","","","","","","","","","","","","","","","","","",""
"","","","","","html-slider-response","126","379795","0.0-21.0-0.4","70786636-f4bf-474e-9144-0533ce8a48dd","1000","
                  <p style=""text-align: center;"">₪39
                                                <br>60%</p>
                  <p id=""wtp"" style=""text-align:center; margin-top: 0px; margin-bottom: 0px; font-size: 40px"";>&ensp;</p>","-","viewing","0","15","9C,25B","","","","","","","","","","","","","","","","",""
"","","","","","html-slider-response","127","383807","0.0-21.0-1.4","70786636-f4bf-474e-9144-0533ce8a48dd","null","
                  <p style=""text-align: center;"">₪39
                                                <br>60%</p>
                  <p id=""wtp"" style=""text-align:center; margin-top: 0px; margin-bottom: 0px; font-size: 40px"";>מוכנים לשלם: <span id=""c_p_y""></span></p>","null","evaluation","41","15","9C,25B","60","39","32","","","","","","","","","","","","","",""
"","","","","","html-keyboard-response","128","384327","0.0-21.0-2.4","70786636-f4bf-474e-9144-0533ce8a48dd","null","<p style=""text-align: center;"">+</p>","null","fixation","","","","","","","","","","","","","","","","","","","",""
"","","","","","html-slider-response","129","385329","0.0-21.0-0.5","70786636-f4bf-474e-9144-0533ce8a48dd","1000","
                  <p style=""text-align: center;"">₪61
                                                <br>55%</p>
                  <p id=""wtp"" style=""text-align:center; margin-top: 0px; margin-bottom: 0px; font-size: 40px"";>&ensp;</p>","-","viewing","0","23","7B,26B","","","","","","","","","","","","","","","","",""
"","","","","","html-slider-response","130","389344","0.0-21.0-1.5","70786636-f4bf-474e-9144-0533ce8a48dd","null","
                  <p style=""text-align: center;"">₪61
                                                <br>55%</p>
                  <p id=""wtp"" style=""text-align:center; margin-top: 0px; margin-bottom: 0px; font-size: 40px"";>מוכנים לשלם: <span id=""c_p_y""></span></p>","null","evaluation","39","23","7B,26B","55","61","45","","","","","","","","","","","","","",""
"","","","","","html-keyboard-response","131","390285","0.0-21.0-2.5","70786636-f4bf-474e-9144-0533ce8a48dd","null","<p style=""text-align: center;"">+</p>","null","fixation","","","","","","","","","","","","","","","","","","","",""
"","","","","","html-slider-response","132","391298","0.0-21.0-0.6","70786636-f4bf-474e-9144-0533ce8a48dd","1000","
                  <p style=""text-align: center;"">₪36
                                                <br>70%</p>
                  <p id=""wtp"" style=""text-align:center; margin-top: 0px; margin-bottom: 0px; font-size: 40px"";>&ensp;</p>","-","viewing","0","13","3A,5C,10B","","","","","","","","","","","","","","","","",""
"","","","","","html-slider-response","133","394298","0.0-21.0-1.6","70786636-f4bf-474e-9144-0533ce8a48dd","2998","
                  <p style=""text-align: center;"">₪36
                                                <br>70%</p>
                  <p id=""wtp"" style=""text-align:center; margin-top: 0px; margin-bottom: 0px; font-size: 40px"";>מוכנים לשלם: <span id=""c_p_y""></span></p>","34","evaluation","71","13","3A,5C,10B","70","36","34","","","","","","","","","","","","","",""
"","","","","","html-keyboard-response","134","395579","0.0-21.0-2.6","70786636-f4bf-474e-9144-0533ce8a48dd","null","<p style=""text-align: center;"">+</p>","null","fixation","","","","","","","","","","","","","","","","","","","",""
"","","","","","html-slider-response","135","396586","0.0-21.0-0.7","70786636-f4bf-474e-9144-0533ce8a48dd","1000","
                  <p style=""text-align: center;"">₪76
                                                <br>65%</p>
                  <p id=""wtp"" style=""text-align:center; margin-top: 0px; margin-bottom: 0px; font-size: 40px"";>&ensp;</p>","-","viewing","0","29","8C,19A,24B","","","","","","","","","","","","","","","","",""
"","","","","","html-slider-response","136","399841","0.0-21.0-1.7","70786636-f4bf-474e-9144-0533ce8a48dd","3254","
                  <p style=""text-align: center;"">₪76
                                                <br>65%</p>
                  <p id=""wtp"" style=""text-align:center; margin-top: 0px; margin-bottom: 0px; font-size: 40px"";>מוכנים לשלם: <span id=""c_p_y""></span></p>","52","evaluation","26","29","8C,19A,24B","65","76","52","","","","","","","","","","","","","",""
"","","","","","html-keyboard-response","137","400436","0.0-21.0-2.7","70786636-f4bf-474e-9144-0533ce8a48dd","null","<p style=""text-align: center;"">+</p>","null","fixation","","","","","","","","","","","","","","","","","","","",""
"","","","","","html-slider-response","138","401448","0.0-21.0-0.8","70786636-f4bf-474e-9144-0533ce8a48dd","1000","
                  <p style=""text-align: center;"">₪64
                                                <br>50%</p>
                  <p id=""wtp"" style=""text-align:center; margin-top: 0px; margin-bottom: 0px; font-size: 40px"";>&ensp;</p>","-","viewing","0","25","1B,3B,4A","","","","","","","","","","","","","","","","",""
"","","","","","html-slider-response","139","403434","0.0-21.0-1.8","70786636-f4bf-474e-9144-0533ce8a48dd","1984","
                  <p style=""text-align: center;"">₪64
                                                <br>50%</p>
                  <p id=""wtp"" style=""text-align:center; margin-top: 0px; margin-bottom: 0px; font-size: 40px"";>מוכנים לשלם: <span id=""c_p_y""></span></p>","48","evaluation","43","25","1B,3B,4A","50","64","48","","","","","","","","","","","","","",""
"","","","","","html-keyboard-response","140","404381","0.0-21.0-2.8","70786636-f4bf-474e-9144-0533ce8a48dd","null","<p style=""text-align: center;"">+</p>","null","fixation","","","","","","","","","","","","","","","","","","","",""
"","","","","","html-slider-response","141","405396","0.0-21.0-0.9","70786636-f4bf-474e-9144-0533ce8a48dd","1000","
                  <p style=""text-align: center;"">₪36
                                                <br>60%</p>
                  <p id=""wtp"" style=""text-align:center; margin-top: 0px; margin-bottom: 0px; font-size: 40px"";>&ensp;</p>","-","viewing","0","12","1C,7C,15C","","","","","","","","","","","","","","","","",""
"","","","","","html-slider-response","142","408498","0.0-21.0-1.9","70786636-f4bf-474e-9144-0533ce8a48dd","3100","
                  <p style=""text-align: center;"">₪36
                                                <br>60%</p>
                  <p id=""wtp"" style=""text-align:center; margin-top: 0px; margin-bottom: 0px; font-size: 40px"";>מוכנים לשלם: <span id=""c_p_y""></span></p>","34","evaluation","77","12","1C,7C,15C","60","36","34","","","","","","","","","","","","","",""
"","","","","","html-keyboard-response","143","409820","0.0-21.0-2.9","70786636-f4bf-474e-9144-0533ce8a48dd","null","<p style=""text-align: center;"">+</p>","null","fixation","","","","","","","","","","","","","","","","","","","",""
"","","","","","html-slider-response","144","410831","0.0-21.0-0.10","70786636-f4bf-474e-9144-0533ce8a48dd","1000","
                  <p style=""text-align: center;"">₪39
                                                <br>65%</p>
                  <p id=""wtp"" style=""text-align:center; margin-top: 0px; margin-bottom: 0px; font-size: 40px"";>&ensp;</p>","-","viewing","0","16","1A,15A,26C","","","","","","","","","","","","","","","","",""
"","","","","","html-slider-response","145","413577","0.0-21.0-1.10","70786636-f4bf-474e-9144-0533ce8a48dd","2745","
                  <p style=""text-align: center;"">₪39
                                                <br>65%</p>
                  <p id=""wtp"" style=""text-align:center; margin-top: 0px; margin-bottom: 0px; font-size: 40px"";>מוכנים לשלם: <span id=""c_p_y""></span></p>","36","evaluation","35","16","1A,15A,26C","65","39","36","","","","","","","","","","","","","",""
"","","","","","html-keyboard-response","146","414632","0.0-21.0-2.10","70786636-f4bf-474e-9144-0533ce8a48dd","null","<p style=""text-align: center;"">+</p>","null","fixation","","","","","","","","","","","","","","","","","","","",""
"","","","","","html-slider-response","147","415644","0.0-21.0-0.11","70786636-f4bf-474e-9144-0533ce8a48dd","1000","
                  <p style=""text-align: center;"">₪64
                                                <br>25%</p>
                  <p id=""wtp"" style=""text-align:center; margin-top: 0px; margin-bottom: 0px; font-size: 40px"";>&ensp;</p>","-","viewing","0","24","6A,21A","","","","","","","","","","","","","","","","",""
"","","","","","html-slider-response","148","417881","0.0-21.0-1.11","70786636-f4bf-474e-9144-0533ce8a48dd","2236","
                  <p style=""text-align: center;"">₪64
                                                <br>25%</p>
                  <p id=""wtp"" style=""text-align:center; margin-top: 0px; margin-bottom: 0px; font-size: 40px"";>מוכנים לשלם: <span id=""c_p_y""></span></p>","23","evaluation","56","24","6A,21A","25","64","23","","","","","","","","","","","","","",""
"","","","","","html-keyboard-response","149","419253","0.0-21.0-2.11","70786636-f4bf-474e-9144-0533ce8a48dd","null","<p style=""text-align: center;"">+</p>","null","fixation","","","","","","","","","","","","","","","","","","","",""
"","","","","","html-slider-response","150","420271","0.0-21.0-0.12","70786636-f4bf-474e-9144-0533ce8a48dd","1000","
                  <p style=""text-align: center;"">₪61
                                                <br>45%</p>
                  <p id=""wtp"" style=""text-align:center; margin-top: 0px; margin-bottom: 0px; font-size: 40px"";>&ensp;</p>","-","viewing","0","22","10A,11A","","","","","","","","","","","","","","","","",""
"","","","","","html-slider-response","151","423881","0.0-21.0-1.12","70786636-f4bf-474e-9144-0533ce8a48dd","3610","
                  <p style=""text-align: center;"">₪61
                                                <br>45%</p>
                  <p id=""wtp"" style=""text-align:center; margin-top: 0px; margin-bottom: 0px; font-size: 40px"";>מוכנים לשלם: <span id=""c_p_y""></span></p>","32","evaluation","40","22","10A,11A","45","61","32","","","","","","","","","","","","","",""
"","","","","","html-keyboard-response","152","425232","0.0-21.0-2.12","70786636-f4bf-474e-9144-0533ce8a48dd","null","<p style=""text-align: center;"">+</p>","null","fixation","","","","","","","","","","","","","","","","","","","",""
"","","","","","html-slider-response","153","426239","0.0-21.0-0.13","70786636-f4bf-474e-9144-0533ce8a48dd","1000","
                  <p style=""text-align: center;"">₪43
                                                <br>60%</p>
                  <p id=""wtp"" style=""text-align:center; margin-top: 0px; margin-bottom: 0px; font-size: 40px"";>&ensp;</p>","-","viewing","0","17","2A,7A,9A,15B","","","","","","","","","","","","","","","","",""
"","","","","","html-slider-response","154","430251","0.0-21.0-1.13","70786636-f4bf-474e-9144-0533ce8a48dd","null","
                  <p style=""text-align: center;"">₪43
                                                <br>60%</p>
                  <p id=""wtp"" style=""text-align:center; margin-top: 0px; margin-bottom: 0px; font-size: 40px"";>מוכנים לשלם: <span id=""c_p_y""></span></p>","null","evaluation","54","17","2A,7A,9A,15B","60","43","37","","","","","","","","","","","","","",""
"","","","","","html-keyboard-response","155","431361","0.0-21.0-2.13","70786636-f4bf-474e-9144-0533ce8a48dd","null","<p style=""text-align: center;"">+</p>","null","fixation","","","","","","","","","","","","","","","","","","","",""
"","","","","","html-slider-response","156","432376","0.0-21.0-0.14","70786636-f4bf-474e-9144-0533ce8a48dd","1000","
                  <p style=""text-align: center;"">₪79
                                                <br>40%</p>
                  <p id=""wtp"" style=""text-align:center; margin-top: 0px; margin-bottom: 0px; font-size: 40px"";>&ensp;</p>","-","viewing","0","30","9B","","","","","","","","","","","","","","","","",""
"","","","","","html-slider-response","157","435394","0.0-21.0-1.14","70786636-f4bf-474e-9144-0533ce8a48dd","3017","
                  <p style=""text-align: center;"">₪79
                                                <br>40%</p>
                  <p id=""wtp"" style=""text-align:center; margin-top: 0px; margin-bottom: 0px; font-size: 40px"";>מוכנים לשלם: <span id=""c_p_y""></span></p>","48","evaluation","54","30","9B","40","79","48","","","","","","","","","","","","","",""
"","","","","","html-keyboard-response","158","436352","0.0-21.0-2.14","70786636-f4bf-474e-9144-0533ce8a48dd","null","<p style=""text-align: center;"">+</p>","null","fixation","","","","","","","","","","","","","","","","","","","",""
"","","","","","html-slider-response","159","437355","0.0-21.0-0.15","70786636-f4bf-474e-9144-0533ce8a48dd","1000","
                  <p style=""text-align: center;"">₪11
                                                <br>25%</p>
                  <p id=""wtp"" style=""text-align:center; margin-top: 0px; margin-bottom: 0px; font-size: 40px"";>&ensp;</p>","-","viewing","0","5","12A,27B,28B,30B","","","","","","","","","","","","","","","","",""
"","","","","","html-slider-response","160","438977","0.0-21.0-1.15","70786636-f4bf-474e-9144-0533ce8a48dd","1621","
                  <p style=""text-align: center;"">₪11
                                                <br>25%</p>
                  <p id=""wtp"" style=""text-align:center; margin-top: 0px; margin-bottom: 0px; font-size: 40px"";>מוכנים לשלם: <span id=""c_p_y""></span></p>","3","evaluation","33","5","12A,27B,28B,30B","25","11","3","","","","","","","","","","","","","",""
"","","","","","html-keyboard-response","161","440475","0.0-21.0-2.15","70786636-f4bf-474e-9144-0533ce8a48dd","null","<p style=""text-align: center;"">+</p>","null","fixation","","","","","","","","","","","","","","","","","","","",""
"","","","","","html-slider-response","162","441488","0.0-21.0-0.16","70786636-f4bf-474e-9144-0533ce8a48dd","1000","
                  <p style=""text-align: center;"">₪18
                                                <br>25%</p>
                  <p id=""wtp"" style=""text-align:center; margin-top: 0px; margin-bottom: 0px; font-size: 40px"";>&ensp;</p>","-","viewing","0","9","14A,23A","","","","","","","","","","","","","","","","",""
"","","","","","html-slider-response","163","443721","0.0-21.0-1.16","70786636-f4bf-474e-9144-0533ce8a48dd","2232","
                  <p style=""text-align: center;"">₪18
                                                <br>25%</p>
                  <p id=""wtp"" style=""text-align:center; margin-top: 0px; margin-bottom: 0px; font-size: 40px"";>מוכנים לשלם: <span id=""c_p_y""></span></p>","1","evaluation","29","9","14A,23A","25","18","2","","","","","","","","","","","","","",""
"","","","","","html-keyboard-response","164","444664","0.0-21.0-2.16","70786636-f4bf-474e-9144-0533ce8a48dd","null","<p style=""text-align: center;"">+</p>","null","fixation","","","","","","","","","","","","","","","","","","","",""
"","","","","","html-slider-response","165","445666","0.0-21.0-0.17","70786636-f4bf-474e-9144-0533ce8a48dd","1000","
                  <p style=""text-align: center;"">₪4
                                                <br>75%</p>
                  <p id=""wtp"" style=""text-align:center; margin-top: 0px; margin-bottom: 0px; font-size: 40px"";>&ensp;</p>","-","viewing","0","3","12B,20B,23B,27C,29C","","","","","","","","","","","","","","","","",""
"","","","","","html-slider-response","166","448201","0.0-21.0-1.17","70786636-f4bf-474e-9144-0533ce8a48dd","2533","
                  <p style=""text-align: center;"">₪4
                                                <br>75%</p>
                  <p id=""wtp"" style=""text-align:center; margin-top: 0px; margin-bottom: 0px; font-size: 40px"";>מוכנים לשלם: <span id=""c_p_y""></span></p>","3","evaluation","56","3","12B,20B,23B,27C,29C","75","4","4","","","","","","","","","","","","","",""
"","","","","","html-keyboard-response","167","449268","0.0-21.0-2.17","70786636-f4bf-474e-9144-0533ce8a48dd","null","<p style=""text-align: center;"">+</p>","null","fixation","","","","","","","","","","","","","","","","","","","",""
"","","","","","html-slider-response","168","450272","0.0-21.0-0.18","70786636-f4bf-474e-9144-0533ce8a48dd","1000","
                  <p style=""text-align: center;"">₪16
                                                <br>20%</p>
                  <p id=""wtp"" style=""text-align:center; margin-top: 0px; margin-bottom: 0px; font-size: 40px"";>&ensp;</p>","-","viewing","0","8","14C,17A,20C,27A","","","","","","","","","","","","","","","","",""
"","","","","","html-slider-response","169","453289","0.0-21.0-1.18","70786636-f4bf-474e-9144-0533ce8a48dd","3017","
                  <p style=""text-align: center;"">₪16
                                                <br>20%</p>
                  <p id=""wtp"" style=""text-align:center; margin-top: 0px; margin-bottom: 0px; font-size: 40px"";>מוכנים לשלם: <span id=""c_p_y""></span></p>","13","evaluation","68","8","14C,17A,20C,27A","20","16","14","","","","","","","","","","","","","",""
"","","","","","html-keyboard-response","170","454602","0.0-21.0-2.18","70786636-f4bf-474e-9144-0533ce8a48dd","null","<p style=""text-align: center;"">+</p>","null","fixation","","","","","","","","","","","","","","","","","","","",""
"","","","","","html-slider-response","171","455606","0.0-21.0-0.19","70786636-f4bf-474e-9144-0533ce8a48dd","1000","
                  <p style=""text-align: center;"">₪43
                                                <br>75%</p>
                  <p id=""wtp"" style=""text-align:center; margin-top: 0px; margin-bottom: 0px; font-size: 40px"";>&ensp;</p>","-","viewing","0","18","11B,19B,24A,26A","","","","","","","","","","","","","","","","",""
"","","","","","html-slider-response","172","458265","0.0-21.0-1.19","70786636-f4bf-474e-9144-0533ce8a48dd","2657","
                  <p style=""text-align: center;"">₪43
                                                <br>75%</p>
                  <p id=""wtp"" style=""text-align:center; margin-top: 0px; margin-bottom: 0px; font-size: 40px"";>מוכנים לשלם: <span id=""c_p_y""></span></p>","35","evaluation","66","18","11B,19B,24A,26A","75","43","35","","","","","","","","","","","","","",""
"","","","","","html-keyboard-response","173","458819","0.0-21.0-2.19","70786636-f4bf-474e-9144-0533ce8a48dd","null","<p style=""text-align: center;"">+</p>","null","fixation","","","","","","","","","","","","","","","","","","","",""
"","","","","","html-slider-response","174","459822","0.0-21.0-0.20","70786636-f4bf-474e-9144-0533ce8a48dd","1000","
                  <p style=""text-align: center;"">₪11
                                                <br>75%</p>
                  <p id=""wtp"" style=""text-align:center; margin-top: 0px; margin-bottom: 0px; font-size: 40px"";>&ensp;</p>","-","viewing","0","7","6B,18B,22C,24C,29A","","","","","","","","","","","","","","","","",""
"","","","","","html-slider-response","175","463297","0.0-21.0-1.20","70786636-f4bf-474e-9144-0533ce8a48dd","3474","
                  <p style=""text-align: center;"">₪11
                                                <br>75%</p>
                  <p id=""wtp"" style=""text-align:center; margin-top: 0px; margin-bottom: 0px; font-size: 40px"";>מוכנים לשלם: <span id=""c_p_y""></span></p>","10","evaluation","55","7","6B,18B,22C,24C,29A","75","11","10","","","","","","","","","","","","","",""
"","","","","","html-keyboard-response","176","464644","0.0-21.0-2.20","70786636-f4bf-474e-9144-0533ce8a48dd","null","<p style=""text-align: center;"">+</p>","null","fixation","","","","","","","","","","","","","","","","","","","",""
"","","","","","html-slider-response","177","465657","0.0-21.0-0.21","70786636-f4bf-474e-9144-0533ce8a48dd","1000","
                  <p style=""text-align: center;"">₪18
                                                <br>50%</p>
                  <p id=""wtp"" style=""text-align:center; margin-top: 0px; margin-bottom: 0px; font-size: 40px"";>&ensp;</p>","-","viewing","0","10","2C,16C,22B,28A","","","","","","","","","","","","","","","","",""
"","","","","","html-slider-response","178","469073","0.0-21.0-1.21","70786636-f4bf-474e-9144-0533ce8a48dd","3415","
                  <p style=""text-align: center;"">₪18
                                                <br>50%</p>
                  <p id=""wtp"" style=""text-align:center; margin-top: 0px; margin-bottom: 0px; font-size: 40px"";>מוכנים לשלם: <span id=""c_p_y""></span></p>","15","evaluation","16","10","2C,16C,22B,28A","50","18","15","","","","","","","","","","","","","",""
"","","","","","html-keyboard-response","179","470474","0.0-21.0-2.21","70786636-f4bf-474e-9144-0533ce8a48dd","null","<p style=""text-align: center;"">+</p>","null","fixation","","","","","","","","","","","","","","","","","","","",""
"","","","","","html-slider-response","180","471483","0.0-21.0-0.22","70786636-f4bf-474e-9144-0533ce8a48dd","1000","
                  <p style=""text-align: center;"">₪4
                                                <br>50%</p>
                  <p id=""wtp"" style=""text-align:center; margin-top: 0px; margin-bottom: 0px; font-size: 40px"";>&ensp;</p>","-","viewing","0","2","4C,17B","","","","","","","","","","","","","","","","",""
"","","","","","html-slider-response","181","475488","0.0-21.0-1.22","70786636-f4bf-474e-9144-0533ce8a48dd","null","
                  <p style=""text-align: center;"">₪4
                                                <br>50%</p>
                  <p id=""wtp"" style=""text-align:center; margin-top: 0px; margin-bottom: 0px; font-size: 40px"";>מוכנים לשלם: <span id=""c_p_y""></span></p>","null","evaluation","6","2","4C,17B","50","4","3","","","","","","","","","","","","","",""
"","","","","","html-keyboard-response","182","476623","0.0-21.0-2.22","70786636-f4bf-474e-9144-0533ce8a48dd","null","<p style=""text-align: center;"">+</p>","null","fixation","","","","","","","","","","","","","","","","","","","",""
"","","","","","html-slider-response","183","477639","0.0-21.0-0.23","70786636-f4bf-474e-9144-0533ce8a48dd","1000","
                  <p style=""text-align: center;"">₪11
                                                <br>45%</p>
                  <p id=""wtp"" style=""text-align:center; margin-top: 0px; margin-bottom: 0px; font-size: 40px"";>&ensp;</p>","-","viewing","0","6","14B,21C,25C","","","","","","","","","","","","","","","","",""
"","","","","","html-slider-response","184","480153","0.0-21.0-1.23","70786636-f4bf-474e-9144-0533ce8a48dd","2513","
                  <p style=""text-align: center;"">₪11
                                                <br>45%</p>
                  <p id=""wtp"" style=""text-align:center; margin-top: 0px; margin-bottom: 0px; font-size: 40px"";>מוכנים לשלם: <span id=""c_p_y""></span></p>","6","evaluation","74","6","14B,21C,25C","45","11","7","","","","","","","","","","","","","",""
"","","","","","html-keyboard-response","185","481069","0.0-21.0-2.23","70786636-f4bf-474e-9144-0533ce8a48dd","null","<p style=""text-align: center;"">+</p>","null","fixation","","","","","","","","","","","","","","","","","","","",""
"","","","","","html-slider-response","186","482083","0.0-21.0-0.24","70786636-f4bf-474e-9144-0533ce8a48dd","1000","
                  <p style=""text-align: center;"">₪36
                                                <br>30%</p>
                  <p id=""wtp"" style=""text-align:center; margin-top: 0px; margin-bottom: 0px; font-size: 40px"";>&ensp;</p>","-","viewing","0","11","3C,20A,22A","","","","","","","","","","","","","","","","",""
"","","","","","html-slider-response","187","485729","0.0-21.0-1.24","70786636-f4bf-474e-9144-0533ce8a48dd","3644","
                  <p style=""text-align: center;"">₪36
                                                <br>30%</p>
                  <p id=""wtp"" style=""text-align:center; margin-top: 0px; margin-bottom: 0px; font-size: 40px"";>מוכנים לשלם: <span id=""c_p_y""></span></p>","23","evaluation","80","11","3C,20A,22A","30","36","23","","","","","","","","","","","","","",""
"","","","","","html-keyboard-response","188","486688","0.0-21.0-2.24","70786636-f4bf-474e-9144-0533ce8a48dd","null","<p style=""text-align: center;"">+</p>","null","fixation","","","","","","","","","","","","","","","","","","","",""
"","","","","","html-slider-response","189","487693","0.0-21.0-0.25","70786636-f4bf-474e-9144-0533ce8a48dd","1000","
                  <p style=""text-align: center;"">₪4
                                                <br>25%</p>
                  <p id=""wtp"" style=""text-align:center; margin-top: 0px; margin-bottom: 0px; font-size: 40px"";>&ensp;</p>","-","viewing","0","1","6C,29B,30C","","","","","","","","","","","","","","","","",""
"","","","","","html-slider-response","190","491129","0.0-21.0-1.25","70786636-f4bf-474e-9144-0533ce8a48dd","3435","
                  <p style=""text-align: center;"">₪4
                                                <br>25%</p>
                  <p id=""wtp"" style=""text-align:center; margin-top: 0px; margin-bottom: 0px; font-size: 40px"";>מוכנים לשלם: <span id=""c_p_y""></span></p>","1","evaluation","1","1","6C,29B,30C","25","4","2","","","","","","","","","","","","","",""
"","","","","","html-keyboard-response","191","491980","0.0-21.0-2.25","70786636-f4bf-474e-9144-0533ce8a48dd","null","<p style=""text-align: center;"">+</p>","null","fixation","","","","","","","","","","","","","","","","","","","",""
"","","","","","html-slider-response","192","492990","0.0-21.0-0.26","70786636-f4bf-474e-9144-0533ce8a48dd","1000","
                  <p style=""text-align: center;"">₪58
                                                <br>30%</p>
                  <p id=""wtp"" style=""text-align:center; margin-top: 0px; margin-bottom: 0px; font-size: 40px"";>&ensp;</p>","-","viewing","0","19","13C,30A","","","","","","","","","","","","","","","","",""
"","","","","","html-slider-response","193","496992","0.0-21.0-1.26","70786636-f4bf-474e-9144-0533ce8a48dd","null","
                  <p style=""text-align: center;"">₪58
                                                <br>30%</p>
                  <p id=""wtp"" style=""text-align:center; margin-top: 0px; margin-bottom: 0px; font-size: 40px"";>מוכנים לשלם: <span id=""c_p_y""></span></p>","null","evaluation","8","19","13C,30A","30","58","40","","","","","","","","","","","","","",""
"","","","","","html-keyboard-response","194","497934","0.0-21.0-2.26","70786636-f4bf-474e-9144-0533ce8a48dd","null","<p style=""text-align: center;"">+</p>","null","fixation","","","","","","","","","","","","","","","","","","","",""
"","","","","","html-slider-response","195","498947","0.0-21.0-0.27","70786636-f4bf-474e-9144-0533ce8a48dd","1000","
                  <p style=""text-align: center;"">₪58
                                                <br>45%</p>
                  <p id=""wtp"" style=""text-align:center; margin-top: 0px; margin-bottom: 0px; font-size: 40px"";>&ensp;</p>","-","viewing","0","21","11C,18C,25A","","","","","","","","","","","","","","","","",""
"","","","","","html-slider-response","196","502129","0.0-21.0-1.27","70786636-f4bf-474e-9144-0533ce8a48dd","3181","
                  <p style=""text-align: center;"">₪58
                                                <br>45%</p>
                  <p id=""wtp"" style=""text-align:center; margin-top: 0px; margin-bottom: 0px; font-size: 40px"";>מוכנים לשלם: <span id=""c_p_y""></span></p>","33","evaluation","34","21","11C,18C,25A","45","58","33","","","","","","","","","","","","","",""
"","","","","","html-keyboard-response","197","502761","0.0-21.0-2.27","70786636-f4bf-474e-9144-0533ce8a48dd","null","<p style=""text-align: center;"">+</p>","null","fixation","","","","","","","","","","","","","","","","","","","",""
"","","","","","html-slider-response","198","503778","0.0-21.0-0.28","70786636-f4bf-474e-9144-0533ce8a48dd","1000","
                  <p style=""text-align: center;"">₪58
                                                <br>40%</p>
                  <p id=""wtp"" style=""text-align:center; margin-top: 0px; margin-bottom: 0px; font-size: 40px"";>&ensp;</p>","-","viewing","0","20","10C,13A,19C,21B","","","","","","","","","","","","","","","","",""
"","","","","","html-slider-response","199","506945","0.0-21.0-1.28","70786636-f4bf-474e-9144-0533ce8a48dd","3165","
                  <p style=""text-align: center;"">₪58
                                                <br>40%</p>
                  <p id=""wtp"" style=""text-align:center; margin-top: 0px; margin-bottom: 0px; font-size: 40px"";>מוכנים לשלם: <span id=""c_p_y""></span></p>","36","evaluation","38","20","10C,13A,19C,21B","40","58","36","","","","","","","","","","","","","",""
"","","","","","html-keyboard-response","200","508032","0.0-21.0-2.28","70786636-f4bf-474e-9144-0533ce8a48dd","null","<p style=""text-align: center;"">+</p>","null","fixation","","","","","","","","","","","","","","","","","","","",""
"","","","","","html-slider-response","201","509035","0.0-21.0-0.29","70786636-f4bf-474e-9144-0533ce8a48dd","1000","
                  <p style=""text-align: center;"">₪71
                                                <br>55%</p>
                  <p id=""wtp"" style=""text-align:center; margin-top: 0px; margin-bottom: 0px; font-size: 40px"";>&ensp;</p>","-","viewing","0","27","5B,18A","","","","","","","","","","","","","","","","",""
"","","","","","html-slider-response","202","512897","0.0-21.0-1.29","70786636-f4bf-474e-9144-0533ce8a48dd","3862","
                  <p style=""text-align: center;"">₪71
                                                <br>55%</p>
                  <p id=""wtp"" style=""text-align:center; margin-top: 0px; margin-bottom: 0px; font-size: 40px"";>מוכנים לשלם: <span id=""c_p_y""></span></p>","51","evaluation","77","27","5B,18A","55","71","50","","","","","","","","","","","","","",""
"","","","","","html-keyboard-response","203","514353","0.0-21.0-2.29","70786636-f4bf-474e-9144-0533ce8a48dd","null","<p style=""text-align: center;"">+</p>","null","fixation","","","","","","","","","","","","","","","","","","","",""
"","","","","","html-slider-response","204","515370","0.0-21.0-0.30","70786636-f4bf-474e-9144-0533ce8a48dd","1000","
                  <p style=""text-align: center;"">₪36
                                                <br>75%</p>
                  <p id=""wtp"" style=""text-align:center; margin-top: 0px; margin-bottom: 0px; font-size: 40px"";>&ensp;</p>","-","viewing","0","14","4B,5A,13B,16B","","","","","","","","","","","","","","","","",""
"","","","","","html-slider-response","205","519329","0.0-21.0-1.30","70786636-f4bf-474e-9144-0533ce8a48dd","3958","
                  <p style=""text-align: center;"">₪36
                                                <br>75%</p>
                  <p id=""wtp"" style=""text-align:center; margin-top: 0px; margin-bottom: 0px; font-size: 40px"";>מוכנים לשלם: <span id=""c_p_y""></span></p>","34","evaluation","1","14","4B,5A,13B,16B","75","36","34","","","","","","","","","","","","","",""
"","","","","","html-keyboard-response","206","520042","0.0-21.0-2.30","70786636-f4bf-474e-9144-0533ce8a48dd","null","<p style=""text-align: center;"">+</p>","null","fixation","","","","","","","","","","","","","","","","","","","",""
"","","","","","html-keyboard-response","207","521055","0.0-22.0","70786636-f4bf-474e-9144-0533ce8a48dd","null","<p style=""text-align: center;"">+</p>","null","fixation","","","","","","","","","","","","","","","","","","","",""
"","","","","","html-keyboard-response","208","561009","0.0-23.0","70786636-f4bf-474e-9144-0533ce8a48dd","null","<p>הפסקה.
          <br>לחצו כדי להמשיך.</p>","1","scan_wait","","","","","","","","","","","","","","","","","","","",""
"","","","","","html-keyboard-response","209","562023","0.0-24.0","70786636-f4bf-474e-9144-0533ce8a48dd","null","<p style=""text-align: center;"">+</p>","null","fixation","","","","","","","","","","","","","","","","","","","",""
"","","","","","html-slider-response","210","563033","0.0-25.0-0.0","70786636-f4bf-474e-9144-0533ce8a48dd","1000","
                  <p style=""text-align: center;"">₪11
                                                <br>20%</p>
                  <p id=""wtp"" style=""text-align:center; margin-top: 0px; margin-bottom: 0px; font-size: 40px"";>&ensp;</p>","-","viewing","0","4","12C,17C,23C,28C","","","","","","","","","","","","","","","","",""
"","","","","","html-slider-response","211","565586","0.0-25.0-1.0","70786636-f4bf-474e-9144-0533ce8a48dd","2551","
                  <p style=""text-align: center;"">₪11
                                                <br>20%</p>
                  <p id=""wtp"" style=""text-align:center; margin-top: 0px; margin-bottom: 0px; font-size: 40px"";>מוכנים לשלם: <span id=""c_p_y""></span></p>","3","evaluation","2","4","12C,17C,23C,28C","20","11","4","","","","","","","","","","","","","",""
"","","","","","html-keyboard-response","212","566563","0.0-25.0-2.0","70786636-f4bf-474e-9144-0533ce8a48dd","null","<p style=""text-align: center;"">+</p>","null","fixation","","","","","","","","","","","","","","","","","","","",""
"","","","","","html-slider-response","213","567569","0.0-25.0-0.1","70786636-f4bf-474e-9144-0533ce8a48dd","1000","
                  <p style=""text-align: center;"">₪76
                                                <br>65%</p>
                  <p id=""wtp"" style=""text-align:center; margin-top: 0px; margin-bottom: 0px; font-size: 40px"";>&ensp;</p>","-","viewing","0","29","8C,19A,24B","","","","","","","","","","","","","","","","",""
"","","","","","html-slider-response","214","570377","0.0-25.0-1.1","70786636-f4bf-474e-9144-0533ce8a48dd","2807","
                  <p style=""text-align: center;"">₪76
                                                <br>65%</p>
                  <p id=""wtp"" style=""text-align:center; margin-top: 0px; margin-bottom: 0px; font-size: 40px"";>מוכנים לשלם: <span id=""c_p_y""></span></p>","68","evaluation","36","29","8C,19A,24B","65","76","68","","","","","","","","","","","","","",""
"","","","","","html-keyboard-response","215","571462","0.0-25.0-2.1","70786636-f4bf-474e-9144-0533ce8a48dd","null","<p style=""text-align: center;"">+</p>","null","fixation","","","","","","","","","","","","","","","","","","","",""
"","","","","","html-slider-response","216","572472","0.0-25.0-0.2","70786636-f4bf-474e-9144-0533ce8a48dd","1000","
                  <p style=""text-align: center;"">₪36
                                                <br>30%</p>
                  <p id=""wtp"" style=""text-align:center; margin-top: 0px; margin-bottom: 0px; font-size: 40px"";>&ensp;</p>","-","viewing","0","11","3C,20A,22A","","","","","","","","","","","","","","","","",""
"","","","","","html-slider-response","217","575465","0.0-25.0-1.2","70786636-f4bf-474e-9144-0533ce8a48dd","2992","
                  <p style=""text-align: center;"">₪36
                                                <br>30%</p>
                  <p id=""wtp"" style=""text-align:center; margin-top: 0px; margin-bottom: 0px; font-size: 40px"";>מוכנים לשלם: <span id=""c_p_y""></span></p>","30","evaluation","47","11","3C,20A,22A","30","36","30","","","","","","","","","","","","","",""
"","","","","","html-keyboard-response","218","576428","0.0-25.0-2.2","70786636-f4bf-474e-9144-0533ce8a48dd","null","<p style=""text-align: center;"">+</p>","null","fixation","","","","","","","","","","","","","","","","","","","",""
"","","","","","html-slider-response","219","577432","0.0-25.0-0.3","70786636-f4bf-474e-9144-0533ce8a48dd","1000","
                  <p style=""text-align: center;"">₪79
                                                <br>65%</p>
                  <p id=""wtp"" style=""text-align:center; margin-top: 0px; margin-bottom: 0px; font-size: 40px"";>&ensp;</p>","-","viewing","0","31","8A","","","","","","","","","","","","","","","","",""
"","","","","","html-slider-response","220","580761","0.0-25.0-1.3","70786636-f4bf-474e-9144-0533ce8a48dd","3328","
                  <p style=""text-align: center;"">₪79
                                                <br>65%</p>
                  <p id=""wtp"" style=""text-align:center; margin-top: 0px; margin-bottom: 0px; font-size: 40px"";>מוכנים לשלם: <span id=""c_p_y""></span></p>","73","evaluation","7","31","8A","65","79","73","","","","","","","","","","","","","",""
"","","","","","html-keyboard-response","221","582023","0.0-25.0-2.3","70786636-f4bf-474e-9144-0533ce8a48dd","null","<p style=""text-align: center;"">+</p>","null","fixation","","","","","","","","","","","","","","","","","","","",""
"","","","","","html-slider-response","222","583026","0.0-25.0-0.4","70786636-f4bf-474e-9144-0533ce8a48dd","1000","
                  <p style=""text-align: center;"">₪58
                                                <br>30%</p>
                  <p id=""wtp"" style=""text-align:center; margin-top: 0px; margin-bottom: 0px; font-size: 40px"";>&ensp;</p>","-","viewing","0","19","13C,30A","","","","","","","","","","","","","","","","",""
"","","","","","html-slider-response","223","587028","0.0-25.0-1.4","70786636-f4bf-474e-9144-0533ce8a48dd","null","
                  <p style=""text-align: center;"">₪58
                                                <br>30%</p>
                  <p id=""wtp"" style=""text-align:center; margin-top: 0px; margin-bottom: 0px; font-size: 40px"";>מוכנים לשלם: <span id=""c_p_y""></span></p>","null","evaluation","11","19","13C,30A","30","58","46","","","","","","","","","","","","","",""
"","","","","","html-keyboard-response","224","588477","0.0-25.0-2.4","70786636-f4bf-474e-9144-0533ce8a48dd","null","<p style=""text-align: center;"">+</p>","null","fixation","","","","","","","","","","","","","","","","","","","",""
"","","","","","html-slider-response","225","589484","0.0-25.0-0.5","70786636-f4bf-474e-9144-0533ce8a48dd","1000","
                  <p style=""text-align: center;"">₪4
                                                <br>75%</p>
                  <p id=""wtp"" style=""text-align:center; margin-top: 0px; margin-bottom: 0px; font-size: 40px"";>&ensp;</p>","-","viewing","0","3","12B,20B,23B,27C,29C","","","","","","","","","","","","","","","","",""
"","","","","","html-slider-response","226","590618","0.0-25.0-1.5","70786636-f4bf-474e-9144-0533ce8a48dd","1132","
                  <p style=""text-align: center;"">₪4
                                                <br>75%</p>
                  <p id=""wtp"" style=""text-align:center; margin-top: 0px; margin-bottom: 0px; font-size: 40px"";>מוכנים לשלם: <span id=""c_p_y""></span></p>","0","evaluation","60","3","12B,20B,23B,27C,29C","75","4","0","","","","","","","","","","","","","",""
"","","","","","html-keyboard-response","227","591913","0.0-25.0-2.5","70786636-f4bf-474e-9144-0533ce8a48dd","null","<p style=""text-align: center;"">+</p>","null","fixation","","","","","","","","","","","","","","","","","","","",""
"","","","","","html-slider-response","228","592927","0.0-25.0-0.6","70786636-f4bf-474e-9144-0533ce8a48dd","1000","
                  <p style=""text-align: center;"">₪39
                                                <br>65%</p>
                  <p id=""wtp"" style=""text-align:center; margin-top: 0px; margin-bottom: 0px; font-size: 40px"";>&ensp;</p>","-","viewing","0","16","1A,15A,26C","","","","","","","","","","","","","","","","",""
"","","","","","html-slider-response","229","596361","0.0-25.0-1.6","70786636-f4bf-474e-9144-0533ce8a48dd","3433","
                  <p style=""text-align: center;"">₪39
                                                <br>65%</p>
                  <p id=""wtp"" style=""text-align:center; margin-top: 0px; margin-bottom: 0px; font-size: 40px"";>מוכנים לשלם: <span id=""c_p_y""></span></p>","35","evaluation","26","16","1A,15A,26C","65","39","35","","","","","","","","","","","","","",""
"","","","","","html-keyboard-response","230","597764","0.0-25.0-2.6","70786636-f4bf-474e-9144-0533ce8a48dd","null","<p style=""text-align: center;"">+</p>","null","fixation","","","","","","","","","","","","","","","","","","","",""
"","","","","","html-slider-response","231","598769","0.0-25.0-0.7","70786636-f4bf-474e-9144-0533ce8a48dd","1000","
                  <p style=""text-align: center;"">₪16
                                                <br>20%</p>
                  <p id=""wtp"" style=""text-align:center; margin-top: 0px; margin-bottom: 0px; font-size: 40px"";>&ensp;</p>","-","viewing","0","8","14C,17A,20C,27A","","","","","","","","","","","","","","","","",""
"","","","","","html-slider-response","232","602201","0.0-25.0-1.7","70786636-f4bf-474e-9144-0533ce8a48dd","3432","
                  <p style=""text-align: center;"">₪16
                                                <br>20%</p>
                  <p id=""wtp"" style=""text-align:center; margin-top: 0px; margin-bottom: 0px; font-size: 40px"";>מוכנים לשלם: <span id=""c_p_y""></span></p>","8","evaluation","9","8","14C,17A,20C,27A","20","16","8","","","","","","","","","","","","","",""
"","","","","","html-keyboard-response","233","603689","0.0-25.0-2.7","70786636-f4bf-474e-9144-0533ce8a48dd","null","<p style=""text-align: center;"">+</p>","null","fixation","","","","","","","","","","","","","","","","","","","",""
"","","","","","html-slider-response","234","604700","0.0-25.0-0.8","70786636-f4bf-474e-9144-0533ce8a48dd","1000","
                  <p style=""text-align: center;"">₪36
                                                <br>70%</p>
                  <p id=""wtp"" style=""text-align:center; margin-top: 0px; margin-bottom: 0px; font-size: 40px"";>&ensp;</p>","-","viewing","0","13","3A,5C,10B","","","","","","","","","","","","","","","","",""
"","","","","","html-slider-response","235","607754","0.0-25.0-1.8","70786636-f4bf-474e-9144-0533ce8a48dd","3053","
                  <p style=""text-align: center;"">₪36
                                                <br>70%</p>
                  <p id=""wtp"" style=""text-align:center; margin-top: 0px; margin-bottom: 0px; font-size: 40px"";>מוכנים לשלם: <span id=""c_p_y""></span></p>","30","evaluation","11","13","3A,5C,10B","70","36","31","","","","","","","","","","","","","",""
"","","","","","html-keyboard-response","236","609013","0.0-25.0-2.8","70786636-f4bf-474e-9144-0533ce8a48dd","null","<p style=""text-align: center;"">+</p>","null","fixation","","","","","","","","","","","","","","","","","","","",""
"","","","","","html-slider-response","237","610021","0.0-25.0-0.9","70786636-f4bf-474e-9144-0533ce8a48dd","1000","
                  <p style=""text-align: center;"">₪4
                                                <br>25%</p>
                  <p id=""wtp"" style=""text-align:center; margin-top: 0px; margin-bottom: 0px; font-size: 40px"";>&ensp;</p>","-","viewing","0","1","6C,29B,30C","","","","","","","","","","","","","","","","",""
"","","","","","html-slider-response","238","613241","0.0-25.0-1.9","70786636-f4bf-474e-9144-0533ce8a48dd","3220","
                  <p style=""text-align: center;"">₪4
                                                <br>25%</p>
                  <p id=""wtp"" style=""text-align:center; margin-top: 0px; margin-bottom: 0px; font-size: 40px"";>מוכנים לשלם: <span id=""c_p_y""></span></p>","0","evaluation","39","1","6C,29B,30C","25","4","0","","","","","","","","","","","","","",""
"","","","","","html-keyboard-response","239","614340","0.0-25.0-2.9","70786636-f4bf-474e-9144-0533ce8a48dd","null","<p style=""text-align: center;"">+</p>","null","fixation","","","","","","","","","","","","","","","","","","","",""
"","","","","","html-slider-response","240","615353","0.0-25.0-0.10","70786636-f4bf-474e-9144-0533ce8a48dd","1000","
                  <p style=""text-align: center;"">₪71
                                                <br>75%</p>
                  <p id=""wtp"" style=""text-align:center; margin-top: 0px; margin-bottom: 0px; font-size: 40px"";>&ensp;</p>","-","viewing","0","28","8B","","","","","","","","","","","","","","","","",""
"","","","","","html-slider-response","241","617561","0.0-25.0-1.10","70786636-f4bf-474e-9144-0533ce8a48dd","2207","
                  <p style=""text-align: center;"">₪71
                                                <br>75%</p>
                  <p id=""wtp"" style=""text-align:center; margin-top: 0px; margin-bottom: 0px; font-size: 40px"";>מוכנים לשלם: <span id=""c_p_y""></span></p>","72","evaluation","49","28","8B","75","71","71","","","","","","","","","","","","","",""
"","","","","","html-keyboard-response","242","618431","0.0-25.0-2.10","70786636-f4bf-474e-9144-0533ce8a48dd","null","<p style=""text-align: center;"">+</p>","null","fixation","","","","","","","","","","","","","","","","","","","",""
"","","","","","html-slider-response","243","619447","0.0-25.0-0.11","70786636-f4bf-474e-9144-0533ce8a48dd","1000","
                  <p style=""text-align: center;"">₪61
                                                <br>45%</p>
                  <p id=""wtp"" style=""text-align:center; margin-top: 0px; margin-bottom: 0px; font-size: 40px"";>&ensp;</p>","-","viewing","0","22","10A,11A","","","","","","","","","","","","","","","","",""
"","","","","","html-slider-response","244","623002","0.0-25.0-1.11","70786636-f4bf-474e-9144-0533ce8a48dd","3553","
                  <p style=""text-align: center;"">₪61
                                                <br>45%</p>
                  <p id=""wtp"" style=""text-align:center; margin-top: 0px; margin-bottom: 0px; font-size: 40px"";>מוכנים לשלם: <span id=""c_p_y""></span></p>","54","evaluation","36","22","10A,11A","45","61","54","","","","","","","","","","","","","",""
"","","","","","html-keyboard-response","245","623948","0.0-25.0-2.11","70786636-f4bf-474e-9144-0533ce8a48dd","null","<p style=""text-align: center;"">+</p>","null","fixation","","","","","","","","","","","","","","","","","","","",""
"","","","","","html-slider-response","246","624965","0.0-25.0-0.12","70786636-f4bf-474e-9144-0533ce8a48dd","1000","
                  <p style=""text-align: center;"">₪36
                                                <br>75%</p>
                  <p id=""wtp"" style=""text-align:center; margin-top: 0px; margin-bottom: 0px; font-size: 40px"";>&ensp;</p>","-","viewing","0","14","4B,5A,13B,16B","","","","","","","","","","","","","","","","",""
"","","","","","html-slider-response","247","627626","0.0-25.0-1.12","70786636-f4bf-474e-9144-0533ce8a48dd","2660","
                  <p style=""text-align: center;"">₪36
                                                <br>75%</p>
                  <p id=""wtp"" style=""text-align:center; margin-top: 0px; margin-bottom: 0px; font-size: 40px"";>מוכנים לשלם: <span id=""c_p_y""></span></p>","34","evaluation","37","14","4B,5A,13B,16B","75","36","35","","","","","","","","","","","","","",""
"","","","","","html-keyboard-response","248","628178","0.0-25.0-2.12","70786636-f4bf-474e-9144-0533ce8a48dd","null","<p style=""text-align: center;"">+</p>","null","fixation","","","","","","","","","","","","","","","","","","","",""
"","","","","","html-slider-response","249","629184","0.0-25.0-0.13","70786636-f4bf-474e-9144-0533ce8a48dd","1000","
                  <p style=""text-align: center;"">₪36
                                                <br>60%</p>
                  <p id=""wtp"" style=""text-align:center; margin-top: 0px; margin-bottom: 0px; font-size: 40px"";>&ensp;</p>","-","viewing","0","12","1C,7C,15C","","","","","","","","","","","","","","","","",""
"","","","","","html-slider-response","250","631658","0.0-25.0-1.13","70786636-f4bf-474e-9144-0533ce8a48dd","2472","
                  <p style=""text-align: center;"">₪36
                                                <br>60%</p>
                  <p id=""wtp"" style=""text-align:center; margin-top: 0px; margin-bottom: 0px; font-size: 40px"";>מוכנים לשלם: <span id=""c_p_y""></span></p>","36","evaluation","70","12","1C,7C,15C","60","36","36","","","","","","","","","","","","","",""
"","","","","","html-keyboard-response","251","632487","0.0-25.0-2.13","70786636-f4bf-474e-9144-0533ce8a48dd","null","<p style=""text-align: center;"">+</p>","null","fixation","","","","","","","","","","","","","","","","","","","",""
"","","","","","html-slider-response","252","633492","0.0-25.0-0.14","70786636-f4bf-474e-9144-0533ce8a48dd","1000","
                  <p style=""text-align: center;"">₪18
                                                <br>50%</p>
                  <p id=""wtp"" style=""text-align:center; margin-top: 0px; margin-bottom: 0px; font-size: 40px"";>&ensp;</p>","-","viewing","0","10","2C,16C,22B,28A","","","","","","","","","","","","","","","","",""
"","","","","","html-slider-response","253","636745","0.0-25.0-1.14","70786636-f4bf-474e-9144-0533ce8a48dd","3252","
                  <p style=""text-align: center;"">₪18
                                                <br>50%</p>
                  <p id=""wtp"" style=""text-align:center; margin-top: 0px; margin-bottom: 0px; font-size: 40px"";>מוכנים לשלם: <span id=""c_p_y""></span></p>","36","evaluation","35","10","2C,16C,22B,28A","50","18","36","","","","","","","","","","","","","",""
"","","","","","html-keyboard-response","254","637808","0.0-25.0-2.14","70786636-f4bf-474e-9144-0533ce8a48dd","null","<p style=""text-align: center;"">+</p>","null","fixation","","","","","","","","","","","","","","","","","","","",""
