"success","timeout","failed_images","failed_audio","failed_video","trial_type","trial_index","time_elapsed","internal_node_id","subject_id","rt","stimulus","response","part","slider_start","ID","set_ID","prob","amount","last_location","actual_choice","actual_EV","binary_id","trinary_id","catch","A_key","D_key","choice_prob","choice_amount","chosen_part","potential_prize_prob","potential_prize_amount","won_prize","total_prize","prize_cost","remaining_budget","accuracy"
"true","false","[]","[]","[]","preload","0","85","0.0-0.0","859cd32e-1a86-486f-9329-4b6f28585b9e","","","","","","","","","","","","","","","","","","","","","","","","","","",""
"","","","","","html-keyboard-response","1","652493","0.0-1.0","859cd32e-1a86-486f-9329-4b6f28585b9e","null","
          <h1>שלום וברוכים הבאים!</h1>
          <p>לפניכם ניסוי בקבלת החלטות עם שני חלקים.
          <br><br>לחצו על העכבר כדי להמשיך.</p>","0","example","","","","","","","","","","","","","","","","","","","","","","",""
"","","","","","html-keyboard-response","2","655261","0.0-2.0","859cd32e-1a86-486f-9329-4b6f28585b9e","null","
        <h1>חלק 1</h1>
        <p>בקרוב יוצגו בפניכם הגרלות.
        <br>עליכם לבחור את המחיר המירבי שתהיו מוכנים לשלם כדי להשתתף בהגרלה שתוצג.
        <br>יש לכם תקציב של ₪80 לכל הגרלה. 
        <br>נסו להעריך כל הגרלה בנפרד ולחשוב כמה היא שווה עבורכם, ₪80 זמינים לכל הגרלה בנפרד.
        <br><br>לחצו על העכבר כדי להמשיך.</p>","1","instructions","","","","","","","","","","","","","","","","","","","","","","",""
"","","","","","html-keyboard-response","3","658829","0.0-3.0","859cd32e-1a86-486f-9329-4b6f28585b9e","null","
        <p>בסוף הניסוי, המחשב יבחר את אחת ההגרלות ויקבע מחיר לכרטיס עבורה. 
        <br>במידה והמחיר שבחרתם נמוך מהמחיר שנבחר על ידי המחשב, לא תשתתפו בהגרלה ותשארו עם מלוא התקציב.
        <br>במידה והמחיר שבחרתם גבוה מהמחיר שנבחר על ידי המחשב, תשלמו את המחיר שנקבע ותשתתפו בהגרלה.
        <br><br>לחצו על העכבר כדי להמשיך.</p>","1","instructions","","","","","","","","","","","","","","","","","","","","","","",""
"","","","","","html-slider-response","4","680245","0.0-4.0","859cd32e-1a86-486f-9329-4b6f28585b9e","21309","
        <p style=""font-size: 42px;"">נתחיל עם דוגמא: 
        <br>ההגרלה מטה מציעה 65% סיכוי לזכות ב-₪40 
        <br>&emsp;&emsp;&emsp;&emsp;&emsp;&emsp;&emsp;&emsp;&ensp;35% סיכוי לזכות ב-₪0.
        <br><br>מה המחיר המירבי שתהיו מוכנים לשלם על כרטיס להגרלה זו בין 0 ל-₪80?
        <br>הזיזו את העכבר על פני המלבן ולחצו כדי לבצע בחירה.</p>
        
        <p style=""text-align: center;"">₪40<br>65%</p>

        <p id=""wtp"" style=""text-align:center; margin-top: 0px; margin-bottom: 0px; font-size: 40px"";>מוכנים לשלם: <span id=""c_p_y""></span></p>","15","example","4","","","","","","","","","","","","","","","","","","","","","",""
"","","","","","html-keyboard-response","5","690373","0.0-5.0","859cd32e-1a86-486f-9329-4b6f28585b9e","null","<p>יפה מאוד!
                <br> בחרתם שתהיו מוכנים לשלם ₪15 כדי להשתתף בהגרלה:
                <br><p style=""text-align: center;"">₪40<br>65%</p>
                <p>נשמע נכון?
                <br>נניח שהגרלה זו נבחרה בסוף הניסוי.
                <br>כעת המחשב יקבע מחיר עבורה באקראי.
                <br>לחצו על העכבר להמשך.</p>","1","example","","","","","","","","","","","","","","","","","","","","","","",""
"","","","","","html-keyboard-response","6","706909","0.0-6.0","859cd32e-1a86-486f-9329-4b6f28585b9e","null","<p>המחשב קבע מחיר: ₪42
                <br>ואתם בחרתם לשלם לכל היותר: ₪15
                <br><br>מכיוון שהמחיר שבחרתם נמוך מהמחיר שנקבע, לא תתשתתפו בהגרלה.
                <br>במקרה כזה, בסוף הניסוי תקבלו את כל התקציב ההתחלתי של ₪80.
                <br><br>לחצו על העכבר להמשך.</p>","1","example","","","","","","","","","","","","","","","","","","","","","","",""
"","","","","","html-slider-response","7","720789","0.0-7.0","859cd32e-1a86-486f-9329-4b6f28585b9e","13615","<p style=""font-size: 42px;"">הנה עוד דוגמא:
                <br>ההגרלה מטה מציעה 35% סיכוי לזכות ב-₪18 
                <br>&emsp;&emsp;&emsp;&emsp;&emsp;&emsp;&emsp;&emsp;&ensp;65% סיכוי לזכות ב-₪0.</p>
        
                <p style=""text-align: center;"">₪18<br>35%</p>
                <p id=""wtp"" style=""text-align:center; margin-top: 0px; margin-bottom: 0px; font-size: 40px"";>מוכנים לשלם: <span id=""c_p_y""></span></p>","7","example","10","","","","","","","","","","","","","","","","","","","","","",""
"","","","","","html-keyboard-response","8","724965","0.0-8.0","859cd32e-1a86-486f-9329-4b6f28585b9e","null","<p>הייתם מוכנים לשלם  ₪7 כדי להשתתף בהגרלה:
                <p style=""text-align: center;"">₪18<br>35%</p>
                <p>כעת נניח שהמחשב בחר את ההגרלה הזו בסוף הניסוי, וקבע עבורה מחיר.
                <br><br>לחצו על העכבר כדי להמשיך.</p>","1","instructions","","","","","","","","","","","","","","","","","","","","","","",""
"","","","","","html-keyboard-response","9","746845","0.0-9.0","859cd32e-1a86-486f-9329-4b6f28585b9e","null","<p>המחשב קבע מחיר להגרלה: ₪7
                <br>ואתם בחרתם לשלם לכל היותר: ₪7
                <br><br>כעת המחיר שנקבע זהה לזה שבחרתם, אז תשלמו את המחיר שקבע המחשב (₪7) ותשתתפו בהגרלה.
                <br>במקרה כזה, תסיימו את הניסוי עם תקציב של ₪73 ועם סיכוי לזכות ב-₪18 נוספים מההגרלה.
                <br>כלומר, תוכלו לקבל ₪73 אם לא תזכו בהגרלה, או ₪91 אם תזכו בהגרלה.
                <br><br>לחצו על העכבר להמשך.</p>","1","example","","","","","","","","","","","","","","","","","","","","","","",""
"","","","","","html-keyboard-response","10","758836","0.0-10.0","859cd32e-1a86-486f-9329-4b6f28585b9e","null","<p>במהלך הניסוי, קודם תראו את ההגרלה ורק לאחר מכן תוכלו לבחור.
                <p>כמו כן, יהיו לכם מספר שניות מוגבל להגיב.
                <p>בואו ננסה זאת עם ההגרלה הקודמת.
                <br>לחצו על העכבר כדי להמשיך.</p>","1","instructions","","","","","","","","","","","","","","","","","","","","","","",""
"","","","","","html-slider-response","11","760102","0.0-11.0","859cd32e-1a86-486f-9329-4b6f28585b9e","1000","
                    <p style=""text-align: center;"">₪18<br>35%</p>
                    <p id=""wtp"" style=""text-align:center; margin-top: 0px; margin-bottom: 0px; font-size: 40px"";>&ensp;</p>","44","instructions","0","","","","","","","","","","","","","","","","","","","","","",""
"","","","","","html-slider-response","12","764359","0.0-12.0","859cd32e-1a86-486f-9329-4b6f28585b9e","null","
                    <p style=""text-align: center;"">₪18<br>35%</p>
                    <p id=""wtp"" style=""text-align:center; margin-top: 0px; margin-bottom: 0px; font-size: 40px"";>מוכנים לשלם: <span id=""c_p_y""></span></p>","null","instructions","43","","","","","","","","","","","","","","","","","","","","","",""
"","","","","","html-keyboard-response","13","771541","0.0-13.0","859cd32e-1a86-486f-9329-4b6f28585b9e","null","<p>לא הגבתם בזמן המוקצב לתגובה. 
                <br>נסו להגיב מהר יותר בפעם הבאה.
                <br><br>לחצו על העכבר כדי להמשיך.</p>","1","instructions","","","","","","","","","","","","","","","","","","","","","","",""
"","","","","","html-slider-response","14","773997","0.0-14.0-0.0","859cd32e-1a86-486f-9329-4b6f28585b9e","2197","
                    <p style=""text-align: center;"">₪40<br>65%</p>
                    <p id=""wtp"" style=""text-align:center; margin-top: 0px; margin-bottom: 0px; font-size: 40px"";>מוכנים לשלם: <span id=""c_p_y""></span></p>","14","instructions","77","","","","","","","","","","","","","","","","","","","","","",""
"","","","","","html-keyboard-response","15","778365","0.0-14.0-1.0","859cd32e-1a86-486f-9329-4b6f28585b9e","null","<p>יפה. הפעם בחרתם לשלם לכל היותר ₪14.
                <br><br>לחצו על העכבר כדי להמשיך.</p>","1","instructions","","","","","","","","","","","","","","","","","","","","","","",""
"","","","","","html-keyboard-response","16","785316","0.0-15.0","859cd32e-1a86-486f-9329-4b6f28585b9e","null","<p>כעת נתחיל את הניסוי.
                <br><br>אתם תראו הגרלות ותתבקשו לבחור כמה תהיו מוכנים לשלם כדי להשתתף בהן.
                <br>יש לכם תקציב של ₪80 עבור כל הגרלה.
                <br>בסוף הניסוי הגרלה אחת תבחר באקראי ותשוחק.
                <br><br>לחצו על העכבר כדי להתחיל את הניסוי.</p>","1","instructions","","","","","","","","","","","","","","","","","","","","","","",""
"","","","","","html-keyboard-response","17","786573","0.0-16.0","859cd32e-1a86-486f-9329-4b6f28585b9e","null","<p style=""text-align: center;"">+</p>","null","fixation","","","","","","","","","","","","","","","","","","","","","","",""
"","","","","","html-slider-response","18","787576","0.0-17.0-0.0","859cd32e-1a86-486f-9329-4b6f28585b9e","1000","
                  <p style=""text-align: center;"">₪4
                                                <br>75%</p>
                  <p id=""wtp"" style=""text-align:center; margin-top: 0px; margin-bottom: 0px; font-size: 40px"";>&ensp;</p>","-","viewing","0","3","12B,20B,23B,27C,29C","","","","","","","","","","","","","","","","","","","",""
"","","","","","html-slider-response","19","790029","0.0-17.0-1.0","859cd32e-1a86-486f-9329-4b6f28585b9e","2452","
                  <p style=""text-align: center;"">₪4
                                                <br>75%</p>
                  <p id=""wtp"" style=""text-align:center; margin-top: 0px; margin-bottom: 0px; font-size: 40px"";>מוכנים לשלם: <span id=""c_p_y""></span></p>","5","evaluation","74","3","12B,20B,23B,27C,29C","75","4","5","","","","","","","","","","","","","","","","",""
"","","","","","html-keyboard-response","20","791036","0.0-17.0-2.0","859cd32e-1a86-486f-9329-4b6f28585b9e","null","<p style=""text-align: center;"">+</p>","null","fixation","","","","","","","","","","","","","","","","","","","","","","",""
"","","","","","html-slider-response","21","792039","0.0-17.0-0.1","859cd32e-1a86-486f-9329-4b6f28585b9e","1000","
                  <p style=""text-align: center;"">₪36
                                                <br>60%</p>
                  <p id=""wtp"" style=""text-align:center; margin-top: 0px; margin-bottom: 0px; font-size: 40px"";>&ensp;</p>","-","viewing","0","12","1C,7C,15C","","","","","","","","","","","","","","","","","","","",""
"","","","","","html-slider-response","22","794413","0.0-17.0-1.1","859cd32e-1a86-486f-9329-4b6f28585b9e","2372","
                  <p style=""text-align: center;"">₪36
                                                <br>60%</p>
                  <p id=""wtp"" style=""text-align:center; margin-top: 0px; margin-bottom: 0px; font-size: 40px"";>מוכנים לשלם: <span id=""c_p_y""></span></p>","18","evaluation","63","12","1C,7C,15C","60","36","18","","","","","","","","","","","","","","","","",""
"","","","","","html-keyboard-response","23","795629","0.0-17.0-2.1","859cd32e-1a86-486f-9329-4b6f28585b9e","null","<p style=""text-align: center;"">+</p>","null","fixation","","","","","","","","","","","","","","","","","","","","","","",""
"","","","","","html-slider-response","24","796643","0.0-17.0-0.2","859cd32e-1a86-486f-9329-4b6f28585b9e","1000","
                  <p style=""text-align: center;"">₪39
                                                <br>60%</p>
                  <p id=""wtp"" style=""text-align:center; margin-top: 0px; margin-bottom: 0px; font-size: 40px"";>&ensp;</p>","-","viewing","0","15","9C,25B","","","","","","","","","","","","","","","","","","","",""
"","","","","","html-slider-response","25","798308","0.0-17.0-1.2","859cd32e-1a86-486f-9329-4b6f28585b9e","1665","
                  <p style=""text-align: center;"">₪39
                                                <br>60%</p>
                  <p id=""wtp"" style=""text-align:center; margin-top: 0px; margin-bottom: 0px; font-size: 40px"";>מוכנים לשלם: <span id=""c_p_y""></span></p>","14","evaluation","31","15","9C,25B","60","39","14","","","","","","","","","","","","","","","","",""
"","","","","","html-keyboard-response","26","799062","0.0-17.0-2.2","859cd32e-1a86-486f-9329-4b6f28585b9e","null","<p style=""text-align: center;"">+</p>","null","fixation","","","","","","","","","","","","","","","","","","","","","","",""
"","","","","","html-slider-response","27","800070","0.0-17.0-0.3","859cd32e-1a86-486f-9329-4b6f28585b9e","1000","
                  <p style=""text-align: center;"">₪36
                                                <br>70%</p>
                  <p id=""wtp"" style=""text-align:center; margin-top: 0px; margin-bottom: 0px; font-size: 40px"";>&ensp;</p>","-","viewing","0","13","3A,5C,10B","","","","","","","","","","","","","","","","","","","",""
"","","","","","html-slider-response","28","802021","0.0-17.0-1.3","859cd32e-1a86-486f-9329-4b6f28585b9e","1949","
                  <p style=""text-align: center;"">₪36
                                                <br>70%</p>
                  <p id=""wtp"" style=""text-align:center; margin-top: 0px; margin-bottom: 0px; font-size: 40px"";>מוכנים לשלם: <span id=""c_p_y""></span></p>","17","evaluation","63","13","3A,5C,10B","70","36","17","","","","","","","","","","","","","","","","",""
"","","","","","html-keyboard-response","29","803407","0.0-17.0-2.3","859cd32e-1a86-486f-9329-4b6f28585b9e","null","<p style=""text-align: center;"">+</p>","null","fixation","","","","","","","","","","","","","","","","","","","","","","",""
"","","","","","html-slider-response","30","804413","0.0-17.0-0.4","859cd32e-1a86-486f-9329-4b6f28585b9e","1000","
                  <p style=""text-align: center;"">₪58
                                                <br>40%</p>
                  <p id=""wtp"" style=""text-align:center; margin-top: 0px; margin-bottom: 0px; font-size: 40px"";>&ensp;</p>","-","viewing","0","20","10C,13A,19C,21B","","","","","","","","","","","","","","","","","","","",""
"","","","","","html-slider-response","31","806461","0.0-17.0-1.4","859cd32e-1a86-486f-9329-4b6f28585b9e","2047","
                  <p style=""text-align: center;"">₪58
                                                <br>40%</p>
                  <p id=""wtp"" style=""text-align:center; margin-top: 0px; margin-bottom: 0px; font-size: 40px"";>מוכנים לשלם: <span id=""c_p_y""></span></p>","14","evaluation","8","20","10C,13A,19C,21B","40","58","14","","","","","","","","","","","","","","","","",""
"","","","","","html-keyboard-response","32","807135","0.0-17.0-2.4","859cd32e-1a86-486f-9329-4b6f28585b9e","null","<p style=""text-align: center;"">+</p>","null","fixation","","","","","","","","","","","","","","","","","","","","","","",""
"","","","","","html-slider-response","33","808141","0.0-17.0-0.5","859cd32e-1a86-486f-9329-4b6f28585b9e","1000","
                  <p style=""text-align: center;"">₪4
                                                <br>25%</p>
                  <p id=""wtp"" style=""text-align:center; margin-top: 0px; margin-bottom: 0px; font-size: 40px"";>&ensp;</p>","-","viewing","0","1","6C,29B,30C","","","","","","","","","","","","","","","","","","","",""
"","","","","","html-slider-response","34","809292","0.0-17.0-1.5","859cd32e-1a86-486f-9329-4b6f28585b9e","1151","
                  <p style=""text-align: center;"">₪4
                                                <br>25%</p>
                  <p id=""wtp"" style=""text-align:center; margin-top: 0px; margin-bottom: 0px; font-size: 40px"";>מוכנים לשלם: <span id=""c_p_y""></span></p>","1","evaluation","46","1","6C,29B,30C","25","4","1","","","","","","","","","","","","","","","","",""
"","","","","","html-keyboard-response","35","810034","0.0-17.0-2.5","859cd32e-1a86-486f-9329-4b6f28585b9e","null","<p style=""text-align: center;"">+</p>","null","fixation","","","","","","","","","","","","","","","","","","","","","","",""
"","","","","","html-slider-response","36","811035","0.0-17.0-0.6","859cd32e-1a86-486f-9329-4b6f28585b9e","1000","
                  <p style=""text-align: center;"">₪16
                                                <br>20%</p>
                  <p id=""wtp"" style=""text-align:center; margin-top: 0px; margin-bottom: 0px; font-size: 40px"";>&ensp;</p>","-","viewing","0","8","14C,17A,20C,27A","","","","","","","","","","","","","","","","","","","",""
"","","","","","html-slider-response","37","812557","0.0-17.0-1.6","859cd32e-1a86-486f-9329-4b6f28585b9e","1520","
                  <p style=""text-align: center;"">₪16
                                                <br>20%</p>
                  <p id=""wtp"" style=""text-align:center; margin-top: 0px; margin-bottom: 0px; font-size: 40px"";>מוכנים לשלם: <span id=""c_p_y""></span></p>","3","evaluation","38","8","14C,17A,20C,27A","20","16","3","","","","","","","","","","","","","","","","",""
"","","","","","html-keyboard-response","38","813461","0.0-17.0-2.6","859cd32e-1a86-486f-9329-4b6f28585b9e","null","<p style=""text-align: center;"">+</p>","null","fixation","","","","","","","","","","","","","","","","","","","","","","",""
"","","","","","html-slider-response","39","814463","0.0-17.0-0.7","859cd32e-1a86-486f-9329-4b6f28585b9e","1000","
                  <p style=""text-align: center;"">₪11
                                                <br>20%</p>
                  <p id=""wtp"" style=""text-align:center; margin-top: 0px; margin-bottom: 0px; font-size: 40px"";>&ensp;</p>","-","viewing","0","4","12C,17C,23C,28C","","","","","","","","","","","","","","","","","","","",""
"","","","","","html-slider-response","40","816692","0.0-17.0-1.7","859cd32e-1a86-486f-9329-4b6f28585b9e","2229","
                  <p style=""text-align: center;"">₪11
                                                <br>20%</p>
                  <p id=""wtp"" style=""text-align:center; margin-top: 0px; margin-bottom: 0px; font-size: 40px"";>מוכנים לשלם: <span id=""c_p_y""></span></p>","10","evaluation","25","4","12C,17C,23C,28C","20","11","10","","","","","","","","","","","","","","","","",""
"","","","","","html-keyboard-response","41","817996","0.0-17.0-2.7","859cd32e-1a86-486f-9329-4b6f28585b9e","null","<p style=""text-align: center;"">+</p>","null","fixation","","","","","","","","","","","","","","","","","","","","","","",""
"","","","","","html-slider-response","42","819002","0.0-17.0-0.8","859cd32e-1a86-486f-9329-4b6f28585b9e","1000","
                  <p style=""text-align: center;"">₪61
                                                <br>45%</p>
                  <p id=""wtp"" style=""text-align:center; margin-top: 0px; margin-bottom: 0px; font-size: 40px"";>&ensp;</p>","-","viewing","0","22","10A,11A","","","","","","","","","","","","","","","","","","","",""
"","","","","","html-slider-response","43","821469","0.0-17.0-1.8","859cd32e-1a86-486f-9329-4b6f28585b9e","2466","
                  <p style=""text-align: center;"">₪61
                                                <br>45%</p>
                  <p id=""wtp"" style=""text-align:center; margin-top: 0px; margin-bottom: 0px; font-size: 40px"";>מוכנים לשלם: <span id=""c_p_y""></span></p>","14","evaluation","23","22","10A,11A","45","61","14","","","","","","","","","","","","","","","","",""
"","","","","","html-keyboard-response","44","822574","0.0-17.0-2.8","859cd32e-1a86-486f-9329-4b6f28585b9e","null","<p style=""text-align: center;"">+</p>","null","fixation","","","","","","","","","","","","","","","","","","","","","","",""
"","","","","","html-slider-response","45","823587","0.0-17.0-0.9","859cd32e-1a86-486f-9329-4b6f28585b9e","1000","
                  <p style=""text-align: center;"">₪11
                                                <br>25%</p>
                  <p id=""wtp"" style=""text-align:center; margin-top: 0px; margin-bottom: 0px; font-size: 40px"";>&ensp;</p>","-","viewing","0","5","12A,27B,28B,30B","","","","","","","","","","","","","","","","","","","",""
"","","","","","html-slider-response","46","825477","0.0-17.0-1.9","859cd32e-1a86-486f-9329-4b6f28585b9e","1888","
                  <p style=""text-align: center;"">₪11
                                                <br>25%</p>
                  <p id=""wtp"" style=""text-align:center; margin-top: 0px; margin-bottom: 0px; font-size: 40px"";>מוכנים לשלם: <span id=""c_p_y""></span></p>","2","evaluation","18","5","12A,27B,28B,30B","25","11","2","","","","","","","","","","","","","","","","",""
"","","","","","html-keyboard-response","47","826534","0.0-17.0-2.9","859cd32e-1a86-486f-9329-4b6f28585b9e","null","<p style=""text-align: center;"">+</p>","null","fixation","","","","","","","","","","","","","","","","","","","","","","",""
"","","","","","html-slider-response","48","827548","0.0-17.0-0.10","859cd32e-1a86-486f-9329-4b6f28585b9e","1000","
                  <p style=""text-align: center;"">₪4
                                                <br>50%</p>
                  <p id=""wtp"" style=""text-align:center; margin-top: 0px; margin-bottom: 0px; font-size: 40px"";>&ensp;</p>","-","viewing","0","2","4C,17B","","","","","","","","","","","","","","","","","","","",""
"","","","","","html-slider-response","49","828989","0.0-17.0-1.10","859cd32e-1a86-486f-9329-4b6f28585b9e","1440","
                  <p style=""text-align: center;"">₪4
                                                <br>50%</p>
                  <p id=""wtp"" style=""text-align:center; margin-top: 0px; margin-bottom: 0px; font-size: 40px"";>מוכנים לשלם: <span id=""c_p_y""></span></p>","1","evaluation","3","2","4C,17B","50","4","1","","","","","","","","","","","","","","","","",""
"","","","","","html-keyboard-response","50","830316","0.0-17.0-2.10","859cd32e-1a86-486f-9329-4b6f28585b9e","null","<p style=""text-align: center;"">+</p>","null","fixation","","","","","","","","","","","","","","","","","","","","","","",""
"","","","","","html-slider-response","51","831325","0.0-17.0-0.11","859cd32e-1a86-486f-9329-4b6f28585b9e","1000","
                  <p style=""text-align: center;"">₪64
                                                <br>50%</p>
                  <p id=""wtp"" style=""text-align:center; margin-top: 0px; margin-bottom: 0px; font-size: 40px"";>&ensp;</p>","-","viewing","0","25","1B,3B,4A","","","","","","","","","","","","","","","","","","","",""
"","","","","","html-slider-response","52","833693","0.0-17.0-1.11","859cd32e-1a86-486f-9329-4b6f28585b9e","2366","
                  <p style=""text-align: center;"">₪64
                                                <br>50%</p>
                  <p id=""wtp"" style=""text-align:center; margin-top: 0px; margin-bottom: 0px; font-size: 40px"";>מוכנים לשלם: <span id=""c_p_y""></span></p>","28","evaluation","16","25","1B,3B,4A","50","64","28","","","","","","","","","","","","","","","","",""
"","","","","","html-keyboard-response","53","834997","0.0-17.0-2.11","859cd32e-1a86-486f-9329-4b6f28585b9e","null","<p style=""text-align: center;"">+</p>","null","fixation","","","","","","","","","","","","","","","","","","","","","","",""
"","","","","","html-slider-response","54","836006","0.0-17.0-0.12","859cd32e-1a86-486f-9329-4b6f28585b9e","1000","
                  <p style=""text-align: center;"">₪71
                                                <br>75%</p>
                  <p id=""wtp"" style=""text-align:center; margin-top: 0px; margin-bottom: 0px; font-size: 40px"";>&ensp;</p>","-","viewing","0","28","8B","","","","","","","","","","","","","","","","","","","",""
"","","","","","html-slider-response","55","837989","0.0-17.0-1.12","859cd32e-1a86-486f-9329-4b6f28585b9e","1982","
                  <p style=""text-align: center;"">₪71
                                                <br>75%</p>
                  <p id=""wtp"" style=""text-align:center; margin-top: 0px; margin-bottom: 0px; font-size: 40px"";>מוכנים לשלם: <span id=""c_p_y""></span></p>","70","evaluation","52","28","8B","75","71","70","","","","","","","","","","","","","","","","",""
"","","","","","html-keyboard-response","56","838840","0.0-17.0-2.12","859cd32e-1a86-486f-9329-4b6f28585b9e","null","<p style=""text-align: center;"">+</p>","null","fixation","","","","","","","","","","","","","","","","","","","","","","",""
"","","","","","html-slider-response","57","839844","0.0-17.0-0.13","859cd32e-1a86-486f-9329-4b6f28585b9e","1000","
                  <p style=""text-align: center;"">₪36
                                                <br>30%</p>
                  <p id=""wtp"" style=""text-align:center; margin-top: 0px; margin-bottom: 0px; font-size: 40px"";>&ensp;</p>","-","viewing","0","11","3C,20A,22A","","","","","","","","","","","","","","","","","","","",""
"","","","","","html-slider-response","58","842765","0.0-17.0-1.13","859cd32e-1a86-486f-9329-4b6f28585b9e","2920","
                  <p style=""text-align: center;"">₪36
                                                <br>30%</p>
                  <p id=""wtp"" style=""text-align:center; margin-top: 0px; margin-bottom: 0px; font-size: 40px"";>מוכנים לשלם: <span id=""c_p_y""></span></p>","15","evaluation","26","11","3C,20A,22A","30","36","15","","","","","","","","","","","","","","","","",""
"","","","","","html-keyboard-response","59","843949","0.0-17.0-2.13","859cd32e-1a86-486f-9329-4b6f28585b9e","null","<p style=""text-align: center;"">+</p>","null","fixation","","","","","","","","","","","","","","","","","","","","","","",""
"","","","","","html-slider-response","60","844955","0.0-17.0-0.14","859cd32e-1a86-486f-9329-4b6f28585b9e","1000","
                  <p style=""text-align: center;"">₪61
                                                <br>55%</p>
                  <p id=""wtp"" style=""text-align:center; margin-top: 0px; margin-bottom: 0px; font-size: 40px"";>&ensp;</p>","-","viewing","0","23","7B,26B","","","","","","","","","","","","","","","","","","","",""
"","","","","","html-slider-response","61","846869","0.0-17.0-1.14","859cd32e-1a86-486f-9329-4b6f28585b9e","1914","
                  <p style=""text-align: center;"">₪61
                                                <br>55%</p>
                  <p id=""wtp"" style=""text-align:center; margin-top: 0px; margin-bottom: 0px; font-size: 40px"";>מוכנים לשלם: <span id=""c_p_y""></span></p>","38","evaluation","77","23","7B,26B","55","61","38","","","","","","","","","","","","","","","","",""
"","","","","","html-keyboard-response","62","848238","0.0-17.0-2.14","859cd32e-1a86-486f-9329-4b6f28585b9e","null","<p style=""text-align: center;"">+</p>","null","fixation","","","","","","","","","","","","","","","","","","","","","","",""
"","","","","","html-slider-response","63","849245","0.0-17.0-0.15","859cd32e-1a86-486f-9329-4b6f28585b9e","1000","
                  <p style=""text-align: center;"">₪18
                                                <br>50%</p>
                  <p id=""wtp"" style=""text-align:center; margin-top: 0px; margin-bottom: 0px; font-size: 40px"";>&ensp;</p>","-","viewing","0","10","2C,16C,22B,28A","","","","","","","","","","","","","","","","","","","",""
"","","","","","html-slider-response","64","851309","0.0-17.0-1.15","859cd32e-1a86-486f-9329-4b6f28585b9e","2063","
                  <p style=""text-align: center;"">₪18
                                                <br>50%</p>
                  <p id=""wtp"" style=""text-align:center; margin-top: 0px; margin-bottom: 0px; font-size: 40px"";>מוכנים לשלם: <span id=""c_p_y""></span></p>","10","evaluation","39","10","2C,16C,22B,28A","50","18","10","","","","","","","","","","","","","","","","",""
"","","","","","html-keyboard-response","65","851879","0.0-17.0-2.15","859cd32e-1a86-486f-9329-4b6f28585b9e","null","<p style=""text-align: center;"">+</p>","null","fixation","","","","","","","","","","","","","","","","","","","","","","",""
"","","","","","html-slider-response","66","852891","0.0-17.0-0.16","859cd32e-1a86-486f-9329-4b6f28585b9e","1000","
                  <p style=""text-align: center;"">₪43
                                                <br>60%</p>
                  <p id=""wtp"" style=""text-align:center; margin-top: 0px; margin-bottom: 0px; font-size: 40px"";>&ensp;</p>","-","viewing","0","17","2A,7A,9A,15B","","","","","","","","","","","","","","","","","","","",""
"","","","","","html-slider-response","67","855293","0.0-17.0-1.16","859cd32e-1a86-486f-9329-4b6f28585b9e","2401","
                  <p style=""text-align: center;"">₪43
                                                <br>60%</p>
                  <p id=""wtp"" style=""text-align:center; margin-top: 0px; margin-bottom: 0px; font-size: 40px"";>מוכנים לשלם: <span id=""c_p_y""></span></p>","25","evaluation","26","17","2A,7A,9A,15B","60","43","25","","","","","","","","","","","","","","","","",""
"","","","","","html-keyboard-response","68","856430","0.0-17.0-2.16","859cd32e-1a86-486f-9329-4b6f28585b9e","null","<p style=""text-align: center;"">+</p>","null","fixation","","","","","","","","","","","","","","","","","","","","","","",""
"","","","","","html-slider-response","69","857439","0.0-17.0-0.17","859cd32e-1a86-486f-9329-4b6f28585b9e","1000","
                  <p style=""text-align: center;"">₪76
                                                <br>65%</p>
                  <p id=""wtp"" style=""text-align:center; margin-top: 0px; margin-bottom: 0px; font-size: 40px"";>&ensp;</p>","-","viewing","0","29","8C,19A,24B","","","","","","","","","","","","","","","","","","","",""
"","","","","","html-slider-response","70","859445","0.0-17.0-1.17","859cd32e-1a86-486f-9329-4b6f28585b9e","2005","
                  <p style=""text-align: center;"">₪76
                                                <br>65%</p>
                  <p id=""wtp"" style=""text-align:center; margin-top: 0px; margin-bottom: 0px; font-size: 40px"";>מוכנים לשלם: <span id=""c_p_y""></span></p>","37","evaluation","30","29","8C,19A,24B","65","76","37","","","","","","","","","","","","","","","","",""
"","","","","","html-keyboard-response","71","860552","0.0-17.0-2.17","859cd32e-1a86-486f-9329-4b6f28585b9e","null","<p style=""text-align: center;"">+</p>","null","fixation","","","","","","","","","","","","","","","","","","","","","","",""
"","","","","","html-slider-response","72","861559","0.0-17.0-0.18","859cd32e-1a86-486f-9329-4b6f28585b9e","1000","
                  <p style=""text-align: center;"">₪11
                                                <br>75%</p>
                  <p id=""wtp"" style=""text-align:center; margin-top: 0px; margin-bottom: 0px; font-size: 40px"";>&ensp;</p>","-","viewing","0","7","6B,18B,22C,24C,29A","","","","","","","","","","","","","","","","","","","",""
"","","","","","html-slider-response","73","863573","0.0-17.0-1.18","859cd32e-1a86-486f-9329-4b6f28585b9e","2012","
                  <p style=""text-align: center;"">₪11
                                                <br>75%</p>
                  <p id=""wtp"" style=""text-align:center; margin-top: 0px; margin-bottom: 0px; font-size: 40px"";>מוכנים לשלם: <span id=""c_p_y""></span></p>","8","evaluation","33","7","6B,18B,22C,24C,29A","75","11","8","","","","","","","","","","","","","","","","",""
"","","","","","html-keyboard-response","74","864235","0.0-17.0-2.18","859cd32e-1a86-486f-9329-4b6f28585b9e","null","<p style=""text-align: center;"">+</p>","null","fixation","","","","","","","","","","","","","","","","","","","","","","",""
"","","","","","html-slider-response","75","865245","0.0-17.0-0.19","859cd32e-1a86-486f-9329-4b6f28585b9e","1000","
                  <p style=""text-align: center;"">₪58
                                                <br>30%</p>
                  <p id=""wtp"" style=""text-align:center; margin-top: 0px; margin-bottom: 0px; font-size: 40px"";>&ensp;</p>","-","viewing","0","19","13C,30A","","","","","","","","","","","","","","","","","","","",""
"","","","","","html-slider-response","76","867957","0.0-17.0-1.19","859cd32e-1a86-486f-9329-4b6f28585b9e","2710","
                  <p style=""text-align: center;"">₪58
                                                <br>30%</p>
                  <p id=""wtp"" style=""text-align:center; margin-top: 0px; margin-bottom: 0px; font-size: 40px"";>מוכנים לשלם: <span id=""c_p_y""></span></p>","13","evaluation","24","19","13C,30A","30","58","13","","","","","","","","","","","","","","","","",""
"","","","","","html-keyboard-response","77","869200","0.0-17.0-2.19","859cd32e-1a86-486f-9329-4b6f28585b9e","null","<p style=""text-align: center;"">+</p>","null","fixation","","","","","","","","","","","","","","","","","","","","","","",""
"","","","","","html-slider-response","78","870202","0.0-17.0-0.20","859cd32e-1a86-486f-9329-4b6f28585b9e","1000","
                  <p style=""text-align: center;"">₪39
                                                <br>65%</p>
                  <p id=""wtp"" style=""text-align:center; margin-top: 0px; margin-bottom: 0px; font-size: 40px"";>&ensp;</p>","-","viewing","0","16","1A,15A,26C","","","","","","","","","","","","","","","","","","","",""
"","","","","","html-slider-response","79","872789","0.0-17.0-1.20","859cd32e-1a86-486f-9329-4b6f28585b9e","2585","
                  <p style=""text-align: center;"">₪39
                                                <br>65%</p>
                  <p id=""wtp"" style=""text-align:center; margin-top: 0px; margin-bottom: 0px; font-size: 40px"";>מוכנים לשלם: <span id=""c_p_y""></span></p>","20","evaluation","42","16","1A,15A,26C","65","39","20","","","","","","","","","","","","","","","","",""
"","","","","","html-keyboard-response","80","873927","0.0-17.0-2.20","859cd32e-1a86-486f-9329-4b6f28585b9e","null","<p style=""text-align: center;"">+</p>","null","fixation","","","","","","","","","","","","","","","","","","","","","","",""
"","","","","","html-slider-response","81","874939","0.0-17.0-0.21","859cd32e-1a86-486f-9329-4b6f28585b9e","1000","
                  <p style=""text-align: center;"">₪79
                                                <br>40%</p>
                  <p id=""wtp"" style=""text-align:center; margin-top: 0px; margin-bottom: 0px; font-size: 40px"";>&ensp;</p>","-","viewing","0","30","9B","","","","","","","","","","","","","","","","","","","",""
"","","","","","html-slider-response","82","877341","0.0-17.0-1.21","859cd32e-1a86-486f-9329-4b6f28585b9e","2401","
                  <p style=""text-align: center;"">₪79
                                                <br>40%</p>
                  <p id=""wtp"" style=""text-align:center; margin-top: 0px; margin-bottom: 0px; font-size: 40px"";>מוכנים לשלם: <span id=""c_p_y""></span></p>","22","evaluation","29","30","9B","40","79","22","","","","","","","","","","","","","","","","",""
"","","","","","html-keyboard-response","83","878390","0.0-17.0-2.21","859cd32e-1a86-486f-9329-4b6f28585b9e","null","<p style=""text-align: center;"">+</p>","null","fixation","","","","","","","","","","","","","","","","","","","","","","",""
"","","","","","html-slider-response","84","879395","0.0-17.0-0.22","859cd32e-1a86-486f-9329-4b6f28585b9e","1000","
                  <p style=""text-align: center;"">₪79
                                                <br>65%</p>
                  <p id=""wtp"" style=""text-align:center; margin-top: 0px; margin-bottom: 0px; font-size: 40px"";>&ensp;</p>","-","viewing","0","31","8A","","","","","","","","","","","","","","","","","","","",""
"","","","","","html-slider-response","85","880965","0.0-17.0-1.22","859cd32e-1a86-486f-9329-4b6f28585b9e","1569","
                  <p style=""text-align: center;"">₪79
                                                <br>65%</p>
                  <p id=""wtp"" style=""text-align:center; margin-top: 0px; margin-bottom: 0px; font-size: 40px"";>מוכנים לשלם: <span id=""c_p_y""></span></p>","40","evaluation","56","31","8A","65","79","40","","","","","","","","","","","","","","","","",""
"","","","","","html-keyboard-response","86","881933","0.0-17.0-2.22","859cd32e-1a86-486f-9329-4b6f28585b9e","null","<p style=""text-align: center;"">+</p>","null","fixation","","","","","","","","","","","","","","","","","","","","","","",""
"","","","","","html-slider-response","87","882948","0.0-17.0-0.23","859cd32e-1a86-486f-9329-4b6f28585b9e","1000","
                  <p style=""text-align: center;"">₪36
                                                <br>75%</p>
                  <p id=""wtp"" style=""text-align:center; margin-top: 0px; margin-bottom: 0px; font-size: 40px"";>&ensp;</p>","-","viewing","0","14","4B,5A,13B,16B","","","","","","","","","","","","","","","","","","","",""
"","","","","","html-slider-response","88","885701","0.0-17.0-1.23","859cd32e-1a86-486f-9329-4b6f28585b9e","2752","
                  <p style=""text-align: center;"">₪36
                                                <br>75%</p>
                  <p id=""wtp"" style=""text-align:center; margin-top: 0px; margin-bottom: 0px; font-size: 40px"";>מוכנים לשלם: <span id=""c_p_y""></span></p>","13","evaluation","14","14","4B,5A,13B,16B","75","36","14","","","","","","","","","","","","","","","","",""
"","","","","","html-keyboard-response","89","886921","0.0-17.0-2.23","859cd32e-1a86-486f-9329-4b6f28585b9e","null","<p style=""text-align: center;"">+</p>","null","fixation","","","","","","","","","","","","","","","","","","","","","","",""
"","","","","","html-slider-response","90","887935","0.0-17.0-0.24","859cd32e-1a86-486f-9329-4b6f28585b9e","1000","
                  <p style=""text-align: center;"">₪18
                                                <br>25%</p>
                  <p id=""wtp"" style=""text-align:center; margin-top: 0px; margin-bottom: 0px; font-size: 40px"";>&ensp;</p>","-","viewing","0","9","14A,23A","","","","","","","","","","","","","","","","","","","",""
"","","","","","html-slider-response","91","890565","0.0-17.0-1.24","859cd32e-1a86-486f-9329-4b6f28585b9e","2629","
                  <p style=""text-align: center;"">₪18
                                                <br>25%</p>
                  <p id=""wtp"" style=""text-align:center; margin-top: 0px; margin-bottom: 0px; font-size: 40px"";>מוכנים לשלם: <span id=""c_p_y""></span></p>","12","evaluation","70","9","14A,23A","25","18","13","","","","","","","","","","","","","","","","",""
"","","","","","html-keyboard-response","92","891494","0.0-17.0-2.24","859cd32e-1a86-486f-9329-4b6f28585b9e","null","<p style=""text-align: center;"">+</p>","null","fixation","","","","","","","","","","","","","","","","","","","","","","",""
"","","","","","html-slider-response","93","892506","0.0-17.0-0.25","859cd32e-1a86-486f-9329-4b6f28585b9e","1000","
                  <p style=""text-align: center;"">₪64
                                                <br>25%</p>
                  <p id=""wtp"" style=""text-align:center; margin-top: 0px; margin-bottom: 0px; font-size: 40px"";>&ensp;</p>","-","viewing","0","24","6A,21A","","","","","","","","","","","","","","","","","","","",""
"","","","","","html-slider-response","94","894476","0.0-17.0-1.25","859cd32e-1a86-486f-9329-4b6f28585b9e","1969","
                  <p style=""text-align: center;"">₪64
                                                <br>25%</p>
                  <p id=""wtp"" style=""text-align:center; margin-top: 0px; margin-bottom: 0px; font-size: 40px"";>מוכנים לשלם: <span id=""c_p_y""></span></p>","17","evaluation","77","24","6A,21A","25","64","17","","","","","","","","","","","","","","","","",""
"","","","","","html-keyboard-response","95","895196","0.0-17.0-2.25","859cd32e-1a86-486f-9329-4b6f28585b9e","null","<p style=""text-align: center;"">+</p>","null","fixation","","","","","","","","","","","","","","","","","","","","","","",""
"","","","","","html-slider-response","96","896210","0.0-17.0-0.26","859cd32e-1a86-486f-9329-4b6f28585b9e","1000","
                  <p style=""text-align: center;"">₪11
                                                <br>45%</p>
                  <p id=""wtp"" style=""text-align:center; margin-top: 0px; margin-bottom: 0px; font-size: 40px"";>&ensp;</p>","-","viewing","0","6","14B,21C,25C","","","","","","","","","","","","","","","","","","","",""
"","","","","","html-slider-response","97","898812","0.0-17.0-1.26","859cd32e-1a86-486f-9329-4b6f28585b9e","2602","
                  <p style=""text-align: center;"">₪11
                                                <br>45%</p>
                  <p id=""wtp"" style=""text-align:center; margin-top: 0px; margin-bottom: 0px; font-size: 40px"";>מוכנים לשלם: <span id=""c_p_y""></span></p>","9","evaluation","13","6","14B,21C,25C","45","11","9","","","","","","","","","","","","","","","","",""
"","","","","","html-keyboard-response","98","899846","0.0-17.0-2.26","859cd32e-1a86-486f-9329-4b6f28585b9e","null","<p style=""text-align: center;"">+</p>","null","fixation","","","","","","","","","","","","","","","","","","","","","","",""
"","","","","","html-slider-response","99","900852","0.0-17.0-0.27","859cd32e-1a86-486f-9329-4b6f28585b9e","1000","
                  <p style=""text-align: center;"">₪71
                                                <br>45%</p>
                  <p id=""wtp"" style=""text-align:center; margin-top: 0px; margin-bottom: 0px; font-size: 40px"";>&ensp;</p>","-","viewing","0","26","2B,16A","","","","","","","","","","","","","","","","","","","",""
"","","","","","html-slider-response","100","903644","0.0-17.0-1.27","859cd32e-1a86-486f-9329-4b6f28585b9e","2791","
                  <p style=""text-align: center;"">₪71
                                                <br>45%</p>
                  <p id=""wtp"" style=""text-align:center; margin-top: 0px; margin-bottom: 0px; font-size: 40px"";>מוכנים לשלם: <span id=""c_p_y""></span></p>","27","evaluation","69","26","2B,16A","45","71","27","","","","","","","","","","","","","","","","",""
"","","","","","html-keyboard-response","101","905136","0.0-17.0-2.27","859cd32e-1a86-486f-9329-4b6f28585b9e","null","<p style=""text-align: center;"">+</p>","null","fixation","","","","","","","","","","","","","","","","","","","","","","",""
"","","","","","html-slider-response","102","906153","0.0-17.0-0.28","859cd32e-1a86-486f-9329-4b6f28585b9e","1000","
                  <p style=""text-align: center;"">₪71
                                                <br>55%</p>
                  <p id=""wtp"" style=""text-align:center; margin-top: 0px; margin-bottom: 0px; font-size: 40px"";>&ensp;</p>","-","viewing","0","27","5B,18A","","","","","","","","","","","","","","","","","","","",""
"","","","","","html-slider-response","103","909036","0.0-17.0-1.28","859cd32e-1a86-486f-9329-4b6f28585b9e","2882","
                  <p style=""text-align: center;"">₪71
                                                <br>55%</p>
                  <p id=""wtp"" style=""text-align:center; margin-top: 0px; margin-bottom: 0px; font-size: 40px"";>מוכנים לשלם: <span id=""c_p_y""></span></p>","36","evaluation","79","27","5B,18A","55","71","36","","","","","","","","","","","","","","","","",""
"","","","","","html-keyboard-response","104","910386","0.0-17.0-2.28","859cd32e-1a86-486f-9329-4b6f28585b9e","null","<p style=""text-align: center;"">+</p>","null","fixation","","","","","","","","","","","","","","","","","","","","","","",""
"","","","","","html-slider-response","105","911392","0.0-17.0-0.29","859cd32e-1a86-486f-9329-4b6f28585b9e","1000","
                  <p style=""text-align: center;"">₪58
                                                <br>45%</p>
                  <p id=""wtp"" style=""text-align:center; margin-top: 0px; margin-bottom: 0px; font-size: 40px"";>&ensp;</p>","-","viewing","0","21","11C,18C,25A","","","","","","","","","","","","","","","","","","","",""
"","","","","","html-slider-response","106","914124","0.0-17.0-1.29","859cd32e-1a86-486f-9329-4b6f28585b9e","2731","
                  <p style=""text-align: center;"">₪58
                                                <br>45%</p>
                  <p id=""wtp"" style=""text-align:center; margin-top: 0px; margin-bottom: 0px; font-size: 40px"";>מוכנים לשלם: <span id=""c_p_y""></span></p>","22","evaluation","34","21","11C,18C,25A","45","58","22","","","","","","","","","","","","","","","","",""
"","","","","","html-keyboard-response","107","915411","0.0-17.0-2.29","859cd32e-1a86-486f-9329-4b6f28585b9e","null","<p style=""text-align: center;"">+</p>","null","fixation","","","","","","","","","","","","","","","","","","","","","","",""
"","","","","","html-slider-response","108","916415","0.0-17.0-0.30","859cd32e-1a86-486f-9329-4b6f28585b9e","1000","
                  <p style=""text-align: center;"">₪43
                                                <br>75%</p>
                  <p id=""wtp"" style=""text-align:center; margin-top: 0px; margin-bottom: 0px; font-size: 40px"";>&ensp;</p>","-","viewing","0","18","11B,19B,24A,26A","","","","","","","","","","","","","","","","","","","",""
"","","","","","html-slider-response","109","919028","0.0-17.0-1.30","859cd32e-1a86-486f-9329-4b6f28585b9e","2613","
                  <p style=""text-align: center;"">₪43
                                                <br>75%</p>
                  <p id=""wtp"" style=""text-align:center; margin-top: 0px; margin-bottom: 0px; font-size: 40px"";>מוכנים לשלם: <span id=""c_p_y""></span></p>","21","evaluation","38","18","11B,19B,24A,26A","75","43","21","","","","","","","","","","","","","","","","",""
"","","","","","html-keyboard-response","110","920080","0.0-17.0-2.30","859cd32e-1a86-486f-9329-4b6f28585b9e","null","<p style=""text-align: center;"">+</p>","null","fixation","","","","","","","","","","","","","","","","","","","","","","",""
"","","","","","html-keyboard-response","111","921086","0.0-18.0","859cd32e-1a86-486f-9329-4b6f28585b9e","null","<p style=""text-align: center;"">+</p>","null","fixation","","","","","","","","","","","","","","","","","","","","","","",""
"","","","","","html-keyboard-response","112","925180","0.0-19.0","859cd32e-1a86-486f-9329-4b6f28585b9e","null","<p>הפסקה.
          <br>לחצו כדי להמשיך.</p>","1","scan_wait","","","","","","","","","","","","","","","","","","","","","","",""
"","","","","","html-keyboard-response","113","926181","0.0-20.0","859cd32e-1a86-486f-9329-4b6f28585b9e","null","<p style=""text-align: center;"">+</p>","null","fixation","","","","","","","","","","","","","","","","","","","","","","",""
"","","","","","html-slider-response","114","927186","0.0-21.0-0.0","859cd32e-1a86-486f-9329-4b6f28585b9e","1000","
                  <p style=""text-align: center;"">₪64
                                                <br>25%</p>
                  <p id=""wtp"" style=""text-align:center; margin-top: 0px; margin-bottom: 0px; font-size: 40px"";>&ensp;</p>","-","viewing","0","24","6A,21A","","","","","","","","","","","","","","","","","","","",""
"","","","","","html-slider-response","115","930164","0.0-21.0-1.0","859cd32e-1a86-486f-9329-4b6f28585b9e","2978","
                  <p style=""text-align: center;"">₪64
                                                <br>25%</p>
                  <p id=""wtp"" style=""text-align:center; margin-top: 0px; margin-bottom: 0px; font-size: 40px"";>מוכנים לשלם: <span id=""c_p_y""></span></p>","11","evaluation","7","24","6A,21A","25","64","11","","","","","","","","","","","","","","","","",""
"","","","","","html-keyboard-response","116","931584","0.0-21.0-2.0","859cd32e-1a86-486f-9329-4b6f28585b9e","null","<p style=""text-align: center;"">+</p>","null","fixation","","","","","","","","","","","","","","","","","","","","","","",""
"","","","","","html-slider-response","117","932596","0.0-21.0-0.1","859cd32e-1a86-486f-9329-4b6f28585b9e","1000","
                  <p style=""text-align: center;"">₪39
                                                <br>60%</p>
                  <p id=""wtp"" style=""text-align:center; margin-top: 0px; margin-bottom: 0px; font-size: 40px"";>&ensp;</p>","-","viewing","0","15","9C,25B","","","","","","","","","","","","","","","","","","","",""
"","","","","","html-slider-response","118","933692","0.0-21.0-1.1","859cd32e-1a86-486f-9329-4b6f28585b9e","1095","
                  <p style=""text-align: center;"">₪39
                                                <br>60%</p>
                  <p id=""wtp"" style=""text-align:center; margin-top: 0px; margin-bottom: 0px; font-size: 40px"";>מוכנים לשלם: <span id=""c_p_y""></span></p>","15","evaluation","8","15","9C,25B","60","39","15","","","","","","","","","","","","","","","","",""
"","","","","","html-keyboard-response","119","934792","0.0-21.0-2.1","859cd32e-1a86-486f-9329-4b6f28585b9e","null","<p style=""text-align: center;"">+</p>","null","fixation","","","","","","","","","","","","","","","","","","","","","","",""
"","","","","","html-slider-response","120","935801","0.0-21.0-0.2","859cd32e-1a86-486f-9329-4b6f28585b9e","1000","
                  <p style=""text-align: center;"">₪4
                                                <br>75%</p>
                  <p id=""wtp"" style=""text-align:center; margin-top: 0px; margin-bottom: 0px; font-size: 40px"";>&ensp;</p>","-","viewing","0","3","12B,20B,23B,27C,29C","","","","","","","","","","","","","","","","","","","",""
"","","","","","html-slider-response","121","937188","0.0-21.0-1.2","859cd32e-1a86-486f-9329-4b6f28585b9e","1387","
                  <p style=""text-align: center;"">₪4
                                                <br>75%</p>
                  <p id=""wtp"" style=""text-align:center; margin-top: 0px; margin-bottom: 0px; font-size: 40px"";>מוכנים לשלם: <span id=""c_p_y""></span></p>","2","evaluation","65","3","12B,20B,23B,27C,29C","75","4","2","","","","","","","","","","","","","","","","",""
"","","","","","html-keyboard-response","122","938374","0.0-21.0-2.2","859cd32e-1a86-486f-9329-4b6f28585b9e","null","<p style=""text-align: center;"">+</p>","null","fixation","","","","","","","","","","","","","","","","","","","","","","",""
"","","","","","html-slider-response","123","939383","0.0-21.0-0.3","859cd32e-1a86-486f-9329-4b6f28585b9e","1000","
                  <p style=""text-align: center;"">₪43
                                                <br>75%</p>
                  <p id=""wtp"" style=""text-align:center; margin-top: 0px; margin-bottom: 0px; font-size: 40px"";>&ensp;</p>","-","viewing","0","18","11B,19B,24A,26A","","","","","","","","","","","","","","","","","","","",""
"","","","","","html-slider-response","124","940916","0.0-21.0-1.3","859cd32e-1a86-486f-9329-4b6f28585b9e","1532","
                  <p style=""text-align: center;"">₪43
                                                <br>75%</p>
                  <p id=""wtp"" style=""text-align:center; margin-top: 0px; margin-bottom: 0px; font-size: 40px"";>מוכנים לשלם: <span id=""c_p_y""></span></p>","17","evaluation","32","18","11B,19B,24A,26A","75","43","17","","","","","","","","","","","","","","","","",""
"","","","","","html-keyboard-response","125","941453","0.0-21.0-2.3","859cd32e-1a86-486f-9329-4b6f28585b9e","null","<p style=""text-align: center;"">+</p>","null","fixation","","","","","","","","","","","","","","","","","","","","","","",""
"","","","","","html-slider-response","126","942457","0.0-21.0-0.4","859cd32e-1a86-486f-9329-4b6f28585b9e","1000","
                  <p style=""text-align: center;"">₪76
                                                <br>65%</p>
                  <p id=""wtp"" style=""text-align:center; margin-top: 0px; margin-bottom: 0px; font-size: 40px"";>&ensp;</p>","-","viewing","0","29","8C,19A,24B","","","","","","","","","","","","","","","","","","","",""
"","","","","","html-slider-response","127","944980","0.0-21.0-1.4","859cd32e-1a86-486f-9329-4b6f28585b9e","2523","
                  <p style=""text-align: center;"">₪76
                                                <br>65%</p>
                  <p id=""wtp"" style=""text-align:center; margin-top: 0px; margin-bottom: 0px; font-size: 40px"";>מוכנים לשלם: <span id=""c_p_y""></span></p>","36","evaluation","31","29","8C,19A,24B","65","76","36","","","","","","","","","","","","","","","","",""
"","","","","","html-keyboard-response","128","945726","0.0-21.0-2.4","859cd32e-1a86-486f-9329-4b6f28585b9e","null","<p style=""text-align: center;"">+</p>","null","fixation","","","","","","","","","","","","","","","","","","","","","","",""
"","","","","","html-slider-response","129","946738","0.0-21.0-0.5","859cd32e-1a86-486f-9329-4b6f28585b9e","1000","
                  <p style=""text-align: center;"">₪71
                                                <br>55%</p>
                  <p id=""wtp"" style=""text-align:center; margin-top: 0px; margin-bottom: 0px; font-size: 40px"";>&ensp;</p>","-","viewing","0","27","5B,18A","","","","","","","","","","","","","","","","","","","",""
"","","","","","html-slider-response","130","948876","0.0-21.0-1.5","859cd32e-1a86-486f-9329-4b6f28585b9e","2137","
                  <p style=""text-align: center;"">₪71
                                                <br>55%</p>
                  <p id=""wtp"" style=""text-align:center; margin-top: 0px; margin-bottom: 0px; font-size: 40px"";>מוכנים לשלם: <span id=""c_p_y""></span></p>","22","evaluation","43","27","5B,18A","55","71","22","","","","","","","","","","","","","","","","",""
"","","","","","html-keyboard-response","131","949445","0.0-21.0-2.5","859cd32e-1a86-486f-9329-4b6f28585b9e","null","<p style=""text-align: center;"">+</p>","null","fixation","","","","","","","","","","","","","","","","","","","","","","",""
"","","","","","html-slider-response","132","950448","0.0-21.0-0.6","859cd32e-1a86-486f-9329-4b6f28585b9e","1000","
                  <p style=""text-align: center;"">₪58
                                                <br>30%</p>
                  <p id=""wtp"" style=""text-align:center; margin-top: 0px; margin-bottom: 0px; font-size: 40px"";>&ensp;</p>","-","viewing","0","19","13C,30A","","","","","","","","","","","","","","","","","","","",""
"","","","","","html-slider-response","133","952108","0.0-21.0-1.6","859cd32e-1a86-486f-9329-4b6f28585b9e","1659","
                  <p style=""text-align: center;"">₪58
                                                <br>30%</p>
                  <p id=""wtp"" style=""text-align:center; margin-top: 0px; margin-bottom: 0px; font-size: 40px"";>מוכנים לשלם: <span id=""c_p_y""></span></p>","15","evaluation","52","19","13C,30A","30","58","15","","","","","","","","","","","","","","","","",""
"","","","","","html-keyboard-response","134","953493","0.0-21.0-2.6","859cd32e-1a86-486f-9329-4b6f28585b9e","null","<p style=""text-align: center;"">+</p>","null","fixation","","","","","","","","","","","","","","","","","","","","","","",""
"","","","","","html-slider-response","135","954501","0.0-21.0-0.7","859cd32e-1a86-486f-9329-4b6f28585b9e","1000","
                  <p style=""text-align: center;"">₪58
                                                <br>45%</p>
                  <p id=""wtp"" style=""text-align:center; margin-top: 0px; margin-bottom: 0px; font-size: 40px"";>&ensp;</p>","-","viewing","0","21","11C,18C,25A","","","","","","","","","","","","","","","","","","","",""
"","","","","","html-slider-response","136","956212","0.0-21.0-1.7","859cd32e-1a86-486f-9329-4b6f28585b9e","1711","
                  <p style=""text-align: center;"">₪58
                                                <br>45%</p>
                  <p id=""wtp"" style=""text-align:center; margin-top: 0px; margin-bottom: 0px; font-size: 40px"";>מוכנים לשלם: <span id=""c_p_y""></span></p>","20","evaluation","36","21","11C,18C,25A","45","58","20","","","","","","","","","","","","","","","","",""
"","","","","","html-keyboard-response","137","957049","0.0-21.0-2.7","859cd32e-1a86-486f-9329-4b6f28585b9e","null","<p style=""text-align: center;"">+</p>","null","fixation","","","","","","","","","","","","","","","","","","","","","","",""
"","","","","","html-slider-response","138","958056","0.0-21.0-0.8","859cd32e-1a86-486f-9329-4b6f28585b9e","1000","
                  <p style=""text-align: center;"">₪39
                                                <br>65%</p>
                  <p id=""wtp"" style=""text-align:center; margin-top: 0px; margin-bottom: 0px; font-size: 40px"";>&ensp;</p>","-","viewing","0","16","1A,15A,26C","","","","","","","","","","","","","","","","","","","",""
"","","","","","html-slider-response","139","959852","0.0-21.0-1.8","859cd32e-1a86-486f-9329-4b6f28585b9e","1795","
                  <p style=""text-align: center;"">₪39
                                                <br>65%</p>
                  <p id=""wtp"" style=""text-align:center; margin-top: 0px; margin-bottom: 0px; font-size: 40px"";>מוכנים לשלם: <span id=""c_p_y""></span></p>","22","evaluation","16","16","1A,15A,26C","65","39","22","","","","","","","","","","","","","","","","",""
"","","","","","html-keyboard-response","140","961154","0.0-21.0-2.8","859cd32e-1a86-486f-9329-4b6f28585b9e","null","<p style=""text-align: center;"">+</p>","null","fixation","","","","","","","","","","","","","","","","","","","","","","",""
"","","","","","html-slider-response","141","962160","0.0-21.0-0.9","859cd32e-1a86-486f-9329-4b6f28585b9e","1000","
                  <p style=""text-align: center;"">₪16
                                                <br>20%</p>
                  <p id=""wtp"" style=""text-align:center; margin-top: 0px; margin-bottom: 0px; font-size: 40px"";>&ensp;</p>","-","viewing","0","8","14C,17A,20C,27A","","","","","","","","","","","","","","","","","","","",""
"","","","","","html-slider-response","142","964820","0.0-21.0-1.9","859cd32e-1a86-486f-9329-4b6f28585b9e","2659","
                  <p style=""text-align: center;"">₪16
                                                <br>20%</p>
                  <p id=""wtp"" style=""text-align:center; margin-top: 0px; margin-bottom: 0px; font-size: 40px"";>מוכנים לשלם: <span id=""c_p_y""></span></p>","4","evaluation","72","8","14C,17A,20C,27A","20","16","4","","","","","","","","","","","","","","","","",""
"","","","","","html-keyboard-response","143","965349","0.0-21.0-2.9","859cd32e-1a86-486f-9329-4b6f28585b9e","null","<p style=""text-align: center;"">+</p>","null","fixation","","","","","","","","","","","","","","","","","","","","","","",""
"","","","","","html-slider-response","144","966363","0.0-21.0-0.10","859cd32e-1a86-486f-9329-4b6f28585b9e","1000","
                  <p style=""text-align: center;"">₪36
                                                <br>70%</p>
                  <p id=""wtp"" style=""text-align:center; margin-top: 0px; margin-bottom: 0px; font-size: 40px"";>&ensp;</p>","-","viewing","0","13","3A,5C,10B","","","","","","","","","","","","","","","","","","","",""
"","","","","","html-slider-response","145","968469","0.0-21.0-1.10","859cd32e-1a86-486f-9329-4b6f28585b9e","2104","
                  <p style=""text-align: center;"">₪36
                                                <br>70%</p>
                  <p id=""wtp"" style=""text-align:center; margin-top: 0px; margin-bottom: 0px; font-size: 40px"";>מוכנים לשלם: <span id=""c_p_y""></span></p>","18","evaluation","17","13","3A,5C,10B","70","36","19","","","","","","","","","","","","","","","","",""
"","","","","","html-keyboard-response","146","969218","0.0-21.0-2.10","859cd32e-1a86-486f-9329-4b6f28585b9e","null","<p style=""text-align: center;"">+</p>","null","fixation","","","","","","","","","","","","","","","","","","","","","","",""
"","","","","","html-slider-response","147","970234","0.0-21.0-0.11","859cd32e-1a86-486f-9329-4b6f28585b9e","1000","
                  <p style=""text-align: center;"">₪71
                                                <br>45%</p>
                  <p id=""wtp"" style=""text-align:center; margin-top: 0px; margin-bottom: 0px; font-size: 40px"";>&ensp;</p>","-","viewing","0","26","2B,16A","","","","","","","","","","","","","","","","","","","",""
"","","","","","html-slider-response","148","972132","0.0-21.0-1.11","859cd32e-1a86-486f-9329-4b6f28585b9e","1897","
                  <p style=""text-align: center;"">₪71
                                                <br>45%</p>
                  <p id=""wtp"" style=""text-align:center; margin-top: 0px; margin-bottom: 0px; font-size: 40px"";>מוכנים לשלם: <span id=""c_p_y""></span></p>","19","evaluation","37","26","2B,16A","45","71","19","","","","","","","","","","","","","","","","",""
"","","","","","html-keyboard-response","149","972935","0.0-21.0-2.11","859cd32e-1a86-486f-9329-4b6f28585b9e","null","<p style=""text-align: center;"">+</p>","null","fixation","","","","","","","","","","","","","","","","","","","","","","",""
"","","","","","html-slider-response","150","973939","0.0-21.0-0.12","859cd32e-1a86-486f-9329-4b6f28585b9e","1000","
                  <p style=""text-align: center;"">₪79
                                                <br>40%</p>
                  <p id=""wtp"" style=""text-align:center; margin-top: 0px; margin-bottom: 0px; font-size: 40px"";>&ensp;</p>","-","viewing","0","30","9B","","","","","","","","","","","","","","","","","","","",""
"","","","","","html-slider-response","151","975716","0.0-21.0-1.12","859cd32e-1a86-486f-9329-4b6f28585b9e","1776","
                  <p style=""text-align: center;"">₪79
                                                <br>40%</p>
                  <p id=""wtp"" style=""text-align:center; margin-top: 0px; margin-bottom: 0px; font-size: 40px"";>מוכנים לשלם: <span id=""c_p_y""></span></p>","18","evaluation","44","30","9B","40","79","18","","","","","","","","","","","","","","","","",""
"","","","","","html-keyboard-response","152","977067","0.0-21.0-2.12","859cd32e-1a86-486f-9329-4b6f28585b9e","null","<p style=""text-align: center;"">+</p>","null","fixation","","","","","","","","","","","","","","","","","","","","","","",""
"","","","","","html-slider-response","153","978075","0.0-21.0-0.13","859cd32e-1a86-486f-9329-4b6f28585b9e","1000","
                  <p style=""text-align: center;"">₪71
                                                <br>75%</p>
                  <p id=""wtp"" style=""text-align:center; margin-top: 0px; margin-bottom: 0px; font-size: 40px"";>&ensp;</p>","-","viewing","0","28","8B","","","","","","","","","","","","","","","","","","","",""
"","","","","","html-slider-response","154","980428","0.0-21.0-1.13","859cd32e-1a86-486f-9329-4b6f28585b9e","2352","
                  <p style=""text-align: center;"">₪71
                                                <br>75%</p>
                  <p id=""wtp"" style=""text-align:center; margin-top: 0px; margin-bottom: 0px; font-size: 40px"";>מוכנים לשלם: <span id=""c_p_y""></span></p>","42","evaluation","42","28","8B","75","71","42","","","","","","","","","","","","","","","","",""
"","","","","","html-keyboard-response","155","981242","0.0-21.0-2.13","859cd32e-1a86-486f-9329-4b6f28585b9e","null","<p style=""text-align: center;"">+</p>","null","fixation","","","","","","","","","","","","","","","","","","","","","","",""
"","","","","","html-slider-response","156","982249","0.0-21.0-0.14","859cd32e-1a86-486f-9329-4b6f28585b9e","1000","
                  <p style=""text-align: center;"">₪58
                                                <br>40%</p>
                  <p id=""wtp"" style=""text-align:center; margin-top: 0px; margin-bottom: 0px; font-size: 40px"";>&ensp;</p>","-","viewing","0","20","10C,13A,19C,21B","","","","","","","","","","","","","","","","","","","",""
"","","","","","html-slider-response","157","983436","0.0-21.0-1.14","859cd32e-1a86-486f-9329-4b6f28585b9e","1186","
                  <p style=""text-align: center;"">₪58
                                                <br>40%</p>
                  <p id=""wtp"" style=""text-align:center; margin-top: 0px; margin-bottom: 0px; font-size: 40px"";>מוכנים לשלם: <span id=""c_p_y""></span></p>","23","evaluation","80","20","10C,13A,19C,21B","40","58","23","","","","","","","","","","","","","","","","",""
"","","","","","html-keyboard-response","158","984917","0.0-21.0-2.14","859cd32e-1a86-486f-9329-4b6f28585b9e","null","<p style=""text-align: center;"">+</p>","null","fixation","","","","","","","","","","","","","","","","","","","","","","",""
"","","","","","html-slider-response","159","985933","0.0-21.0-0.15","859cd32e-1a86-486f-9329-4b6f28585b9e","1000","
                  <p style=""text-align: center;"">₪4
                                                <br>50%</p>
                  <p id=""wtp"" style=""text-align:center; margin-top: 0px; margin-bottom: 0px; font-size: 40px"";>&ensp;</p>","-","viewing","0","2","4C,17B","","","","","","","","","","","","","","","","","","","",""
"","","","","","html-slider-response","160","987452","0.0-21.0-1.15","859cd32e-1a86-486f-9329-4b6f28585b9e","1518","
                  <p style=""text-align: center;"">₪4
                                                <br>50%</p>
                  <p id=""wtp"" style=""text-align:center; margin-top: 0px; margin-bottom: 0px; font-size: 40px"";>מוכנים לשלם: <span id=""c_p_y""></span></p>","2","evaluation","5","2","4C,17B","50","4","2","","","","","","","","","","","","","","","","",""
"","","","","","html-keyboard-response","161","988156","0.0-21.0-2.15","859cd32e-1a86-486f-9329-4b6f28585b9e","null","<p style=""text-align: center;"">+</p>","null","fixation","","","","","","","","","","","","","","","","","","","","","","",""
"","","","","","html-slider-response","162","989169","0.0-21.0-0.16","859cd32e-1a86-486f-9329-4b6f28585b9e","1000","
                  <p style=""text-align: center;"">₪11
                                                <br>75%</p>
                  <p id=""wtp"" style=""text-align:center; margin-top: 0px; margin-bottom: 0px; font-size: 40px"";>&ensp;</p>","-","viewing","0","7","6B,18B,22C,24C,29A","","","","","","","","","","","","","","","","","","","",""
"","","","","","html-slider-response","163","991404","0.0-21.0-1.16","859cd32e-1a86-486f-9329-4b6f28585b9e","2234","
                  <p style=""text-align: center;"">₪11
                                                <br>75%</p>
                  <p id=""wtp"" style=""text-align:center; margin-top: 0px; margin-bottom: 0px; font-size: 40px"";>מוכנים לשלם: <span id=""c_p_y""></span></p>","6","evaluation","30","7","6B,18B,22C,24C,29A","75","11","6","","","","","","","","","","","","","","","","",""
"","","","","","html-keyboard-response","164","991954","0.0-21.0-2.16","859cd32e-1a86-486f-9329-4b6f28585b9e","null","<p style=""text-align: center;"">+</p>","null","fixation","","","","","","","","","","","","","","","","","","","","","","",""
"","","","","","html-slider-response","165","992957","0.0-21.0-0.17","859cd32e-1a86-486f-9329-4b6f28585b9e","1000","
                  <p style=""text-align: center;"">₪79
                                                <br>65%</p>
                  <p id=""wtp"" style=""text-align:center; margin-top: 0px; margin-bottom: 0px; font-size: 40px"";>&ensp;</p>","-","viewing","0","31","8A","","","","","","","","","","","","","","","","","","","",""
"","","","","","html-slider-response","166","994956","0.0-21.0-1.17","859cd32e-1a86-486f-9329-4b6f28585b9e","1998","
                  <p style=""text-align: center;"">₪79
                                                <br>65%</p>
                  <p id=""wtp"" style=""text-align:center; margin-top: 0px; margin-bottom: 0px; font-size: 40px"";>מוכנים לשלם: <span id=""c_p_y""></span></p>","39","evaluation","25","31","8A","65","79","39","","","","","","","","","","","","","","","","",""
"","","","","","html-keyboard-response","167","995788","0.0-21.0-2.17","859cd32e-1a86-486f-9329-4b6f28585b9e","null","<p style=""text-align: center;"">+</p>","null","fixation","","","","","","","","","","","","","","","","","","","","","","",""
"","","","","","html-slider-response","168","996791","0.0-21.0-0.18","859cd32e-1a86-486f-9329-4b6f28585b9e","1000","
                  <p style=""text-align: center;"">₪4
                                                <br>25%</p>
                  <p id=""wtp"" style=""text-align:center; margin-top: 0px; margin-bottom: 0px; font-size: 40px"";>&ensp;</p>","-","viewing","0","1","6C,29B,30C","","","","","","","","","","","","","","","","","","","",""
"","","","","","html-slider-response","169","998205","0.0-21.0-1.18","859cd32e-1a86-486f-9329-4b6f28585b9e","1414","
                  <p style=""text-align: center;"">₪4
                                                <br>25%</p>
                  <p id=""wtp"" style=""text-align:center; margin-top: 0px; margin-bottom: 0px; font-size: 40px"";>מוכנים לשלם: <span id=""c_p_y""></span></p>","1","evaluation","24","1","6C,29B,30C","25","4","1","","","","","","","","","","","","","","","","",""
"","","","","","html-keyboard-response","170","999259","0.0-21.0-2.18","859cd32e-1a86-486f-9329-4b6f28585b9e","null","<p style=""text-align: center;"">+</p>","null","fixation","","","","","","","","","","","","","","","","","","","","","","",""
"","","","","","html-slider-response","171","1000266","0.0-21.0-0.19","859cd32e-1a86-486f-9329-4b6f28585b9e","1000","
                  <p style=""text-align: center;"">₪61
                                                <br>55%</p>
                  <p id=""wtp"" style=""text-align:center; margin-top: 0px; margin-bottom: 0px; font-size: 40px"";>&ensp;</p>","-","viewing","0","23","7B,26B","","","","","","","","","","","","","","","","","","","",""
"","","","","","html-slider-response","172","1003140","0.0-21.0-1.19","859cd32e-1a86-486f-9329-4b6f28585b9e","2873","
                  <p style=""text-align: center;"">₪61
                                                <br>55%</p>
                  <p id=""wtp"" style=""text-align:center; margin-top: 0px; margin-bottom: 0px; font-size: 40px"";>מוכנים לשלם: <span id=""c_p_y""></span></p>","22","evaluation","47","23","7B,26B","55","61","22","","","","","","","","","","","","","","","","",""
"","","","","","html-keyboard-response","173","1003964","0.0-21.0-2.19","859cd32e-1a86-486f-9329-4b6f28585b9e","null","<p style=""text-align: center;"">+</p>","null","fixation","","","","","","","","","","","","","","","","","","","","","","",""
"","","","","","html-slider-response","174","1004971","0.0-21.0-0.20","859cd32e-1a86-486f-9329-4b6f28585b9e","1000","
                  <p style=""text-align: center;"">₪43
                                                <br>60%</p>
                  <p id=""wtp"" style=""text-align:center; margin-top: 0px; margin-bottom: 0px; font-size: 40px"";>&ensp;</p>","-","viewing","0","17","2A,7A,9A,15B","","","","","","","","","","","","","","","","","","","",""
"","","","","","html-slider-response","175","1006724","0.0-21.0-1.20","859cd32e-1a86-486f-9329-4b6f28585b9e","1752","
                  <p style=""text-align: center;"">₪43
                                                <br>60%</p>
                  <p id=""wtp"" style=""text-align:center; margin-top: 0px; margin-bottom: 0px; font-size: 40px"";>מוכנים לשלם: <span id=""c_p_y""></span></p>","21","evaluation","2","17","2A,7A,9A,15B","60","43","21","","","","","","","","","","","","","","","","",""
"","","","","","html-keyboard-response","176","1008131","0.0-21.0-2.20","859cd32e-1a86-486f-9329-4b6f28585b9e","null","<p style=""text-align: center;"">+</p>","null","fixation","","","","","","","","","","","","","","","","","","","","","","",""
"","","","","","html-slider-response","177","1009138","0.0-21.0-0.21","859cd32e-1a86-486f-9329-4b6f28585b9e","1000","
                  <p style=""text-align: center;"">₪36
                                                <br>30%</p>
                  <p id=""wtp"" style=""text-align:center; margin-top: 0px; margin-bottom: 0px; font-size: 40px"";>&ensp;</p>","-","viewing","0","11","3C,20A,22A","","","","","","","","","","","","","","","","","","","",""
"","","","","","html-slider-response","178","1011436","0.0-21.0-1.21","859cd32e-1a86-486f-9329-4b6f28585b9e","2297","
                  <p style=""text-align: center;"">₪36
                                                <br>30%</p>
                  <p id=""wtp"" style=""text-align:center; margin-top: 0px; margin-bottom: 0px; font-size: 40px"";>מוכנים לשלם: <span id=""c_p_y""></span></p>","11","evaluation","39","11","3C,20A,22A","30","36","11","","","","","","","","","","","","","","","","",""
"","","","","","html-keyboard-response","179","1012853","0.0-21.0-2.21","859cd32e-1a86-486f-9329-4b6f28585b9e","null","<p style=""text-align: center;"">+</p>","null","fixation","","","","","","","","","","","","","","","","","","","","","","",""
"","","","","","html-slider-response","180","1013860","0.0-21.0-0.22","859cd32e-1a86-486f-9329-4b6f28585b9e","1000","
                  <p style=""text-align: center;"">₪11
                                                <br>25%</p>
                  <p id=""wtp"" style=""text-align:center; margin-top: 0px; margin-bottom: 0px; font-size: 40px"";>&ensp;</p>","-","viewing","0","5","12A,27B,28B,30B","","","","","","","","","","","","","","","","","","","",""
"","","","","","html-slider-response","181","1015765","0.0-21.0-1.22","859cd32e-1a86-486f-9329-4b6f28585b9e","1904","
                  <p style=""text-align: center;"">₪11
                                                <br>25%</p>
                  <p id=""wtp"" style=""text-align:center; margin-top: 0px; margin-bottom: 0px; font-size: 40px"";>מוכנים לשלם: <span id=""c_p_y""></span></p>","1","evaluation","24","5","12A,27B,28B,30B","25","11","1","","","","","","","","","","","","","","","","",""
"","","","","","html-keyboard-response","182","1017265","0.0-21.0-2.22","859cd32e-1a86-486f-9329-4b6f28585b9e","null","<p style=""text-align: center;"">+</p>","null","fixation","","","","","","","","","","","","","","","","","","","","","","",""
"","","","","","html-slider-response","183","1018274","0.0-21.0-0.23","859cd32e-1a86-486f-9329-4b6f28585b9e","1000","
                  <p style=""text-align: center;"">₪36
                                                <br>75%</p>
                  <p id=""wtp"" style=""text-align:center; margin-top: 0px; margin-bottom: 0px; font-size: 40px"";>&ensp;</p>","-","viewing","0","14","4B,5A,13B,16B","","","","","","","","","","","","","","","","","","","",""
"","","","","","html-slider-response","184","1020333","0.0-21.0-1.23","859cd32e-1a86-486f-9329-4b6f28585b9e","2058","
                  <p style=""text-align: center;"">₪36
                                                <br>75%</p>
                  <p id=""wtp"" style=""text-align:center; margin-top: 0px; margin-bottom: 0px; font-size: 40px"";>מוכנים לשלם: <span id=""c_p_y""></span></p>","11","evaluation","75","14","4B,5A,13B,16B","75","36","11","","","","","","","","","","","","","","","","",""
"","","","","","html-keyboard-response","185","1021398","0.0-21.0-2.23","859cd32e-1a86-486f-9329-4b6f28585b9e","null","<p style=""text-align: center;"">+</p>","null","fixation","","","","","","","","","","","","","","","","","","","","","","",""
"","","","","","html-slider-response","186","1022405","0.0-21.0-0.24","859cd32e-1a86-486f-9329-4b6f28585b9e","1000","
                  <p style=""text-align: center;"">₪64
                                                <br>50%</p>
                  <p id=""wtp"" style=""text-align:center; margin-top: 0px; margin-bottom: 0px; font-size: 40px"";>&ensp;</p>","-","viewing","0","25","1B,3B,4A","","","","","","","","","","","","","","","","","","","",""
"","","","","","html-slider-response","187","1024029","0.0-21.0-1.24","859cd32e-1a86-486f-9329-4b6f28585b9e","1623","
                  <p style=""text-align: center;"">₪64
                                                <br>50%</p>
                  <p id=""wtp"" style=""text-align:center; margin-top: 0px; margin-bottom: 0px; font-size: 40px"";>מוכנים לשלם: <span id=""c_p_y""></span></p>","20","evaluation","17","25","1B,3B,4A","50","64","20","","","","","","","","","","","","","","","","",""
"","","","","","html-keyboard-response","188","1025054","0.0-21.0-2.24","859cd32e-1a86-486f-9329-4b6f28585b9e","null","<p style=""text-align: center;"">+</p>","null","fixation","","","","","","","","","","","","","","","","","","","","","","",""
"","","","","","html-slider-response","189","1026070","0.0-21.0-0.25","859cd32e-1a86-486f-9329-4b6f28585b9e","1000","
                  <p style=""text-align: center;"">₪18
                                                <br>50%</p>
                  <p id=""wtp"" style=""text-align:center; margin-top: 0px; margin-bottom: 0px; font-size: 40px"";>&ensp;</p>","-","viewing","0","10","2C,16C,22B,28A","","","","","","","","","","","","","","","","","","","",""
"","","","","","html-slider-response","190","1027973","0.0-21.0-1.25","859cd32e-1a86-486f-9329-4b6f28585b9e","1902","
                  <p style=""text-align: center;"">₪18
                                                <br>50%</p>
                  <p id=""wtp"" style=""text-align:center; margin-top: 0px; margin-bottom: 0px; font-size: 40px"";>מוכנים לשלם: <span id=""c_p_y""></span></p>","6","evaluation","27","10","2C,16C,22B,28A","50","18","6","","","","","","","","","","","","","","","","",""
"","","","","","html-keyboard-response","191","1029275","0.0-21.0-2.25","859cd32e-1a86-486f-9329-4b6f28585b9e","null","<p style=""text-align: center;"">+</p>","null","fixation","","","","","","","","","","","","","","","","","","","","","","",""
"","","","","","html-slider-response","192","1030279","0.0-21.0-0.26","859cd32e-1a86-486f-9329-4b6f28585b9e","1000","
                  <p style=""text-align: center;"">₪11
                                                <br>20%</p>
                  <p id=""wtp"" style=""text-align:center; margin-top: 0px; margin-bottom: 0px; font-size: 40px"";>&ensp;</p>","-","viewing","0","4","12C,17C,23C,28C","","","","","","","","","","","","","","","","","","","",""
"","","","","","html-slider-response","193","1032060","0.0-21.0-1.26","859cd32e-1a86-486f-9329-4b6f28585b9e","1781","
                  <p style=""text-align: center;"">₪11
                                                <br>20%</p>
                  <p id=""wtp"" style=""text-align:center; margin-top: 0px; margin-bottom: 0px; font-size: 40px"";>מוכנים לשלם: <span id=""c_p_y""></span></p>","2","evaluation","48","4","12C,17C,23C,28C","20","11","2","","","","","","","","","","","","","","","","",""
"","","","","","html-keyboard-response","194","1033035","0.0-21.0-2.26","859cd32e-1a86-486f-9329-4b6f28585b9e","null","<p style=""text-align: center;"">+</p>","null","fixation","","","","","","","","","","","","","","","","","","","","","","",""
"","","","","","html-slider-response","195","1034048","0.0-21.0-0.27","859cd32e-1a86-486f-9329-4b6f28585b9e","1000","
                  <p style=""text-align: center;"">₪61
                                                <br>45%</p>
                  <p id=""wtp"" style=""text-align:center; margin-top: 0px; margin-bottom: 0px; font-size: 40px"";>&ensp;</p>","-","viewing","0","22","10A,11A","","","","","","","","","","","","","","","","","","","",""
"","","","","","html-slider-response","196","1036244","0.0-21.0-1.27","859cd32e-1a86-486f-9329-4b6f28585b9e","2196","
                  <p style=""text-align: center;"">₪61
                                                <br>45%</p>
                  <p id=""wtp"" style=""text-align:center; margin-top: 0px; margin-bottom: 0px; font-size: 40px"";>מוכנים לשלם: <span id=""c_p_y""></span></p>","9","evaluation","47","22","10A,11A","45","61","9","","","","","","","","","","","","","","","","",""
"","","","","","html-keyboard-response","197","1037650","0.0-21.0-2.27","859cd32e-1a86-486f-9329-4b6f28585b9e","null","<p style=""text-align: center;"">+</p>","null","fixation","","","","","","","","","","","","","","","","","","","","","","",""
"","","","","","html-slider-response","198","1038654","0.0-21.0-0.28","859cd32e-1a86-486f-9329-4b6f28585b9e","1000","
                  <p style=""text-align: center;"">₪18
                                                <br>25%</p>
                  <p id=""wtp"" style=""text-align:center; margin-top: 0px; margin-bottom: 0px; font-size: 40px"";>&ensp;</p>","-","viewing","0","9","14A,23A","","","","","","","","","","","","","","","","","","","",""
"","","","","","html-slider-response","199","1041108","0.0-21.0-1.28","859cd32e-1a86-486f-9329-4b6f28585b9e","2454","
                  <p style=""text-align: center;"">₪18
                                                <br>25%</p>
                  <p id=""wtp"" style=""text-align:center; margin-top: 0px; margin-bottom: 0px; font-size: 40px"";>מוכנים לשלם: <span id=""c_p_y""></span></p>","10","evaluation","56","9","14A,23A","25","18","10","","","","","","","","","","","","","","","","",""
"","","","","","html-keyboard-response","200","1042248","0.0-21.0-2.28","859cd32e-1a86-486f-9329-4b6f28585b9e","null","<p style=""text-align: center;"">+</p>","null","fixation","","","","","","","","","","","","","","","","","","","","","","",""
"","","","","","html-slider-response","201","1043257","0.0-21.0-0.29","859cd32e-1a86-486f-9329-4b6f28585b9e","1000","
                  <p style=""text-align: center;"">₪36
                                                <br>60%</p>
                  <p id=""wtp"" style=""text-align:center; margin-top: 0px; margin-bottom: 0px; font-size: 40px"";>&ensp;</p>","-","viewing","0","12","1C,7C,15C","","","","","","","","","","","","","","","","","","","",""
"","","","","","html-slider-response","202","1045981","0.0-21.0-1.29","859cd32e-1a86-486f-9329-4b6f28585b9e","2723","
                  <p style=""text-align: center;"">₪36
                                                <br>60%</p>
                  <p id=""wtp"" style=""text-align:center; margin-top: 0px; margin-bottom: 0px; font-size: 40px"";>מוכנים לשלם: <span id=""c_p_y""></span></p>","11","evaluation","55","12","1C,7C,15C","60","36","11","","","","","","","","","","","","","","","","",""
"","","","","","html-keyboard-response","203","1046603","0.0-21.0-2.29","859cd32e-1a86-486f-9329-4b6f28585b9e","null","<p style=""text-align: center;"">+</p>","null","fixation","","","","","","","","","","","","","","","","","","","","","","",""
"","","","","","html-slider-response","204","1047609","0.0-21.0-0.30","859cd32e-1a86-486f-9329-4b6f28585b9e","1000","
                  <p style=""text-align: center;"">₪11
                                                <br>45%</p>
                  <p id=""wtp"" style=""text-align:center; margin-top: 0px; margin-bottom: 0px; font-size: 40px"";>&ensp;</p>","-","viewing","0","6","14B,21C,25C","","","","","","","","","","","","","","","","","","","",""
"","","","","","html-slider-response","205","1049420","0.0-21.0-1.30","859cd32e-1a86-486f-9329-4b6f28585b9e","1811","
                  <p style=""text-align: center;"">₪11
                                                <br>45%</p>
                  <p id=""wtp"" style=""text-align:center; margin-top: 0px; margin-bottom: 0px; font-size: 40px"";>מוכנים לשלם: <span id=""c_p_y""></span></p>","0","evaluation","38","6","14B,21C,25C","45","11","0","","","","","","","","","","","","","","","","",""
"","","","","","html-keyboard-response","206","1050236","0.0-21.0-2.30","859cd32e-1a86-486f-9329-4b6f28585b9e","null","<p style=""text-align: center;"">+</p>","null","fixation","","","","","","","","","","","","","","","","","","","","","","",""
"","","","","","html-keyboard-response","207","1051246","0.0-22.0","859cd32e-1a86-486f-9329-4b6f28585b9e","null","<p style=""text-align: center;"">+</p>","null","fixation","","","","","","","","","","","","","","","","","","","","","","",""
"","","","","","html-keyboard-response","208","1055196","0.0-23.0","859cd32e-1a86-486f-9329-4b6f28585b9e","null","<p>הפסקה.
          <br>לחצו כדי להמשיך.</p>","1","scan_wait","","","","","","","","","","","","","","","","","","","","","","",""
"","","","","","html-keyboard-response","209","1056200","0.0-24.0","859cd32e-1a86-486f-9329-4b6f28585b9e","null","<p style=""text-align: center;"">+</p>","null","fixation","","","","","","","","","","","","","","","","","","","","","","",""
"","","","","","html-slider-response","210","1057216","0.0-25.0-0.0","859cd32e-1a86-486f-9329-4b6f28585b9e","1000","
                  <p style=""text-align: center;"">₪61
                                                <br>55%</p>
                  <p id=""wtp"" style=""text-align:center; margin-top: 0px; margin-bottom: 0px; font-size: 40px"";>&ensp;</p>","-","viewing","0","23","7B,26B","","","","","","","","","","","","","","","","","","","",""
"","","","","","html-slider-response","211","1060413","0.0-25.0-1.0","859cd32e-1a86-486f-9329-4b6f28585b9e","3196","
                  <p style=""text-align: center;"">₪61
                                                <br>55%</p>
                  <p id=""wtp"" style=""text-align:center; margin-top: 0px; margin-bottom: 0px; font-size: 40px"";>מוכנים לשלם: <span id=""c_p_y""></span></p>","11","evaluation","44","23","7B,26B","55","61","11","","","","","","","","","","","","","","","","",""
"","","","","","html-keyboard-response","212","1061394","0.0-25.0-2.0","859cd32e-1a86-486f-9329-4b6f28585b9e","null","<p style=""text-align: center;"">+</p>","null","fixation","","","","","","","","","","","","","","","","","","","","","","",""
"","","","","","html-slider-response","213","1062405","0.0-25.0-0.1","859cd32e-1a86-486f-9329-4b6f28585b9e","1000","
                  <p style=""text-align: center;"">₪11
                                                <br>75%</p>
                  <p id=""wtp"" style=""text-align:center; margin-top: 0px; margin-bottom: 0px; font-size: 40px"";>&ensp;</p>","-","viewing","0","7","6B,18B,22C,24C,29A","","","","","","","","","","","","","","","","","","","",""
"","","","","","html-slider-response","214","1063716","0.0-25.0-1.1","859cd32e-1a86-486f-9329-4b6f28585b9e","1310","
                  <p style=""text-align: center;"">₪11
                                                <br>75%</p>
                  <p id=""wtp"" style=""text-align:center; margin-top: 0px; margin-bottom: 0px; font-size: 40px"";>מוכנים לשלם: <span id=""c_p_y""></span></p>","3","evaluation","51","7","6B,18B,22C,24C,29A","75","11","3","","","","","","","","","","","","","","","","",""
"","","","","","html-keyboard-response","215","1065060","0.0-25.0-2.1","859cd32e-1a86-486f-9329-4b6f28585b9e","null","<p style=""text-align: center;"">+</p>","null","fixation","","","","","","","","","","","","","","","","","","","","","","",""
"","","","","","html-slider-response","216","1066072","0.0-25.0-0.2","859cd32e-1a86-486f-9329-4b6f28585b9e","1000","
                  <p style=""text-align: center;"">₪61
                                                <br>45%</p>
                  <p id=""wtp"" style=""text-align:center; margin-top: 0px; margin-bottom: 0px; font-size: 40px"";>&ensp;</p>","-","viewing","0","22","10A,11A","","","","","","","","","","","","","","","","","","","",""
"","","","","","html-slider-response","217","1067756","0.0-25.0-1.2","859cd32e-1a86-486f-9329-4b6f28585b9e","1683","
                  <p style=""text-align: center;"">₪61
                                                <br>45%</p>
                  <p id=""wtp"" style=""text-align:center; margin-top: 0px; margin-bottom: 0px; font-size: 40px"";>מוכנים לשלם: <span id=""c_p_y""></span></p>","9","evaluation","24","22","10A,11A","45","61","9","","","","","","","","","","","","","","","","",""
"","","","","","html-keyboard-response","218","1068953","0.0-25.0-2.2","859cd32e-1a86-486f-9329-4b6f28585b9e","null","<p style=""text-align: center;"">+</p>","null","fixation","","","","","","","","","","","","","","","","","","","","","","",""
"","","","","","html-slider-response","219","1069967","0.0-25.0-0.3","859cd32e-1a86-486f-9329-4b6f28585b9e","1000","
                  <p style=""text-align: center;"">₪18
                                                <br>50%</p>
                  <p id=""wtp"" style=""text-align:center; margin-top: 0px; margin-bottom: 0px; font-size: 40px"";>&ensp;</p>","-","viewing","0","10","2C,16C,22B,28A","","","","","","","","","","","","","","","","","","","",""
"","","","","","html-slider-response","220","1072004","0.0-25.0-1.3","859cd32e-1a86-486f-9329-4b6f28585b9e","2036","
                  <p style=""text-align: center;"">₪18
                                                <br>50%</p>
                  <p id=""wtp"" style=""text-align:center; margin-top: 0px; margin-bottom: 0px; font-size: 40px"";>מוכנים לשלם: <span id=""c_p_y""></span></p>","4","evaluation","40","10","2C,16C,22B,28A","50","18","4","","","","","","","","","","","","","","","","",""
"","","","","","html-keyboard-response","221","1073005","0.0-25.0-2.3","859cd32e-1a86-486f-9329-4b6f28585b9e","null","<p style=""text-align: center;"">+</p>","null","fixation","","","","","","","","","","","","","","","","","","","","","","",""
"","","","","","html-slider-response","222","1074021","0.0-25.0-0.4","859cd32e-1a86-486f-9329-4b6f28585b9e","1000","
                  <p style=""text-align: center;"">₪4
                                                <br>50%</p>
                  <p id=""wtp"" style=""text-align:center; margin-top: 0px; margin-bottom: 0px; font-size: 40px"";>&ensp;</p>","-","viewing","0","2","4C,17B","","","","","","","","","","","","","","","","","","","",""
"","","","","","html-slider-response","223","1075292","0.0-25.0-1.4","859cd32e-1a86-486f-9329-4b6f28585b9e","1270","
                  <p style=""text-align: center;"">₪4
                                                <br>50%</p>
                  <p id=""wtp"" style=""text-align:center; margin-top: 0px; margin-bottom: 0px; font-size: 40px"";>מוכנים לשלם: <span id=""c_p_y""></span></p>","1","evaluation","80","2","4C,17B","50","4","1","","","","","","","","","","","","","","","","",""
"","","","","","html-keyboard-response","224","1075838","0.0-25.0-2.4","859cd32e-1a86-486f-9329-4b6f28585b9e","null","<p style=""text-align: center;"">+</p>","null","fixation","","","","","","","","","","","","","","","","","","","","","","",""
"","","","","","html-slider-response","225","1076844","0.0-25.0-0.5","859cd32e-1a86-486f-9329-4b6f28585b9e","1000","
                  <p style=""text-align: center;"">₪39
                                                <br>60%</p>
                  <p id=""wtp"" style=""text-align:center; margin-top: 0px; margin-bottom: 0px; font-size: 40px"";>&ensp;</p>","-","viewing","0","15","9C,25B","","","","","","","","","","","","","","","","","","","",""
"","","","","","html-slider-response","226","1078572","0.0-25.0-1.5","859cd32e-1a86-486f-9329-4b6f28585b9e","1728","
                  <p style=""text-align: center;"">₪39
                                                <br>60%</p>
                  <p id=""wtp"" style=""text-align:center; margin-top: 0px; margin-bottom: 0px; font-size: 40px"";>מוכנים לשלם: <span id=""c_p_y""></span></p>","14","evaluation","65","15","9C,25B","60","39","14","","","","","","","","","","","","","","","","",""
"","","","","","html-keyboard-response","227","1079563","0.0-25.0-2.5","859cd32e-1a86-486f-9329-4b6f28585b9e","null","<p style=""text-align: center;"">+</p>","null","fixation","","","","","","","","","","","","","","","","","","","","","","",""
"","","","","","html-slider-response","228","1080578","0.0-25.0-0.6","859cd32e-1a86-486f-9329-4b6f28585b9e","1000","
                  <p style=""text-align: center;"">₪36
                                                <br>30%</p>
                  <p id=""wtp"" style=""text-align:center; margin-top: 0px; margin-bottom: 0px; font-size: 40px"";>&ensp;</p>","-","viewing","0","11","3C,20A,22A","","","","","","","","","","","","","","","","","","","",""
"","","","","","html-slider-response","229","1082941","0.0-25.0-1.6","859cd32e-1a86-486f-9329-4b6f28585b9e","2362","
                  <p style=""text-align: center;"">₪36
                                                <br>30%</p>
                  <p id=""wtp"" style=""text-align:center; margin-top: 0px; margin-bottom: 0px; font-size: 40px"";>מוכנים לשלם: <span id=""c_p_y""></span></p>","10","evaluation","10","11","3C,20A,22A","30","36","10","","","","","","","","","","","","","","","","",""
"","","","","","html-keyboard-response","230","1083916","0.0-25.0-2.6","859cd32e-1a86-486f-9329-4b6f28585b9e","null","<p style=""text-align: center;"">+</p>","null","fixation","","","","","","","","","","","","","","","","","","","","","","",""
"","","","","","html-slider-response","231","1084932","0.0-25.0-0.7","859cd32e-1a86-486f-9329-4b6f28585b9e","1000","
                  <p style=""text-align: center;"">₪11
                                                <br>45%</p>
                  <p id=""wtp"" style=""text-align:center; margin-top: 0px; margin-bottom: 0px; font-size: 40px"";>&ensp;</p>","-","viewing","0","6","14B,21C,25C","","","","","","","","","","","","","","","","","","","",""
"","","","","","html-slider-response","232","1085980","0.0-25.0-1.7","859cd32e-1a86-486f-9329-4b6f28585b9e","1047","
                  <p style=""text-align: center;"">₪11
                                                <br>45%</p>
                  <p id=""wtp"" style=""text-align:center; margin-top: 0px; margin-bottom: 0px; font-size: 40px"";>מוכנים לשלם: <span id=""c_p_y""></span></p>","2","evaluation","54","6","14B,21C,25C","45","11","2","","","","","","","","","","","","","","","","",""
"","","","","","html-keyboard-response","233","1086595","0.0-25.0-2.7","859cd32e-1a86-486f-9329-4b6f28585b9e","null","<p style=""text-align: center;"">+</p>","null","fixation","","","","","","","","","","","","","","","","","","","","","","",""
"","","","","","html-slider-response","234","1087600","0.0-25.0-0.8","859cd32e-1a86-486f-9329-4b6f28585b9e","1000","
                  <p style=""text-align: center;"">₪43
                                                <br>75%</p>
                  <p id=""wtp"" style=""text-align:center; margin-top: 0px; margin-bottom: 0px; font-size: 40px"";>&ensp;</p>","-","viewing","0","18","11B,19B,24A,26A","","","","","","","","","","","","","","","","","","","",""
"","","","","","html-slider-response","235","1089572","0.0-25.0-1.8","859cd32e-1a86-486f-9329-4b6f28585b9e","1971","
                  <p style=""text-align: center;"">₪43
                                                <br>75%</p>
                  <p id=""wtp"" style=""text-align:center; margin-top: 0px; margin-bottom: 0px; font-size: 40px"";>מוכנים לשלם: <span id=""c_p_y""></span></p>","11","evaluation","28","18","11B,19B,24A,26A","75","43","11","","","","","","","","","","","","","","","","",""
"","","","","","html-keyboard-response","236","1090134","0.0-25.0-2.8","859cd32e-1a86-486f-9329-4b6f28585b9e","null","<p style=""text-align: center;"">+</p>","null","fixation","","","","","","","","","","","","","","","","","","","","","","",""
"","","","","","html-slider-response","237","1091139","0.0-25.0-0.9","859cd32e-1a86-486f-9329-4b6f28585b9e","1000","
                  <p style=""text-align: center;"">₪18
                                                <br>25%</p>
                  <p id=""wtp"" style=""text-align:center; margin-top: 0px; margin-bottom: 0px; font-size: 40px"";>&ensp;</p>","-","viewing","0","9","14A,23A","","","","","","","","","","","","","","","","","","","",""
"","","","","","html-slider-response","238","1093292","0.0-25.0-1.9","859cd32e-1a86-486f-9329-4b6f28585b9e","2152","
                  <p style=""text-align: center;"">₪18
                                                <br>25%</p>
                  <p id=""wtp"" style=""text-align:center; margin-top: 0px; margin-bottom: 0px; font-size: 40px"";>מוכנים לשלם: <span id=""c_p_y""></span></p>","5","evaluation","53","9","14A,23A","25","18","5","","","","","","","","","","","","","","","","",""
"","","","","","html-keyboard-response","239","1094390","0.0-25.0-2.9","859cd32e-1a86-486f-9329-4b6f28585b9e","null","<p style=""text-align: center;"">+</p>","null","fixation","","","","","","","","","","","","","","","","","","","","","","",""
"","","","","","html-slider-response","240","1095407","0.0-25.0-0.10","859cd32e-1a86-486f-9329-4b6f28585b9e","1000","
                  <p style=""text-align: center;"">₪76
                                                <br>65%</p>
                  <p id=""wtp"" style=""text-align:center; margin-top: 0px; margin-bottom: 0px; font-size: 40px"";>&ensp;</p>","-","viewing","0","29","8C,19A,24B","","","","","","","","","","","","","","","","","","","",""
"","","","","","html-slider-response","241","1098012","0.0-25.0-1.10","859cd32e-1a86-486f-9329-4b6f28585b9e","2605","
                  <p style=""text-align: center;"">₪76
                                                <br>65%</p>
                  <p id=""wtp"" style=""text-align:center; margin-top: 0px; margin-bottom: 0px; font-size: 40px"";>מוכנים לשלם: <span id=""c_p_y""></span></p>","11","evaluation","47","29","8C,19A,24B","65","76","11","","","","","","","","","","","","","","","","",""
"","","","","","html-keyboard-response","242","1099279","0.0-25.0-2.10","859cd32e-1a86-486f-9329-4b6f28585b9e","null","<p style=""text-align: center;"">+</p>","null","fixation","","","","","","","","","","","","","","","","","","","","","","",""
"","","","","","html-slider-response","243","1100281","0.0-25.0-0.11","859cd32e-1a86-486f-9329-4b6f28585b9e","1000","
                  <p style=""text-align: center;"">₪39
                                                <br>65%</p>
                  <p id=""wtp"" style=""text-align:center; margin-top: 0px; margin-bottom: 0px; font-size: 40px"";>&ensp;</p>","-","viewing","0","16","1A,15A,26C","","","","","","","","","","","","","","","","","","","",""
"","","","","","html-slider-response","244","1102044","0.0-25.0-1.11","859cd32e-1a86-486f-9329-4b6f28585b9e","1762","
                  <p style=""text-align: center;"">₪39
                                                <br>65%</p>
                  <p id=""wtp"" style=""text-align:center; margin-top: 0px; margin-bottom: 0px; font-size: 40px"";>מוכנים לשלם: <span id=""c_p_y""></span></p>","12","evaluation","65","16","1A,15A,26C","65","39","12","","","","","","","","","","","","","","","","",""
"","","","","","html-keyboard-response","245","1103190","0.0-25.0-2.11","859cd32e-1a86-486f-9329-4b6f28585b9e","null","<p style=""text-align: center;"">+</p>","null","fixation","","","","","","","","","","","","","","","","","","","","","","",""
"","","","","","html-slider-response","246","1104201","0.0-25.0-0.12","859cd32e-1a86-486f-9329-4b6f28585b9e","1000","
                  <p style=""text-align: center;"">₪36
                                                <br>70%</p>
                  <p id=""wtp"" style=""text-align:center; margin-top: 0px; margin-bottom: 0px; font-size: 40px"";>&ensp;</p>","-","viewing","0","13","3A,5C,10B","","","","","","","","","","","","","","","","","","","",""
"","","","","","html-slider-response","247","1105412","0.0-25.0-1.12","859cd32e-1a86-486f-9329-4b6f28585b9e","1211","
                  <p style=""text-align: center;"">₪36
                                                <br>70%</p>
                  <p id=""wtp"" style=""text-align:center; margin-top: 0px; margin-bottom: 0px; font-size: 40px"";>מוכנים לשלם: <span id=""c_p_y""></span></p>","15","evaluation","69","13","3A,5C,10B","70","36","15","","","","","","","","","","","","","","","","",""
"","","","","","html-keyboard-response","248","1106857","0.0-25.0-2.12","859cd32e-1a86-486f-9329-4b6f28585b9e","null","<p style=""text-align: center;"">+</p>","null","fixation","","","","","","","","","","","","","","","","","","","","","","",""
"","","","","","html-slider-response","249","1107872","0.0-25.0-0.13","859cd32e-1a86-486f-9329-4b6f28585b9e","1000","
                  <p style=""text-align: center;"">₪43
                                                <br>60%</p>
