"success","timeout","failed_images","failed_audio","failed_video","trial_type","trial_index","time_elapsed","internal_node_id","subject_id","rt","stimulus","response","part","slider_start","ID","set_ID","prob","amount","last_location","actual_choice","actual_EV","binary_id","trinary_id","catch","A_key","D_key","choice_prob","choice_amount","potential_prize_prob","potential_prize_amount","won_prize","total_prize","accuracy"
"true","false","[]","[]","[]","preload","0","11","0.0-0.0","1c3c4861-95c6-42a5-9380-25db22cb1773","","","","","","","","","","","","","","","","","","","","","","","",""
"","","","","","html-keyboard-response","1","17528","0.0-1.0","1c3c4861-95c6-42a5-9380-25db22cb1773","null","
          <h1>שלום וברוכים הבאים!</h1>
          <p>לפניכם ניסוי בקבלת החלטות עם שני חלקים.
          <br><br>לחצו על העכבר כדי להמשיך.</p>","0","example","","","","","","","","","","","","","","","","","","","",""
"","","","","","html-keyboard-response","2","26040","0.0-2.0","1c3c4861-95c6-42a5-9380-25db22cb1773","null","
        <h1>חלק 1</h1>
        <p>בקרוב יוצגו בפניכם הגרלות.
        <br>עליכם לבחור את המחיר המירבי שתהיו מוכנים לשלם כדי להשתתף בהגרלה שתוצג.
        <br>יש לכם תקציב של ₪80 לכל הגרלה. 
        <br>נסו להעריך כל הגרלה בנפרד ולחשוב כמה היא שווה עבורכם, ₪80 זמינים לכל הגרלה בנפרד.
        <br><br>לחצו על העכבר כדי להמשיך.</p>","1","instructions","","","","","","","","","","","","","","","","","","","",""
"","","","","","html-keyboard-response","3","35224","0.0-3.0","1c3c4861-95c6-42a5-9380-25db22cb1773","null","
        <p>בסוף הניסוי, המחשב יבחר את אחת ההגרלות ויקבע מחיר לכרטיס עבורה. 
        <br>במידה והמחיר שבחרתם נמוך מהמחיר שנבחר על ידי המחשב, לא תשתתפו בהגרלה ותשארו עם מלוא התקציב.
        <br>במידה והמחיר שבחרתם גבוה מהמחיר שנבחר על ידי המחשב, תשלמו את המחיר שנקבע ותשתתפו בהגרלה.
        <br><br>לחצו על העכבר כדי להמשיך.</p>","1","instructions","","","","","","","","","","","","","","","","","","","",""
"","","","","","html-slider-response","4","46288","0.0-4.0","1c3c4861-95c6-42a5-9380-25db22cb1773","10950","
        <p style=""font-size: 42px;"">נתחיל עם דוגמא: 
        <br>ההגרלה מטה מציעה 65% סיכוי לזכות ב-₪40 
        <br>&emsp;&emsp;&emsp;&emsp;&emsp;&emsp;&emsp;&emsp;&ensp;35% סיכוי לזכות ב-₪0.
        <br><br>מה המחיר המירבי שתהיו מוכנים לשלם על כרטיס להגרלה זו בין 0 ל-₪80?
        <br>הזיזו את העכבר על פני המלבן ולחצו כדי לבצע בחירה.</p>
        
        <p style=""text-align: center;"">₪40<br>65%</p>

        <p id=""wtp"" style=""text-align:center; margin-top: 0px; margin-bottom: 0px; font-size: 40px"";>מוכנים לשלם: <span id=""c_p_y""></span></p>","80","example","3","","","","","","","","","","","","","","","","","","",""
"","","","","","html-keyboard-response","5","52000","0.0-5.0","1c3c4861-95c6-42a5-9380-25db22cb1773","null","<p>יפה מאוד!
                <br> בחרתם שתהיו מוכנים לשלם ₪80 כדי להשתתף בהגרלה:
                <br><p style=""text-align: center;"">₪40<br>65%</p>
                <p>נשמע נכון?
                <br>נניח שהגרלה זו נבחרה בסוף הניסוי.
                <br>כעת המחשב יקבע מחיר עבורה באקראי.
                <br>לחצו על העכבר להמשך.</p>","1","example","","","","","","","","","","","","","","","","","","","",""
"","","","","","html-keyboard-response","6","58271","0.0-6.0","1c3c4861-95c6-42a5-9380-25db22cb1773","null","<p>המחשב קבע מחיר: ₪80
                <br>ואתם בחרתם לשלם לכל היותר: ₪80
                <br><br>מכיוון שהמחיר שבחרתם נמוך מהמחיר שנקבע, לא תתשתתפו בהגרלה.
                <br>במקרה כזה, בסוף הניסוי תקבלו את כל התקציב ההתחלתי של ₪80.
                <br><br>לחצו על העכבר להמשך.</p>","1","example","","","","","","","","","","","","","","","","","","","",""
"","","","","","html-slider-response","7","66600","0.0-7.0","1c3c4861-95c6-42a5-9380-25db22cb1773","8069","<p style=""font-size: 42px;"">הנה עוד דוגמא:
                <br>ההגרלה מטה מציעה 35% סיכוי לזכות ב-₪18 
                <br>&emsp;&emsp;&emsp;&emsp;&emsp;&emsp;&emsp;&emsp;&ensp;65% סיכוי לזכות ב-₪0.</p>
        
                <p style=""text-align: center;"">₪18<br>35%</p>
                <p id=""wtp"" style=""text-align:center; margin-top: 0px; margin-bottom: 0px; font-size: 40px"";>מוכנים לשלם: <span id=""c_p_y""></span></p>","80","example","29","","","","","","","","","","","","","","","","","","",""
"","","","","","html-keyboard-response","8","71815","0.0-8.0","1c3c4861-95c6-42a5-9380-25db22cb1773","null","<p>הייתם מוכנים לשלם  ₪80 כדי להשתתף בהגרלה:
                <p style=""text-align: center;"">₪18<br>35%</p>
                <p>כעת נניח שהמחשב בחר את ההגרלה הזו בסוף הניסוי, וקבע עבורה מחיר.
                <br><br>לחצו על העכבר כדי להמשיך.</p>","1","instructions","","","","","","","","","","","","","","","","","","","",""
"","","","","","html-keyboard-response","9","85552","0.0-9.0","1c3c4861-95c6-42a5-9380-25db22cb1773","null","<p>המחשב קבע מחיר להגרלה: ₪80
                <br>ואתם בחרתם לשלם לכל היותר: ₪80
                <br><br>כעת המחיר שנקבע זהה לזה שבחרתם, אז תשלמו את המחיר שקבע המחשב (₪80) ותשתתפו בהגרלה.
                <br>במקרה כזה, תסיימו את הניסוי עם תקציב של ₪0 ועם סיכוי לזכות ב-₪18 נוספים מההגרלה.
                <br>כלומר, תוכלו לקבל ₪0 אם לא תזכו בהגרלה, או ₪18 אם תזכו בהגרלה.
                <br><br>לחצו על העכבר להמשך.</p>","1","example","","","","","","","","","","","","","","","","","","","",""
"","","","","","html-keyboard-response","10","92448","0.0-10.0","1c3c4861-95c6-42a5-9380-25db22cb1773","null","<p>במהלך הניסוי, קודם תראו את ההגרלה ורק לאחר מכן תוכלו לבחור.
                <p>כמו כן, יהיו לכם מספר שניות מוגבל להגיב.
                <p>בואו ננסה זאת עם ההגרלה הקודמת.
                <br>לחצו על העכבר כדי להמשיך.</p>","1","instructions","","","","","","","","","","","","","","","","","","","",""
"","","","","","html-slider-response","11","93726","0.0-11.0","1c3c4861-95c6-42a5-9380-25db22cb1773","1000","
                    <p style=""text-align: center;"">₪18<br>35%</p>
                    <p id=""wtp"" style=""text-align:center; margin-top: 0px; margin-bottom: 0px; font-size: 40px"";>&ensp;</p>","62","instructions","0","","","","","","","","","","","","","","","","","","",""
"","","","","","html-slider-response","12","98009","0.0-12.0","1c3c4861-95c6-42a5-9380-25db22cb1773","null","
                    <p style=""text-align: center;"">₪18<br>35%</p>
                    <p id=""wtp"" style=""text-align:center; margin-top: 0px; margin-bottom: 0px; font-size: 40px"";>מוכנים לשלם: <span id=""c_p_y""></span></p>","null","instructions","17","","","","","","","","","","","","","","","","","","",""
"","","","","","html-keyboard-response","13","99736","0.0-13.0","1c3c4861-95c6-42a5-9380-25db22cb1773","null","<p>לא הגבתם בזמן המוקצב לתגובה. 
                <br>נסו להגיב מהר יותר בפעם הבאה.
                <br><br>לחצו על העכבר כדי להמשיך.</p>","1","instructions","","","","","","","","","","","","","","","","","","","",""
"","","","","","html-slider-response","14","103990","0.0-14.0-0.0","1c3c4861-95c6-42a5-9380-25db22cb1773","null","
                    <p style=""text-align: center;"">₪40<br>65%</p>
                    <p id=""wtp"" style=""text-align:center; margin-top: 0px; margin-bottom: 0px; font-size: 40px"";>מוכנים לשלם: <span id=""c_p_y""></span></p>","null","instructions","79","","","","","","","","","","","","","","","","","","",""
"","","","","","html-keyboard-response","15","106960","0.0-14.0-1.0","1c3c4861-95c6-42a5-9380-25db22cb1773","null","<p>לא הגבתם בזמן המוקצב לתגובה. 
                <br>נסו להגיב מהר יותר בפעם הבאה.
                <br><br>לחצו על העכבר כדי להמשיך.</p>","1","instructions","","","","","","","","","","","","","","","","","","","",""
"","","","","","html-keyboard-response","16","112064","0.0-15.0","1c3c4861-95c6-42a5-9380-25db22cb1773","null","<p>כעת נתחיל את הניסוי.
                <br><br>אתם תראו הגרלות ותתבקשו לבחור כמה תהיו מוכנים לשלם כדי להשתתף בהן.
                <br>יש לכם תקציב של ₪80 עבור כל הגרלה.
                <br>בסוף הניסוי הגרלה אחת תבחר באקראי ותשוחק.
                <br><br>לחצו על העכבר כדי להתחיל את הניסוי.</p>","1","instructions","","","","","","","","","","","","","","","","","","","",""
"","","","","","html-keyboard-response","17","113321","0.0-16.0","1c3c4861-95c6-42a5-9380-25db22cb1773","null","<p style=""text-align: center;"">+</p>","null","fixation","","","","","","","","","","","","","","","","","","","",""
"","","","","","html-slider-response","18","114337","0.0-17.0-0.0","1c3c4861-95c6-42a5-9380-25db22cb1773","1000","
                  <p style=""text-align: center;"">₪4
                                                <br>50%</p>
                  <p id=""wtp"" style=""text-align:center; margin-top: 0px; margin-bottom: 0px; font-size: 40px"";>&ensp;</p>","-","viewing","0","2","4C,17B","","","","","","","","","","","","","","","","",""
"","","","","","html-slider-response","19","116152","0.0-17.0-1.0","1c3c4861-95c6-42a5-9380-25db22cb1773","1814","
                  <p style=""text-align: center;"">₪4
                                                <br>50%</p>
                  <p id=""wtp"" style=""text-align:center; margin-top: 0px; margin-bottom: 0px; font-size: 40px"";>מוכנים לשלם: <span id=""c_p_y""></span></p>","1","evaluation","34","2","4C,17B","50","4","2","","","","","","","","","","","","","",""
"","","","","","html-keyboard-response","20","117225","0.0-17.0-2.0","1c3c4861-95c6-42a5-9380-25db22cb1773","null","<p style=""text-align: center;"">+</p>","null","fixation","","","","","","","","","","","","","","","","","","","",""
"","","","","","html-slider-response","21","118235","0.0-17.0-0.1","1c3c4861-95c6-42a5-9380-25db22cb1773","1000","
                  <p style=""text-align: center;"">₪79
                                                <br>40%</p>
                  <p id=""wtp"" style=""text-align:center; margin-top: 0px; margin-bottom: 0px; font-size: 40px"";>&ensp;</p>","-","viewing","0","30","9B","","","","","","","","","","","","","","","","",""
"","","","","","html-slider-response","22","120312","0.0-17.0-1.1","1c3c4861-95c6-42a5-9380-25db22cb1773","2075","
                  <p style=""text-align: center;"">₪79
                                                <br>40%</p>
                  <p id=""wtp"" style=""text-align:center; margin-top: 0px; margin-bottom: 0px; font-size: 40px"";>מוכנים לשלם: <span id=""c_p_y""></span></p>","32","evaluation","80","30","9B","40","79","32","","","","","","","","","","","","","",""
"","","","","","html-keyboard-response","23","121398","0.0-17.0-2.1","1c3c4861-95c6-42a5-9380-25db22cb1773","null","<p style=""text-align: center;"">+</p>","null","fixation","","","","","","","","","","","","","","","","","","","",""
"","","","","","html-slider-response","24","122400","0.0-17.0-0.2","1c3c4861-95c6-42a5-9380-25db22cb1773","1000","
                  <p style=""text-align: center;"">₪18
                                                <br>50%</p>
                  <p id=""wtp"" style=""text-align:center; margin-top: 0px; margin-bottom: 0px; font-size: 40px"";>&ensp;</p>","-","viewing","0","10","2C,16C,22B,28A","","","","","","","","","","","","","","","","",""
"","","","","","html-slider-response","25","124336","0.0-17.0-1.2","1c3c4861-95c6-42a5-9380-25db22cb1773","1934","
                  <p style=""text-align: center;"">₪18
                                                <br>50%</p>
                  <p id=""wtp"" style=""text-align:center; margin-top: 0px; margin-bottom: 0px; font-size: 40px"";>מוכנים לשלם: <span id=""c_p_y""></span></p>","18","evaluation","29","10","2C,16C,22B,28A","50","18","18","","","","","","","","","","","","","",""
"","","","","","html-keyboard-response","26","124983","0.0-17.0-2.2","1c3c4861-95c6-42a5-9380-25db22cb1773","null","<p style=""text-align: center;"">+</p>","null","fixation","","","","","","","","","","","","","","","","","","","",""
"","","","","","html-slider-response","27","125998","0.0-17.0-0.3","1c3c4861-95c6-42a5-9380-25db22cb1773","1000","
                  <p style=""text-align: center;"">₪76
                                                <br>65%</p>
                  <p id=""wtp"" style=""text-align:center; margin-top: 0px; margin-bottom: 0px; font-size: 40px"";>&ensp;</p>","-","viewing","0","29","8C,19A,24B","","","","","","","","","","","","","","","","",""
"","","","","","html-slider-response","28","128360","0.0-17.0-1.3","1c3c4861-95c6-42a5-9380-25db22cb1773","2361","
                  <p style=""text-align: center;"">₪76
                                                <br>65%</p>
                  <p id=""wtp"" style=""text-align:center; margin-top: 0px; margin-bottom: 0px; font-size: 40px"";>מוכנים לשלם: <span id=""c_p_y""></span></p>","49","evaluation","57","29","8C,19A,24B","65","76","49","","","","","","","","","","","","","",""
"","","","","","html-keyboard-response","29","129229","0.0-17.0-2.3","1c3c4861-95c6-42a5-9380-25db22cb1773","null","<p style=""text-align: center;"">+</p>","null","fixation","","","","","","","","","","","","","","","","","","","",""
"","","","","","html-slider-response","30","130232","0.0-17.0-0.4","1c3c4861-95c6-42a5-9380-25db22cb1773","1000","
                  <p style=""text-align: center;"">₪43
                                                <br>60%</p>
                  <p id=""wtp"" style=""text-align:center; margin-top: 0px; margin-bottom: 0px; font-size: 40px"";>&ensp;</p>","-","viewing","0","17","2A,7A,9A,15B","","","","","","","","","","","","","","","","",""
"","","","","","html-slider-response","31","131992","0.0-17.0-1.4","1c3c4861-95c6-42a5-9380-25db22cb1773","1758","
                  <p style=""text-align: center;"">₪43
                                                <br>60%</p>
                  <p id=""wtp"" style=""text-align:center; margin-top: 0px; margin-bottom: 0px; font-size: 40px"";>מוכנים לשלם: <span id=""c_p_y""></span></p>","37","evaluation","43","17","2A,7A,9A,15B","60","43","37","","","","","","","","","","","","","",""
"","","","","","html-keyboard-response","32","133255","0.0-17.0-2.4","1c3c4861-95c6-42a5-9380-25db22cb1773","null","<p style=""text-align: center;"">+</p>","null","fixation","","","","","","","","","","","","","","","","","","","",""
"","","","","","html-slider-response","33","134267","0.0-17.0-0.5","1c3c4861-95c6-42a5-9380-25db22cb1773","1000","
                  <p style=""text-align: center;"">₪79
                                                <br>65%</p>
                  <p id=""wtp"" style=""text-align:center; margin-top: 0px; margin-bottom: 0px; font-size: 40px"";>&ensp;</p>","-","viewing","0","31","8A","","","","","","","","","","","","","","","","",""
"","","","","","html-slider-response","34","135279","0.0-17.0-1.5","1c3c4861-95c6-42a5-9380-25db22cb1773","1012","
                  <p style=""text-align: center;"">₪79
                                                <br>65%</p>
                  <p id=""wtp"" style=""text-align:center; margin-top: 0px; margin-bottom: 0px; font-size: 40px"";>מוכנים לשלם: <span id=""c_p_y""></span></p>","60","evaluation","40","31","8A","65","79","60","","","","","","","","","","","","","",""
"","","","","","html-keyboard-response","35","136168","0.0-17.0-2.5","1c3c4861-95c6-42a5-9380-25db22cb1773","null","<p style=""text-align: center;"">+</p>","null","fixation","","","","","","","","","","","","","","","","","","","",""
"","","","","","html-slider-response","36","137184","0.0-17.0-0.6","1c3c4861-95c6-42a5-9380-25db22cb1773","1000","
                  <p style=""text-align: center;"">₪58
                                                <br>40%</p>
                  <p id=""wtp"" style=""text-align:center; margin-top: 0px; margin-bottom: 0px; font-size: 40px"";>&ensp;</p>","-","viewing","0","20","10C,13A,19C,21B","","","","","","","","","","","","","","","","",""
"","","","","","html-slider-response","37","138048","0.0-17.0-1.6","1c3c4861-95c6-42a5-9380-25db22cb1773","863","
                  <p style=""text-align: center;"">₪58
                                                <br>40%</p>
                  <p id=""wtp"" style=""text-align:center; margin-top: 0px; margin-bottom: 0px; font-size: 40px"";>מוכנים לשלם: <span id=""c_p_y""></span></p>","39","evaluation","23","20","10C,13A,19C,21B","40","58","39","","","","","","","","","","","","","",""
"","","","","","html-keyboard-response","38","139369","0.0-17.0-2.6","1c3c4861-95c6-42a5-9380-25db22cb1773","null","<p style=""text-align: center;"">+</p>","null","fixation","","","","","","","","","","","","","","","","","","","",""
"","","","","","html-slider-response","39","140370","0.0-17.0-0.7","1c3c4861-95c6-42a5-9380-25db22cb1773","1000","
                  <p style=""text-align: center;"">₪64
                                                <br>25%</p>
                  <p id=""wtp"" style=""text-align:center; margin-top: 0px; margin-bottom: 0px; font-size: 40px"";>&ensp;</p>","-","viewing","0","24","6A,21A","","","","","","","","","","","","","","","","",""
"","","","","","html-slider-response","40","141271","0.0-17.0-1.7","1c3c4861-95c6-42a5-9380-25db22cb1773","900","
                  <p style=""text-align: center;"">₪64
                                                <br>25%</p>
                  <p id=""wtp"" style=""text-align:center; margin-top: 0px; margin-bottom: 0px; font-size: 40px"";>מוכנים לשלם: <span id=""c_p_y""></span></p>","6","evaluation","43","24","6A,21A","25","64","6","","","","","","","","","","","","","",""
"","","","","","html-keyboard-response","41","142669","0.0-17.0-2.7","1c3c4861-95c6-42a5-9380-25db22cb1773","null","<p style=""text-align: center;"">+</p>","null","fixation","","","","","","","","","","","","","","","","","","","",""
"","","","","","html-slider-response","42","143676","0.0-17.0-0.8","1c3c4861-95c6-42a5-9380-25db22cb1773","1000","
                  <p style=""text-align: center;"">₪11
                                                <br>45%</p>
                  <p id=""wtp"" style=""text-align:center; margin-top: 0px; margin-bottom: 0px; font-size: 40px"";>&ensp;</p>","-","viewing","0","6","14B,21C,25C","","","","","","","","","","","","","","","","",""
"","","","","","html-slider-response","43","144840","0.0-17.0-1.8","1c3c4861-95c6-42a5-9380-25db22cb1773","1162","
                  <p style=""text-align: center;"">₪11
                                                <br>45%</p>
                  <p id=""wtp"" style=""text-align:center; margin-top: 0px; margin-bottom: 0px; font-size: 40px"";>מוכנים לשלם: <span id=""c_p_y""></span></p>","11","evaluation","37","6","14B,21C,25C","45","11","12","","","","","","","","","","","","","",""
"","","","","","html-keyboard-response","44","145457","0.0-17.0-2.8","1c3c4861-95c6-42a5-9380-25db22cb1773","null","<p style=""text-align: center;"">+</p>","null","fixation","","","","","","","","","","","","","","","","","","","",""
"","","","","","html-slider-response","45","146472","0.0-17.0-0.9","1c3c4861-95c6-42a5-9380-25db22cb1773","1000","
                  <p style=""text-align: center;"">₪18
                                                <br>25%</p>
                  <p id=""wtp"" style=""text-align:center; margin-top: 0px; margin-bottom: 0px; font-size: 40px"";>&ensp;</p>","-","viewing","0","9","14A,23A","","","","","","","","","","","","","","","","",""
"","","","","","html-slider-response","46","147880","0.0-17.0-1.9","1c3c4861-95c6-42a5-9380-25db22cb1773","1407","
                  <p style=""text-align: center;"">₪18
                                                <br>25%</p>
                  <p id=""wtp"" style=""text-align:center; margin-top: 0px; margin-bottom: 0px; font-size: 40px"";>מוכנים לשלם: <span id=""c_p_y""></span></p>","5","evaluation","21","9","14A,23A","25","18","5","","","","","","","","","","","","","",""
"","","","","","html-keyboard-response","47","149015","0.0-17.0-2.9","1c3c4861-95c6-42a5-9380-25db22cb1773","null","<p style=""text-align: center;"">+</p>","null","fixation","","","","","","","","","","","","","","","","","","","",""
"","","","","","html-slider-response","48","150026","0.0-17.0-0.10","1c3c4861-95c6-42a5-9380-25db22cb1773","1000","
                  <p style=""text-align: center;"">₪36
                                                <br>30%</p>
                  <p id=""wtp"" style=""text-align:center; margin-top: 0px; margin-bottom: 0px; font-size: 40px"";>&ensp;</p>","-","viewing","0","11","3C,20A,22A","","","","","","","","","","","","","","","","",""
"","","","","","html-slider-response","49","152072","0.0-17.0-1.10","1c3c4861-95c6-42a5-9380-25db22cb1773","2045","
                  <p style=""text-align: center;"">₪36
                                                <br>30%</p>
                  <p id=""wtp"" style=""text-align:center; margin-top: 0px; margin-bottom: 0px; font-size: 40px"";>מוכנים לשלם: <span id=""c_p_y""></span></p>","22","evaluation","48","11","3C,20A,22A","30","36","22","","","","","","","","","","","","","",""
"","","","","","html-keyboard-response","50","152710","0.0-17.0-2.10","1c3c4861-95c6-42a5-9380-25db22cb1773","null","<p style=""text-align: center;"">+</p>","null","fixation","","","","","","","","","","","","","","","","","","","",""
"","","","","","html-slider-response","51","153728","0.0-17.0-0.11","1c3c4861-95c6-42a5-9380-25db22cb1773","1000","
                  <p style=""text-align: center;"">₪4
                                                <br>75%</p>
                  <p id=""wtp"" style=""text-align:center; margin-top: 0px; margin-bottom: 0px; font-size: 40px"";>&ensp;</p>","-","viewing","0","3","12B,20B,23B,27C,29C","","","","","","","","","","","","","","","","",""
"","","","","","html-slider-response","52","157288","0.0-17.0-1.11","1c3c4861-95c6-42a5-9380-25db22cb1773","3559","
                  <p style=""text-align: center;"">₪4
                                                <br>75%</p>
                  <p id=""wtp"" style=""text-align:center; margin-top: 0px; margin-bottom: 0px; font-size: 40px"";>מוכנים לשלם: <span id=""c_p_y""></span></p>","6","evaluation","4","3","12B,20B,23B,27C,29C","75","4","7","","","","","","","","","","","","","",""
"","","","","","html-keyboard-response","53","158022","0.0-17.0-2.11","1c3c4861-95c6-42a5-9380-25db22cb1773","null","<p style=""text-align: center;"">+</p>","null","fixation","","","","","","","","","","","","","","","","","","","",""
"","","","","","html-slider-response","54","159025","0.0-17.0-0.12","1c3c4861-95c6-42a5-9380-25db22cb1773","1000","
                  <p style=""text-align: center;"">₪71
                                                <br>75%</p>
                  <p id=""wtp"" style=""text-align:center; margin-top: 0px; margin-bottom: 0px; font-size: 40px"";>&ensp;</p>","-","viewing","0","28","8B","","","","","","","","","","","","","","","","",""
"","","","","","html-slider-response","55","161376","0.0-17.0-1.12","1c3c4861-95c6-42a5-9380-25db22cb1773","2349","
                  <p style=""text-align: center;"">₪71
                                                <br>75%</p>
                  <p id=""wtp"" style=""text-align:center; margin-top: 0px; margin-bottom: 0px; font-size: 40px"";>מוכנים לשלם: <span id=""c_p_y""></span></p>","48","evaluation","74","28","8B","75","71","48","","","","","","","","","","","","","",""
"","","","","","html-keyboard-response","56","162589","0.0-17.0-2.12","1c3c4861-95c6-42a5-9380-25db22cb1773","null","<p style=""text-align: center;"">+</p>","null","fixation","","","","","","","","","","","","","","","","","","","",""
"","","","","","html-slider-response","57","163604","0.0-17.0-0.13","1c3c4861-95c6-42a5-9380-25db22cb1773","1000","
                  <p style=""text-align: center;"">₪36
                                                <br>70%</p>
                  <p id=""wtp"" style=""text-align:center; margin-top: 0px; margin-bottom: 0px; font-size: 40px"";>&ensp;</p>","-","viewing","0","13","3A,5C,10B","","","","","","","","","","","","","","","","",""
"","","","","","html-slider-response","58","165424","0.0-17.0-1.13","1c3c4861-95c6-42a5-9380-25db22cb1773","1819","
                  <p style=""text-align: center;"">₪36
                                                <br>70%</p>
                  <p id=""wtp"" style=""text-align:center; margin-top: 0px; margin-bottom: 0px; font-size: 40px"";>מוכנים לשלם: <span id=""c_p_y""></span></p>","32","evaluation","52","13","3A,5C,10B","70","36","32","","","","","","","","","","","","","",""
"","","","","","html-keyboard-response","59","166219","0.0-17.0-2.13","1c3c4861-95c6-42a5-9380-25db22cb1773","null","<p style=""text-align: center;"">+</p>","null","fixation","","","","","","","","","","","","","","","","","","","",""
"","","","","","html-slider-response","60","167226","0.0-17.0-0.14","1c3c4861-95c6-42a5-9380-25db22cb1773","1000","
                  <p style=""text-align: center;"">₪39
                                                <br>60%</p>
                  <p id=""wtp"" style=""text-align:center; margin-top: 0px; margin-bottom: 0px; font-size: 40px"";>&ensp;</p>","-","viewing","0","15","9C,25B","","","","","","","","","","","","","","","","",""
"","","","","","html-slider-response","61","169424","0.0-17.0-1.14","1c3c4861-95c6-42a5-9380-25db22cb1773","2197","
                  <p style=""text-align: center;"">₪39
                                                <br>60%</p>
                  <p id=""wtp"" style=""text-align:center; margin-top: 0px; margin-bottom: 0px; font-size: 40px"";>מוכנים לשלם: <span id=""c_p_y""></span></p>","34","evaluation","39","15","9C,25B","60","39","34","","","","","","","","","","","","","",""
"","","","","","html-keyboard-response","62","170492","0.0-17.0-2.14","1c3c4861-95c6-42a5-9380-25db22cb1773","null","<p style=""text-align: center;"">+</p>","null","fixation","","","","","","","","","","","","","","","","","","","",""
"","","","","","html-slider-response","63","171503","0.0-17.0-0.15","1c3c4861-95c6-42a5-9380-25db22cb1773","1000","
                  <p style=""text-align: center;"">₪71
                                                <br>45%</p>
                  <p id=""wtp"" style=""text-align:center; margin-top: 0px; margin-bottom: 0px; font-size: 40px"";>&ensp;</p>","-","viewing","0","26","2B,16A","","","","","","","","","","","","","","","","",""
"","","","","","html-slider-response","64","172680","0.0-17.0-1.15","1c3c4861-95c6-42a5-9380-25db22cb1773","1175","
                  <p style=""text-align: center;"">₪71
                                                <br>45%</p>
                  <p id=""wtp"" style=""text-align:center; margin-top: 0px; margin-bottom: 0px; font-size: 40px"";>מוכנים לשלם: <span id=""c_p_y""></span></p>","38","evaluation","21","26","2B,16A","45","71","38","","","","","","","","","","","","","",""
"","","","","","html-keyboard-response","65","174053","0.0-17.0-2.15","1c3c4861-95c6-42a5-9380-25db22cb1773","null","<p style=""text-align: center;"">+</p>","null","fixation","","","","","","","","","","","","","","","","","","","",""
"","","","","","html-slider-response","66","175062","0.0-17.0-0.16","1c3c4861-95c6-42a5-9380-25db22cb1773","1000","
                  <p style=""text-align: center;"">₪39
                                                <br>65%</p>
                  <p id=""wtp"" style=""text-align:center; margin-top: 0px; margin-bottom: 0px; font-size: 40px"";>&ensp;</p>","-","viewing","0","16","1A,15A,26C","","","","","","","","","","","","","","","","",""
"","","","","","html-slider-response","67","176872","0.0-17.0-1.16","1c3c4861-95c6-42a5-9380-25db22cb1773","1809","
                  <p style=""text-align: center;"">₪39
                                                <br>65%</p>
                  <p id=""wtp"" style=""text-align:center; margin-top: 0px; margin-bottom: 0px; font-size: 40px"";>מוכנים לשלם: <span id=""c_p_y""></span></p>","38","evaluation","58","16","1A,15A,26C","65","39","38","","","","","","","","","","","","","",""
"","","","","","html-keyboard-response","68","178129","0.0-17.0-2.16","1c3c4861-95c6-42a5-9380-25db22cb1773","null","<p style=""text-align: center;"">+</p>","null","fixation","","","","","","","","","","","","","","","","","","","",""
"","","","","","html-slider-response","69","179131","0.0-17.0-0.17","1c3c4861-95c6-42a5-9380-25db22cb1773","1000","
                  <p style=""text-align: center;"">₪64
                                                <br>50%</p>
                  <p id=""wtp"" style=""text-align:center; margin-top: 0px; margin-bottom: 0px; font-size: 40px"";>&ensp;</p>","-","viewing","0","25","1B,3B,4A","","","","","","","","","","","","","","","","",""
"","","","","","html-slider-response","70","181368","0.0-17.0-1.17","1c3c4861-95c6-42a5-9380-25db22cb1773","2235","
                  <p style=""text-align: center;"">₪64
                                                <br>50%</p>
                  <p id=""wtp"" style=""text-align:center; margin-top: 0px; margin-bottom: 0px; font-size: 40px"";>מוכנים לשלם: <span id=""c_p_y""></span></p>","28","evaluation","16","25","1B,3B,4A","50","64","28","","","","","","","","","","","","","",""
"","","","","","html-keyboard-response","71","182741","0.0-17.0-2.17","1c3c4861-95c6-42a5-9380-25db22cb1773","null","<p style=""text-align: center;"">+</p>","null","fixation","","","","","","","","","","","","","","","","","","","",""
"","","","","","html-slider-response","72","183757","0.0-17.0-0.18","1c3c4861-95c6-42a5-9380-25db22cb1773","1000","
                  <p style=""text-align: center;"">₪61
                                                <br>55%</p>
                  <p id=""wtp"" style=""text-align:center; margin-top: 0px; margin-bottom: 0px; font-size: 40px"";>&ensp;</p>","-","viewing","0","23","7B,26B","","","","","","","","","","","","","","","","",""
"","","","","","html-slider-response","73","186688","0.0-17.0-1.18","1c3c4861-95c6-42a5-9380-25db22cb1773","2929","
                  <p style=""text-align: center;"">₪61
                                                <br>55%</p>
                  <p id=""wtp"" style=""text-align:center; margin-top: 0px; margin-bottom: 0px; font-size: 40px"";>מוכנים לשלם: <span id=""c_p_y""></span></p>","29","evaluation","32","23","7B,26B","55","61","29","","","","","","","","","","","","","",""
"","","","","","html-keyboard-response","74","187251","0.0-17.0-2.18","1c3c4861-95c6-42a5-9380-25db22cb1773","null","<p style=""text-align: center;"">+</p>","null","fixation","","","","","","","","","","","","","","","","","","","",""
"","","","","","html-slider-response","75","188267","0.0-17.0-0.19","1c3c4861-95c6-42a5-9380-25db22cb1773","1000","
                  <p style=""text-align: center;"">₪11
                                                <br>25%</p>
                  <p id=""wtp"" style=""text-align:center; margin-top: 0px; margin-bottom: 0px; font-size: 40px"";>&ensp;</p>","-","viewing","0","5","12A,27B,28B,30B","","","","","","","","","","","","","","","","",""
"","","","","","html-slider-response","76","189504","0.0-17.0-1.19","1c3c4861-95c6-42a5-9380-25db22cb1773","1235","
                  <p style=""text-align: center;"">₪11
                                                <br>25%</p>
                  <p id=""wtp"" style=""text-align:center; margin-top: 0px; margin-bottom: 0px; font-size: 40px"";>מוכנים לשלם: <span id=""c_p_y""></span></p>","10","evaluation","14","5","12A,27B,28B,30B","25","11","10","","","","","","","","","","","","","",""
"","","","","","html-keyboard-response","77","190256","0.0-17.0-2.19","1c3c4861-95c6-42a5-9380-25db22cb1773","null","<p style=""text-align: center;"">+</p>","null","fixation","","","","","","","","","","","","","","","","","","","",""
"","","","","","html-slider-response","78","191272","0.0-17.0-0.20","1c3c4861-95c6-42a5-9380-25db22cb1773","1000","
                  <p style=""text-align: center;"">₪71
                                                <br>55%</p>
                  <p id=""wtp"" style=""text-align:center; margin-top: 0px; margin-bottom: 0px; font-size: 40px"";>&ensp;</p>","-","viewing","0","27","5B,18A","","","","","","","","","","","","","","","","",""
"","","","","","html-slider-response","79","193808","0.0-17.0-1.20","1c3c4861-95c6-42a5-9380-25db22cb1773","2535","
                  <p style=""text-align: center;"">₪71
                                                <br>55%</p>
                  <p id=""wtp"" style=""text-align:center; margin-top: 0px; margin-bottom: 0px; font-size: 40px"";>מוכנים לשלם: <span id=""c_p_y""></span></p>","24","evaluation","79","27","5B,18A","55","71","24","","","","","","","","","","","","","",""
"","","","","","html-keyboard-response","80","195223","0.0-17.0-2.20","1c3c4861-95c6-42a5-9380-25db22cb1773","null","<p style=""text-align: center;"">+</p>","null","fixation","","","","","","","","","","","","","","","","","","","",""
"","","","","","html-slider-response","81","196226","0.0-17.0-0.21","1c3c4861-95c6-42a5-9380-25db22cb1773","1000","
                  <p style=""text-align: center;"">₪43
                                                <br>75%</p>
                  <p id=""wtp"" style=""text-align:center; margin-top: 0px; margin-bottom: 0px; font-size: 40px"";>&ensp;</p>","-","viewing","0","18","11B,19B,24A,26A","","","","","","","","","","","","","","","","",""
"","","","","","html-slider-response","82","197744","0.0-17.0-1.21","1c3c4861-95c6-42a5-9380-25db22cb1773","1516","
                  <p style=""text-align: center;"">₪43
                                                <br>75%</p>
                  <p id=""wtp"" style=""text-align:center; margin-top: 0px; margin-bottom: 0px; font-size: 40px"";>מוכנים לשלם: <span id=""c_p_y""></span></p>","31","evaluation","10","18","11B,19B,24A,26A","75","43","31","","","","","","","","","","","","","",""
"","","","","","html-keyboard-response","83","198512","0.0-17.0-2.21","1c3c4861-95c6-42a5-9380-25db22cb1773","null","<p style=""text-align: center;"">+</p>","null","fixation","","","","","","","","","","","","","","","","","","","",""
"","","","","","html-slider-response","84","199515","0.0-17.0-0.22","1c3c4861-95c6-42a5-9380-25db22cb1773","1000","
                  <p style=""text-align: center;"">₪4
                                                <br>25%</p>
                  <p id=""wtp"" style=""text-align:center; margin-top: 0px; margin-bottom: 0px; font-size: 40px"";>&ensp;</p>","-","viewing","0","1","6C,29B,30C","","","","","","","","","","","","","","","","",""
"","","","","","html-slider-response","85","201120","0.0-17.0-1.22","1c3c4861-95c6-42a5-9380-25db22cb1773","1604","
                  <p style=""text-align: center;"">₪4
                                                <br>25%</p>
                  <p id=""wtp"" style=""text-align:center; margin-top: 0px; margin-bottom: 0px; font-size: 40px"";>מוכנים לשלם: <span id=""c_p_y""></span></p>","1","evaluation","52","1","6C,29B,30C","25","4","1","","","","","","","","","","","","","",""
"","","","","","html-keyboard-response","86","202209","0.0-17.0-2.22","1c3c4861-95c6-42a5-9380-25db22cb1773","null","<p style=""text-align: center;"">+</p>","null","fixation","","","","","","","","","","","","","","","","","","","",""
"","","","","","html-slider-response","87","203223","0.0-17.0-0.23","1c3c4861-95c6-42a5-9380-25db22cb1773","1000","
                  <p style=""text-align: center;"">₪36
                                                <br>75%</p>
                  <p id=""wtp"" style=""text-align:center; margin-top: 0px; margin-bottom: 0px; font-size: 40px"";>&ensp;</p>","-","viewing","0","14","4B,5A,13B,16B","","","","","","","","","","","","","","","","",""
"","","","","","html-slider-response","88","205040","0.0-17.0-1.23","1c3c4861-95c6-42a5-9380-25db22cb1773","1815","
                  <p style=""text-align: center;"">₪36
                                                <br>75%</p>
                  <p id=""wtp"" style=""text-align:center; margin-top: 0px; margin-bottom: 0px; font-size: 40px"";>מוכנים לשלם: <span id=""c_p_y""></span></p>","21","evaluation","64","14","4B,5A,13B,16B","75","36","21","","","","","","","","","","","","","",""
"","","","","","html-keyboard-response","89","206270","0.0-17.0-2.23","1c3c4861-95c6-42a5-9380-25db22cb1773","null","<p style=""text-align: center;"">+</p>","null","fixation","","","","","","","","","","","","","","","","","","","",""
"","","","","","html-slider-response","90","207282","0.0-17.0-0.24","1c3c4861-95c6-42a5-9380-25db22cb1773","1000","
                  <p style=""text-align: center;"">₪11
                                                <br>20%</p>
                  <p id=""wtp"" style=""text-align:center; margin-top: 0px; margin-bottom: 0px; font-size: 40px"";>&ensp;</p>","-","viewing","0","4","12C,17C,23C,28C","","","","","","","","","","","","","","","","",""
"","","","","","html-slider-response","91","208312","0.0-17.0-1.24","1c3c4861-95c6-42a5-9380-25db22cb1773","1028","
                  <p style=""text-align: center;"">₪11
                                                <br>20%</p>
                  <p id=""wtp"" style=""text-align:center; margin-top: 0px; margin-bottom: 0px; font-size: 40px"";>מוכנים לשלם: <span id=""c_p_y""></span></p>","9","evaluation","29","4","12C,17C,23C,28C","20","11","9","","","","","","","","","","","","","",""
"","","","","","html-keyboard-response","92","209162","0.0-17.0-2.24","1c3c4861-95c6-42a5-9380-25db22cb1773","null","<p style=""text-align: center;"">+</p>","null","fixation","","","","","","","","","","","","","","","","","","","",""
"","","","","","html-slider-response","93","210175","0.0-17.0-0.25","1c3c4861-95c6-42a5-9380-25db22cb1773","1000","
                  <p style=""text-align: center;"">₪16
                                                <br>20%</p>
                  <p id=""wtp"" style=""text-align:center; margin-top: 0px; margin-bottom: 0px; font-size: 40px"";>&ensp;</p>","-","viewing","0","8","14C,17A,20C,27A","","","","","","","","","","","","","","","","",""
"","","","","","html-slider-response","94","211408","0.0-17.0-1.25","1c3c4861-95c6-42a5-9380-25db22cb1773","1231","
                  <p style=""text-align: center;"">₪16
                                                <br>20%</p>
                  <p id=""wtp"" style=""text-align:center; margin-top: 0px; margin-bottom: 0px; font-size: 40px"";>מוכנים לשלם: <span id=""c_p_y""></span></p>","4","evaluation","55","8","14C,17A,20C,27A","20","16","4","","","","","","","","","","","","","",""
"","","","","","html-keyboard-response","95","212605","0.0-17.0-2.25","1c3c4861-95c6-42a5-9380-25db22cb1773","null","<p style=""text-align: center;"">+</p>","null","fixation","","","","","","","","","","","","","","","","","","","",""
"","","","","","html-slider-response","96","213619","0.0-17.0-0.26","1c3c4861-95c6-42a5-9380-25db22cb1773","1000","
                  <p style=""text-align: center;"">₪61
                                                <br>45%</p>
                  <p id=""wtp"" style=""text-align:center; margin-top: 0px; margin-bottom: 0px; font-size: 40px"";>&ensp;</p>","-","viewing","0","22","10A,11A","","","","","","","","","","","","","","","","",""
"","","","","","html-slider-response","97","214488","0.0-17.0-1.26","1c3c4861-95c6-42a5-9380-25db22cb1773","867","
                  <p style=""text-align: center;"">₪61
                                                <br>45%</p>
                  <p id=""wtp"" style=""text-align:center; margin-top: 0px; margin-bottom: 0px; font-size: 40px"";>מוכנים לשלם: <span id=""c_p_y""></span></p>","22","evaluation","15","22","10A,11A","45","61","22","","","","","","","","","","","","","",""
"","","","","","html-keyboard-response","98","215109","0.0-17.0-2.26","1c3c4861-95c6-42a5-9380-25db22cb1773","null","<p style=""text-align: center;"">+</p>","null","fixation","","","","","","","","","","","","","","","","","","","",""
"","","","","","html-slider-response","99","216121","0.0-17.0-0.27","1c3c4861-95c6-42a5-9380-25db22cb1773","1000","
                  <p style=""text-align: center;"">₪11
                                                <br>75%</p>
                  <p id=""wtp"" style=""text-align:center; margin-top: 0px; margin-bottom: 0px; font-size: 40px"";>&ensp;</p>","-","viewing","0","7","6B,18B,22C,24C,29A","","","","","","","","","","","","","","","","",""
"","","","","","html-slider-response","100","218536","0.0-17.0-1.27","1c3c4861-95c6-42a5-9380-25db22cb1773","2413","
                  <p style=""text-align: center;"">₪11
                                                <br>75%</p>
                  <p id=""wtp"" style=""text-align:center; margin-top: 0px; margin-bottom: 0px; font-size: 40px"";>מוכנים לשלם: <span id=""c_p_y""></span></p>","5","evaluation","69","7","6B,18B,22C,24C,29A","75","11","5","","","","","","","","","","","","","",""
"","","","","","html-keyboard-response","101","219887","0.0-17.0-2.27","1c3c4861-95c6-42a5-9380-25db22cb1773","null","<p style=""text-align: center;"">+</p>","null","fixation","","","","","","","","","","","","","","","","","","","",""
"","","","","","html-slider-response","102","220895","0.0-17.0-0.28","1c3c4861-95c6-42a5-9380-25db22cb1773","1000","
                  <p style=""text-align: center;"">₪58
                                                <br>45%</p>
                  <p id=""wtp"" style=""text-align:center; margin-top: 0px; margin-bottom: 0px; font-size: 40px"";>&ensp;</p>","-","viewing","0","21","11C,18C,25A","","","","","","","","","","","","","","","","",""
"","","","","","html-slider-response","103","221712","0.0-17.0-1.28","1c3c4861-95c6-42a5-9380-25db22cb1773","815","
                  <p style=""text-align: center;"">₪58
                                                <br>45%</p>
                  <p id=""wtp"" style=""text-align:center; margin-top: 0px; margin-bottom: 0px; font-size: 40px"";>מוכנים לשלם: <span id=""c_p_y""></span></p>","25","evaluation","77","21","11C,18C,25A","45","58","25","","","","","","","","","","","","","",""
"","","","","","html-keyboard-response","104","223158","0.0-17.0-2.28","1c3c4861-95c6-42a5-9380-25db22cb1773","null","<p style=""text-align: center;"">+</p>","null","fixation","","","","","","","","","","","","","","","","","","","",""
"","","","","","html-slider-response","105","224168","0.0-17.0-0.29","1c3c4861-95c6-42a5-9380-25db22cb1773","1000","
                  <p style=""text-align: center;"">₪58
                                                <br>30%</p>
                  <p id=""wtp"" style=""text-align:center; margin-top: 0px; margin-bottom: 0px; font-size: 40px"";>&ensp;</p>","-","viewing","0","19","13C,30A","","","","","","","","","","","","","","","","",""
"","","","","","html-slider-response","106","226744","0.0-17.0-1.29","1c3c4861-95c6-42a5-9380-25db22cb1773","2575","
                  <p style=""text-align: center;"">₪58
                                                <br>30%</p>
                  <p id=""wtp"" style=""text-align:center; margin-top: 0px; margin-bottom: 0px; font-size: 40px"";>מוכנים לשלם: <span id=""c_p_y""></span></p>","25","evaluation","16","19","13C,30A","30","58","25","","","","","","","","","","","","","",""
"","","","","","html-keyboard-response","107","227539","0.0-17.0-2.29","1c3c4861-95c6-42a5-9380-25db22cb1773","null","<p style=""text-align: center;"">+</p>","null","fixation","","","","","","","","","","","","","","","","","","","",""
"","","","","","html-slider-response","108","228540","0.0-17.0-0.30","1c3c4861-95c6-42a5-9380-25db22cb1773","1000","
                  <p style=""text-align: center;"">₪36
                                                <br>60%</p>
                  <p id=""wtp"" style=""text-align:center; margin-top: 0px; margin-bottom: 0px; font-size: 40px"";>&ensp;</p>","-","viewing","0","12","1C,7C,15C","","","","","","","","","","","","","","","","",""
"","","","","","html-slider-response","109","229696","0.0-17.0-1.30","1c3c4861-95c6-42a5-9380-25db22cb1773","1155","
                  <p style=""text-align: center;"">₪36
                                                <br>60%</p>
                  <p id=""wtp"" style=""text-align:center; margin-top: 0px; margin-bottom: 0px; font-size: 40px"";>מוכנים לשלם: <span id=""c_p_y""></span></p>","25","evaluation","56","12","1C,7C,15C","60","36","25","","","","","","","","","","","","","",""
"","","","","","html-keyboard-response","110","230437","0.0-17.0-2.30","1c3c4861-95c6-42a5-9380-25db22cb1773","null","<p style=""text-align: center;"">+</p>","null","fixation","","","","","","","","","","","","","","","","","","","",""
"","","","","","html-keyboard-response","111","231453","0.0-18.0","1c3c4861-95c6-42a5-9380-25db22cb1773","null","<p style=""text-align: center;"">+</p>","null","fixation","","","","","","","","","","","","","","","","","","","",""
"","","","","","html-keyboard-response","112","232511","0.0-19.0","1c3c4861-95c6-42a5-9380-25db22cb1773","null","<p>הפסקה.
          <br>לחצו כדי להמשיך.</p>","1","scan_wait","","","","","","","","","","","","","","","","","","","",""
"","","","","","html-keyboard-response","113","233517","0.0-20.0","1c3c4861-95c6-42a5-9380-25db22cb1773","null","<p style=""text-align: center;"">+</p>","null","fixation","","","","","","","","","","","","","","","","","","","",""
"","","","","","html-slider-response","114","234519","0.0-21.0-0.0","1c3c4861-95c6-42a5-9380-25db22cb1773","1000","
                  <p style=""text-align: center;"">₪61
                                                <br>55%</p>
                  <p id=""wtp"" style=""text-align:center; margin-top: 0px; margin-bottom: 0px; font-size: 40px"";>&ensp;</p>","-","viewing","0","23","7B,26B","","","","","","","","","","","","","","","","",""
"","","","","","html-slider-response","115","235912","0.0-21.0-1.0","1c3c4861-95c6-42a5-9380-25db22cb1773","1391","
                  <p style=""text-align: center;"">₪61
                                                <br>55%</p>
                  <p id=""wtp"" style=""text-align:center; margin-top: 0px; margin-bottom: 0px; font-size: 40px"";>מוכנים לשלם: <span id=""c_p_y""></span></p>","35","evaluation","9","23","7B,26B","55","61","35","","","","","","","","","","","","","",""
"","","","","","html-keyboard-response","116","236612","0.0-21.0-2.0","1c3c4861-95c6-42a5-9380-25db22cb1773","null","<p style=""text-align: center;"">+</p>","null","fixation","","","","","","","","","","","","","","","","","","","",""
"","","","","","html-slider-response","117","237627","0.0-21.0-0.1","1c3c4861-95c6-42a5-9380-25db22cb1773","1000","
                  <p style=""text-align: center;"">₪58
                                                <br>45%</p>
                  <p id=""wtp"" style=""text-align:center; margin-top: 0px; margin-bottom: 0px; font-size: 40px"";>&ensp;</p>","-","viewing","0","21","11C,18C,25A","","","","","","","","","","","","","","","","",""
"","","","","","html-slider-response","118","238400","0.0-21.0-1.1","1c3c4861-95c6-42a5-9380-25db22cb1773","771","
                  <p style=""text-align: center;"">₪58
                                                <br>45%</p>
                  <p id=""wtp"" style=""text-align:center; margin-top: 0px; margin-bottom: 0px; font-size: 40px"";>מוכנים לשלם: <span id=""c_p_y""></span></p>","29","evaluation","43","21","11C,18C,25A","45","58","29","","","","","","","","","","","","","",""
"","","","","","html-keyboard-response","119","239154","0.0-21.0-2.1","1c3c4861-95c6-42a5-9380-25db22cb1773","null","<p style=""text-align: center;"">+</p>","null","fixation","","","","","","","","","","","","","","","","","","","",""
"","","","","","html-slider-response","120","240157","0.0-21.0-0.2","1c3c4861-95c6-42a5-9380-25db22cb1773","1000","
                  <p style=""text-align: center;"">₪18
                                                <br>25%</p>
                  <p id=""wtp"" style=""text-align:center; margin-top: 0px; margin-bottom: 0px; font-size: 40px"";>&ensp;</p>","-","viewing","0","9","14A,23A","","","","","","","","","","","","","","","","",""
"","","","","","html-slider-response","121","240984","0.0-21.0-1.2","1c3c4861-95c6-42a5-9380-25db22cb1773","826","
                  <p style=""text-align: center;"">₪18
                                                <br>25%</p>
                  <p id=""wtp"" style=""text-align:center; margin-top: 0px; margin-bottom: 0px; font-size: 40px"";>מוכנים לשלם: <span id=""c_p_y""></span></p>","15","evaluation","0","9","14A,23A","25","18","15","","","","","","","","","","","","","",""
"","","","","","html-keyboard-response","122","242225","0.0-21.0-2.2","1c3c4861-95c6-42a5-9380-25db22cb1773","null","<p style=""text-align: center;"">+</p>","null","fixation","","","","","","","","","","","","","","","","","","","",""
"","","","","","html-slider-response","123","243232","0.0-21.0-0.3","1c3c4861-95c6-42a5-9380-25db22cb1773","1000","
                  <p style=""text-align: center;"">₪58
                                                <br>30%</p>
                  <p id=""wtp"" style=""text-align:center; margin-top: 0px; margin-bottom: 0px; font-size: 40px"";>&ensp;</p>","-","viewing","0","19","13C,30A","","","","","","","","","","","","","","","","",""
"","","","","","html-slider-response","124","244344","0.0-21.0-1.3","1c3c4861-95c6-42a5-9380-25db22cb1773","1110","
                  <p style=""text-align: center;"">₪58
                                                <br>30%</p>
                  <p id=""wtp"" style=""text-align:center; margin-top: 0px; margin-bottom: 0px; font-size: 40px"";>מוכנים לשלם: <span id=""c_p_y""></span></p>","20","evaluation","77","19","13C,30A","30","58","20","","","","","","","","","","","","","",""
"","","","","","html-keyboard-response","125","245808","0.0-21.0-2.3","1c3c4861-95c6-42a5-9380-25db22cb1773","null","<p style=""text-align: center;"">+</p>","null","fixation","","","","","","","","","","","","","","","","","","","",""
"","","","","","html-slider-response","126","246814","0.0-21.0-0.4","1c3c4861-95c6-42a5-9380-25db22cb1773","1000","
                  <p style=""text-align: center;"">₪36
                                                <br>75%</p>
                  <p id=""wtp"" style=""text-align:center; margin-top: 0px; margin-bottom: 0px; font-size: 40px"";>&ensp;</p>","-","viewing","0","14","4B,5A,13B,16B","","","","","","","","","","","","","","","","",""
"","","","","","html-slider-response","127","248648","0.0-21.0-1.4","1c3c4861-95c6-42a5-9380-25db22cb1773","1833","
                  <p style=""text-align: center;"">₪36
                                                <br>75%</p>
                  <p id=""wtp"" style=""text-align:center; margin-top: 0px; margin-bottom: 0px; font-size: 40px"";>מוכנים לשלם: <span id=""c_p_y""></span></p>","20","evaluation","28","14","4B,5A,13B,16B","75","36","20","","","","","","","","","","","","","",""
"","","","","","html-keyboard-response","128","249450","0.0-21.0-2.4","1c3c4861-95c6-42a5-9380-25db22cb1773","null","<p style=""text-align: center;"">+</p>","null","fixation","","","","","","","","","","","","","","","","","","","",""
"","","","","","html-slider-response","129","250453","0.0-21.0-0.5","1c3c4861-95c6-42a5-9380-25db22cb1773","1000","
                  <p style=""text-align: center;"">₪71
                                                <br>55%</p>
                  <p id=""wtp"" style=""text-align:center; margin-top: 0px; margin-bottom: 0px; font-size: 40px"";>&ensp;</p>","-","viewing","0","27","5B,18A","","","","","","","","","","","","","","","","",""
"","","","","","html-slider-response","130","251840","0.0-21.0-1.5","1c3c4861-95c6-42a5-9380-25db22cb1773","1385","
                  <p style=""text-align: center;"">₪71
                                                <br>55%</p>
                  <p id=""wtp"" style=""text-align:center; margin-top: 0px; margin-bottom: 0px; font-size: 40px"";>מוכנים לשלם: <span id=""c_p_y""></span></p>","41","evaluation","68","27","5B,18A","55","71","41","","","","","","","","","","","","","",""
"","","","","","html-keyboard-response","131","253335","0.0-21.0-2.5","1c3c4861-95c6-42a5-9380-25db22cb1773","null","<p style=""text-align: center;"">+</p>","null","fixation","","","","","","","","","","","","","","","","","","","",""
"","","","","","html-slider-response","132","254350","0.0-21.0-0.6","1c3c4861-95c6-42a5-9380-25db22cb1773","1000","
                  <p style=""text-align: center;"">₪58
                                                <br>40%</p>
                  <p id=""wtp"" style=""text-align:center; margin-top: 0px; margin-bottom: 0px; font-size: 40px"";>&ensp;</p>","-","viewing","0","20","10C,13A,19C,21B","","","","","","","","","","","","","","","","",""
"","","","","","html-slider-response","133","256160","0.0-21.0-1.6","1c3c4861-95c6-42a5-9380-25db22cb1773","1809","
                  <p style=""text-align: center;"">₪58
                                                <br>40%</p>
                  <p id=""wtp"" style=""text-align:center; margin-top: 0px; margin-bottom: 0px; font-size: 40px"";>מוכנים לשלם: <span id=""c_p_y""></span></p>","32","evaluation","9","20","10C,13A,19C,21B","40","58","32","","","","","","","","","","","","","",""
"","","","","","html-keyboard-response","134","256677","0.0-21.0-2.6","1c3c4861-95c6-42a5-9380-25db22cb1773","null","<p style=""text-align: center;"">+</p>","null","fixation","","","","","","","","","","","","","","","","","","","",""
"","","","","","html-slider-response","135","257692","0.0-21.0-0.7","1c3c4861-95c6-42a5-9380-25db22cb1773","1000","
                  <p style=""text-align: center;"">₪18
                                                <br>50%</p>
                  <p id=""wtp"" style=""text-align:center; margin-top: 0px; margin-bottom: 0px; font-size: 40px"";>&ensp;</p>","-","viewing","0","10","2C,16C,22B,28A","","","","","","","","","","","","","","","","",""
"","","","","","html-slider-response","136","259352","0.0-21.0-1.7","1c3c4861-95c6-42a5-9380-25db22cb1773","1659","
                  <p style=""text-align: center;"">₪18
                                                <br>50%</p>
                  <p id=""wtp"" style=""text-align:center; margin-top: 0px; margin-bottom: 0px; font-size: 40px"";>מוכנים לשלם: <span id=""c_p_y""></span></p>","0","evaluation","16","10","2C,16C,22B,28A","50","18","1","","","","","","","","","","","","","",""
"","","","","","html-keyboard-response","137","260731","0.0-21.0-2.7","1c3c4861-95c6-42a5-9380-25db22cb1773","null","<p style=""text-align: center;"">+</p>","null","fixation","","","","","","","","","","","","","","","","","","","",""
"","","","","","html-slider-response","138","261734","0.0-21.0-0.8","1c3c4861-95c6-42a5-9380-25db22cb1773","1000","
                  <p style=""text-align: center;"">₪4
                                                <br>25%</p>
                  <p id=""wtp"" style=""text-align:center; margin-top: 0px; margin-bottom: 0px; font-size: 40px"";>&ensp;</p>","-","viewing","0","1","6C,29B,30C","","","","","","","","","","","","","","","","",""
"","","","","","html-slider-response","139","262496","0.0-21.0-1.8","1c3c4861-95c6-42a5-9380-25db22cb1773","761","
                  <p style=""text-align: center;"">₪4
                                                <br>25%</p>
                  <p id=""wtp"" style=""text-align:center; margin-top: 0px; margin-bottom: 0px; font-size: 40px"";>מוכנים לשלם: <span id=""c_p_y""></span></p>","0","evaluation","3","1","6C,29B,30C","25","4","1","","","","","","","","","","","","","",""
"","","","","","html-keyboard-response","140","263964","0.0-21.0-2.8","1c3c4861-95c6-42a5-9380-25db22cb1773","null","<p style=""text-align: center;"">+</p>","null","fixation","","","","","","","","","","","","","","","","","","","",""
"","","","","","html-slider-response","141","264967","0.0-21.0-0.9","1c3c4861-95c6-42a5-9380-25db22cb1773","1000","
                  <p style=""text-align: center;"">₪43
                                                <br>75%</p>
                  <p id=""wtp"" style=""text-align:center; margin-top: 0px; margin-bottom: 0px; font-size: 40px"";>&ensp;</p>","-","viewing","0","18","11B,19B,24A,26A","","","","","","","","","","","","","","","","",""
"","","","","","html-slider-response","142","266592","0.0-21.0-1.9","1c3c4861-95c6-42a5-9380-25db22cb1773","1624","
                  <p style=""text-align: center;"">₪43
                                                <br>75%</p>
                  <p id=""wtp"" style=""text-align:center; margin-top: 0px; margin-bottom: 0px; font-size: 40px"";>מוכנים לשלם: <span id=""c_p_y""></span></p>","29","evaluation","69","18","11B,19B,24A,26A","75","43","29","","","","","","","","","","","","","",""
"","","","","","html-keyboard-response","143","267680","0.0-21.0-2.9","1c3c4861-95c6-42a5-9380-25db22cb1773","null","<p style=""text-align: center;"">+</p>","null","fixation","","","","","","","","","","","","","","","","","","","",""
"","","","","","html-slider-response","144","268684","0.0-21.0-0.10","1c3c4861-95c6-42a5-9380-25db22cb1773","1000","
                  <p style=""text-align: center;"">₪71
                                                <br>75%</p>
                  <p id=""wtp"" style=""text-align:center; margin-top: 0px; margin-bottom: 0px; font-size: 40px"";>&ensp;</p>","-","viewing","0","28","8B","","","","","","","","","","","","","","","","",""
"","","","","","html-slider-response","145","270816","0.0-21.0-1.10","1c3c4861-95c6-42a5-9380-25db22cb1773","2131","
                  <p style=""text-align: center;"">₪71
                                                <br>75%</p>
                  <p id=""wtp"" style=""text-align:center; margin-top: 0px; margin-bottom: 0px; font-size: 40px"";>מוכנים לשלם: <span id=""c_p_y""></span></p>","45","evaluation","9","28","8B","75","71","45","","","","","","","","","","","","","",""
"","","","","","html-keyboard-response","146","271556","0.0-21.0-2.10","1c3c4861-95c6-42a5-9380-25db22cb1773","null","<p style=""text-align: center;"">+</p>","null","fixation","","","","","","","","","","","","","","","","","","","",""
"","","","","","html-slider-response","147","272568","0.0-21.0-0.11","1c3c4861-95c6-42a5-9380-25db22cb1773","1000","
                  <p style=""text-align: center;"">₪39
                                                <br>65%</p>
                  <p id=""wtp"" style=""text-align:center; margin-top: 0px; margin-bottom: 0px; font-size: 40px"";>&ensp;</p>","-","viewing","0","16","1A,15A,26C","","","","","","","","","","","","","","","","",""
"","","","","","html-slider-response","148","273776","0.0-21.0-1.11","1c3c4861-95c6-42a5-9380-25db22cb1773","1206","
                  <p style=""text-align: center;"">₪39
                                                <br>65%</p>
                  <p id=""wtp"" style=""text-align:center; margin-top: 0px; margin-bottom: 0px; font-size: 40px"";>מוכנים לשלם: <span id=""c_p_y""></span></p>","30","evaluation","48","16","1A,15A,26C","65","39","30","","","","","","","","","","","","","",""
"","","","","","html-keyboard-response","149","274588","0.0-21.0-2.11","1c3c4861-95c6-42a5-9380-25db22cb1773","null","<p style=""text-align: center;"">+</p>","null","fixation","","","","","","","","","","","","","","","","","","","",""
"","","","","","html-slider-response","150","275592","0.0-21.0-0.12","1c3c4861-95c6-42a5-9380-25db22cb1773","1000","
                  <p style=""text-align: center;"">₪36
                                                <br>60%</p>
                  <p id=""wtp"" style=""text-align:center; margin-top: 0px; margin-bottom: 0px; font-size: 40px"";>&ensp;</p>","-","viewing","0","12","1C,7C,15C","","","","","","","","","","","","","","","","",""
"","","","","","html-slider-response","151","276584","0.0-21.0-1.12","1c3c4861-95c6-42a5-9380-25db22cb1773","991","
                  <p style=""text-align: center;"">₪36
                                                <br>60%</p>
                  <p id=""wtp"" style=""text-align:center; margin-top: 0px; margin-bottom: 0px; font-size: 40px"";>מוכנים לשלם: <span id=""c_p_y""></span></p>","31","evaluation","11","12","1C,7C,15C","60","36","31","","","","","","","","","","","","","",""
"","","","","","html-keyboard-response","152","278051","0.0-21.0-2.12","1c3c4861-95c6-42a5-9380-25db22cb1773","null","<p style=""text-align: center;"">+</p>","null","fixation","","","","","","","","","","","","","","","","","","","",""
"","","","","","html-slider-response","153","279064","0.0-21.0-0.13","1c3c4861-95c6-42a5-9380-25db22cb1773","1000","
                  <p style=""text-align: center;"">₪11
                                                <br>20%</p>
                  <p id=""wtp"" style=""text-align:center; margin-top: 0px; margin-bottom: 0px; font-size: 40px"";>&ensp;</p>","-","viewing","0","4","12C,17C,23C,28C","","","","","","","","","","","","","","","","",""
"","","","","","html-slider-response","154","279624","0.0-21.0-1.13","1c3c4861-95c6-42a5-9380-25db22cb1773","559","
                  <p style=""text-align: center;"">₪11
                                                <br>20%</p>
                  <p id=""wtp"" style=""text-align:center; margin-top: 0px; margin-bottom: 0px; font-size: 40px"";>מוכנים לשלם: <span id=""c_p_y""></span></p>","2","evaluation","69","4","12C,17C,23C,28C","20","11","2","","","","","","","","","","","","","",""
"","","","","","html-keyboard-response","155","281032","0.0-21.0-2.13","1c3c4861-95c6-42a5-9380-25db22cb1773","null","<p style=""text-align: center;"">+</p>","null","fixation","","","","","","","","","","","","","","","","","","","",""
"","","","","","html-slider-response","156","282034","0.0-21.0-0.14","1c3c4861-95c6-42a5-9380-25db22cb1773","1000","
                  <p style=""text-align: center;"">₪79
                                                <br>65%</p>
                  <p id=""wtp"" style=""text-align:center; margin-top: 0px; margin-bottom: 0px; font-size: 40px"";>&ensp;</p>","-","viewing","0","31","8A","","","","","","","","","","","","","","","","",""
"","","","","","html-slider-response","157","285352","0.0-21.0-1.14","1c3c4861-95c6-42a5-9380-25db22cb1773","3317","
                  <p style=""text-align: center;"">₪79
                                                <br>65%</p>
                  <p id=""wtp"" style=""text-align:center; margin-top: 0px; margin-bottom: 0px; font-size: 40px"";>מוכנים לשלם: <span id=""c_p_y""></span></p>","58","evaluation","69","31","8A","65","79","58","","","","","","","","","","","","","",""
"","","","","","html-keyboard-response","158","286451","0.0-21.0-2.14","1c3c4861-95c6-42a5-9380-25db22cb1773","null","<p style=""text-align: center;"">+</p>","null","fixation","","","","","","","","","","","","","","","","","","","",""
"","","","","","html-slider-response","159","287464","0.0-21.0-0.15","1c3c4861-95c6-42a5-9380-25db22cb1773","1000","
                  <p style=""text-align: center;"">₪16
                                                <br>20%</p>
                  <p id=""wtp"" style=""text-align:center; margin-top: 0px; margin-bottom: 0px; font-size: 40px"";>&ensp;</p>","-","viewing","0","8","14C,17A,20C,27A","","","","","","","","","","","","","","","","",""
"","","","","","html-slider-response","160","288464","0.0-21.0-1.15","1c3c4861-95c6-42a5-9380-25db22cb1773","999","
                  <p style=""text-align: center;"">₪16
                                                <br>20%</p>
                  <p id=""wtp"" style=""text-align:center; margin-top: 0px; margin-bottom: 0px; font-size: 40px"";>מוכנים לשלם: <span id=""c_p_y""></span></p>","3","evaluation","78","8","14C,17A,20C,27A","20","16","3","","","","","","","","","","","","","",""
"","","","","","html-keyboard-response","161","289965","0.0-21.0-2.15","1c3c4861-95c6-42a5-9380-25db22cb1773","null","<p style=""text-align: center;"">+</p>","null","fixation","","","","","","","","","","","","","","","","","","","",""
"","","","","","html-slider-response","162","290968","0.0-21.0-0.16","1c3c4861-95c6-42a5-9380-25db22cb1773","1000","
                  <p style=""text-align: center;"">₪4
                                                <br>75%</p>
                  <p id=""wtp"" style=""text-align:center; margin-top: 0px; margin-bottom: 0px; font-size: 40px"";>&ensp;</p>","-","viewing","0","3","12B,20B,23B,27C,29C","","","","","","","","","","","","","","","","",""
"","","","","","html-slider-response","163","292416","0.0-21.0-1.16","1c3c4861-95c6-42a5-9380-25db22cb1773","1448","
                  <p style=""text-align: center;"">₪4
                                                <br>75%</p>
                  <p id=""wtp"" style=""text-align:center; margin-top: 0px; margin-bottom: 0px; font-size: 40px"";>מוכנים לשלם: <span id=""c_p_y""></span></p>","2","evaluation","73","3","12B,20B,23B,27C,29C","75","4","3","","","","","","","","","","","","","",""
"","","","","","html-keyboard-response","164","293110","0.0-21.0-2.16","1c3c4861-95c6-42a5-9380-25db22cb1773","null","<p style=""text-align: center;"">+</p>","null","fixation","","","","","","","","","","","","","","","","","","","",""
"","","","","","html-slider-response","165","294117","0.0-21.0-0.17","1c3c4861-95c6-42a5-9380-25db22cb1773","1000","
                  <p style=""text-align: center;"">₪11
                                                <br>45%</p>
                  <p id=""wtp"" style=""text-align:center; margin-top: 0px; margin-bottom: 0px; font-size: 40px"";>&ensp;</p>","-","viewing","0","6","14B,21C,25C","","","","","","","","","","","","","","","","",""
"","","","","","html-slider-response","166","296480","0.0-21.0-1.17","1c3c4861-95c6-42a5-9380-25db22cb1773","2362","
                  <p style=""text-align: center;"">₪11
                                                <br>45%</p>
                  <p id=""wtp"" style=""text-align:center; margin-top: 0px; margin-bottom: 0px; font-size: 40px"";>מוכנים לשלם: <span id=""c_p_y""></span></p>","6","evaluation","31","6","14B,21C,25C","45","11","6","","","","","","","","","","","","","",""
"","","","","","html-keyboard-response","167","297105","0.0-21.0-2.17","1c3c4861-95c6-42a5-9380-25db22cb1773","null","<p style=""text-align: center;"">+</p>","null","fixation","","","","","","","","","","","","","","","","","","","",""
"","","","","","html-slider-response","168","298113","0.0-21.0-0.18","1c3c4861-95c6-42a5-9380-25db22cb1773","1000","
                  <p style=""text-align: center;"">₪39
                                                <br>60%</p>
                  <p id=""wtp"" style=""text-align:center; margin-top: 0px; margin-bottom: 0px; font-size: 40px"";>&ensp;</p>","-","viewing","0","15","9C,25B","","","","","","","","","","","","","","","","",""
"","","","","","html-slider-response","169","299888","0.0-21.0-1.18","1c3c4861-95c6-42a5-9380-25db22cb1773","1773","
                  <p style=""text-align: center;"">₪39
                                                <br>60%</p>
                  <p id=""wtp"" style=""text-align:center; margin-top: 0px; margin-bottom: 0px; font-size: 40px"";>מוכנים לשלם: <span id=""c_p_y""></span></p>","24","evaluation","56","15","9C,25B","60","39","24","","","","","","","","","","","","","",""
"","","","","","html-keyboard-response","170","300870","0.0-21.0-2.18","1c3c4861-95c6-42a5-9380-25db22cb1773","null","<p style=""text-align: center;"">+</p>","null","fixation","","","","","","","","","","","","","","","","","","","",""
"","","","","","html-slider-response","171","301886","0.0-21.0-0.19","1c3c4861-95c6-42a5-9380-25db22cb1773","1000","
                  <p style=""text-align: center;"">₪43
                                                <br>60%</p>
                  <p id=""wtp"" style=""text-align:center; margin-top: 0px; margin-bottom: 0px; font-size: 40px"";>&ensp;</p>","-","viewing","0","17","2A,7A,9A,15B","","","","","","","","","","","","","","","","",""
"","","","","","html-slider-response","172","304495","0.0-21.0-1.19","1c3c4861-95c6-42a5-9380-25db22cb1773","2608","
                  <p style=""text-align: center;"">₪43
                                                <br>60%</p>
                  <p id=""wtp"" style=""text-align:center; margin-top: 0px; margin-bottom: 0px; font-size: 40px"";>מוכנים לשלם: <span id=""c_p_y""></span></p>","24","evaluation","26","17","2A,7A,9A,15B","60","43","24","","","","","","","","","","","","","",""
"","","","","","html-keyboard-response","173","305476","0.0-21.0-2.19","1c3c4861-95c6-42a5-9380-25db22cb1773","null","<p style=""text-align: center;"">+</p>","null","fixation","","","","","","","","","","","","","","","","","","","",""
"","","","","","html-slider-response","174","306480","0.0-21.0-0.20","1c3c4861-95c6-42a5-9380-25db22cb1773","1000","
                  <p style=""text-align: center;"">₪36
                                                <br>30%</p>
                  <p id=""wtp"" style=""text-align:center; margin-top: 0px; margin-bottom: 0px; font-size: 40px"";>&ensp;</p>","-","viewing","0","11","3C,20A,22A","","","","","","","","","","","","","","","","",""
"","","","","","html-slider-response","175","307055","0.0-21.0-1.20","1c3c4861-95c6-42a5-9380-25db22cb1773","574","
                  <p style=""text-align: center;"">₪36
                                                <br>30%</p>
                  <p id=""wtp"" style=""text-align:center; margin-top: 0px; margin-bottom: 0px; font-size: 40px"";>מוכנים לשלם: <span id=""c_p_y""></span></p>","11","evaluation","4","11","3C,20A,22A","30","36","12","","","","","","","","","","","","","",""
"","","","","","html-keyboard-response","176","307822","0.0-21.0-2.20","1c3c4861-95c6-42a5-9380-25db22cb1773","null","<p style=""text-align: center;"">+</p>","null","fixation","","","","","","","","","","","","","","","","","","","",""
"","","","","","html-slider-response","177","308837","0.0-21.0-0.21","1c3c4861-95c6-42a5-9380-25db22cb1773","1000","
                  <p style=""text-align: center;"">₪79
                                                <br>40%</p>
                  <p id=""wtp"" style=""text-align:center; margin-top: 0px; margin-bottom: 0px; font-size: 40px"";>&ensp;</p>","-","viewing","0","30","9B","","","","","","","","","","","","","","","","",""
"","","","","","html-slider-response","178","309831","0.0-21.0-1.21","1c3c4861-95c6-42a5-9380-25db22cb1773","993","
                  <p style=""text-align: center;"">₪79
                                                <br>40%</p>
                  <p id=""wtp"" style=""text-align:center; margin-top: 0px; margin-bottom: 0px; font-size: 40px"";>מוכנים לשלם: <span id=""c_p_y""></span></p>","46","evaluation","67","30","9B","40","79","46","","","","","","","","","","","","","",""
"","","","","","html-keyboard-response","179","310406","0.0-21.0-2.21","1c3c4861-95c6-42a5-9380-25db22cb1773","null","<p style=""text-align: center;"">+</p>","null","fixation","","","","","","","","","","","","","","","","","","","",""
"","","","","","html-slider-response","180","311422","0.0-21.0-0.22","1c3c4861-95c6-42a5-9380-25db22cb1773","1000","
                  <p style=""text-align: center;"">₪36
                                                <br>70%</p>
                  <p id=""wtp"" style=""text-align:center; margin-top: 0px; margin-bottom: 0px; font-size: 40px"";>&ensp;</p>","-","viewing","0","13","3A,5C,10B","","","","","","","","","","","","","","","","",""
"","","","","","html-slider-response","181","312336","0.0-21.0-1.22","1c3c4861-95c6-42a5-9380-25db22cb1773","911","
                  <p style=""text-align: center;"">₪36
                                                <br>70%</p>
                  <p id=""wtp"" style=""text-align:center; margin-top: 0px; margin-bottom: 0px; font-size: 40px"";>מוכנים לשלם: <span id=""c_p_y""></span></p>","22","evaluation","51","13","3A,5C,10B","70","36","22","","","","","","","","","","","","","",""
"","","","","","html-keyboard-response","182","313323","0.0-21.0-2.22","1c3c4861-95c6-42a5-9380-25db22cb1773","null","<p style=""text-align: center;"">+</p>","null","fixation","","","","","","","","","","","","","","","","","","","",""
"","","","","","html-slider-response","183","314330","0.0-21.0-0.23","1c3c4861-95c6-42a5-9380-25db22cb1773","1000","
                  <p style=""text-align: center;"">₪11
                                                <br>25%</p>
                  <p id=""wtp"" style=""text-align:center; margin-top: 0px; margin-bottom: 0px; font-size: 40px"";>&ensp;</p>","-","viewing","0","5","12A,27B,28B,30B","","","","","","","","","","","","","","","","",""
"","","","","","html-slider-response","184","315128","0.0-21.0-1.23","1c3c4861-95c6-42a5-9380-25db22cb1773","797","
                  <p style=""text-align: center;"">₪11
                                                <br>25%</p>
                  <p id=""wtp"" style=""text-align:center; margin-top: 0px; margin-bottom: 0px; font-size: 40px"";>מוכנים לשלם: <span id=""c_p_y""></span></p>","0","evaluation","19","5","12A,27B,28B,30B","25","11","0","","","","","","","","","","","","","",""
"","","","","","html-keyboard-response","185","316058","0.0-21.0-2.23","1c3c4861-95c6-42a5-9380-25db22cb1773","null","<p style=""text-align: center;"">+</p>","null","fixation","","","","","","","","","","","","","","","","","","","",""
"","","","","","html-slider-response","186","317060","0.0-21.0-0.24","1c3c4861-95c6-42a5-9380-25db22cb1773","1000","
                  <p style=""text-align: center;"">₪4
                                                <br>50%</p>
                  <p id=""wtp"" style=""text-align:center; margin-top: 0px; margin-bottom: 0px; font-size: 40px"";>&ensp;</p>","-","viewing","0","2","4C,17B","","","","","","","","","","","","","","","","",""
"","","","","","html-slider-response","187","318776","0.0-21.0-1.24","1c3c4861-95c6-42a5-9380-25db22cb1773","1714","
                  <p style=""text-align: center;"">₪4
                                                <br>50%</p>
                  <p id=""wtp"" style=""text-align:center; margin-top: 0px; margin-bottom: 0px; font-size: 40px"";>מוכנים לשלם: <span id=""c_p_y""></span></p>","3","evaluation","39","2","4C,17B","50","4","3","","","","","","","","","","","","","",""
"","","","","","html-keyboard-response","188","319369","0.0-21.0-2.24","1c3c4861-95c6-42a5-9380-25db22cb1773","null","<p style=""text-align: center;"">+</p>","null","fixation","","","","","","","","","","","","","","","","","","","",""
"","","","","","html-slider-response","189","320377","0.0-21.0-0.25","1c3c4861-95c6-42a5-9380-25db22cb1773","1000","
                  <p style=""text-align: center;"">₪61
                                                <br>45%</p>
                  <p id=""wtp"" style=""text-align:center; margin-top: 0px; margin-bottom: 0px; font-size: 40px"";>&ensp;</p>","-","viewing","0","22","10A,11A","","","","","","","","","","","","","","","","",""
"","","","","","html-slider-response","190","322655","0.0-21.0-1.25","1c3c4861-95c6-42a5-9380-25db22cb1773","2277","
                  <p style=""text-align: center;"">₪61
                                                <br>45%</p>
                  <p id=""wtp"" style=""text-align:center; margin-top: 0px; margin-bottom: 0px; font-size: 40px"";>מוכנים לשלם: <span id=""c_p_y""></span></p>","42","evaluation","76","22","10A,11A","45","61","42","","","","","","","","","","","","","",""
"","","","","","html-keyboard-response","191","323425","0.0-21.0-2.25","1c3c4861-95c6-42a5-9380-25db22cb1773","null","<p style=""text-align: center;"">+</p>","null","fixation","","","","","","","","","","","","","","","","","","","",""
"","","","","","html-slider-response","192","324429","0.0-21.0-0.26","1c3c4861-95c6-42a5-9380-25db22cb1773","1000","
                  <p style=""text-align: center;"">₪11
                                                <br>75%</p>
                  <p id=""wtp"" style=""text-align:center; margin-top: 0px; margin-bottom: 0px; font-size: 40px"";>&ensp;</p>","-","viewing","0","7","6B,18B,22C,24C,29A","","","","","","","","","","","","","","","","",""
"","","","","","html-slider-response","193","325783","0.0-21.0-1.26","1c3c4861-95c6-42a5-9380-25db22cb1773","1353","
                  <p style=""text-align: center;"">₪11
                                                <br>75%</p>
                  <p id=""wtp"" style=""text-align:center; margin-top: 0px; margin-bottom: 0px; font-size: 40px"";>מוכנים לשלם: <span id=""c_p_y""></span></p>","2","evaluation","38","7","6B,18B,22C,24C,29A","75","11","2","","","","","","","","","","","","","",""
"","","","","","html-keyboard-response","194","326510","0.0-21.0-2.26","1c3c4861-95c6-42a5-9380-25db22cb1773","null","<p style=""text-align: center;"">+</p>","null","fixation","","","","","","","","","","","","","","","","","","","",""
"","","","","","html-slider-response","195","327515","0.0-21.0-0.27","1c3c4861-95c6-42a5-9380-25db22cb1773","1000","
                  <p style=""text-align: center;"">₪71
                                                <br>45%</p>
                  <p id=""wtp"" style=""text-align:center; margin-top: 0px; margin-bottom: 0px; font-size: 40px"";>&ensp;</p>","-","viewing","0","26","2B,16A","","","","","","","","","","","","","","","","",""
"","","","","","html-slider-response","196","329496","0.0-21.0-1.27","1c3c4861-95c6-42a5-9380-25db22cb1773","1979","
                  <p style=""text-align: center;"">₪71
                                                <br>45%</p>
                  <p id=""wtp"" style=""text-align:center; margin-top: 0px; margin-bottom: 0px; font-size: 40px"";>מוכנים לשלם: <span id=""c_p_y""></span></p>","50","evaluation","51","26","2B,16A","45","71","50","","","","","","","","","","","","","",""
"","","","","","html-keyboard-response","197","330915","0.0-21.0-2.27","1c3c4861-95c6-42a5-9380-25db22cb1773","null","<p style=""text-align: center;"">+</p>","null","fixation","","","","","","","","","","","","","","","","","","","",""
"","","","","","html-slider-response","198","331931","0.0-21.0-0.28","1c3c4861-95c6-42a5-9380-25db22cb1773","1000","
                  <p style=""text-align: center;"">₪64
                                                <br>50%</p>
                  <p id=""wtp"" style=""text-align:center; margin-top: 0px; margin-bottom: 0px; font-size: 40px"";>&ensp;</p>","-","viewing","0","25","1B,3B,4A","","","","","","","","","","","","","","","","",""
"","","","","","html-slider-response","199","333344","0.0-21.0-1.28","1c3c4861-95c6-42a5-9380-25db22cb1773","1411","
                  <p style=""text-align: center;"">₪64
                                                <br>50%</p>
                  <p id=""wtp"" style=""text-align:center; margin-top: 0px; margin-bottom: 0px; font-size: 40px"";>מוכנים לשלם: <span id=""c_p_y""></span></p>","47","evaluation","37","25","1B,3B,4A","50","64","47","","","","","","","","","","","","","",""
"","","","","","html-keyboard-response","200","334187","0.0-21.0-2.28","1c3c4861-95c6-42a5-9380-25db22cb1773","null","<p style=""text-align: center;"">+</p>","null","fixation","","","","","","","","","","","","","","","","","","","",""
"","","","","","html-slider-response","201","335195","0.0-21.0-0.29","1c3c4861-95c6-42a5-9380-25db22cb1773","1000","
                  <p style=""text-align: center;"">₪64
                                                <br>25%</p>
                  <p id=""wtp"" style=""text-align:center; margin-top: 0px; margin-bottom: 0px; font-size: 40px"";>&ensp;</p>","-","viewing","0","24","6A,21A","","","","","","","","","","","","","","","","",""
"","","","","","html-slider-response","202","335919","0.0-21.0-1.29","1c3c4861-95c6-42a5-9380-25db22cb1773","723","
                  <p style=""text-align: center;"">₪64
                                                <br>25%</p>
                  <p id=""wtp"" style=""text-align:center; margin-top: 0px; margin-bottom: 0px; font-size: 40px"";>מוכנים לשלם: <span id=""c_p_y""></span></p>","22","evaluation","42","24","6A,21A","25","64","22","","","","","","","","","","","","","",""
"","","","","","html-keyboard-response","203","337368","0.0-21.0-2.29","1c3c4861-95c6-42a5-9380-25db22cb1773","null","<p style=""text-align: center;"">+</p>","null","fixation","","","","","","","","","","","","","","","","","","","",""
"","","","","","html-slider-response","204","338384","0.0-21.0-0.30","1c3c4861-95c6-42a5-9380-25db22cb1773","1000","
                  <p style=""text-align: center;"">₪76
                                                <br>65%</p>
                  <p id=""wtp"" style=""text-align:center; margin-top: 0px; margin-bottom: 0px; font-size: 40px"";>&ensp;</p>","-","viewing","0","29","8C,19A,24B","","","","","","","","","","","","","","","","",""
"","","","","","html-slider-response","205","339255","0.0-21.0-1.30","1c3c4861-95c6-42a5-9380-25db22cb1773","870","
                  <p style=""text-align: center;"">₪76
                                                <br>65%</p>
                  <p id=""wtp"" style=""text-align:center; margin-top: 0px; margin-bottom: 0px; font-size: 40px"";>מוכנים לשלם: <span id=""c_p_y""></span></p>","62","evaluation","32","29","8C,19A,24B","65","76","62","","","","","","","","","","","","","",""
"","","","","","html-keyboard-response","206","340304","0.0-21.0-2.30","1c3c4861-95c6-42a5-9380-25db22cb1773","null","<p style=""text-align: center;"">+</p>","null","fixation","","","","","","","","","","","","","","","","","","","",""
"","","","","","html-keyboard-response","207","341318","0.0-22.0","1c3c4861-95c6-42a5-9380-25db22cb1773","null","<p style=""text-align: center;"">+</p>","null","fixation","","","","","","","","","","","","","","","","","","","",""
"","","","","","html-keyboard-response","208","342175","0.0-23.0","1c3c4861-95c6-42a5-9380-25db22cb1773","null","<p>הפסקה.
          <br>לחצו כדי להמשיך.</p>","1","scan_wait","","","","","","","","","","","","","","","","","","","",""
"","","","","","html-keyboard-response","209","343189","0.0-24.0","1c3c4861-95c6-42a5-9380-25db22cb1773","null","<p style=""text-align: center;"">+</p>","null","fixation","","","","","","","","","","","","","","","","","","","",""
"","","","","","html-slider-response","210","344199","0.0-25.0-0.0","1c3c4861-95c6-42a5-9380-25db22cb1773","1000","
                  <p style=""text-align: center;"">₪4
                                                <br>25%</p>
                  <p id=""wtp"" style=""text-align:center; margin-top: 0px; margin-bottom: 0px; font-size: 40px"";>&ensp;</p>","-","viewing","0","1","6C,29B,30C","","","","","","","","","","","","","","","","",""
"","","","","","html-slider-response","211","345096","0.0-25.0-1.0","1c3c4861-95c6-42a5-9380-25db22cb1773","895","
                  <p style=""text-align: center;"">₪4
                                                <br>25%</p>
                  <p id=""wtp"" style=""text-align:center; margin-top: 0px; margin-bottom: 0px; font-size: 40px"";>מוכנים לשלם: <span id=""c_p_y""></span></p>","1","evaluation","64","1","6C,29B,30C","25","4","2","","","","","","","","","","","","","",""
"","","","","","html-keyboard-response","212","346450","0.0-25.0-2.0","1c3c4861-95c6-42a5-9380-25db22cb1773","null","<p style=""text-align: center;"">+</p>","null","fixation","","","","","","","","","","","","","","","","","","","",""
"","","","","","html-slider-response","213","347456","0.0-25.0-0.1","1c3c4861-95c6-42a5-9380-25db22cb1773","1000","
                  <p style=""text-align: center;"">₪71
                                                <br>45%</p>
                  <p id=""wtp"" style=""text-align:center; margin-top: 0px; margin-bottom: 0px; font-size: 40px"";>&ensp;</p>","-","viewing","0","26","2B,16A","","","","","","","","","","","","","","","","",""
"","","","","","html-slider-response","214","349352","0.0-25.0-1.1","1c3c4861-95c6-42a5-9380-25db22cb1773","1894","
                  <p style=""text-align: center;"">₪71
                                                <br>45%</p>
                  <p id=""wtp"" style=""text-align:center; margin-top: 0px; margin-bottom: 0px; font-size: 40px"";>מוכנים לשלם: <span id=""c_p_y""></span></p>","41","evaluation","45","26","2B,16A","45","71","41","","","","","","","","","","","","","",""
"","","","","","html-keyboard-response","215","350480","0.0-25.0-2.1","1c3c4861-95c6-42a5-9380-25db22cb1773","null","<p style=""text-align: center;"">+</p>","null","fixation","","","","","","","","","","","","","","","","","","","",""
"","","","","","html-slider-response","216","351491","0.0-25.0-0.2","1c3c4861-95c6-42a5-9380-25db22cb1773","1000","
                  <p style=""text-align: center;"">₪16
                                                <br>20%</p>
                  <p id=""wtp"" style=""text-align:center; margin-top: 0px; margin-bottom: 0px; font-size: 40px"";>&ensp;</p>","-","viewing","0","8","14C,17A,20C,27A","","","","","","","","","","","","","","","","",""
"","","","","","html-slider-response","217","353048","0.0-25.0-1.2","1c3c4861-95c6-42a5-9380-25db22cb1773","1556","
                  <p style=""text-align: center;"">₪16
                                                <br>20%</p>
                  <p id=""wtp"" style=""text-align:center; margin-top: 0px; margin-bottom: 0px; font-size: 40px"";>מוכנים לשלם: <span id=""c_p_y""></span></p>","8","evaluation","15","8","14C,17A,20C,27A","20","16","9","","","","","","","","","","","","","",""
"","","","","","html-keyboard-response","218","354078","0.0-25.0-2.2","1c3c4861-95c6-42a5-9380-25db22cb1773","null","<p style=""text-align: center;"">+</p>","null","fixation","","","","","","","","","","","","","","","","","","","",""
"","","","","","html-slider-response","219","355081","0.0-25.0-0.3","1c3c4861-95c6-42a5-9380-25db22cb1773","1000","
                  <p style=""text-align: center;"">₪71
                                                <br>55%</p>
                  <p id=""wtp"" style=""text-align:center; margin-top: 0px; margin-bottom: 0px; font-size: 40px"";>&ensp;</p>","-","viewing","0","27","5B,18A","","","","","","","","","","","","","","","","",""
"","","","","","html-slider-response","220","357344","0.0-25.0-1.3","1c3c4861-95c6-42a5-9380-25db22cb1773","2262","
                  <p style=""text-align: center;"">₪71
                                                <br>55%</p>
                  <p id=""wtp"" style=""text-align:center; margin-top: 0px; margin-bottom: 0px; font-size: 40px"";>מוכנים לשלם: <span id=""c_p_y""></span></p>","55","evaluation","61","27","5B,18A","55","71","55","","","","","","","","","","","","","",""
"","","","","","html-keyboard-response","221","358538","0.0-25.0-2.3","1c3c4861-95c6-42a5-9380-25db22cb1773","null","<p style=""text-align: center;"">+</p>","null","fixation","","","","","","","","","","","","","","","","","","","",""
"","","","","","html-slider-response","222","359539","0.0-25.0-0.4","1c3c4861-95c6-42a5-9380-25db22cb1773","1000","
                  <p style=""text-align: center;"">₪39
                                                <br>60%</p>
                  <p id=""wtp"" style=""text-align:center; margin-top: 0px; margin-bottom: 0px; font-size: 40px"";>&ensp;</p>","-","viewing","0","15","9C,25B","","","","","","","","","","","","","","","","",""
"","","","","","html-slider-response","223","361680","0.0-25.0-1.4","1c3c4861-95c6-42a5-9380-25db22cb1773","2139","
                  <p style=""text-align: center;"">₪39
                                                <br>60%</p>
                  <p id=""wtp"" style=""text-align:center; margin-top: 0px; margin-bottom: 0px; font-size: 40px"";>מוכנים לשלם: <span id=""c_p_y""></span></p>","22","evaluation","76","15","9C,25B","60","39","22","","","","","","","","","","","","","",""
"","","","","","html-keyboard-response","224","363073","0.0-25.0-2.4","1c3c4861-95c6-42a5-9380-25db22cb1773","null","<p style=""text-align: center;"">+</p>","null","fixation","","","","","","","","","","","","","","","","","","","",""
"","","","","","html-slider-response","225","364090","0.0-25.0-0.5","1c3c4861-95c6-42a5-9380-25db22cb1773","1000","
                  <p style=""text-align: center;"">₪64
                                                <br>25%</p>
                  <p id=""wtp"" style=""text-align:center; margin-top: 0px; margin-bottom: 0px; font-size: 40px"";>&ensp;</p>","-","viewing","0","24","6A,21A","","","","","","","","","","","","","","","","",""
"","","","","","html-slider-response","226","364968","0.0-25.0-1.5","1c3c4861-95c6-42a5-9380-25db22cb1773","877","
                  <p style=""text-align: center;"">₪64
                                                <br>25%</p>
                  <p id=""wtp"" style=""text-align:center; margin-top: 0px; margin-bottom: 0px; font-size: 40px"";>מוכנים לשלם: <span id=""c_p_y""></span></p>","12","evaluation","10","24","6A,21A","25","64","13","","","","","","","","","","","","","",""
"","","","","","html-keyboard-response","227","366293","0.0-25.0-2.5","1c3c4861-95c6-42a5-9380-25db22cb1773","null","<p style=""text-align: center;"">+</p>","null","fixation","","","","","","","","","","","","","","","","","","","",""
"","","","","","html-slider-response","228","367307","0.0-25.0-0.6","1c3c4861-95c6-42a5-9380-25db22cb1773","1000","
                  <p style=""text-align: center;"">₪61
                                                <br>55%</p>
                  <p id=""wtp"" style=""text-align:center; margin-top: 0px; margin-bottom: 0px; font-size: 40px"";>&ensp;</p>","-","viewing","0","23","7B,26B","","","","","","","","","","","","","","","","",""
"","","","","","html-slider-response","229","368784","0.0-25.0-1.6","1c3c4861-95c6-42a5-9380-25db22cb1773","1476","
                  <p style=""text-align: center;"">₪61
                                                <br>55%</p>
                  <p id=""wtp"" style=""text-align:center; margin-top: 0px; margin-bottom: 0px; font-size: 40px"";>מוכנים לשלם: <span id=""c_p_y""></span></p>","16","evaluation","50","23","7B,26B","55","61","16","","","","","","","","","","","","","",""
"","","","","","html-keyboard-response","230","369372","0.0-25.0-2.6","1c3c4861-95c6-42a5-9380-25db22cb1773","null","<p style=""text-align: center;"">+</p>","null","fixation","","","","","","","","","","","","","","","","","","","",""
"","","","","","html-slider-response","231","370383","0.0-25.0-0.7","1c3c4861-95c6-42a5-9380-25db22cb1773","1000","
                  <p style=""text-align: center;"">₪39
                                                <br>65%</p>
                  <p id=""wtp"" style=""text-align:center; margin-top: 0px; margin-bottom: 0px; font-size: 40px"";>&ensp;</p>","-","viewing","0","16","1A,15A,26C","","","","","","","","","","","","","","","","",""
"","","","","","html-slider-response","232","371616","0.0-25.0-1.7","1c3c4861-95c6-42a5-9380-25db22cb1773","1232","
                  <p style=""text-align: center;"">₪39
                                                <br>65%</p>
                  <p id=""wtp"" style=""text-align:center; margin-top: 0px; margin-bottom: 0px; font-size: 40px"";>מוכנים לשלם: <span id=""c_p_y""></span></p>","28","evaluation","62","16","1A,15A,26C","65","39","28","","","","","","","","","","","","","",""
"","","","","","html-keyboard-response","233","372343","0.0-25.0-2.7","1c3c4861-95c6-42a5-9380-25db22cb1773","null","<p style=""text-align: center;"">+</p>","null","fixation","","","","","","","","","","","","","","","","","","","",""
"","","","","","html-slider-response","234","373358","0.0-25.0-0.8","1c3c4861-95c6-42a5-9380-25db22cb1773","1000","
                  <p style=""text-align: center;"">₪64
                                                <br>50%</p>
                  <p id=""wtp"" style=""text-align:center; margin-top: 0px; margin-bottom: 0px; font-size: 40px"";>&ensp;</p>","-","viewing","0","25","1B,3B,4A","","","","","","","","","","","","","","","","",""
"","","","","","html-slider-response","235","374712","0.0-25.0-1.8","1c3c4861-95c6-42a5-9380-25db22cb1773","1352","
                  <p style=""text-align: center;"">₪64
                                                <br>50%</p>
                  <p id=""wtp"" style=""text-align:center; margin-top: 0px; margin-bottom: 0px; font-size: 40px"";>מוכנים לשלם: <span id=""c_p_y""></span></p>","44","evaluation","28","25","1B,3B,4A","50","64","44","","","","","","","","","","","","","",""
"","","","","","html-keyboard-response","236","376204","0.0-25.0-2.8","1c3c4861-95c6-42a5-9380-25db22cb1773","null","<p style=""text-align: center;"">+</p>","null","fixation","","","","","","","","","","","","","","","","","","","",""
"","","","","","html-slider-response","237","377210","0.0-25.0-0.9","1c3c4861-95c6-42a5-9380-25db22cb1773","1000","
                  <p style=""text-align: center;"">₪58
                                                <br>40%</p>
                  <p id=""wtp"" style=""text-align:center; margin-top: 0px; margin-bottom: 0px; font-size: 40px"";>&ensp;</p>","-","viewing","0","20","10C,13A,19C,21B","","","","","","","","","","","","","","","","",""
"","","","","","html-slider-response","238","379344","0.0-25.0-1.9","1c3c4861-95c6-42a5-9380-25db22cb1773","2132","
                  <p style=""text-align: center;"">₪58
                                                <br>40%</p>
                  <p id=""wtp"" style=""text-align:center; margin-top: 0px; margin-bottom: 0px; font-size: 40px"";>מוכנים לשלם: <span id=""c_p_y""></span></p>","25","evaluation","11","20","10C,13A,19C,21B","40","58","25","","","","","","","","","","","","","",""
"","","","","","html-keyboard-response","239","380373","0.0-25.0-2.9","1c3c4861-95c6-42a5-9380-25db22cb1773","null","<p style=""text-align: center;"">+</p>","null","fixation","","","","","","","","","","","","","","","","","","","",""
"","","","","","html-slider-response","240","381381","0.0-25.0-0.10","1c3c4861-95c6-42a5-9380-25db22cb1773","1000","
                  <p style=""text-align: center;"">₪11
                                                <br>20%</p>
                  <p id=""wtp"" style=""text-align:center; margin-top: 0px; margin-bottom: 0px; font-size: 40px"";>&ensp;</p>","-","viewing","0","4","12C,17C,23C,28C","","","","","","","","","","","","","","","","",""
"","","","","","html-slider-response","241","382048","0.0-25.0-1.10","1c3c4861-95c6-42a5-9380-25db22cb1773","666","
                  <p style=""text-align: center;"">₪11
                                                <br>20%</p>
                  <p id=""wtp"" style=""text-align:center; margin-top: 0px; margin-bottom: 0px; font-size: 40px"";>מוכנים לשלם: <span id=""c_p_y""></span></p>","2","evaluation","8","4","12C,17C,23C,28C","20","11","2","","","","","","","","","","","","","",""
"","","","","","html-keyboard-response","242","383356","0.0-25.0-2.10","1c3c4861-95c6-42a5-9380-25db22cb1773","null","<p style=""text-align: center;"">+</p>","null","fixation","","","","","","","","","","","","","","","","","","","",""
"","","","","","html-slider-response","243","384371","0.0-25.0-0.11","1c3c4861-95c6-42a5-9380-25db22cb1773","1000","
                  <p style=""text-align: center;"">₪61
                                                <br>45%</p>
                  <p id=""wtp"" style=""text-align:center; margin-top: 0px; margin-bottom: 0px; font-size: 40px"";>&ensp;</p>","-","viewing","0","22","10A,11A","","","","","","","","","","","","","","","","",""
"","","","","","html-slider-response","244","386216","0.0-25.0-1.11","1c3c4861-95c6-42a5-9380-25db22cb1773","1844","
                  <p style=""text-align: center;"">₪61
                                                <br>45%</p>
                  <p id=""wtp"" style=""text-align:center; margin-top: 0px; margin-bottom: 0px; font-size: 40px"";>מוכנים לשלם: <span id=""c_p_y""></span></p>","33","evaluation","46","22","10A,11A","45","61","33","","","","","","","","","","","","","",""
"","","","","","html-keyboard-response","245","387254","0.0-25.0-2.11","1c3c4861-95c6-42a5-9380-25db22cb1773","null","<p style=""text-align: center;"">+</p>","null","fixation","","","","","","","","","","","","","","","","","","","",""
"","","","","","html-slider-response","246","388256","0.0-25.0-0.12","1c3c4861-95c6-42a5-9380-25db22cb1773","1000","
                  <p style=""text-align: center;"">₪71
                                                <br>75%</p>
                  <p id=""wtp"" style=""text-align:center; margin-top: 0px; margin-bottom: 0px; font-size: 40px"";>&ensp;</p>","-","viewing","0","28","8B","","","","","","","","","","","","","","","","",""
"","","","","","html-slider-response","247","389504","0.0-25.0-1.12","1c3c4861-95c6-42a5-9380-25db22cb1773","1247","
                  <p style=""text-align: center;"">₪71
                                                <br>75%</p>
                  <p id=""wtp"" style=""text-align:center; margin-top: 0px; margin-bottom: 0px; font-size: 40px"";>מוכנים לשלם: <span id=""c_p_y""></span></p>","65","evaluation","1","28","8B","75","71","64","","","","","","","","","","","","","",""
"","","","","","html-keyboard-response","248","390108","0.0-25.0-2.12","1c3c4861-95c6-42a5-9380-25db22cb1773","null","<p style=""text-align: center;"">+</p>","null","fixation","","","","","","","","","","","","","","","","","","","",""
"","","","","","html-slider-response","249","391124","0.0-25.0-0.13","1c3c4861-95c6-42a5-9380-25db22cb1773","1000","
                  <p style=""text-align: center;"">₪18
                                                <br>25%</p>
                  <p id=""wtp"" style=""text-align:center; margin-top: 0px; margin-bottom: 0px; font-size: 40px"";>&ensp;</p>","-","viewing","0","9","14A,23A","","","","","","","","","","","","","","","","",""
"","","","","","html-slider-response","250","392208","0.0-25.0-1.13","1c3c4861-95c6-42a5-9380-25db22cb1773","1083","
                  <p style=""text-align: center;"">₪18
                                                <br>25%</p>
                  <p id=""wtp"" style=""text-align:center; margin-top: 0px; margin-bottom: 0px; font-size: 40px"";>מוכנים לשלם: <span id=""c_p_y""></span></p>","40","evaluation","3","9","14A,23A","25","18","40","","","","","","","","","","","","","",""
"","","","","","html-keyboard-response","251","392851","0.0-25.0-2.13","1c3c4861-95c6-42a5-9380-25db22cb1773","null","<p style=""text-align: center;"">+</p>","null","fixation","","","","","","","","","","","","","","","","","","","",""
"","","","","","html-slider-response","252","393854","0.0-25.0-0.14","1c3c4861-95c6-42a5-9380-25db22cb1773","1000","
                  <p style=""text-align: center;"">₪36
                                                <br>60%</p>
                  <p id=""wtp"" style=""text-align:center; margin-top: 0px; margin-bottom: 0px; font-size: 40px"";>&ensp;</p>","-","viewing","0","12","1C,7C,15C","","","","","","","","","","","","","","","","",""
"","","","","","html-slider-response","253","396440","0.0-25.0-1.14","1c3c4861-95c6-42a5-9380-25db22cb1773","2584","
                  <p style=""text-align: center;"">₪36
                                                <br>60%</p>
                  <p id=""wtp"" style=""text-align:center; margin-top: 0px; margin-bottom: 0px; font-size: 40px"";>מוכנים לשלם: <span id=""c_p_y""></span></p>","12","evaluation","46","12","1C,7C,15C","60","36","12","","","","","","","","","","","","","",""
"","","","","","html-keyboard-response","254","397638","0.0-25.0-2.14","1c3c4861-95c6-42a5-9380-25db22cb1773","null","<p style=""text-align: center;"">+</p>","null","fixation","","","","","","","","","","","","","","","","","","","",""
