"success","timeout","failed_images","failed_audio","failed_video","trial_type","trial_index","time_elapsed","internal_node_id","subject_id","rt","stimulus","response","part","slider_start","ID","set_ID","prob","amount","last_location","actual_choice","actual_EV","binary_id","trinary_id","catch","direction","A_key","S_key","D_key","choice_prob","choice_amount","won_prize","potential_prize_amount","potential_prize_prob","total_prize","accuracy"
"true","false","[]","[]","[]","preload","0","4","0.0-0.0","b39e2b17-9540-4aab-915e-a8984ab90ae6","","","","","","","","","","","","","","","","","","","","","","","","","",""
"","","","","","html-keyboard-response","1","14791","0.0-1.0","b39e2b17-9540-4aab-915e-a8984ab90ae6","null","
          <h1>שלום וברוכים הבאים!</h1>
          <p>לפניכם ניסוי בקבלת החלטות עם שני חלקים.
          <br><br>לחצו על העכבר כדי להמשיך.</p>","0","example","","","","","","","","","","","","","","","","","","","","","",""
"","","","","","html-keyboard-response","2","35743","0.0-2.0","b39e2b17-9540-4aab-915e-a8984ab90ae6","null","
        <h1>חלק 1</h1>
        <p>בקרוב יוצגו בפניכם הגרלות.
        <br>עליכם לבחור את המחיר המירבי שתהיו מוכנים לשלם כדי להשתתף בהגרלה שתוצג.
        <br>יש לכם תקציב של ₪80 לכל הגרלה. 
        <br>נסו להעריך כל הגרלה בנפרד ולחשוב כמה היא שווה עבורכם, ₪80 זמינים לכל הגרלה בנפרד.
        <br><br>לחצו על העכבר כדי להמשיך.</p>","1","instructions","","","","","","","","","","","","","","","","","","","","","",""
"","","","","","html-keyboard-response","3","99959","0.0-3.0","b39e2b17-9540-4aab-915e-a8984ab90ae6","null","
        <p>בסוף הניסוי, המחשב יבחר את אחת ההגרלות ויקבע מחיר לכרטיס עבורה. 
        <br>במידה והמחיר שבחרתם נמוך מהמחיר שנבחר על ידי המחשב, לא תשתתפו בהגרלה ותשארו עם מלוא התקציב.
        <br>במידה והמחיר שבחרתם גבוה מהמחיר שנבחר על ידי המחשב, תשלמו את המחיר שנקבע ותשתתפו בהגרלה.
        <br><br>לחצו על העכבר כדי להמשיך.</p>","1","instructions","","","","","","","","","","","","","","","","","","","","","",""
"","","","","","html-slider-response","4","120711","0.0-4.0","b39e2b17-9540-4aab-915e-a8984ab90ae6","20650","
        <p style=""font-size: 42px;"">נתחיל עם דוגמא: 
        <br>ההגרלה מטה מציעה 65% סיכוי לזכות ב-₪40 
        <br>&emsp;&emsp;&emsp;&emsp;&emsp;&emsp;&emsp;&emsp;&ensp;35% סיכוי לזכות ב-₪0.
        <br><br>מה המחיר המירבי שתהיו מוכנים לשלם על כרטיס להגרלה זו בין 0 ל-₪80?
        <br>הזיזו את העכבר על פני המלבן ולחצו כדי לבצע בחירה.</p>
        
        <p style=""text-align: center;"">₪40<br>65%</p>

        <p id=""wtp"" style=""text-align:center; margin-top: 0px; margin-bottom: 0px; font-size: 40px"";>מוכנים לשלם: <span id=""c_p_y""></span></p>","20","example","71","","","","","","","","","","","","","","","","","","","","",""
"","","","","","html-keyboard-response","5","138295","0.0-5.0","b39e2b17-9540-4aab-915e-a8984ab90ae6","null","<p>יפה מאוד!
                <br> בחרתם שתהיו מוכנים לשלם ₪20 כדי להשתתף בהגרלה:
                <br><p style=""text-align: center;"">₪40<br>65%</p>
                <p>נשמע נכון?
                <br>נניח שהגרלה זו נבחרה בסוף הניסוי.
                <br>כעת המחשב יקבע מחיר עבורה באקראי.
                <br>לחצו על העכבר להמשך.</p>","1","example","","","","","","","","","","","","","","","","","","","","","",""
"","","","","","html-keyboard-response","6","155822","0.0-6.0","b39e2b17-9540-4aab-915e-a8984ab90ae6","null","<p>המחשב קבע מחיר: ₪36
                <br>ואתם בחרתם לשלם לכל היותר: ₪20
                <br><br>מכיוון שהמחיר שבחרתם נמוך מהמחיר שנקבע, לא תתשתתפו בהגרלה.
                <br>במקרה כזה, בסוף הניסוי תקבלו את כל התקציב ההתחלתי של ₪80.
                <br><br>לחצו על העכבר להמשך.</p>","1","example","","","","","","","","","","","","","","","","","","","","","",""
"","","","","","html-slider-response","7","167575","0.0-7.0","b39e2b17-9540-4aab-915e-a8984ab90ae6","11489","<p style=""font-size: 42px;"">הנה עוד דוגמא:
                <br>ההגרלה מטה מציעה 35% סיכוי לזכות ב-₪18 
                <br>&emsp;&emsp;&emsp;&emsp;&emsp;&emsp;&emsp;&emsp;&ensp;65% סיכוי לזכות ב-₪0.</p>
        
                <p style=""text-align: center;"">₪18<br>35%</p>
                <p id=""wtp"" style=""text-align:center; margin-top: 0px; margin-bottom: 0px; font-size: 40px"";>מוכנים לשלם: <span id=""c_p_y""></span></p>","6","example","46","","","","","","","","","","","","","","","","","","","","",""
"","","","","","html-keyboard-response","8","176703","0.0-8.0","b39e2b17-9540-4aab-915e-a8984ab90ae6","null","<p>הייתם מוכנים לשלם  ₪6 כדי להשתתף בהגרלה:
                <p style=""text-align: center;"">₪18<br>35%</p>
                <p>כעת נניח שהמחשב בחר את ההגרלה הזו בסוף הניסוי, וקבע עבורה מחיר.
                <br><br>לחצו על העכבר כדי להמשיך.</p>","1","instructions","","","","","","","","","","","","","","","","","","","","","",""
"","","","","","html-keyboard-response","9","195511","0.0-9.0","b39e2b17-9540-4aab-915e-a8984ab90ae6","null","<p>המחשב קבע מחיר להגרלה: ₪2<br>ואתם בחרתם לשלם לכל היותר: ₪6
                <br><br>כעת המחיר שנקבע נמוך מזה שבחרתם, אז תשלמו את המחיר שקבע המחשב (₪2) ותשתתפו בהגרלה.
                <br>במקרה כזה, תסיימו את הניסוי עם תקציב של ₪78 ועם סיכוי לזכות ב-₪18 נוספים מההגרלה.
                <br>כלומר, תוכלו לקבל ₪78 אם לא תזכו בהגרלה, או ₪96 אם תזכו בהגרלה.
                <br><br>לחצו על העכבר להמשך.</p>","1","example","","","","","","","","","","","","","","","","","","","","","",""
"","","","","","html-keyboard-response","10","202902","0.0-10.0","b39e2b17-9540-4aab-915e-a8984ab90ae6","null","<p>במהלך הניסוי, קודם תראו את ההגרלה ורק לאחר מכן תוכלו לבחור.
                <p>כמו כן, יהיו לכם מספר שניות מוגבל להגיב.
                <p>בואו ננסה זאת עם ההגרלה הקודמת.
                <br>לחצו על העכבר כדי להמשיך.</p>","1","instructions","","","","","","","","","","","","","","","","","","","","","",""
"","","","","","html-slider-response","11","204160","0.0-11.0","b39e2b17-9540-4aab-915e-a8984ab90ae6","1000","
                    <p style=""text-align: center;"">₪18<br>35%</p>
                    <p id=""wtp"" style=""text-align:center; margin-top: 0px; margin-bottom: 0px; font-size: 40px"";>&ensp;</p>","71","instructions","0","","","","","","","","","","","","","","","","","","","","",""
"","","","","","html-slider-response","12","208433","0.0-12.0","b39e2b17-9540-4aab-915e-a8984ab90ae6","null","
                    <p style=""text-align: center;"">₪18<br>35%</p>
                    <p id=""wtp"" style=""text-align:center; margin-top: 0px; margin-bottom: 0px; font-size: 40px"";>מוכנים לשלם: <span id=""c_p_y""></span></p>","null","instructions","0","","","","","","","","","","","","","","","","","","","","",""
"","","","","","html-keyboard-response","13","215495","0.0-13.0","b39e2b17-9540-4aab-915e-a8984ab90ae6","null","<p>לא הגבתם בזמן המוקצב לתגובה. 
                <br>נסו להגיב מהר יותר בפעם הבאה.
                <br><br>לחצו על העכבר כדי להמשיך.</p>","1","instructions","","","","","","","","","","","","","","","","","","","","","",""
"","","","","","html-slider-response","14","217975","0.0-14.0-0.0","b39e2b17-9540-4aab-915e-a8984ab90ae6","2228","
                    <p style=""text-align: center;"">₪40<br>65%</p>
                    <p id=""wtp"" style=""text-align:center; margin-top: 0px; margin-bottom: 0px; font-size: 40px"";>מוכנים לשלם: <span id=""c_p_y""></span></p>","14","instructions","75","","","","","","","","","","","","","","","","","","","","",""
"","","","","","html-keyboard-response","15","222503","0.0-14.0-1.0","b39e2b17-9540-4aab-915e-a8984ab90ae6","null","<p>יפה. הפעם בחרתם לשלם לכל היותר ₪14.
                <br><br>לחצו על העכבר כדי להמשיך.</p>","1","instructions","","","","","","","","","","","","","","","","","","","","","",""
"","","","","","html-keyboard-response","16","234255","0.0-15.0","b39e2b17-9540-4aab-915e-a8984ab90ae6","null","<p>כעת נתחיל את הניסוי.
                <br><br>אתם תראו הגרלות ותתבקשו לבחור כמה תהיו מוכנים לשלם כדי להשתתף בהן.
                <br>יש לכם תקציב של ₪80 עבור כל הגרלה.
                <br>בסוף הניסוי הגרלה אחת תבחר באקראי ותשוחק.
                <br><br>לחצו על העכבר כדי להתחיל את הניסוי.</p>","1","instructions","","","","","","","","","","","","","","","","","","","","","",""
"","","","","","html-keyboard-response","17","235513","0.0-16.0","b39e2b17-9540-4aab-915e-a8984ab90ae6","null","<p style=""text-align: center;"">+</p>","null","fixation","","","","","","","","","","","","","","","","","","","","","",""
"","","","","","html-slider-response","18","236517","0.0-17.0-0.0","b39e2b17-9540-4aab-915e-a8984ab90ae6","1000","
                  <p style=""text-align: center;"">₪16
                                                <br>20%</p>
                  <p id=""wtp"" style=""text-align:center; margin-top: 0px; margin-bottom: 0px; font-size: 40px"";>&ensp;</p>","-","viewing","0","8","14C,17A,20C,27A","","","","","","","","","","","","","","","","","","",""
"","","","","","html-slider-response","19","240529","0.0-17.0-1.0","b39e2b17-9540-4aab-915e-a8984ab90ae6","null","
                  <p style=""text-align: center;"">₪16
                                                <br>20%</p>
                  <p id=""wtp"" style=""text-align:center; margin-top: 0px; margin-bottom: 0px; font-size: 40px"";>מוכנים לשלם: <span id=""c_p_y""></span></p>","null","evaluation","3","8","14C,17A,20C,27A","20","16","6","","","","","","","","","","","","","","","",""
"","","","","","html-keyboard-response","20","242001","0.0-17.0-2.0","b39e2b17-9540-4aab-915e-a8984ab90ae6","null","<p style=""text-align: center;"">+</p>","null","fixation","","","","","","","","","","","","","","","","","","","","","",""
"","","","","","html-slider-response","21","243009","0.0-17.0-0.1","b39e2b17-9540-4aab-915e-a8984ab90ae6","1000","
                  <p style=""text-align: center;"">₪71
                                                <br>55%</p>
                  <p id=""wtp"" style=""text-align:center; margin-top: 0px; margin-bottom: 0px; font-size: 40px"";>&ensp;</p>","-","viewing","0","27","5B,18A","","","","","","","","","","","","","","","","","","",""
"","","","","","html-slider-response","22","245463","0.0-17.0-1.1","b39e2b17-9540-4aab-915e-a8984ab90ae6","2452","
                  <p style=""text-align: center;"">₪71
                                                <br>55%</p>
                  <p id=""wtp"" style=""text-align:center; margin-top: 0px; margin-bottom: 0px; font-size: 40px"";>מוכנים לשלם: <span id=""c_p_y""></span></p>","22","evaluation","16","27","5B,18A","55","71","23","","","","","","","","","","","","","","","",""
"","","","","","html-keyboard-response","23","246854","0.0-17.0-2.1","b39e2b17-9540-4aab-915e-a8984ab90ae6","null","<p style=""text-align: center;"">+</p>","null","fixation","","","","","","","","","","","","","","","","","","","","","",""
"","","","","","html-slider-response","24","247857","0.0-17.0-0.2","b39e2b17-9540-4aab-915e-a8984ab90ae6","1000","
                  <p style=""text-align: center;"">₪11
                                                <br>45%</p>
                  <p id=""wtp"" style=""text-align:center; margin-top: 0px; margin-bottom: 0px; font-size: 40px"";>&ensp;</p>","-","viewing","0","6","14B,21C,25C","","","","","","","","","","","","","","","","","","",""
"","","","","","html-slider-response","25","249751","0.0-17.0-1.2","b39e2b17-9540-4aab-915e-a8984ab90ae6","1893","
                  <p style=""text-align: center;"">₪11
                                                <br>45%</p>
                  <p id=""wtp"" style=""text-align:center; margin-top: 0px; margin-bottom: 0px; font-size: 40px"";>מוכנים לשלם: <span id=""c_p_y""></span></p>","4","evaluation","21","6","14B,21C,25C","45","11","4","","","","","","","","","","","","","","","",""
"","","","","","html-keyboard-response","26","251087","0.0-17.0-2.2","b39e2b17-9540-4aab-915e-a8984ab90ae6","null","<p style=""text-align: center;"">+</p>","null","fixation","","","","","","","","","","","","","","","","","","","","","",""
"","","","","","html-slider-response","27","252089","0.0-17.0-0.3","b39e2b17-9540-4aab-915e-a8984ab90ae6","1000","
                  <p style=""text-align: center;"">₪79
                                                <br>40%</p>
                  <p id=""wtp"" style=""text-align:center; margin-top: 0px; margin-bottom: 0px; font-size: 40px"";>&ensp;</p>","-","viewing","0","30","9B","","","","","","","","","","","","","","","","","","",""
"","","","","","html-slider-response","28","254671","0.0-17.0-1.3","b39e2b17-9540-4aab-915e-a8984ab90ae6","2581","
                  <p style=""text-align: center;"">₪79
                                                <br>40%</p>
                  <p id=""wtp"" style=""text-align:center; margin-top: 0px; margin-bottom: 0px; font-size: 40px"";>מוכנים לשלם: <span id=""c_p_y""></span></p>","20","evaluation","40","30","9B","40","79","20","","","","","","","","","","","","","","","",""
"","","","","","html-keyboard-response","29","255779","0.0-17.0-2.3","b39e2b17-9540-4aab-915e-a8984ab90ae6","null","<p style=""text-align: center;"">+</p>","null","fixation","","","","","","","","","","","","","","","","","","","","","",""
"","","","","","html-slider-response","30","256791","0.0-17.0-0.4","b39e2b17-9540-4aab-915e-a8984ab90ae6","1000","
                  <p style=""text-align: center;"">₪61
                                                <br>55%</p>
                  <p id=""wtp"" style=""text-align:center; margin-top: 0px; margin-bottom: 0px; font-size: 40px"";>&ensp;</p>","-","viewing","0","23","7B,26B","","","","","","","","","","","","","","","","","","",""
"","","","","","html-slider-response","31","260607","0.0-17.0-1.4","b39e2b17-9540-4aab-915e-a8984ab90ae6","3814","
                  <p style=""text-align: center;"">₪61
                                                <br>55%</p>
                  <p id=""wtp"" style=""text-align:center; margin-top: 0px; margin-bottom: 0px; font-size: 40px"";>מוכנים לשלם: <span id=""c_p_y""></span></p>","19","evaluation","19","23","7B,26B","55","61","19","","","","","","","","","","","","","","","",""
"","","","","","html-keyboard-response","32","261501","0.0-17.0-2.4","b39e2b17-9540-4aab-915e-a8984ab90ae6","null","<p style=""text-align: center;"">+</p>","null","fixation","","","","","","","","","","","","","","","","","","","","","",""
"","","","","","html-slider-response","33","262503","0.0-17.0-0.5","b39e2b17-9540-4aab-915e-a8984ab90ae6","1000","
                  <p style=""text-align: center;"">₪11
                                                <br>25%</p>
                  <p id=""wtp"" style=""text-align:center; margin-top: 0px; margin-bottom: 0px; font-size: 40px"";>&ensp;</p>","-","viewing","0","5","12A,27B,28B,30B","","","","","","","","","","","","","","","","","","",""
"","","","","","html-slider-response","34","266514","0.0-17.0-1.5","b39e2b17-9540-4aab-915e-a8984ab90ae6","null","
                  <p style=""text-align: center;"">₪11
                                                <br>25%</p>
                  <p id=""wtp"" style=""text-align:center; margin-top: 0px; margin-bottom: 0px; font-size: 40px"";>מוכנים לשלם: <span id=""c_p_y""></span></p>","null","evaluation","51","5","12A,27B,28B,30B","25","11","2","","","","","","","","","","","","","","","",""
"","","","","","html-keyboard-response","35","267731","0.0-17.0-2.5","b39e2b17-9540-4aab-915e-a8984ab90ae6","null","<p style=""text-align: center;"">+</p>","null","fixation","","","","","","","","","","","","","","","","","","","","","",""
"","","","","","html-slider-response","36","268734","0.0-17.0-0.6","b39e2b17-9540-4aab-915e-a8984ab90ae6","1000","
                  <p style=""text-align: center;"">₪61
                                                <br>45%</p>
                  <p id=""wtp"" style=""text-align:center; margin-top: 0px; margin-bottom: 0px; font-size: 40px"";>&ensp;</p>","-","viewing","0","22","10A,11A","","","","","","","","","","","","","","","","","","",""
"","","","","","html-slider-response","37","272736","0.0-17.0-1.6","b39e2b17-9540-4aab-915e-a8984ab90ae6","null","
                  <p style=""text-align: center;"">₪61
                                                <br>45%</p>
                  <p id=""wtp"" style=""text-align:center; margin-top: 0px; margin-bottom: 0px; font-size: 40px"";>מוכנים לשלם: <span id=""c_p_y""></span></p>","null","evaluation","45","22","10A,11A","45","61","19","","","","","","","","","","","","","","","",""
"","","","","","html-keyboard-response","38","273600","0.0-17.0-2.6","b39e2b17-9540-4aab-915e-a8984ab90ae6","null","<p style=""text-align: center;"">+</p>","null","fixation","","","","","","","","","","","","","","","","","","","","","",""
"","","","","","html-slider-response","39","274614","0.0-17.0-0.7","b39e2b17-9540-4aab-915e-a8984ab90ae6","1000","
                  <p style=""text-align: center;"">₪58
                                                <br>45%</p>
                  <p id=""wtp"" style=""text-align:center; margin-top: 0px; margin-bottom: 0px; font-size: 40px"";>&ensp;</p>","-","viewing","0","21","11C,18C,25A","","","","","","","","","","","","","","","","","","",""
"","","","","","html-slider-response","40","277238","0.0-17.0-1.7","b39e2b17-9540-4aab-915e-a8984ab90ae6","2623","
                  <p style=""text-align: center;"">₪58
                                                <br>45%</p>
                  <p id=""wtp"" style=""text-align:center; margin-top: 0px; margin-bottom: 0px; font-size: 40px"";>מוכנים לשלם: <span id=""c_p_y""></span></p>","15","evaluation","17","21","11C,18C,25A","45","58","15","","","","","","","","","","","","","","","",""
"","","","","","html-keyboard-response","41","278287","0.0-17.0-2.7","b39e2b17-9540-4aab-915e-a8984ab90ae6","null","<p style=""text-align: center;"">+</p>","null","fixation","","","","","","","","","","","","","","","","","","","","","",""
"","","","","","html-slider-response","42","279295","0.0-17.0-0.8","b39e2b17-9540-4aab-915e-a8984ab90ae6","1000","
                  <p style=""text-align: center;"">₪43
                                                <br>75%</p>
                  <p id=""wtp"" style=""text-align:center; margin-top: 0px; margin-bottom: 0px; font-size: 40px"";>&ensp;</p>","-","viewing","0","18","11B,19B,24A,26A","","","","","","","","","","","","","","","","","","",""
"","","","","","html-slider-response","43","282510","0.0-17.0-1.8","b39e2b17-9540-4aab-915e-a8984ab90ae6","3214","
                  <p style=""text-align: center;"">₪43
                                                <br>75%</p>
                  <p id=""wtp"" style=""text-align:center; margin-top: 0px; margin-bottom: 0px; font-size: 40px"";>מוכנים לשלם: <span id=""c_p_y""></span></p>","20","evaluation","66","18","11B,19B,24A,26A","75","43","20","","","","","","","","","","","","","","","",""
"","","","","","html-keyboard-response","44","283310","0.0-17.0-2.8","b39e2b17-9540-4aab-915e-a8984ab90ae6","null","<p style=""text-align: center;"">+</p>","null","fixation","","","","","","","","","","","","","","","","","","","","","",""
"","","","","","html-slider-response","45","284326","0.0-17.0-0.9","b39e2b17-9540-4aab-915e-a8984ab90ae6","1000","
                  <p style=""text-align: center;"">₪58
                                                <br>30%</p>
                  <p id=""wtp"" style=""text-align:center; margin-top: 0px; margin-bottom: 0px; font-size: 40px"";>&ensp;</p>","-","viewing","0","19","13C,30A","","","","","","","","","","","","","","","","","","",""
"","","","","","html-slider-response","46","287671","0.0-17.0-1.9","b39e2b17-9540-4aab-915e-a8984ab90ae6","3343","
                  <p style=""text-align: center;"">₪58
                                                <br>30%</p>
                  <p id=""wtp"" style=""text-align:center; margin-top: 0px; margin-bottom: 0px; font-size: 40px"";>מוכנים לשלם: <span id=""c_p_y""></span></p>","6","evaluation","37","19","13C,30A","30","58","7","","","","","","","","","","","","","","","",""
"","","","","","html-keyboard-response","47","288353","0.0-17.0-2.9","b39e2b17-9540-4aab-915e-a8984ab90ae6","null","<p style=""text-align: center;"">+</p>","null","fixation","","","","","","","","","","","","","","","","","","","","","",""
"","","","","","html-slider-response","48","289362","0.0-17.0-0.10","b39e2b17-9540-4aab-915e-a8984ab90ae6","1000","
                  <p style=""text-align: center;"">₪39
                                                <br>60%</p>
                  <p id=""wtp"" style=""text-align:center; margin-top: 0px; margin-bottom: 0px; font-size: 40px"";>&ensp;</p>","-","viewing","0","15","9C,25B","","","","","","","","","","","","","","","","","","",""
"","","","","","html-slider-response","49","293023","0.0-17.0-1.10","b39e2b17-9540-4aab-915e-a8984ab90ae6","3660","
                  <p style=""text-align: center;"">₪39
                                                <br>60%</p>
                  <p id=""wtp"" style=""text-align:center; margin-top: 0px; margin-bottom: 0px; font-size: 40px"";>מוכנים לשלם: <span id=""c_p_y""></span></p>","9","evaluation","8","15","9C,25B","60","39","10","","","","","","","","","","","","","","","",""
"","","","","","html-keyboard-response","50","294222","0.0-17.0-2.10","b39e2b17-9540-4aab-915e-a8984ab90ae6","null","<p style=""text-align: center;"">+</p>","null","fixation","","","","","","","","","","","","","","","","","","","","","",""
"","","","","","html-slider-response","51","295234","0.0-17.0-0.11","b39e2b17-9540-4aab-915e-a8984ab90ae6","1000","
                  <p style=""text-align: center;"">₪4
                                                <br>75%</p>
                  <p id=""wtp"" style=""text-align:center; margin-top: 0px; margin-bottom: 0px; font-size: 40px"";>&ensp;</p>","-","viewing","0","3","12B,20B,23B,27C,29C","","","","","","","","","","","","","","","","","","",""
"","","","","","html-slider-response","52","297215","0.0-17.0-1.11","b39e2b17-9540-4aab-915e-a8984ab90ae6","1979","
                  <p style=""text-align: center;"">₪4
                                                <br>75%</p>
                  <p id=""wtp"" style=""text-align:center; margin-top: 0px; margin-bottom: 0px; font-size: 40px"";>מוכנים לשלם: <span id=""c_p_y""></span></p>","0","evaluation","3","3","12B,20B,23B,27C,29C","75","4","1","","","","","","","","","","","","","","","",""
"","","","","","html-keyboard-response","53","298442","0.0-17.0-2.11","b39e2b17-9540-4aab-915e-a8984ab90ae6","null","<p style=""text-align: center;"">+</p>","null","fixation","","","","","","","","","","","","","","","","","","","","","",""
"","","","","","html-slider-response","54","299458","0.0-17.0-0.12","b39e2b17-9540-4aab-915e-a8984ab90ae6","1000","
                  <p style=""text-align: center;"">₪71
                                                <br>45%</p>
                  <p id=""wtp"" style=""text-align:center; margin-top: 0px; margin-bottom: 0px; font-size: 40px"";>&ensp;</p>","-","viewing","0","26","2B,16A","","","","","","","","","","","","","","","","","","",""
"","","","","","html-slider-response","55","302550","0.0-17.0-1.12","b39e2b17-9540-4aab-915e-a8984ab90ae6","3091","
                  <p style=""text-align: center;"">₪71
                                                <br>45%</p>
                  <p id=""wtp"" style=""text-align:center; margin-top: 0px; margin-bottom: 0px; font-size: 40px"";>מוכנים לשלם: <span id=""c_p_y""></span></p>","3","evaluation","60","26","2B,16A","45","71","4","","","","","","","","","","","","","","","",""
"","","","","","html-keyboard-response","56","304020","0.0-17.0-2.12","b39e2b17-9540-4aab-915e-a8984ab90ae6","null","<p style=""text-align: center;"">+</p>","null","fixation","","","","","","","","","","","","","","","","","","","","","",""
"","","","","","html-slider-response","57","305030","0.0-17.0-0.13","b39e2b17-9540-4aab-915e-a8984ab90ae6","1000","
                  <p style=""text-align: center;"">₪36
                                                <br>70%</p>
                  <p id=""wtp"" style=""text-align:center; margin-top: 0px; margin-bottom: 0px; font-size: 40px"";>&ensp;</p>","-","viewing","0","13","3A,5C,10B","","","","","","","","","","","","","","","","","","",""
"","","","","","html-slider-response","58","308527","0.0-17.0-1.13","b39e2b17-9540-4aab-915e-a8984ab90ae6","3495","
                  <p style=""text-align: center;"">₪36
                                                <br>70%</p>
                  <p id=""wtp"" style=""text-align:center; margin-top: 0px; margin-bottom: 0px; font-size: 40px"";>מוכנים לשלם: <span id=""c_p_y""></span></p>","9","evaluation","21","13","3A,5C,10B","70","36","10","","","","","","","","","","","","","","","",""
"","","","","","html-keyboard-response","59","309865","0.0-17.0-2.13","b39e2b17-9540-4aab-915e-a8984ab90ae6","null","<p style=""text-align: center;"">+</p>","null","fixation","","","","","","","","","","","","","","","","","","","","","",""
"","","","","","html-slider-response","60","310877","0.0-17.0-0.14","b39e2b17-9540-4aab-915e-a8984ab90ae6","1000","
                  <p style=""text-align: center;"">₪11
                                                <br>75%</p>
                  <p id=""wtp"" style=""text-align:center; margin-top: 0px; margin-bottom: 0px; font-size: 40px"";>&ensp;</p>","-","viewing","0","7","6B,18B,22C,24C,29A","","","","","","","","","","","","","","","","","","",""
"","","","","","html-slider-response","61","313414","0.0-17.0-1.14","b39e2b17-9540-4aab-915e-a8984ab90ae6","2537","
                  <p style=""text-align: center;"">₪11
                                                <br>75%</p>
                  <p id=""wtp"" style=""text-align:center; margin-top: 0px; margin-bottom: 0px; font-size: 40px"";>מוכנים לשלם: <span id=""c_p_y""></span></p>","3","evaluation","64","7","6B,18B,22C,24C,29A","75","11","3","","","","","","","","","","","","","","","",""
"","","","","","html-keyboard-response","62","313980","0.0-17.0-2.14","b39e2b17-9540-4aab-915e-a8984ab90ae6","null","<p style=""text-align: center;"">+</p>","null","fixation","","","","","","","","","","","","","","","","","","","","","",""
"","","","","","html-slider-response","63","314996","0.0-17.0-0.15","b39e2b17-9540-4aab-915e-a8984ab90ae6","1000","
                  <p style=""text-align: center;"">₪11
                                                <br>20%</p>
                  <p id=""wtp"" style=""text-align:center; margin-top: 0px; margin-bottom: 0px; font-size: 40px"";>&ensp;</p>","-","viewing","0","4","12C,17C,23C,28C","","","","","","","","","","","","","","","","","","",""
"","","","","","html-slider-response","64","318087","0.0-17.0-1.15","b39e2b17-9540-4aab-915e-a8984ab90ae6","3090","
                  <p style=""text-align: center;"">₪11
                                                <br>20%</p>
                  <p id=""wtp"" style=""text-align:center; margin-top: 0px; margin-bottom: 0px; font-size: 40px"";>מוכנים לשלם: <span id=""c_p_y""></span></p>","2","evaluation","17","4","12C,17C,23C,28C","20","11","2","","","","","","","","","","","","","","","",""
"","","","","","html-keyboard-response","65","319255","0.0-17.0-2.15","b39e2b17-9540-4aab-915e-a8984ab90ae6","null","<p style=""text-align: center;"">+</p>","null","fixation","","","","","","","","","","","","","","","","","","","","","",""
"","","","","","html-slider-response","66","320257","0.0-17.0-0.16","b39e2b17-9540-4aab-915e-a8984ab90ae6","1000","
                  <p style=""text-align: center;"">₪4
                                                <br>50%</p>
                  <p id=""wtp"" style=""text-align:center; margin-top: 0px; margin-bottom: 0px; font-size: 40px"";>&ensp;</p>","-","viewing","0","2","4C,17B","","","","","","","","","","","","","","","","","","",""
"","","","","","html-slider-response","67","322791","0.0-17.0-1.16","b39e2b17-9540-4aab-915e-a8984ab90ae6","2532","
                  <p style=""text-align: center;"">₪4
                                                <br>50%</p>
                  <p id=""wtp"" style=""text-align:center; margin-top: 0px; margin-bottom: 0px; font-size: 40px"";>מוכנים לשלם: <span id=""c_p_y""></span></p>","0","evaluation","21","2","4C,17B","50","4","1","","","","","","","","","","","","","","","",""
"","","","","","html-keyboard-response","68","323896","0.0-17.0-2.16","b39e2b17-9540-4aab-915e-a8984ab90ae6","null","<p style=""text-align: center;"">+</p>","null","fixation","","","","","","","","","","","","","","","","","","","","","",""
"","","","","","html-slider-response","69","324907","0.0-17.0-0.17","b39e2b17-9540-4aab-915e-a8984ab90ae6","1000","
                  <p style=""text-align: center;"">₪18
                                                <br>25%</p>
                  <p id=""wtp"" style=""text-align:center; margin-top: 0px; margin-bottom: 0px; font-size: 40px"";>&ensp;</p>","-","viewing","0","9","14A,23A","","","","","","","","","","","","","","","","","","",""
"","","","","","html-slider-response","70","328311","0.0-17.0-1.17","b39e2b17-9540-4aab-915e-a8984ab90ae6","3402","
                  <p style=""text-align: center;"">₪18
                                                <br>25%</p>
                  <p id=""wtp"" style=""text-align:center; margin-top: 0px; margin-bottom: 0px; font-size: 40px"";>מוכנים לשלם: <span id=""c_p_y""></span></p>","1","evaluation","34","9","14A,23A","25","18","2","","","","","","","","","","","","","","","",""
"","","","","","html-keyboard-response","71","329678","0.0-17.0-2.17","b39e2b17-9540-4aab-915e-a8984ab90ae6","null","<p style=""text-align: center;"">+</p>","null","fixation","","","","","","","","","","","","","","","","","","","","","",""
"","","","","","html-slider-response","72","330680","0.0-17.0-0.18","b39e2b17-9540-4aab-915e-a8984ab90ae6","1000","
                  <p style=""text-align: center;"">₪4
                                                <br>25%</p>
                  <p id=""wtp"" style=""text-align:center; margin-top: 0px; margin-bottom: 0px; font-size: 40px"";>&ensp;</p>","-","viewing","0","1","6C,29B,30C","","","","","","","","","","","","","","","","","","",""
"","","","","","html-slider-response","73","332623","0.0-17.0-1.18","b39e2b17-9540-4aab-915e-a8984ab90ae6","1941","
                  <p style=""text-align: center;"">₪4
                                                <br>25%</p>
                  <p id=""wtp"" style=""text-align:center; margin-top: 0px; margin-bottom: 0px; font-size: 40px"";>מוכנים לשלם: <span id=""c_p_y""></span></p>","0","evaluation","58","1","6C,29B,30C","25","4","0","","","","","","","","","","","","","","","",""
"","","","","","html-keyboard-response","74","333981","0.0-17.0-2.18","b39e2b17-9540-4aab-915e-a8984ab90ae6","null","<p style=""text-align: center;"">+</p>","null","fixation","","","","","","","","","","","","","","","","","","","","","",""
"","","","","","html-slider-response","75","334997","0.0-17.0-0.19","b39e2b17-9540-4aab-915e-a8984ab90ae6","1000","
                  <p style=""text-align: center;"">₪64
                                                <br>50%</p>
                  <p id=""wtp"" style=""text-align:center; margin-top: 0px; margin-bottom: 0px; font-size: 40px"";>&ensp;</p>","-","viewing","0","25","1B,3B,4A","","","","","","","","","","","","","","","","","","",""
"","","","","","html-slider-response","76","338479","0.0-17.0-1.19","b39e2b17-9540-4aab-915e-a8984ab90ae6","3481","
                  <p style=""text-align: center;"">₪64
                                                <br>50%</p>
                  <p id=""wtp"" style=""text-align:center; margin-top: 0px; margin-bottom: 0px; font-size: 40px"";>מוכנים לשלם: <span id=""c_p_y""></span></p>","5","evaluation","16","25","1B,3B,4A","50","64","5","","","","","","","","","","","","","","","",""
"","","","","","html-keyboard-response","77","339034","0.0-17.0-2.19","b39e2b17-9540-4aab-915e-a8984ab90ae6","null","<p style=""text-align: center;"">+</p>","null","fixation","","","","","","","","","","","","","","","","","","","","","",""
"","","","","","html-slider-response","78","340043","0.0-17.0-0.20","b39e2b17-9540-4aab-915e-a8984ab90ae6","1000","
                  <p style=""text-align: center;"">₪36
                                                <br>30%</p>
                  <p id=""wtp"" style=""text-align:center; margin-top: 0px; margin-bottom: 0px; font-size: 40px"";>&ensp;</p>","-","viewing","0","11","3C,20A,22A","","","","","","","","","","","","","","","","","","",""
"","","","","","html-slider-response","79","343687","0.0-17.0-1.20","b39e2b17-9540-4aab-915e-a8984ab90ae6","3643","
                  <p style=""text-align: center;"">₪36
                                                <br>30%</p>
                  <p id=""wtp"" style=""text-align:center; margin-top: 0px; margin-bottom: 0px; font-size: 40px"";>מוכנים לשלם: <span id=""c_p_y""></span></p>","9","evaluation","50","11","3C,20A,22A","30","36","10","","","","","","","","","","","","","","","",""
"","","","","","html-keyboard-response","80","344199","0.0-17.0-2.20","b39e2b17-9540-4aab-915e-a8984ab90ae6","null","<p style=""text-align: center;"">+</p>","null","fixation","","","","","","","","","","","","","","","","","","","","","",""
"","","","","","html-slider-response","81","345217","0.0-17.0-0.21","b39e2b17-9540-4aab-915e-a8984ab90ae6","1000","
                  <p style=""text-align: center;"">₪71
                                                <br>75%</p>
                  <p id=""wtp"" style=""text-align:center; margin-top: 0px; margin-bottom: 0px; font-size: 40px"";>&ensp;</p>","-","viewing","0","28","8B","","","","","","","","","","","","","","","","","","",""
"","","","","","html-slider-response","82","348207","0.0-17.0-1.21","b39e2b17-9540-4aab-915e-a8984ab90ae6","2989","
                  <p style=""text-align: center;"">₪71
                                                <br>75%</p>
                  <p id=""wtp"" style=""text-align:center; margin-top: 0px; margin-bottom: 0px; font-size: 40px"";>מוכנים לשלם: <span id=""c_p_y""></span></p>","18","evaluation","38","28","8B","75","71","18","","","","","","","","","","","","","","","",""
"","","","","","html-keyboard-response","83","349574","0.0-17.0-2.21","b39e2b17-9540-4aab-915e-a8984ab90ae6","null","<p style=""text-align: center;"">+</p>","null","fixation","","","","","","","","","","","","","","","","","","","","","",""
"","","","","","html-slider-response","84","350584","0.0-17.0-0.22","b39e2b17-9540-4aab-915e-a8984ab90ae6","1000","
                  <p style=""text-align: center;"">₪36
                                                <br>75%</p>
                  <p id=""wtp"" style=""text-align:center; margin-top: 0px; margin-bottom: 0px; font-size: 40px"";>&ensp;</p>","-","viewing","0","14","4B,5A,13B,16B","","","","","","","","","","","","","","","","","","",""
"","","","","","html-slider-response","85","354191","0.0-17.0-1.22","b39e2b17-9540-4aab-915e-a8984ab90ae6","3606","
                  <p style=""text-align: center;"">₪36
                                                <br>75%</p>
                  <p id=""wtp"" style=""text-align:center; margin-top: 0px; margin-bottom: 0px; font-size: 40px"";>מוכנים לשלם: <span id=""c_p_y""></span></p>","7","evaluation","65","14","4B,5A,13B,16B","75","36","7","","","","","","","","","","","","","","","",""
"","","","","","html-keyboard-response","86","355588","0.0-17.0-2.22","b39e2b17-9540-4aab-915e-a8984ab90ae6","null","<p style=""text-align: center;"">+</p>","null","fixation","","","","","","","","","","","","","","","","","","","","","",""
"","","","","","html-slider-response","87","356590","0.0-17.0-0.23","b39e2b17-9540-4aab-915e-a8984ab90ae6","1000","
                  <p style=""text-align: center;"">₪36
                                                <br>60%</p>
                  <p id=""wtp"" style=""text-align:center; margin-top: 0px; margin-bottom: 0px; font-size: 40px"";>&ensp;</p>","-","viewing","0","12","1C,7C,15C","","","","","","","","","","","","","","","","","","",""
"","","","","","html-slider-response","88","359647","0.0-17.0-1.23","b39e2b17-9540-4aab-915e-a8984ab90ae6","3055","
                  <p style=""text-align: center;"">₪36
                                                <br>60%</p>
                  <p id=""wtp"" style=""text-align:center; margin-top: 0px; margin-bottom: 0px; font-size: 40px"";>מוכנים לשלם: <span id=""c_p_y""></span></p>","8","evaluation","47","12","1C,7C,15C","60","36","8","","","","","","","","","","","","","","","",""
"","","","","","html-keyboard-response","89","360160","0.0-17.0-2.23","b39e2b17-9540-4aab-915e-a8984ab90ae6","null","<p style=""text-align: center;"">+</p>","null","fixation","","","","","","","","","","","","","","","","","","","","","",""
"","","","","","html-slider-response","90","361177","0.0-17.0-0.24","b39e2b17-9540-4aab-915e-a8984ab90ae6","1000","
                  <p style=""text-align: center;"">₪79
                                                <br>65%</p>
                  <p id=""wtp"" style=""text-align:center; margin-top: 0px; margin-bottom: 0px; font-size: 40px"";>&ensp;</p>","-","viewing","0","31","8A","","","","","","","","","","","","","","","","","","",""
"","","","","","html-slider-response","91","363919","0.0-17.0-1.24","b39e2b17-9540-4aab-915e-a8984ab90ae6","2741","
                  <p style=""text-align: center;"">₪79
                                                <br>65%</p>
                  <p id=""wtp"" style=""text-align:center; margin-top: 0px; margin-bottom: 0px; font-size: 40px"";>מוכנים לשלם: <span id=""c_p_y""></span></p>","19","evaluation","46","31","8A","65","79","19","","","","","","","","","","","","","","","",""
"","","","","","html-keyboard-response","92","365375","0.0-17.0-2.24","b39e2b17-9540-4aab-915e-a8984ab90ae6","null","<p style=""text-align: center;"">+</p>","null","fixation","","","","","","","","","","","","","","","","","","","","","",""
"","","","","","html-slider-response","93","366390","0.0-17.0-0.25","b39e2b17-9540-4aab-915e-a8984ab90ae6","1000","
                  <p style=""text-align: center;"">₪39
                                                <br>65%</p>
                  <p id=""wtp"" style=""text-align:center; margin-top: 0px; margin-bottom: 0px; font-size: 40px"";>&ensp;</p>","-","viewing","0","16","1A,15A,26C","","","","","","","","","","","","","","","","","","",""
"","","","","","html-slider-response","94","370393","0.0-17.0-1.25","b39e2b17-9540-4aab-915e-a8984ab90ae6","null","
                  <p style=""text-align: center;"">₪39
                                                <br>65%</p>
                  <p id=""wtp"" style=""text-align:center; margin-top: 0px; margin-bottom: 0px; font-size: 40px"";>מוכנים לשלם: <span id=""c_p_y""></span></p>","null","evaluation","37","16","1A,15A,26C","65","39","16","","","","","","","","","","","","","","","",""
"","","","","","html-keyboard-response","95","371070","0.0-17.0-2.25","b39e2b17-9540-4aab-915e-a8984ab90ae6","null","<p style=""text-align: center;"">+</p>","null","fixation","","","","","","","","","","","","","","","","","","","","","",""
"","","","","","html-slider-response","96","372085","0.0-17.0-0.26","b39e2b17-9540-4aab-915e-a8984ab90ae6","1000","
                  <p style=""text-align: center;"">₪64
                                                <br>25%</p>
                  <p id=""wtp"" style=""text-align:center; margin-top: 0px; margin-bottom: 0px; font-size: 40px"";>&ensp;</p>","-","viewing","0","24","6A,21A","","","","","","","","","","","","","","","","","","",""
"","","","","","html-slider-response","97","373655","0.0-17.0-1.26","b39e2b17-9540-4aab-915e-a8984ab90ae6","1569","
                  <p style=""text-align: center;"">₪64
                                                <br>25%</p>
                  <p id=""wtp"" style=""text-align:center; margin-top: 0px; margin-bottom: 0px; font-size: 40px"";>מוכנים לשלם: <span id=""c_p_y""></span></p>","8","evaluation","63","24","6A,21A","25","64","9","","","","","","","","","","","","","","","",""
"","","","","","html-keyboard-response","98","374277","0.0-17.0-2.26","b39e2b17-9540-4aab-915e-a8984ab90ae6","null","<p style=""text-align: center;"">+</p>","null","fixation","","","","","","","","","","","","","","","","","","","","","",""
"","","","","","html-slider-response","99","375286","0.0-17.0-0.27","b39e2b17-9540-4aab-915e-a8984ab90ae6","1000","
                  <p style=""text-align: center;"">₪76
                                                <br>65%</p>
                  <p id=""wtp"" style=""text-align:center; margin-top: 0px; margin-bottom: 0px; font-size: 40px"";>&ensp;</p>","-","viewing","0","29","8C,19A,24B","","","","","","","","","","","","","","","","","","",""
"","","","","","html-slider-response","100","378183","0.0-17.0-1.27","b39e2b17-9540-4aab-915e-a8984ab90ae6","2896","
                  <p style=""text-align: center;"">₪76
                                                <br>65%</p>
                  <p id=""wtp"" style=""text-align:center; margin-top: 0px; margin-bottom: 0px; font-size: 40px"";>מוכנים לשלם: <span id=""c_p_y""></span></p>","29","evaluation","57","29","8C,19A,24B","65","76","29","","","","","","","","","","","","","","","",""
"","","","","","html-keyboard-response","101","379038","0.0-17.0-2.27","b39e2b17-9540-4aab-915e-a8984ab90ae6","null","<p style=""text-align: center;"">+</p>","null","fixation","","","","","","","","","","","","","","","","","","","","","",""
"","","","","","html-slider-response","102","380048","0.0-17.0-0.28","b39e2b17-9540-4aab-915e-a8984ab90ae6","1000","
                  <p style=""text-align: center;"">₪58
                                                <br>40%</p>
                  <p id=""wtp"" style=""text-align:center; margin-top: 0px; margin-bottom: 0px; font-size: 40px"";>&ensp;</p>","-","viewing","0","20","10C,13A,19C,21B","","","","","","","","","","","","","","","","","","",""
"","","","","","html-slider-response","103","384023","0.0-17.0-1.28","b39e2b17-9540-4aab-915e-a8984ab90ae6","3973","
                  <p style=""text-align: center;"">₪58
                                                <br>40%</p>
                  <p id=""wtp"" style=""text-align:center; margin-top: 0px; margin-bottom: 0px; font-size: 40px"";>מוכנים לשלם: <span id=""c_p_y""></span></p>","11","evaluation","13","20","10C,13A,19C,21B","40","58","11","","","","","","","","","","","","","","","",""
"","","","","","html-keyboard-response","104","385356","0.0-17.0-2.28","b39e2b17-9540-4aab-915e-a8984ab90ae6","null","<p style=""text-align: center;"">+</p>","null","fixation","","","","","","","","","","","","","","","","","","","","","",""
"","","","","","html-slider-response","105","386359","0.0-17.0-0.29","b39e2b17-9540-4aab-915e-a8984ab90ae6","1000","
                  <p style=""text-align: center;"">₪43
                                                <br>60%</p>
                  <p id=""wtp"" style=""text-align:center; margin-top: 0px; margin-bottom: 0px; font-size: 40px"";>&ensp;</p>","-","viewing","0","17","2A,7A,9A,15B","","","","","","","","","","","","","","","","","","",""
"","","","","","html-slider-response","106","388695","0.0-17.0-1.29","b39e2b17-9540-4aab-915e-a8984ab90ae6","2335","
                  <p style=""text-align: center;"">₪43
                                                <br>60%</p>
                  <p id=""wtp"" style=""text-align:center; margin-top: 0px; margin-bottom: 0px; font-size: 40px"";>מוכנים לשלם: <span id=""c_p_y""></span></p>","11","evaluation","13","17","2A,7A,9A,15B","60","43","11","","","","","","","","","","","","","","","",""
"","","","","","html-keyboard-response","107","389330","0.0-17.0-2.29","b39e2b17-9540-4aab-915e-a8984ab90ae6","null","<p style=""text-align: center;"">+</p>","null","fixation","","","","","","","","","","","","","","","","","","","","","",""
"","","","","","html-slider-response","108","390341","0.0-17.0-0.30","b39e2b17-9540-4aab-915e-a8984ab90ae6","1000","
                  <p style=""text-align: center;"">₪18
                                                <br>50%</p>
                  <p id=""wtp"" style=""text-align:center; margin-top: 0px; margin-bottom: 0px; font-size: 40px"";>&ensp;</p>","-","viewing","0","10","2C,16C,22B,28A","","","","","","","","","","","","","","","","","","",""
"","","","","","html-slider-response","109","392918","0.0-17.0-1.30","b39e2b17-9540-4aab-915e-a8984ab90ae6","2577","
                  <p style=""text-align: center;"">₪18
                                                <br>50%</p>
                  <p id=""wtp"" style=""text-align:center; margin-top: 0px; margin-bottom: 0px; font-size: 40px"";>מוכנים לשלם: <span id=""c_p_y""></span></p>","4","evaluation","52","10","2C,16C,22B,28A","50","18","5","","","","","","","","","","","","","","","",""
"","","","","","html-keyboard-response","110","393465","0.0-17.0-2.30","b39e2b17-9540-4aab-915e-a8984ab90ae6","null","<p style=""text-align: center;"">+</p>","null","fixation","","","","","","","","","","","","","","","","","","","","","",""
"","","","","","html-keyboard-response","111","394470","0.0-18.0","b39e2b17-9540-4aab-915e-a8984ab90ae6","null","<p style=""text-align: center;"">+</p>","null","fixation","","","","","","","","","","","","","","","","","","","","","",""
"","","","","","html-keyboard-response","112","419286","0.0-19.0","b39e2b17-9540-4aab-915e-a8984ab90ae6","null","<p>הפסקה.
          <br>לחצו כדי להמשיך.</p>","1","scan_wait","","","","","","","","","","","","","","","","","","","","","",""
"","","","","","html-keyboard-response","113","420287","0.0-20.0","b39e2b17-9540-4aab-915e-a8984ab90ae6","null","<p style=""text-align: center;"">+</p>","null","fixation","","","","","","","","","","","","","","","","","","","","","",""
"","","","","","html-slider-response","114","421294","0.0-21.0-0.0","b39e2b17-9540-4aab-915e-a8984ab90ae6","1000","
                  <p style=""text-align: center;"">₪58
                                                <br>30%</p>
                  <p id=""wtp"" style=""text-align:center; margin-top: 0px; margin-bottom: 0px; font-size: 40px"";>&ensp;</p>","-","viewing","0","19","13C,30A","","","","","","","","","","","","","","","","","","",""
"","","","","","html-slider-response","115","422878","0.0-21.0-1.0","b39e2b17-9540-4aab-915e-a8984ab90ae6","1583","
                  <p style=""text-align: center;"">₪58
                                                <br>30%</p>
                  <p id=""wtp"" style=""text-align:center; margin-top: 0px; margin-bottom: 0px; font-size: 40px"";>מוכנים לשלם: <span id=""c_p_y""></span></p>","12","evaluation","32","19","13C,30A","30","58","12","","","","","","","","","","","","","","","",""
"","","","","","html-keyboard-response","116","424034","0.0-21.0-2.0","b39e2b17-9540-4aab-915e-a8984ab90ae6","null","<p style=""text-align: center;"">+</p>","null","fixation","","","","","","","","","","","","","","","","","","","","","",""
"","","","","","html-slider-response","117","425045","0.0-21.0-0.1","b39e2b17-9540-4aab-915e-a8984ab90ae6","1000","
                  <p style=""text-align: center;"">₪71
                                                <br>75%</p>
                  <p id=""wtp"" style=""text-align:center; margin-top: 0px; margin-bottom: 0px; font-size: 40px"";>&ensp;</p>","-","viewing","0","28","8B","","","","","","","","","","","","","","","","","","",""
"","","","","","html-slider-response","118","426998","0.0-21.0-1.1","b39e2b17-9540-4aab-915e-a8984ab90ae6","1952","
                  <p style=""text-align: center;"">₪71
                                                <br>75%</p>
                  <p id=""wtp"" style=""text-align:center; margin-top: 0px; margin-bottom: 0px; font-size: 40px"";>מוכנים לשלם: <span id=""c_p_y""></span></p>","31","evaluation","17","28","8B","75","71","31","","","","","","","","","","","","","","","",""
"","","","","","html-keyboard-response","119","427958","0.0-21.0-2.1","b39e2b17-9540-4aab-915e-a8984ab90ae6","null","<p style=""text-align: center;"">+</p>","null","fixation","","","","","","","","","","","","","","","","","","","","","",""
"","","","","","html-slider-response","120","428961","0.0-21.0-0.2","b39e2b17-9540-4aab-915e-a8984ab90ae6","1000","
                  <p style=""text-align: center;"">₪36
                                                <br>70%</p>
                  <p id=""wtp"" style=""text-align:center; margin-top: 0px; margin-bottom: 0px; font-size: 40px"";>&ensp;</p>","-","viewing","0","13","3A,5C,10B","","","","","","","","","","","","","","","","","","",""
"","","","","","html-slider-response","121","431703","0.0-21.0-1.2","b39e2b17-9540-4aab-915e-a8984ab90ae6","2740","
                  <p style=""text-align: center;"">₪36
                                                <br>70%</p>
                  <p id=""wtp"" style=""text-align:center; margin-top: 0px; margin-bottom: 0px; font-size: 40px"";>מוכנים לשלם: <span id=""c_p_y""></span></p>","10","evaluation","54","13","3A,5C,10B","70","36","10","","","","","","","","","","","","","","","",""
"","","","","","html-keyboard-response","122","432683","0.0-21.0-2.2","b39e2b17-9540-4aab-915e-a8984ab90ae6","null","<p style=""text-align: center;"">+</p>","null","fixation","","","","","","","","","","","","","","","","","","","","","",""
"","","","","","html-slider-response","123","433685","0.0-21.0-0.3","b39e2b17-9540-4aab-915e-a8984ab90ae6","1000","
                  <p style=""text-align: center;"">₪11
                                                <br>20%</p>
                  <p id=""wtp"" style=""text-align:center; margin-top: 0px; margin-bottom: 0px; font-size: 40px"";>&ensp;</p>","-","viewing","0","4","12C,17C,23C,28C","","","","","","","","","","","","","","","","","","",""
"","","","","","html-slider-response","124","436766","0.0-21.0-1.3","b39e2b17-9540-4aab-915e-a8984ab90ae6","3079","
                  <p style=""text-align: center;"">₪11
                                                <br>20%</p>
                  <p id=""wtp"" style=""text-align:center; margin-top: 0px; margin-bottom: 0px; font-size: 40px"";>מוכנים לשלם: <span id=""c_p_y""></span></p>","1","evaluation","1","4","12C,17C,23C,28C","20","11","1","","","","","","","","","","","","","","","",""
"","","","","","html-keyboard-response","125","438164","0.0-21.0-2.3","b39e2b17-9540-4aab-915e-a8984ab90ae6","null","<p style=""text-align: center;"">+</p>","null","fixation","","","","","","","","","","","","","","","","","","","","","",""
"","","","","","html-slider-response","126","439167","0.0-21.0-0.4","b39e2b17-9540-4aab-915e-a8984ab90ae6","1000","
                  <p style=""text-align: center;"">₪36
                                                <br>30%</p>
                  <p id=""wtp"" style=""text-align:center; margin-top: 0px; margin-bottom: 0px; font-size: 40px"";>&ensp;</p>","-","viewing","0","11","3C,20A,22A","","","","","","","","","","","","","","","","","","",""
"","","","","","html-slider-response","127","443168","0.0-21.0-1.4","b39e2b17-9540-4aab-915e-a8984ab90ae6","null","
                  <p style=""text-align: center;"">₪36
                                                <br>30%</p>
                  <p id=""wtp"" style=""text-align:center; margin-top: 0px; margin-bottom: 0px; font-size: 40px"";>מוכנים לשלם: <span id=""c_p_y""></span></p>","null","evaluation","74","11","3C,20A,22A","30","36","11","","","","","","","","","","","","","","","",""
"","","","","","html-keyboard-response","128","443721","0.0-21.0-2.4","b39e2b17-9540-4aab-915e-a8984ab90ae6","null","<p style=""text-align: center;"">+</p>","null","fixation","","","","","","","","","","","","","","","","","","","","","",""
"","","","","","html-slider-response","129","444723","0.0-21.0-0.5","b39e2b17-9540-4aab-915e-a8984ab90ae6","1000","
                  <p style=""text-align: center;"">₪16
                                                <br>20%</p>
                  <p id=""wtp"" style=""text-align:center; margin-top: 0px; margin-bottom: 0px; font-size: 40px"";>&ensp;</p>","-","viewing","0","8","14C,17A,20C,27A","","","","","","","","","","","","","","","","","","",""
"","","","","","html-slider-response","130","446294","0.0-21.0-1.5","b39e2b17-9540-4aab-915e-a8984ab90ae6","1570","
                  <p style=""text-align: center;"">₪16
                                                <br>20%</p>
                  <p id=""wtp"" style=""text-align:center; margin-top: 0px; margin-bottom: 0px; font-size: 40px"";>מוכנים לשלם: <span id=""c_p_y""></span></p>","1","evaluation","42","8","14C,17A,20C,27A","20","16","1","","","","","","","","","","","","","","","",""
"","","","","","html-keyboard-response","131","447522","0.0-21.0-2.5","b39e2b17-9540-4aab-915e-a8984ab90ae6","null","<p style=""text-align: center;"">+</p>","null","fixation","","","","","","","","","","","","","","","","","","","","","",""
"","","","","","html-slider-response","132","448523","0.0-21.0-0.6","b39e2b17-9540-4aab-915e-a8984ab90ae6","1000","
                  <p style=""text-align: center;"">₪11
                                                <br>45%</p>
                  <p id=""wtp"" style=""text-align:center; margin-top: 0px; margin-bottom: 0px; font-size: 40px"";>&ensp;</p>","-","viewing","0","6","14B,21C,25C","","","","","","","","","","","","","","","","","","",""
"","","","","","html-slider-response","133","451855","0.0-21.0-1.6","b39e2b17-9540-4aab-915e-a8984ab90ae6","3330","
                  <p style=""text-align: center;"">₪11
                                                <br>45%</p>
                  <p id=""wtp"" style=""text-align:center; margin-top: 0px; margin-bottom: 0px; font-size: 40px"";>מוכנים לשלם: <span id=""c_p_y""></span></p>","4","evaluation","57","6","14B,21C,25C","45","11","5","","","","","","","","","","","","","","","",""
"","","","","","html-keyboard-response","134","452928","0.0-21.0-2.6","b39e2b17-9540-4aab-915e-a8984ab90ae6","null","<p style=""text-align: center;"">+</p>","null","fixation","","","","","","","","","","","","","","","","","","","","","",""
"","","","","","html-slider-response","135","453931","0.0-21.0-0.7","b39e2b17-9540-4aab-915e-a8984ab90ae6","1000","
                  <p style=""text-align: center;"">₪43
                                                <br>60%</p>
                  <p id=""wtp"" style=""text-align:center; margin-top: 0px; margin-bottom: 0px; font-size: 40px"";>&ensp;</p>","-","viewing","0","17","2A,7A,9A,15B","","","","","","","","","","","","","","","","","","",""
"","","","","","html-slider-response","136","456831","0.0-21.0-1.7","b39e2b17-9540-4aab-915e-a8984ab90ae6","2898","
                  <p style=""text-align: center;"">₪43
                                                <br>60%</p>
                  <p id=""wtp"" style=""text-align:center; margin-top: 0px; margin-bottom: 0px; font-size: 40px"";>מוכנים לשלם: <span id=""c_p_y""></span></p>","10","evaluation","35","17","2A,7A,9A,15B","60","43","10","","","","","","","","","","","","","","","",""
"","","","","","html-keyboard-response","137","457477","0.0-21.0-2.7","b39e2b17-9540-4aab-915e-a8984ab90ae6","null","<p style=""text-align: center;"">+</p>","null","fixation","","","","","","","","","","","","","","","","","","","","","",""
"","","","","","html-slider-response","138","458479","0.0-21.0-0.8","b39e2b17-9540-4aab-915e-a8984ab90ae6","1000","
                  <p style=""text-align: center;"">₪61
                                                <br>45%</p>
                  <p id=""wtp"" style=""text-align:center; margin-top: 0px; margin-bottom: 0px; font-size: 40px"";>&ensp;</p>","-","viewing","0","22","10A,11A","","","","","","","","","","","","","","","","","","",""
"","","","","","html-slider-response","139","461023","0.0-21.0-1.8","b39e2b17-9540-4aab-915e-a8984ab90ae6","2543","
                  <p style=""text-align: center;"">₪61
                                                <br>45%</p>
                  <p id=""wtp"" style=""text-align:center; margin-top: 0px; margin-bottom: 0px; font-size: 40px"";>מוכנים לשלם: <span id=""c_p_y""></span></p>","12","evaluation","80","22","10A,11A","45","61","12","","","","","","","","","","","","","","","",""
"","","","","","html-keyboard-response","140","462469","0.0-21.0-2.8","b39e2b17-9540-4aab-915e-a8984ab90ae6","null","<p style=""text-align: center;"">+</p>","null","fixation","","","","","","","","","","","","","","","","","","","","","",""
"","","","","","html-slider-response","141","463474","0.0-21.0-0.9","b39e2b17-9540-4aab-915e-a8984ab90ae6","1000","
                  <p style=""text-align: center;"">₪58
                                                <br>40%</p>
                  <p id=""wtp"" style=""text-align:center; margin-top: 0px; margin-bottom: 0px; font-size: 40px"";>&ensp;</p>","-","viewing","0","20","10C,13A,19C,21B","","","","","","","","","","","","","","","","","","",""
"","","","","","html-slider-response","142","466799","0.0-21.0-1.9","b39e2b17-9540-4aab-915e-a8984ab90ae6","3323","
                  <p style=""text-align: center;"">₪58
                                                <br>40%</p>
                  <p id=""wtp"" style=""text-align:center; margin-top: 0px; margin-bottom: 0px; font-size: 40px"";>מוכנים לשלם: <span id=""c_p_y""></span></p>","9","evaluation","42","20","10C,13A,19C,21B","40","58","9","","","","","","","","","","","","","","","",""
"","","","","","html-keyboard-response","143","467847","0.0-21.0-2.9","b39e2b17-9540-4aab-915e-a8984ab90ae6","null","<p style=""text-align: center;"">+</p>","null","fixation","","","","","","","","","","","","","","","","","","","","","",""
"","","","","","html-slider-response","144","468853","0.0-21.0-0.10","b39e2b17-9540-4aab-915e-a8984ab90ae6","1000","
                  <p style=""text-align: center;"">₪4
                                                <br>25%</p>
                  <p id=""wtp"" style=""text-align:center; margin-top: 0px; margin-bottom: 0px; font-size: 40px"";>&ensp;</p>","-","viewing","0","1","6C,29B,30C","","","","","","","","","","","","","","","","","","",""
"","","","","","html-slider-response","145","470135","0.0-21.0-1.10","b39e2b17-9540-4aab-915e-a8984ab90ae6","1280","
                  <p style=""text-align: center;"">₪4
                                                <br>25%</p>
                  <p id=""wtp"" style=""text-align:center; margin-top: 0px; margin-bottom: 0px; font-size: 40px"";>מוכנים לשלם: <span id=""c_p_y""></span></p>","0","evaluation","22","1","6C,29B,30C","25","4","0","","","","","","","","","","","","","","","",""
"","","","","","html-keyboard-response","146","471401","0.0-21.0-2.10","b39e2b17-9540-4aab-915e-a8984ab90ae6","null","<p style=""text-align: center;"">+</p>","null","fixation","","","","","","","","","","","","","","","","","","","","","",""
"","","","","","html-slider-response","147","472404","0.0-21.0-0.11","b39e2b17-9540-4aab-915e-a8984ab90ae6","1000","
                  <p style=""text-align: center;"">₪64
                                                <br>25%</p>
                  <p id=""wtp"" style=""text-align:center; margin-top: 0px; margin-bottom: 0px; font-size: 40px"";>&ensp;</p>","-","viewing","0","24","6A,21A","","","","","","","","","","","","","","","","","","",""
"","","","","","html-slider-response","148","474623","0.0-21.0-1.11","b39e2b17-9540-4aab-915e-a8984ab90ae6","2218","
                  <p style=""text-align: center;"">₪64
                                                <br>25%</p>
                  <p id=""wtp"" style=""text-align:center; margin-top: 0px; margin-bottom: 0px; font-size: 40px"";>מוכנים לשלם: <span id=""c_p_y""></span></p>","10","evaluation","55","24","6A,21A","25","64","10","","","","","","","","","","","","","","","",""
"","","","","","html-keyboard-response","149","475911","0.0-21.0-2.11","b39e2b17-9540-4aab-915e-a8984ab90ae6","null","<p style=""text-align: center;"">+</p>","null","fixation","","","","","","","","","","","","","","","","","","","","","",""
"","","","","","html-slider-response","150","476920","0.0-21.0-0.12","b39e2b17-9540-4aab-915e-a8984ab90ae6","1000","
                  <p style=""text-align: center;"">₪71
                                                <br>45%</p>
                  <p id=""wtp"" style=""text-align:center; margin-top: 0px; margin-bottom: 0px; font-size: 40px"";>&ensp;</p>","-","viewing","0","26","2B,16A","","","","","","","","","","","","","","","","","","",""
"","","","","","html-slider-response","151","478727","0.0-21.0-1.12","b39e2b17-9540-4aab-915e-a8984ab90ae6","1806","
                  <p style=""text-align: center;"">₪71
                                                <br>45%</p>
                  <p id=""wtp"" style=""text-align:center; margin-top: 0px; margin-bottom: 0px; font-size: 40px"";>מוכנים לשלם: <span id=""c_p_y""></span></p>","28","evaluation","55","26","2B,16A","45","71","28","","","","","","","","","","","","","","","",""
"","","","","","html-keyboard-response","152","479492","0.0-21.0-2.12","b39e2b17-9540-4aab-915e-a8984ab90ae6","null","<p style=""text-align: center;"">+</p>","null","fixation","","","","","","","","","","","","","","","","","","","","","",""
"","","","","","html-slider-response","153","480493","0.0-21.0-0.13","b39e2b17-9540-4aab-915e-a8984ab90ae6","1000","
                  <p style=""text-align: center;"">₪11
                                                <br>25%</p>
                  <p id=""wtp"" style=""text-align:center; margin-top: 0px; margin-bottom: 0px; font-size: 40px"";>&ensp;</p>","-","viewing","0","5","12A,27B,28B,30B","","","","","","","","","","","","","","","","","","",""
"","","","","","html-slider-response","154","483487","0.0-21.0-1.13","b39e2b17-9540-4aab-915e-a8984ab90ae6","2993","
                  <p style=""text-align: center;"">₪11
                                                <br>25%</p>
                  <p id=""wtp"" style=""text-align:center; margin-top: 0px; margin-bottom: 0px; font-size: 40px"";>מוכנים לשלם: <span id=""c_p_y""></span></p>","2","evaluation","42","5","12A,27B,28B,30B","25","11","2","","","","","","","","","","","","","","","",""
"","","","","","html-keyboard-response","155","484917","0.0-21.0-2.13","b39e2b17-9540-4aab-915e-a8984ab90ae6","null","<p style=""text-align: center;"">+</p>","null","fixation","","","","","","","","","","","","","","","","","","","","","",""
"","","","","","html-slider-response","156","485927","0.0-21.0-0.14","b39e2b17-9540-4aab-915e-a8984ab90ae6","1000","
                  <p style=""text-align: center;"">₪39
                                                <br>60%</p>
                  <p id=""wtp"" style=""text-align:center; margin-top: 0px; margin-bottom: 0px; font-size: 40px"";>&ensp;</p>","-","viewing","0","15","9C,25B","","","","","","","","","","","","","","","","","","",""
"","","","","","html-slider-response","157","488991","0.0-21.0-1.14","b39e2b17-9540-4aab-915e-a8984ab90ae6","3063","
                  <p style=""text-align: center;"">₪39
                                                <br>60%</p>
                  <p id=""wtp"" style=""text-align:center; margin-top: 0px; margin-bottom: 0px; font-size: 40px"";>מוכנים לשלם: <span id=""c_p_y""></span></p>","7","evaluation","1","15","9C,25B","60","39","8","","","","","","","","","","","","","","","",""
"","","","","","html-keyboard-response","158","490265","0.0-21.0-2.14","b39e2b17-9540-4aab-915e-a8984ab90ae6","null","<p style=""text-align: center;"">+</p>","null","fixation","","","","","","","","","","","","","","","","","","","","","",""
"","","","","","html-slider-response","159","491269","0.0-21.0-0.15","b39e2b17-9540-4aab-915e-a8984ab90ae6","1000","
                  <p style=""text-align: center;"">₪18
                                                <br>25%</p>
                  <p id=""wtp"" style=""text-align:center; margin-top: 0px; margin-bottom: 0px; font-size: 40px"";>&ensp;</p>","-","viewing","0","9","14A,23A","","","","","","","","","","","","","","","","","","",""
"","","","","","html-slider-response","160","493255","0.0-21.0-1.15","b39e2b17-9540-4aab-915e-a8984ab90ae6","1984","
                  <p style=""text-align: center;"">₪18
                                                <br>25%</p>
                  <p id=""wtp"" style=""text-align:center; margin-top: 0px; margin-bottom: 0px; font-size: 40px"";>מוכנים לשלם: <span id=""c_p_y""></span></p>","2","evaluation","64","9","14A,23A","25","18","2","","","","","","","","","","","","","","","",""
"","","","","","html-keyboard-response","161","494047","0.0-21.0-2.15","b39e2b17-9540-4aab-915e-a8984ab90ae6","null","<p style=""text-align: center;"">+</p>","null","fixation","","","","","","","","","","","","","","","","","","","","","",""
"","","","","","html-slider-response","162","495049","0.0-21.0-0.16","b39e2b17-9540-4aab-915e-a8984ab90ae6","1000","
                  <p style=""text-align: center;"">₪36
                                                <br>75%</p>
                  <p id=""wtp"" style=""text-align:center; margin-top: 0px; margin-bottom: 0px; font-size: 40px"";>&ensp;</p>","-","viewing","0","14","4B,5A,13B,16B","","","","","","","","","","","","","","","","","","",""
"","","","","","html-slider-response","163","497615","0.0-21.0-1.16","b39e2b17-9540-4aab-915e-a8984ab90ae6","2566","
                  <p style=""text-align: center;"">₪36
                                                <br>75%</p>
                  <p id=""wtp"" style=""text-align:center; margin-top: 0px; margin-bottom: 0px; font-size: 40px"";>מוכנים לשלם: <span id=""c_p_y""></span></p>","9","evaluation","11","14","4B,5A,13B,16B","75","36","9","","","","","","","","","","","","","","","",""
"","","","","","html-keyboard-response","164","498219","0.0-21.0-2.16","b39e2b17-9540-4aab-915e-a8984ab90ae6","null","<p style=""text-align: center;"">+</p>","null","fixation","","","","","","","","","","","","","","","","","","","","","",""
"","","","","","html-slider-response","165","499232","0.0-21.0-0.17","b39e2b17-9540-4aab-915e-a8984ab90ae6","1000","
                  <p style=""text-align: center;"">₪58
                                                <br>45%</p>
                  <p id=""wtp"" style=""text-align:center; margin-top: 0px; margin-bottom: 0px; font-size: 40px"";>&ensp;</p>","-","viewing","0","21","11C,18C,25A","","","","","","","","","","","","","","","","","","",""
"","","","","","html-slider-response","166","502735","0.0-21.0-1.17","b39e2b17-9540-4aab-915e-a8984ab90ae6","3502","
                  <p style=""text-align: center;"">₪58
                                                <br>45%</p>
                  <p id=""wtp"" style=""text-align:center; margin-top: 0px; margin-bottom: 0px; font-size: 40px"";>מוכנים לשלם: <span id=""c_p_y""></span></p>","13","evaluation","17","21","11C,18C,25A","45","58","13","","","","","","","","","","","","","","","",""
"","","","","","html-keyboard-response","167","503836","0.0-21.0-2.17","b39e2b17-9540-4aab-915e-a8984ab90ae6","null","<p style=""text-align: center;"">+</p>","null","fixation","","","","","","","","","","","","","","","","","","","","","",""
"","","","","","html-slider-response","168","504852","0.0-21.0-0.18","b39e2b17-9540-4aab-915e-a8984ab90ae6","1000","
                  <p style=""text-align: center;"">₪71
                                                <br>55%</p>
                  <p id=""wtp"" style=""text-align:center; margin-top: 0px; margin-bottom: 0px; font-size: 40px"";>&ensp;</p>","-","viewing","0","27","5B,18A","","","","","","","","","","","","","","","","","","",""
"","","","","","html-slider-response","169","507319","0.0-21.0-1.18","b39e2b17-9540-4aab-915e-a8984ab90ae6","2466","
                  <p style=""text-align: center;"">₪71
                                                <br>55%</p>
                  <p id=""wtp"" style=""text-align:center; margin-top: 0px; margin-bottom: 0px; font-size: 40px"";>מוכנים לשלם: <span id=""c_p_y""></span></p>","31","evaluation","14","27","5B,18A","55","71","31","","","","","","","","","","","","","","","",""
"","","","","","html-keyboard-response","170","508781","0.0-21.0-2.18","b39e2b17-9540-4aab-915e-a8984ab90ae6","null","<p style=""text-align: center;"">+</p>","null","fixation","","","","","","","","","","","","","","","","","","","","","",""
"","","","","","html-slider-response","171","509788","0.0-21.0-0.19","b39e2b17-9540-4aab-915e-a8984ab90ae6","1000","
                  <p style=""text-align: center;"">₪43
                                                <br>75%</p>
                  <p id=""wtp"" style=""text-align:center; margin-top: 0px; margin-bottom: 0px; font-size: 40px"";>&ensp;</p>","-","viewing","0","18","11B,19B,24A,26A","","","","","","","","","","","","","","","","","","",""
"","","","","","html-slider-response","172","511991","0.0-21.0-1.19","b39e2b17-9540-4aab-915e-a8984ab90ae6","2202","
                  <p style=""text-align: center;"">₪43
                                                <br>75%</p>
                  <p id=""wtp"" style=""text-align:center; margin-top: 0px; margin-bottom: 0px; font-size: 40px"";>מוכנים לשלם: <span id=""c_p_y""></span></p>","17","evaluation","11","18","11B,19B,24A,26A","75","43","17","","","","","","","","","","","","","","","",""
"","","","","","html-keyboard-response","173","513003","0.0-21.0-2.19","b39e2b17-9540-4aab-915e-a8984ab90ae6","null","<p style=""text-align: center;"">+</p>","null","fixation","","","","","","","","","","","","","","","","","","","","","",""
"","","","","","html-slider-response","174","514006","0.0-21.0-0.20","b39e2b17-9540-4aab-915e-a8984ab90ae6","1000","
                  <p style=""text-align: center;"">₪36
                                                <br>60%</p>
                  <p id=""wtp"" style=""text-align:center; margin-top: 0px; margin-bottom: 0px; font-size: 40px"";>&ensp;</p>","-","viewing","0","12","1C,7C,15C","","","","","","","","","","","","","","","","","","",""
"","","","","","html-slider-response","175","515775","0.0-21.0-1.20","b39e2b17-9540-4aab-915e-a8984ab90ae6","1768","
                  <p style=""text-align: center;"">₪36
                                                <br>60%</p>
                  <p id=""wtp"" style=""text-align:center; margin-top: 0px; margin-bottom: 0px; font-size: 40px"";>מוכנים לשלם: <span id=""c_p_y""></span></p>","10","evaluation","74","12","1C,7C,15C","60","36","10","","","","","","","","","","","","","","","",""
"","","","","","html-keyboard-response","176","516560","0.0-21.0-2.20","b39e2b17-9540-4aab-915e-a8984ab90ae6","null","<p style=""text-align: center;"">+</p>","null","fixation","","","","","","","","","","","","","","","","","","","","","",""
"","","","","","html-slider-response","177","517563","0.0-21.0-0.21","b39e2b17-9540-4aab-915e-a8984ab90ae6","1000","
                  <p style=""text-align: center;"">₪4
                                                <br>75%</p>
                  <p id=""wtp"" style=""text-align:center; margin-top: 0px; margin-bottom: 0px; font-size: 40px"";>&ensp;</p>","-","viewing","0","3","12B,20B,23B,27C,29C","","","","","","","","","","","","","","","","","","",""
"","","","","","html-slider-response","178","519935","0.0-21.0-1.21","b39e2b17-9540-4aab-915e-a8984ab90ae6","2371","
                  <p style=""text-align: center;"">₪4
                                                <br>75%</p>
                  <p id=""wtp"" style=""text-align:center; margin-top: 0px; margin-bottom: 0px; font-size: 40px"";>מוכנים לשלם: <span id=""c_p_y""></span></p>","1","evaluation","12","3","12B,20B,23B,27C,29C","75","4","1","","","","","","","","","","","","","","","",""
"","","","","","html-keyboard-response","179","521363","0.0-21.0-2.21","b39e2b17-9540-4aab-915e-a8984ab90ae6","null","<p style=""text-align: center;"">+</p>","null","fixation","","","","","","","","","","","","","","","","","","","","","",""
"","","","","","html-slider-response","180","522375","0.0-21.0-0.22","b39e2b17-9540-4aab-915e-a8984ab90ae6","1000","
                  <p style=""text-align: center;"">₪4
                                                <br>50%</p>
                  <p id=""wtp"" style=""text-align:center; margin-top: 0px; margin-bottom: 0px; font-size: 40px"";>&ensp;</p>","-","viewing","0","2","4C,17B","","","","","","","","","","","","","","","","","","",""
"","","","","","html-slider-response","181","525839","0.0-21.0-1.22","b39e2b17-9540-4aab-915e-a8984ab90ae6","3463","
                  <p style=""text-align: center;"">₪4
                                                <br>50%</p>
                  <p id=""wtp"" style=""text-align:center; margin-top: 0px; margin-bottom: 0px; font-size: 40px"";>מוכנים לשלם: <span id=""c_p_y""></span></p>","1","evaluation","70","2","4C,17B","50","4","1","","","","","","","","","","","","","","","",""
"","","","","","html-keyboard-response","182","526767","0.0-21.0-2.22","b39e2b17-9540-4aab-915e-a8984ab90ae6","null","<p style=""text-align: center;"">+</p>","null","fixation","","","","","","","","","","","","","","","","","","","","","",""
"","","","","","html-slider-response","183","527773","0.0-21.0-0.23","b39e2b17-9540-4aab-915e-a8984ab90ae6","1000","
                  <p style=""text-align: center;"">₪79
                                                <br>65%</p>
                  <p id=""wtp"" style=""text-align:center; margin-top: 0px; margin-bottom: 0px; font-size: 40px"";>&ensp;</p>","-","viewing","0","31","8A","","","","","","","","","","","","","","","","","","",""
"","","","","","html-slider-response","184","530407","0.0-21.0-1.23","b39e2b17-9540-4aab-915e-a8984ab90ae6","2632","
                  <p style=""text-align: center;"">₪79
                                                <br>65%</p>
                  <p id=""wtp"" style=""text-align:center; margin-top: 0px; margin-bottom: 0px; font-size: 40px"";>מוכנים לשלם: <span id=""c_p_y""></span></p>","31","evaluation","11","31","8A","65","79","31","","","","","","","","","","","","","","","",""
"","","","","","html-keyboard-response","185","531449","0.0-21.0-2.23","b39e2b17-9540-4aab-915e-a8984ab90ae6","null","<p style=""text-align: center;"">+</p>","null","fixation","","","","","","","","","","","","","","","","","","","","","",""
"","","","","","html-slider-response","186","532460","0.0-21.0-0.24","b39e2b17-9540-4aab-915e-a8984ab90ae6","1000","
                  <p style=""text-align: center;"">₪61
                                                <br>55%</p>
                  <p id=""wtp"" style=""text-align:center; margin-top: 0px; margin-bottom: 0px; font-size: 40px"";>&ensp;</p>","-","viewing","0","23","7B,26B","","","","","","","","","","","","","","","","","","",""
"","","","","","html-slider-response","187","536135","0.0-21.0-1.24","b39e2b17-9540-4aab-915e-a8984ab90ae6","3673","
                  <p style=""text-align: center;"">₪61
                                                <br>55%</p>
                  <p id=""wtp"" style=""text-align:center; margin-top: 0px; margin-bottom: 0px; font-size: 40px"";>מוכנים לשלם: <span id=""c_p_y""></span></p>","20","evaluation","71","23","7B,26B","55","61","20","","","","","","","","","","","","","","","",""
"","","","","","html-keyboard-response","188","536808","0.0-21.0-2.24","b39e2b17-9540-4aab-915e-a8984ab90ae6","null","<p style=""text-align: center;"">+</p>","null","fixation","","","","","","","","","","","","","","","","","","","","","",""
"","","","","","html-slider-response","189","537812","0.0-21.0-0.25","b39e2b17-9540-4aab-915e-a8984ab90ae6","1000","
                  <p style=""text-align: center;"">₪64
                                                <br>50%</p>
                  <p id=""wtp"" style=""text-align:center; margin-top: 0px; margin-bottom: 0px; font-size: 40px"";>&ensp;</p>","-","viewing","0","25","1B,3B,4A","","","","","","","","","","","","","","","","","","",""
"","","","","","html-slider-response","190","539879","0.0-21.0-1.25","b39e2b17-9540-4aab-915e-a8984ab90ae6","2066","
                  <p style=""text-align: center;"">₪64
                                                <br>50%</p>
                  <p id=""wtp"" style=""text-align:center; margin-top: 0px; margin-bottom: 0px; font-size: 40px"";>מוכנים לשלם: <span id=""c_p_y""></span></p>","19","evaluation","57","25","1B,3B,4A","50","64","19","","","","","","","","","","","","","","","",""
"","","","","","html-keyboard-response","191","541245","0.0-21.0-2.25","b39e2b17-9540-4aab-915e-a8984ab90ae6","null","<p style=""text-align: center;"">+</p>","null","fixation","","","","","","","","","","","","","","","","","","","","","",""
"","","","","","html-slider-response","192","542259","0.0-21.0-0.26","b39e2b17-9540-4aab-915e-a8984ab90ae6","1000","
                  <p style=""text-align: center;"">₪76
                                                <br>65%</p>
                  <p id=""wtp"" style=""text-align:center; margin-top: 0px; margin-bottom: 0px; font-size: 40px"";>&ensp;</p>","-","viewing","0","29","8C,19A,24B","","","","","","","","","","","","","","","","","","",""
"","","","","","html-slider-response","193","544079","0.0-21.0-1.26","b39e2b17-9540-4aab-915e-a8984ab90ae6","1819","
                  <p style=""text-align: center;"">₪76
                                                <br>65%</p>
                  <p id=""wtp"" style=""text-align:center; margin-top: 0px; margin-bottom: 0px; font-size: 40px"";>מוכנים לשלם: <span id=""c_p_y""></span></p>","25","evaluation","62","29","8C,19A,24B","65","76","25","","","","","","","","","","","","","","","",""
"","","","","","html-keyboard-response","194","545416","0.0-21.0-2.26","b39e2b17-9540-4aab-915e-a8984ab90ae6","null","<p style=""text-align: center;"">+</p>","null","fixation","","","","","","","","","","","","","","","","","","","","","",""
"","","","","","html-slider-response","195","546427","0.0-21.0-0.27","b39e2b17-9540-4aab-915e-a8984ab90ae6","1000","
                  <p style=""text-align: center;"">₪39
                                                <br>65%</p>
                  <p id=""wtp"" style=""text-align:center; margin-top: 0px; margin-bottom: 0px; font-size: 40px"";>&ensp;</p>","-","viewing","0","16","1A,15A,26C","","","","","","","","","","","","","","","","","","",""
"","","","","","html-slider-response","196","548495","0.0-21.0-1.27","b39e2b17-9540-4aab-915e-a8984ab90ae6","2067","
                  <p style=""text-align: center;"">₪39
                                                <br>65%</p>
                  <p id=""wtp"" style=""text-align:center; margin-top: 0px; margin-bottom: 0px; font-size: 40px"";>מוכנים לשלם: <span id=""c_p_y""></span></p>","10","evaluation","76","16","1A,15A,26C","65","39","10","","","","","","","","","","","","","","","",""
"","","","","","html-keyboard-response","197","549284","0.0-21.0-2.27","b39e2b17-9540-4aab-915e-a8984ab90ae6","null","<p style=""text-align: center;"">+</p>","null","fixation","","","","","","","","","","","","","","","","","","","","","",""
"","","","","","html-slider-response","198","550286","0.0-21.0-0.28","b39e2b17-9540-4aab-915e-a8984ab90ae6","1000","
                  <p style=""text-align: center;"">₪18
                                                <br>50%</p>
                  <p id=""wtp"" style=""text-align:center; margin-top: 0px; margin-bottom: 0px; font-size: 40px"";>&ensp;</p>","-","viewing","0","10","2C,16C,22B,28A","","","","","","","","","","","","","","","","","","",""
"","","","","","html-slider-response","199","553263","0.0-21.0-1.28","b39e2b17-9540-4aab-915e-a8984ab90ae6","2977","
                  <p style=""text-align: center;"">₪18
                                                <br>50%</p>
                  <p id=""wtp"" style=""text-align:center; margin-top: 0px; margin-bottom: 0px; font-size: 40px"";>מוכנים לשלם: <span id=""c_p_y""></span></p>","6","evaluation","36","10","2C,16C,22B,28A","50","18","6","","","","","","","","","","","","","","","",""
"","","","","","html-keyboard-response","200","554123","0.0-21.0-2.28","b39e2b17-9540-4aab-915e-a8984ab90ae6","null","<p style=""text-align: center;"">+</p>","null","fixation","","","","","","","","","","","","","","","","","","","","","",""
"","","","","","html-slider-response","201","555126","0.0-21.0-0.29","b39e2b17-9540-4aab-915e-a8984ab90ae6","1000","
                  <p style=""text-align: center;"">₪79
                                                <br>40%</p>
                  <p id=""wtp"" style=""text-align:center; margin-top: 0px; margin-bottom: 0px; font-size: 40px"";>&ensp;</p>","-","viewing","0","30","9B","","","","","","","","","","","","","","","","","","",""
"","","","","","html-slider-response","202","557671","0.0-21.0-1.29","b39e2b17-9540-4aab-915e-a8984ab90ae6","2544","
                  <p style=""text-align: center;"">₪79
                                                <br>40%</p>
                  <p id=""wtp"" style=""text-align:center; margin-top: 0px; margin-bottom: 0px; font-size: 40px"";>מוכנים לשלם: <span id=""c_p_y""></span></p>","18","evaluation","42","30","9B","40","79","18","","","","","","","","","","","","","","","",""
"","","","","","html-keyboard-response","203","558514","0.0-21.0-2.29","b39e2b17-9540-4aab-915e-a8984ab90ae6","null","<p style=""text-align: center;"">+</p>","null","fixation","","","","","","","","","","","","","","","","","","","","","",""
"","","","","","html-slider-response","204","559524","0.0-21.0-0.30","b39e2b17-9540-4aab-915e-a8984ab90ae6","1000","
                  <p style=""text-align: center;"">₪11
                                                <br>75%</p>
                  <p id=""wtp"" style=""text-align:center; margin-top: 0px; margin-bottom: 0px; font-size: 40px"";>&ensp;</p>","-","viewing","0","7","6B,18B,22C,24C,29A","","","","","","","","","","","","","","","","","","",""
"","","","","","html-slider-response","205","562119","0.0-21.0-1.30","b39e2b17-9540-4aab-915e-a8984ab90ae6","2592","
                  <p style=""text-align: center;"">₪11
                                                <br>75%</p>
                  <p id=""wtp"" style=""text-align:center; margin-top: 0px; margin-bottom: 0px; font-size: 40px"";>מוכנים לשלם: <span id=""c_p_y""></span></p>","3","evaluation","27","7","6B,18B,22C,24C,29A","75","11","3","","","","","","","","","","","","","","","",""
"","","","","","html-keyboard-response","206","562806","0.0-21.0-2.30","b39e2b17-9540-4aab-915e-a8984ab90ae6","null","<p style=""text-align: center;"">+</p>","null","fixation","","","","","","","","","","","","","","","","","","","","","",""
"","","","","","html-keyboard-response","207","563822","0.0-22.0","b39e2b17-9540-4aab-915e-a8984ab90ae6","null","<p style=""text-align: center;"">+</p>","null","fixation","","","","","","","","","","","","","","","","","","","","","",""
"","","","","","html-keyboard-response","208","565127","0.0-23.0","b39e2b17-9540-4aab-915e-a8984ab90ae6","null","<p>הפסקה.
          <br>לחצו כדי להמשיך.</p>","1","scan_wait","","","","","","","","","","","","","","","","","","","","","",""
"","","","","","html-keyboard-response","209","566131","0.0-24.0","b39e2b17-9540-4aab-915e-a8984ab90ae6","null","<p style=""text-align: center;"">+</p>","null","fixation","","","","","","","","","","","","","","","","","","","","","",""
"","","","","","html-slider-response","210","567147","0.0-25.0-0.0","b39e2b17-9540-4aab-915e-a8984ab90ae6","1000","
                  <p style=""text-align: center;"">₪64
                                                <br>50%</p>
                  <p id=""wtp"" style=""text-align:center; margin-top: 0px; margin-bottom: 0px; font-size: 40px"";>&ensp;</p>","-","viewing","0","25","1B,3B,4A","","","","","","","","","","","","","","","","","","",""
"","","","","","html-slider-response","211","569951","0.0-25.0-1.0","b39e2b17-9540-4aab-915e-a8984ab90ae6","2803","
                  <p style=""text-align: center;"">₪64
                                                <br>50%</p>
                  <p id=""wtp"" style=""text-align:center; margin-top: 0px; margin-bottom: 0px; font-size: 40px"";>מוכנים לשלם: <span id=""c_p_y""></span></p>","13","evaluation","48","25","1B,3B,4A","50","64","13","","","","","","","","","","","","","","","",""
"","","","","","html-keyboard-response","212","571079","0.0-25.0-2.0","b39e2b17-9540-4aab-915e-a8984ab90ae6","null","<p style=""text-align: center;"">+</p>","null","fixation","","","","","","","","","","","","","","","","","","","","","",""
"","","","","","html-slider-response","213","572089","0.0-25.0-0.1","b39e2b17-9540-4aab-915e-a8984ab90ae6","1000","
                  <p style=""text-align: center;"">₪61
                                                <br>45%</p>
                  <p id=""wtp"" style=""text-align:center; margin-top: 0px; margin-bottom: 0px; font-size: 40px"";>&ensp;</p>","-","viewing","0","22","10A,11A","","","","","","","","","","","","","","","","","","",""
"","","","","","html-slider-response","214","574727","0.0-25.0-1.1","b39e2b17-9540-4aab-915e-a8984ab90ae6","2636","
                  <p style=""text-align: center;"">₪61
                                                <br>45%</p>
                  <p id=""wtp"" style=""text-align:center; margin-top: 0px; margin-bottom: 0px; font-size: 40px"";>מוכנים לשלם: <span id=""c_p_y""></span></p>","15","evaluation","36","22","10A,11A","45","61","15","","","","","","","","","","","","","","","",""
"","","","","","html-keyboard-response","215","575775","0.0-25.0-2.1","b39e2b17-9540-4aab-915e-a8984ab90ae6","null","<p style=""text-align: center;"">+</p>","null","fixation","","","","","","","","","","","","","","","","","","","","","",""
"","","","","","html-slider-response","216","576778","0.0-25.0-0.2","b39e2b17-9540-4aab-915e-a8984ab90ae6","1000","
                  <p style=""text-align: center;"">₪18
                                                <br>25%</p>
                  <p id=""wtp"" style=""text-align:center; margin-top: 0px; margin-bottom: 0px; font-size: 40px"";>&ensp;</p>","-","viewing","0","9","14A,23A","","","","","","","","","","","","","","","","","","",""
"","","","","","html-slider-response","217","578871","0.0-25.0-1.2","b39e2b17-9540-4aab-915e-a8984ab90ae6","2093","
                  <p style=""text-align: center;"">₪18
                                                <br>25%</p>
                  <p id=""wtp"" style=""text-align:center; margin-top: 0px; margin-bottom: 0px; font-size: 40px"";>מוכנים לשלם: <span id=""c_p_y""></span></p>","2","evaluation","31","9","14A,23A","25","18","2","","","","","","","","","","","","","","","",""
"","","","","","html-keyboard-response","218","580191","0.0-25.0-2.2","b39e2b17-9540-4aab-915e-a8984ab90ae6","null","<p style=""text-align: center;"">+</p>","null","fixation","","","","","","","","","","","","","","","","","","","","","",""
"","","","","","html-slider-response","219","581203","0.0-25.0-0.3","b39e2b17-9540-4aab-915e-a8984ab90ae6","1000","
                  <p style=""text-align: center;"">₪4
                                                <br>75%</p>
                  <p id=""wtp"" style=""text-align:center; margin-top: 0px; margin-bottom: 0px; font-size: 40px"";>&ensp;</p>","-","viewing","0","3","12B,20B,23B,27C,29C","","","","","","","","","","","","","","","","","","",""
"","","","","","html-slider-response","220","582959","0.0-25.0-1.3","b39e2b17-9540-4aab-915e-a8984ab90ae6","1755","
                  <p style=""text-align: center;"">₪4
                                                <br>75%</p>
                  <p id=""wtp"" style=""text-align:center; margin-top: 0px; margin-bottom: 0px; font-size: 40px"";>מוכנים לשלם: <span id=""c_p_y""></span></p>","1","evaluation","72","3","12B,20B,23B,27C,29C","75","4","1","","","","","","","","","","","","","","","",""
"","","","","","html-keyboard-response","221","583592","0.0-25.0-2.3","b39e2b17-9540-4aab-915e-a8984ab90ae6","null","<p style=""text-align: center;"">+</p>","null","fixation","","","","","","","","","","","","","","","","","","","","","",""
"","","","","","html-slider-response","222","584595","0.0-25.0-0.4","b39e2b17-9540-4aab-915e-a8984ab90ae6","1000","
                  <p style=""text-align: center;"">₪76
                                                <br>65%</p>
                  <p id=""wtp"" style=""text-align:center; margin-top: 0px; margin-bottom: 0px; font-size: 40px"";>&ensp;</p>","-","viewing","0","29","8C,19A,24B","","","","","","","","","","","","","","","","","","",""
"","","","","","html-slider-response","223","586663","0.0-25.0-1.4","b39e2b17-9540-4aab-915e-a8984ab90ae6","2067","
                  <p style=""text-align: center;"">₪76
                                                <br>65%</p>
                  <p id=""wtp"" style=""text-align:center; margin-top: 0px; margin-bottom: 0px; font-size: 40px"";>מוכנים לשלם: <span id=""c_p_y""></span></p>","28","evaluation","70","29","8C,19A,24B","65","76","28","","","","","","","","","","","","","","","",""
"","","","","","html-keyboard-response","224","587736","0.0-25.0-2.4","b39e2b17-9540-4aab-915e-a8984ab90ae6","null","<p style=""text-align: center;"">+</p>","null","fixation","","","","","","","","","","","","","","","","","","","","","",""
"","","","","","html-slider-response","225","588739","0.0-25.0-0.5","b39e2b17-9540-4aab-915e-a8984ab90ae6","1000","
                  <p style=""text-align: center;"">₪79
                                                <br>40%</p>
                  <p id=""wtp"" style=""text-align:center; margin-top: 0px; margin-bottom: 0px; font-size: 40px"";>&ensp;</p>","-","viewing","0","30","9B","","","","","","","","","","","","","","","","","","",""
"","","","","","html-slider-response","226","591127","0.0-25.0-1.5","b39e2b17-9540-4aab-915e-a8984ab90ae6","2387","
                  <p style=""text-align: center;"">₪79
                                                <br>40%</p>
                  <p id=""wtp"" style=""text-align:center; margin-top: 0px; margin-bottom: 0px; font-size: 40px"";>מוכנים לשלם: <span id=""c_p_y""></span></p>","21","evaluation","23","30","9B","40","79","21","","","","","","","","","","","","","","","",""
"","","","","","html-keyboard-response","227","591646","0.0-25.0-2.5","b39e2b17-9540-4aab-915e-a8984ab90ae6","null","<p style=""text-align: center;"">+</p>","null","fixation","","","","","","","","","","","","","","","","","","","","","",""
"","","","","","html-slider-response","228","592648","0.0-25.0-0.6","b39e2b17-9540-4aab-915e-a8984ab90ae6","1000","
                  <p style=""text-align: center;"">₪36
                                                <br>60%</p>
                  <p id=""wtp"" style=""text-align:center; margin-top: 0px; margin-bottom: 0px; font-size: 40px"";>&ensp;</p>","-","viewing","0","12","1C,7C,15C","","","","","","","","","","","","","","","","","","",""
"","","","","","html-slider-response","229","595575","0.0-25.0-1.6","b39e2b17-9540-4aab-915e-a8984ab90ae6","2925","
                  <p style=""text-align: center;"">₪36
                                                <br>60%</p>
                  <p id=""wtp"" style=""text-align:center; margin-top: 0px; margin-bottom: 0px; font-size: 40px"";>מוכנים לשלם: <span id=""c_p_y""></span></p>","15","evaluation","59","12","1C,7C,15C","60","36","15","","","","","","","","","","","","","","","",""
"","","","","","html-keyboard-response","230","596517","0.0-25.0-2.6","b39e2b17-9540-4aab-915e-a8984ab90ae6","null","<p style=""text-align: center;"">+</p>","null","fixation","","","","","","","","","","","","","","","","","","","","","",""
"","","","","","html-slider-response","231","597522","0.0-25.0-0.7","b39e2b17-9540-4aab-915e-a8984ab90ae6","1000","
                  <p style=""text-align: center;"">₪71
                                                <br>75%</p>
                  <p id=""wtp"" style=""text-align:center; margin-top: 0px; margin-bottom: 0px; font-size: 40px"";>&ensp;</p>","-","viewing","0","28","8B","","","","","","","","","","","","","","","","","","",""
"","","","","","html-slider-response","232","599880","0.0-25.0-1.7","b39e2b17-9540-4aab-915e-a8984ab90ae6","2354","
                  <p style=""text-align: center;"">₪71
                                                <br>75%</p>
                  <p id=""wtp"" style=""text-align:center; margin-top: 0px; margin-bottom: 0px; font-size: 40px"";>מוכנים לשלם: <span id=""c_p_y""></span></p>","27","evaluation","44","28","8B","75","71","27","","","","","","","","","","","","","","","",""
"","","","","","html-keyboard-response","233","601360","0.0-25.0-2.7","b39e2b17-9540-4aab-915e-a8984ab90ae6","null","<p style=""text-align: center;"">+</p>","null","fixation","","","","","","","","","","","","","","","","","","","","","",""
"","","","","","html-slider-response","234","602365","0.0-25.0-0.8","b39e2b17-9540-4aab-915e-a8984ab90ae6","1000","
                  <p style=""text-align: center;"">₪71
                                                <br>55%</p>
                  <p id=""wtp"" style=""text-align:center; margin-top: 0px; margin-bottom: 0px; font-size: 40px"";>&ensp;</p>","-","viewing","0","27","5B,18A","","","","","","","","","","","","","","","","","","",""
"","","","","","html-slider-response","235","604353","0.0-25.0-1.8","b39e2b17-9540-4aab-915e-a8984ab90ae6","1987","
                  <p style=""text-align: center;"">₪71
                                                <br>55%</p>
                  <p id=""wtp"" style=""text-align:center; margin-top: 0px; margin-bottom: 0px; font-size: 40px"";>מוכנים לשלם: <span id=""c_p_y""></span></p>","22","evaluation","39","27","5B,18A","55","71","22","","","","","","","","","","","","","","","",""
"","","","","","html-keyboard-response","236","605482","0.0-25.0-2.8","b39e2b17-9540-4aab-915e-a8984ab90ae6","null","<p style=""text-align: center;"">+</p>","null","fixation","","","","","","","","","","","","","","","","","","","","","",""
"","","","","","html-slider-response","237","606493","0.0-25.0-0.9","b39e2b17-9540-4aab-915e-a8984ab90ae6","1000","
                  <p style=""text-align: center;"">₪18
                                                <br>50%</p>
                  <p id=""wtp"" style=""text-align:center; margin-top: 0px; margin-bottom: 0px; font-size: 40px"";>&ensp;</p>","-","viewing","0","10","2C,16C,22B,28A","","","","","","","","","","","","","","","","","","",""
"","","","","","html-slider-response","238","610369","0.0-25.0-1.9","b39e2b17-9540-4aab-915e-a8984ab90ae6","3875","
                  <p style=""text-align: center;"">₪18
                                                <br>50%</p>
                  <p id=""wtp"" style=""text-align:center; margin-top: 0px; margin-bottom: 0px; font-size: 40px"";>מוכנים לשלם: <span id=""c_p_y""></span></p>","3","evaluation","44","10","2C,16C,22B,28A","50","18","3","","","","","","","","","","","","","","","",""
"","","","","","html-keyboard-response","239","611277","0.0-25.0-2.9","b39e2b17-9540-4aab-915e-a8984ab90ae6","null","<p style=""text-align: center;"">+</p>","null","fixation","","","","","","","","","","","","","","","","","","","","","",""
"","","","","","html-slider-response","240","612279","0.0-25.0-0.10","b39e2b17-9540-4aab-915e-a8984ab90ae6","1000","
                  <p style=""text-align: center;"">₪36
                                                <br>70%</p>
                  <p id=""wtp"" style=""text-align:center; margin-top: 0px; margin-bottom: 0px; font-size: 40px"";>&ensp;</p>","-","viewing","0","13","3A,5C,10B","","","","","","","","","","","","","","","","","","",""
"","","","","","html-slider-response","241","614695","0.0-25.0-1.10","b39e2b17-9540-4aab-915e-a8984ab90ae6","2415","
                  <p style=""text-align: center;"">₪36
                                                <br>70%</p>
                  <p id=""wtp"" style=""text-align:center; margin-top: 0px; margin-bottom: 0px; font-size: 40px"";>מוכנים לשלם: <span id=""c_p_y""></span></p>","5","evaluation","72","13","3A,5C,10B","70","36","5","","","","","","","","","","","","","","","",""
"","","","","","html-keyboard-response","242","615994","0.0-25.0-2.10","b39e2b17-9540-4aab-915e-a8984ab90ae6","null","<p style=""text-align: center;"">+</p>","null","fixation","","","","","","","","","","","","","","","","","","","","","",""
"","","","","","html-slider-response","243","616996","0.0-25.0-0.11","b39e2b17-9540-4aab-915e-a8984ab90ae6","1000","
                  <p style=""text-align: center;"">₪11
                                                <br>20%</p>
                  <p id=""wtp"" style=""text-align:center; margin-top: 0px; margin-bottom: 0px; font-size: 40px"";>&ensp;</p>","-","viewing","0","4","12C,17C,23C,28C","","","","","","","","","","","","","","","","","","",""
"","","","","","html-slider-response","244","619239","0.0-25.0-1.11","b39e2b17-9540-4aab-915e-a8984ab90ae6","2242","
                  <p style=""text-align: center;"">₪11
                                                <br>20%</p>
                  <p id=""wtp"" style=""text-align:center; margin-top: 0px; margin-bottom: 0px; font-size: 40px"";>מוכנים לשלם: <span id=""c_p_y""></span></p>","1","evaluation","74","4","12C,17C,23C,28C","20","11","1","","","","","","","","","","","","","","","",""
"","","","","","html-keyboard-response","245","620667","0.0-25.0-2.11","b39e2b17-9540-4aab-915e-a8984ab90ae6","null","<p style=""text-align: center;"">+</p>","null","fixation","","","","","","","","","","","","","","","","","","","","","",""
"","","","","","html-slider-response","246","621670","0.0-25.0-0.12","b39e2b17-9540-4aab-915e-a8984ab90ae6","1000","
                  <p style=""text-align: center;"">₪16
                                                <br>20%</p>
                  <p id=""wtp"" style=""text-align:center; margin-top: 0px; margin-bottom: 0px; font-size: 40px"";>&ensp;</p>","-","viewing","0","8","14C,17A,20C,27A","","","","","","","","","","","","","","","","","","",""
"","","","","","html-slider-response","247","623719","0.0-25.0-1.12","b39e2b17-9540-4aab-915e-a8984ab90ae6","2048","
                  <p style=""text-align: center;"">₪16
                                                <br>20%</p>
                  <p id=""wtp"" style=""text-align:center; margin-top: 0px; margin-bottom: 0px; font-size: 40px"";>מוכנים לשלם: <span id=""c_p_y""></span></p>","1","evaluation","67","8","14C,17A,20C,27A","20","16","1","","","","","","","","","","","","","","","",""
"","","","","","html-keyboard-response","248","625212","0.0-25.0-2.12","b39e2b17-9540-4aab-915e-a8984ab90ae6","null","<p style=""text-align: center;"">+</p>","null","fixation","","","","","","","","","","","","","","","","","","","","","",""
"","","","","","html-slider-response","249","626218","0.0-25.0-0.13","b39e2b17-9540-4aab-915e-a8984ab90ae6","1000","
                  <p style=""text-align: center;"">₪58
                                                <br>30%</p>
                  <p id=""wtp"" style=""text-align:center; margin-top: 0px; margin-bottom: 0px; font-size: 40px"";>&ensp;</p>","-","viewing","0","19","13C,30A","","","","","","","","","","","","","","","","","","",""
"","","","","","html-slider-response","250","628831","0.0-25.0-1.13","b39e2b17-9540-4aab-915e-a8984ab90ae6","2611","
                  <p style=""text-align: center;"">₪58
                                                <br>30%</p>
                  <p id=""wtp"" style=""text-align:center; margin-top: 0px; margin-bottom: 0px; font-size: 40px"";>מוכנים לשלם: <span id=""c_p_y""></span></p>","4","evaluation","38","19","13C,30A","30","58","4","","","","","","","","","","","","","","","",""
