"success","timeout","failed_images","failed_audio","failed_video","trial_type","trial_index","time_elapsed","internal_node_id","subject_id","rt","stimulus","response","part","slider_start","ID","set_ID","prob","amount","last_location","actual_choice","actual_EV","binary_id","trinary_id","catch","A_key","D_key","choice_prob","choice_amount","chosen_part","potential_prize_prob","potential_prize_amount","won_prize","total_prize","prize_cost","remaining_budget","accuracy"
"true","false","[]","[]","[]","preload","0","58","0.0-0.0","93390002-8b00-447e-9b06-8371ce67e8be","","","","","","","","","","","","","","","","","","","","","","","","","","",""
"","","","","","html-keyboard-response","1","1129096","0.0-1.0","93390002-8b00-447e-9b06-8371ce67e8be","1129036","
          <h1>שלום וברוכים הבאים!</h1>
          <p>לפניכם ניסוי בקבלת החלטות עם שני חלקים.
          <br><br>לחצו על העכבר כדי להמשיך.</p>","0","example","","","","","","","","","","","","","","","","","","","","","","",""
"","","","","","html-keyboard-response","2","1195839","0.0-2.0","93390002-8b00-447e-9b06-8371ce67e8be","null","
        <h1>חלק 1</h1>
        <p>בקרוב יוצגו בפניכם הגרלות.
        <br>עליכם לבחור את המחיר המירבי שתהיו מוכנים לשלם כדי להשתתף בהגרלה שתוצג.
        <br>יש לכם תקציב של ₪80 לכל הגרלה. 
        <br>נסו להעריך כל הגרלה בנפרד ולחשוב כמה היא שווה עבורכם, ₪80 זמינים לכל הגרלה בנפרד.
        <br><br>לחצו על העכבר כדי להמשיך.</p>","1","instructions","","","","","","","","","","","","","","","","","","","","","","",""
"","","","","","html-keyboard-response","3","1205598","0.0-3.0","93390002-8b00-447e-9b06-8371ce67e8be","null","
        <p>בסוף הניסוי, המחשב יבחר את אחת ההגרלות ויקבע מחיר לכרטיס עבורה. 
        <br>במידה והמחיר שבחרתם נמוך מהמחיר שנבחר על ידי המחשב, לא תשתתפו בהגרלה ותשארו עם מלוא התקציב.
        <br>במידה והמחיר שבחרתם גבוה מהמחיר שנבחר על ידי המחשב, תשלמו את המחיר שנקבע ותשתתפו בהגרלה.
        <br><br>לחצו על העכבר כדי להמשיך.</p>","1","instructions","","","","","","","","","","","","","","","","","","","","","","",""
"","","","","","html-slider-response","4","1227223","0.0-4.0","93390002-8b00-447e-9b06-8371ce67e8be","21512","
        <p style=""font-size: 42px;"">נתחיל עם דוגמא: 
        <br>ההגרלה מטה מציעה 65% סיכוי לזכות ב-₪40 
        <br>&emsp;&emsp;&emsp;&emsp;&emsp;&emsp;&emsp;&emsp;&ensp;35% סיכוי לזכות ב-₪0.
        <br><br>מה המחיר המירבי שתהיו מוכנים לשלם על כרטיס להגרלה זו בין 0 ל-₪80?
        <br>הזיזו את העכבר על פני המלבן ולחצו כדי לבצע בחירה.</p>
        
        <p style=""text-align: center;"">₪40<br>65%</p>

        <p id=""wtp"" style=""text-align:center; margin-top: 0px; margin-bottom: 0px; font-size: 40px"";>מוכנים לשלם: <span id=""c_p_y""></span></p>","30","example","76","","","","","","","","","","","","","","","","","","","","","",""
"","","","","","html-keyboard-response","5","1236110","0.0-5.0","93390002-8b00-447e-9b06-8371ce67e8be","null","<p>יפה מאוד!
                <br> בחרתם שתהיו מוכנים לשלם ₪30 כדי להשתתף בהגרלה:
                <br><p style=""text-align: center;"">₪40<br>65%</p>
                <p>נשמע נכון?
                <br>נניח שהגרלה זו נבחרה בסוף הניסוי.
                <br>כעת המחשב יקבע מחיר עבורה באקראי.
                <br>לחצו על העכבר להמשך.</p>","1","example","","","","","","","","","","","","","","","","","","","","","","",""
"","","","","","html-keyboard-response","6","1247198","0.0-6.0","93390002-8b00-447e-9b06-8371ce67e8be","null","<p>המחשב קבע מחיר: ₪66
                <br>ואתם בחרתם לשלם לכל היותר: ₪30
                <br><br>מכיוון שהמחיר שבחרתם נמוך מהמחיר שנקבע, לא תתשתתפו בהגרלה.
                <br>במקרה כזה, בסוף הניסוי תקבלו את כל התקציב ההתחלתי של ₪80.
                <br><br>לחצו על העכבר להמשך.</p>","1","example","","","","","","","","","","","","","","","","","","","","","","",""
"","","","","","html-slider-response","7","1281222","0.0-7.0","93390002-8b00-447e-9b06-8371ce67e8be","33767","<p style=""font-size: 42px;"">הנה עוד דוגמא:
                <br>ההגרלה מטה מציעה 35% סיכוי לזכות ב-₪18 
                <br>&emsp;&emsp;&emsp;&emsp;&emsp;&emsp;&emsp;&emsp;&ensp;65% סיכוי לזכות ב-₪0.</p>
        
                <p style=""text-align: center;"">₪18<br>35%</p>
                <p id=""wtp"" style=""text-align:center; margin-top: 0px; margin-bottom: 0px; font-size: 40px"";>מוכנים לשלם: <span id=""c_p_y""></span></p>","40","example","28","","","","","","","","","","","","","","","","","","","","","",""
"","","","","","html-keyboard-response","8","1286606","0.0-8.0","93390002-8b00-447e-9b06-8371ce67e8be","null","<p>הייתם מוכנים לשלם  ₪40 כדי להשתתף בהגרלה:
                <p style=""text-align: center;"">₪18<br>35%</p>
                <p>כעת נניח שהמחשב בחר את ההגרלה הזו בסוף הניסוי, וקבע עבורה מחיר.
                <br><br>לחצו על העכבר כדי להמשיך.</p>","1","instructions","","","","","","","","","","","","","","","","","","","","","","",""
"","","","","","html-keyboard-response","9","1315135","0.0-9.0","93390002-8b00-447e-9b06-8371ce67e8be","null","<p>המחשב קבע מחיר להגרלה: ₪32<br>ואתם בחרתם לשלם לכל היותר: ₪40
                <br><br>כעת המחיר שנקבע נמוך מזה שבחרתם, אז תשלמו את המחיר שקבע המחשב (₪32) ותשתתפו בהגרלה.
                <br>במקרה כזה, תסיימו את הניסוי עם תקציב של ₪48 ועם סיכוי לזכות ב-₪18 נוספים מההגרלה.
                <br>כלומר, תוכלו לקבל ₪48 אם לא תזכו בהגרלה, או ₪66 אם תזכו בהגרלה.
                <br><br>לחצו על העכבר להמשך.</p>","1","example","","","","","","","","","","","","","","","","","","","","","","",""
"","","","","","html-keyboard-response","10","1323726","0.0-10.0","93390002-8b00-447e-9b06-8371ce67e8be","null","<p>במהלך הניסוי, קודם תראו את ההגרלה ורק לאחר מכן תוכלו לבחור.
                <p>כמו כן, יהיו לכם מספר שניות מוגבל להגיב.
                <p>בואו ננסה זאת עם ההגרלה הקודמת.
                <br>לחצו על העכבר כדי להמשיך.</p>","1","instructions","","","","","","","","","","","","","","","","","","","","","","",""
"","","","","","html-slider-response","11","1324982","0.0-11.0","93390002-8b00-447e-9b06-8371ce67e8be","1000","
                    <p style=""text-align: center;"">₪18<br>35%</p>
                    <p id=""wtp"" style=""text-align:center; margin-top: 0px; margin-bottom: 0px; font-size: 40px"";>&ensp;</p>","41","instructions","0","","","","","","","","","","","","","","","","","","","","","",""
"","","","","","html-slider-response","12","1327406","0.0-12.0","93390002-8b00-447e-9b06-8371ce67e8be","2172","
                    <p style=""text-align: center;"">₪18<br>35%</p>
                    <p id=""wtp"" style=""text-align:center; margin-top: 0px; margin-bottom: 0px; font-size: 40px"";>מוכנים לשלם: <span id=""c_p_y""></span></p>","25","instructions","80","","","","","","","","","","","","","","","","","","","","","",""
"","","","","","html-keyboard-response","13","1329174","0.0-13.0","93390002-8b00-447e-9b06-8371ce67e8be","null","<p>יפה. הפעם בחרתם לשלם לכל היותר ₪25.
                <br><br>לחצו על העכבר כדי להמשיך.</p>","1","instructions","","","","","","","","","","","","","","","","","","","","","","",""
"","","","","","html-keyboard-response","14","1337694","0.0-15.0","93390002-8b00-447e-9b06-8371ce67e8be","null","<p>כעת נתחיל את הניסוי.
                <br><br>אתם תראו הגרלות ותתבקשו לבחור כמה תהיו מוכנים לשלם כדי להשתתף בהן.
                <br>יש לכם תקציב של ₪80 עבור כל הגרלה.
                <br>בסוף הניסוי הגרלה אחת תבחר באקראי ותשוחק.
                <br><br>לחצו על העכבר כדי להתחיל את הניסוי.</p>","1","instructions","","","","","","","","","","","","","","","","","","","","","","",""
"","","","","","html-keyboard-response","15","1338961","0.0-16.0","93390002-8b00-447e-9b06-8371ce67e8be","null","<p style=""text-align: center;"">+</p>","null","fixation","","","","","","","","","","","","","","","","","","","","","","",""
"","","","","","html-slider-response","16","1339979","0.0-17.0-0.0","93390002-8b00-447e-9b06-8371ce67e8be","1000","
                  <p style=""text-align: center;"">₪43
                                                <br>75%</p>
                  <p id=""wtp"" style=""text-align:center; margin-top: 0px; margin-bottom: 0px; font-size: 40px"";>&ensp;</p>","-","viewing","0","18","11B,19B,24A,26A","","","","","","","","","","","","","","","","","","","",""
"","","","","","html-slider-response","17","1341903","0.0-17.0-1.0","93390002-8b00-447e-9b06-8371ce67e8be","1922","
                  <p style=""text-align: center;"">₪43
                                                <br>75%</p>
                  <p id=""wtp"" style=""text-align:center; margin-top: 0px; margin-bottom: 0px; font-size: 40px"";>מוכנים לשלם: <span id=""c_p_y""></span></p>","29","evaluation","63","18","11B,19B,24A,26A","75","43","29","","","","","","","","","","","","","","","","",""
"","","","","","html-keyboard-response","18","1342853","0.0-17.0-2.0","93390002-8b00-447e-9b06-8371ce67e8be","null","<p style=""text-align: center;"">+</p>","null","fixation","","","","","","","","","","","","","","","","","","","","","","",""
"","","","","","html-slider-response","19","1343866","0.0-17.0-0.1","93390002-8b00-447e-9b06-8371ce67e8be","1000","
                  <p style=""text-align: center;"">₪36
                                                <br>30%</p>
                  <p id=""wtp"" style=""text-align:center; margin-top: 0px; margin-bottom: 0px; font-size: 40px"";>&ensp;</p>","-","viewing","0","11","3C,20A,22A","","","","","","","","","","","","","","","","","","","",""
"","","","","","html-slider-response","20","1345390","0.0-17.0-1.1","93390002-8b00-447e-9b06-8371ce67e8be","1523","
                  <p style=""text-align: center;"">₪36
                                                <br>30%</p>
                  <p id=""wtp"" style=""text-align:center; margin-top: 0px; margin-bottom: 0px; font-size: 40px"";>מוכנים לשלם: <span id=""c_p_y""></span></p>","10","evaluation","7","11","3C,20A,22A","30","36","10","","","","","","","","","","","","","","","","",""
"","","","","","html-keyboard-response","21","1346074","0.0-17.0-2.1","93390002-8b00-447e-9b06-8371ce67e8be","null","<p style=""text-align: center;"">+</p>","null","fixation","","","","","","","","","","","","","","","","","","","","","","",""
"","","","","","html-slider-response","22","1347086","0.0-17.0-0.2","93390002-8b00-447e-9b06-8371ce67e8be","1000","
                  <p style=""text-align: center;"">₪61
                                                <br>55%</p>
                  <p id=""wtp"" style=""text-align:center; margin-top: 0px; margin-bottom: 0px; font-size: 40px"";>&ensp;</p>","-","viewing","0","23","7B,26B","","","","","","","","","","","","","","","","","","","",""
"","","","","","html-slider-response","23","1349959","0.0-17.0-1.2","93390002-8b00-447e-9b06-8371ce67e8be","2871","
                  <p style=""text-align: center;"">₪61
                                                <br>55%</p>
                  <p id=""wtp"" style=""text-align:center; margin-top: 0px; margin-bottom: 0px; font-size: 40px"";>מוכנים לשלם: <span id=""c_p_y""></span></p>","31","evaluation","23","23","7B,26B","55","61","31","","","","","","","","","","","","","","","","",""
"","","","","","html-keyboard-response","24","1350645","0.0-17.0-2.2","93390002-8b00-447e-9b06-8371ce67e8be","null","<p style=""text-align: center;"">+</p>","null","fixation","","","","","","","","","","","","","","","","","","","","","","",""
"","","","","","html-slider-response","25","1351658","0.0-17.0-0.3","93390002-8b00-447e-9b06-8371ce67e8be","1000","
                  <p style=""text-align: center;"">₪16
                                                <br>20%</p>
                  <p id=""wtp"" style=""text-align:center; margin-top: 0px; margin-bottom: 0px; font-size: 40px"";>&ensp;</p>","-","viewing","0","8","14C,17A,20C,27A","","","","","","","","","","","","","","","","","","","",""
"","","","","","html-slider-response","26","1352894","0.0-17.0-1.3","93390002-8b00-447e-9b06-8371ce67e8be","1236","
                  <p style=""text-align: center;"">₪16
                                                <br>20%</p>
                  <p id=""wtp"" style=""text-align:center; margin-top: 0px; margin-bottom: 0px; font-size: 40px"";>מוכנים לשלם: <span id=""c_p_y""></span></p>","14","evaluation","68","8","14C,17A,20C,27A","20","16","14","","","","","","","","","","","","","","","","",""
"","","","","","html-keyboard-response","27","1354096","0.0-17.0-2.3","93390002-8b00-447e-9b06-8371ce67e8be","null","<p style=""text-align: center;"">+</p>","null","fixation","","","","","","","","","","","","","","","","","","","","","","",""
"","","","","","html-slider-response","28","1355110","0.0-17.0-0.4","93390002-8b00-447e-9b06-8371ce67e8be","1000","
                  <p style=""text-align: center;"">₪61
                                                <br>45%</p>
                  <p id=""wtp"" style=""text-align:center; margin-top: 0px; margin-bottom: 0px; font-size: 40px"";>&ensp;</p>","-","viewing","0","22","10A,11A","","","","","","","","","","","","","","","","","","","",""
"","","","","","html-slider-response","29","1357023","0.0-17.0-1.4","93390002-8b00-447e-9b06-8371ce67e8be","1911","
                  <p style=""text-align: center;"">₪61
                                                <br>45%</p>
                  <p id=""wtp"" style=""text-align:center; margin-top: 0px; margin-bottom: 0px; font-size: 40px"";>מוכנים לשלם: <span id=""c_p_y""></span></p>","32","evaluation","62","22","10A,11A","45","61","32","","","","","","","","","","","","","","","","",""
"","","","","","html-keyboard-response","30","1358295","0.0-17.0-2.4","93390002-8b00-447e-9b06-8371ce67e8be","null","<p style=""text-align: center;"">+</p>","null","fixation","","","","","","","","","","","","","","","","","","","","","","",""
"","","","","","html-slider-response","31","1359296","0.0-17.0-0.5","93390002-8b00-447e-9b06-8371ce67e8be","1000","
                  <p style=""text-align: center;"">₪71
                                                <br>45%</p>
                  <p id=""wtp"" style=""text-align:center; margin-top: 0px; margin-bottom: 0px; font-size: 40px"";>&ensp;</p>","-","viewing","0","26","2B,16A","","","","","","","","","","","","","","","","","","","",""
"","","","","","html-slider-response","32","1361446","0.0-17.0-1.5","93390002-8b00-447e-9b06-8371ce67e8be","2149","
                  <p style=""text-align: center;"">₪71
                                                <br>45%</p>
                  <p id=""wtp"" style=""text-align:center; margin-top: 0px; margin-bottom: 0px; font-size: 40px"";>מוכנים לשלם: <span id=""c_p_y""></span></p>","19","evaluation","77","26","2B,16A","45","71","19","","","","","","","","","","","","","","","","",""
"","","","","","html-keyboard-response","33","1362791","0.0-17.0-2.5","93390002-8b00-447e-9b06-8371ce67e8be","null","<p style=""text-align: center;"">+</p>","null","fixation","","","","","","","","","","","","","","","","","","","","","","",""
"","","","","","html-slider-response","34","1363803","0.0-17.0-0.6","93390002-8b00-447e-9b06-8371ce67e8be","1000","
                  <p style=""text-align: center;"">₪58
                                                <br>30%</p>
                  <p id=""wtp"" style=""text-align:center; margin-top: 0px; margin-bottom: 0px; font-size: 40px"";>&ensp;</p>","-","viewing","0","19","13C,30A","","","","","","","","","","","","","","","","","","","",""
"","","","","","html-slider-response","35","1365782","0.0-17.0-1.6","93390002-8b00-447e-9b06-8371ce67e8be","1978","
                  <p style=""text-align: center;"">₪58
                                                <br>30%</p>
                  <p id=""wtp"" style=""text-align:center; margin-top: 0px; margin-bottom: 0px; font-size: 40px"";>מוכנים לשלם: <span id=""c_p_y""></span></p>","33","evaluation","61","19","13C,30A","30","58","33","","","","","","","","","","","","","","","","",""
"","","","","","html-keyboard-response","36","1366429","0.0-17.0-2.6","93390002-8b00-447e-9b06-8371ce67e8be","null","<p style=""text-align: center;"">+</p>","null","fixation","","","","","","","","","","","","","","","","","","","","","","",""
"","","","","","html-slider-response","37","1367439","0.0-17.0-0.7","93390002-8b00-447e-9b06-8371ce67e8be","1000","
                  <p style=""text-align: center;"">₪11
                                                <br>45%</p>
                  <p id=""wtp"" style=""text-align:center; margin-top: 0px; margin-bottom: 0px; font-size: 40px"";>&ensp;</p>","-","viewing","0","6","14B,21C,25C","","","","","","","","","","","","","","","","","","","",""
"","","","","","html-slider-response","38","1370214","0.0-17.0-1.7","93390002-8b00-447e-9b06-8371ce67e8be","2774","
                  <p style=""text-align: center;"">₪11
                                                <br>45%</p>
                  <p id=""wtp"" style=""text-align:center; margin-top: 0px; margin-bottom: 0px; font-size: 40px"";>מוכנים לשלם: <span id=""c_p_y""></span></p>","13","evaluation","32","6","14B,21C,25C","45","11","13","","","","","","","","","","","","","","","","",""
"","","","","","html-keyboard-response","39","1371101","0.0-17.0-2.7","93390002-8b00-447e-9b06-8371ce67e8be","null","<p style=""text-align: center;"">+</p>","null","fixation","","","","","","","","","","","","","","","","","","","","","","",""
"","","","","","html-slider-response","40","1372111","0.0-17.0-0.8","93390002-8b00-447e-9b06-8371ce67e8be","1000","
                  <p style=""text-align: center;"">₪4
                                                <br>75%</p>
                  <p id=""wtp"" style=""text-align:center; margin-top: 0px; margin-bottom: 0px; font-size: 40px"";>&ensp;</p>","-","viewing","0","3","12B,20B,23B,27C,29C","","","","","","","","","","","","","","","","","","","",""
"","","","","","html-slider-response","41","1374974","0.0-17.0-1.8","93390002-8b00-447e-9b06-8371ce67e8be","2862","
                  <p style=""text-align: center;"">₪4
                                                <br>75%</p>
                  <p id=""wtp"" style=""text-align:center; margin-top: 0px; margin-bottom: 0px; font-size: 40px"";>מוכנים לשלם: <span id=""c_p_y""></span></p>","34","evaluation","76","3","12B,20B,23B,27C,29C","75","4","34","","","","","","","","","","","","","","","","",""
"","","","","","html-keyboard-response","42","1375653","0.0-17.0-2.8","93390002-8b00-447e-9b06-8371ce67e8be","null","<p style=""text-align: center;"">+</p>","null","fixation","","","","","","","","","","","","","","","","","","","","","","",""
"","","","","","html-slider-response","43","1376665","0.0-17.0-0.9","93390002-8b00-447e-9b06-8371ce67e8be","1000","
                  <p style=""text-align: center;"">₪36
                                                <br>75%</p>
                  <p id=""wtp"" style=""text-align:center; margin-top: 0px; margin-bottom: 0px; font-size: 40px"";>&ensp;</p>","-","viewing","0","14","4B,5A,13B,16B","","","","","","","","","","","","","","","","","","","",""
"","","","","","html-slider-response","44","1380118","0.0-17.0-1.9","93390002-8b00-447e-9b06-8371ce67e8be","3453","
                  <p style=""text-align: center;"">₪36
                                                <br>75%</p>
                  <p id=""wtp"" style=""text-align:center; margin-top: 0px; margin-bottom: 0px; font-size: 40px"";>מוכנים לשלם: <span id=""c_p_y""></span></p>","40","evaluation","79","14","4B,5A,13B,16B","75","36","40","","","","","","","","","","","","","","","","",""
"","","","","","html-keyboard-response","45","1381230","0.0-17.0-2.9","93390002-8b00-447e-9b06-8371ce67e8be","null","<p style=""text-align: center;"">+</p>","null","fixation","","","","","","","","","","","","","","","","","","","","","","",""
"","","","","","html-slider-response","46","1382238","0.0-17.0-0.10","93390002-8b00-447e-9b06-8371ce67e8be","1000","
                  <p style=""text-align: center;"">₪11
                                                <br>75%</p>
                  <p id=""wtp"" style=""text-align:center; margin-top: 0px; margin-bottom: 0px; font-size: 40px"";>&ensp;</p>","-","viewing","0","7","6B,18B,22C,24C,29A","","","","","","","","","","","","","","","","","","","",""
"","","","","","html-slider-response","47","1384310","0.0-17.0-1.10","93390002-8b00-447e-9b06-8371ce67e8be","2071","
                  <p style=""text-align: center;"">₪11
                                                <br>75%</p>
                  <p id=""wtp"" style=""text-align:center; margin-top: 0px; margin-bottom: 0px; font-size: 40px"";>מוכנים לשלם: <span id=""c_p_y""></span></p>","10","evaluation","26","7","6B,18B,22C,24C,29A","75","11","10","","","","","","","","","","","","","","","","",""
"","","","","","html-keyboard-response","48","1385168","0.0-17.0-2.10","93390002-8b00-447e-9b06-8371ce67e8be","null","<p style=""text-align: center;"">+</p>","null","fixation","","","","","","","","","","","","","","","","","","","","","","",""
"","","","","","html-slider-response","49","1386175","0.0-17.0-0.11","93390002-8b00-447e-9b06-8371ce67e8be","1000","
                  <p style=""text-align: center;"">₪36
                                                <br>60%</p>
                  <p id=""wtp"" style=""text-align:center; margin-top: 0px; margin-bottom: 0px; font-size: 40px"";>&ensp;</p>","-","viewing","0","12","1C,7C,15C","","","","","","","","","","","","","","","","","","","",""
"","","","","","html-slider-response","50","1388822","0.0-17.0-1.11","93390002-8b00-447e-9b06-8371ce67e8be","2646","
                  <p style=""text-align: center;"">₪36
                                                <br>60%</p>
                  <p id=""wtp"" style=""text-align:center; margin-top: 0px; margin-bottom: 0px; font-size: 40px"";>מוכנים לשלם: <span id=""c_p_y""></span></p>","22","evaluation","32","12","1C,7C,15C","60","36","22","","","","","","","","","","","","","","","","",""
"","","","","","html-keyboard-response","51","1389657","0.0-17.0-2.11","93390002-8b00-447e-9b06-8371ce67e8be","null","<p style=""text-align: center;"">+</p>","null","fixation","","","","","","","","","","","","","","","","","","","","","","",""
"","","","","","html-slider-response","52","1390663","0.0-17.0-0.12","93390002-8b00-447e-9b06-8371ce67e8be","1000","
                  <p style=""text-align: center;"">₪64
                                                <br>25%</p>
                  <p id=""wtp"" style=""text-align:center; margin-top: 0px; margin-bottom: 0px; font-size: 40px"";>&ensp;</p>","-","viewing","0","24","6A,21A","","","","","","","","","","","","","","","","","","","",""
"","","","","","html-slider-response","53","1391726","0.0-17.0-1.12","93390002-8b00-447e-9b06-8371ce67e8be","1063","
                  <p style=""text-align: center;"">₪64
                                                <br>25%</p>
                  <p id=""wtp"" style=""text-align:center; margin-top: 0px; margin-bottom: 0px; font-size: 40px"";>מוכנים לשלם: <span id=""c_p_y""></span></p>","4","evaluation","78","24","6A,21A","25","64","4","","","","","","","","","","","","","","","","",""
"","","","","","html-keyboard-response","54","1392590","0.0-17.0-2.12","93390002-8b00-447e-9b06-8371ce67e8be","null","<p style=""text-align: center;"">+</p>","null","fixation","","","","","","","","","","","","","","","","","","","","","","",""
"","","","","","html-slider-response","55","1393598","0.0-17.0-0.13","93390002-8b00-447e-9b06-8371ce67e8be","1000","
                  <p style=""text-align: center;"">₪64
                                                <br>50%</p>
                  <p id=""wtp"" style=""text-align:center; margin-top: 0px; margin-bottom: 0px; font-size: 40px"";>&ensp;</p>","-","viewing","0","25","1B,3B,4A","","","","","","","","","","","","","","","","","","","",""
"","","","","","html-slider-response","56","1395710","0.0-17.0-1.13","93390002-8b00-447e-9b06-8371ce67e8be","2111","
                  <p style=""text-align: center;"">₪64
                                                <br>50%</p>
                  <p id=""wtp"" style=""text-align:center; margin-top: 0px; margin-bottom: 0px; font-size: 40px"";>מוכנים לשלם: <span id=""c_p_y""></span></p>","19","evaluation","25","25","1B,3B,4A","50","64","19","","","","","","","","","","","","","","","","",""
"","","","","","html-keyboard-response","57","1396953","0.0-17.0-2.13","93390002-8b00-447e-9b06-8371ce67e8be","null","<p style=""text-align: center;"">+</p>","null","fixation","","","","","","","","","","","","","","","","","","","","","","",""
"","","","","","html-slider-response","58","1397970","0.0-17.0-0.14","93390002-8b00-447e-9b06-8371ce67e8be","1000","
                  <p style=""text-align: center;"">₪4
                                                <br>25%</p>
                  <p id=""wtp"" style=""text-align:center; margin-top: 0px; margin-bottom: 0px; font-size: 40px"";>&ensp;</p>","-","viewing","0","1","6C,29B,30C","","","","","","","","","","","","","","","","","","","",""
"","","","","","html-slider-response","59","1398854","0.0-17.0-1.14","93390002-8b00-447e-9b06-8371ce67e8be","883","
                  <p style=""text-align: center;"">₪4
                                                <br>25%</p>
                  <p id=""wtp"" style=""text-align:center; margin-top: 0px; margin-bottom: 0px; font-size: 40px"";>מוכנים לשלם: <span id=""c_p_y""></span></p>","10","evaluation","77","1","6C,29B,30C","25","4","10","","","","","","","","","","","","","","","","",""
"","","","","","html-keyboard-response","60","1399700","0.0-17.0-2.14","93390002-8b00-447e-9b06-8371ce67e8be","null","<p style=""text-align: center;"">+</p>","null","fixation","","","","","","","","","","","","","","","","","","","","","","",""
"","","","","","html-slider-response","61","1400705","0.0-17.0-0.15","93390002-8b00-447e-9b06-8371ce67e8be","1000","
                  <p style=""text-align: center;"">₪71
                                                <br>75%</p>
                  <p id=""wtp"" style=""text-align:center; margin-top: 0px; margin-bottom: 0px; font-size: 40px"";>&ensp;</p>","-","viewing","0","28","8B","","","","","","","","","","","","","","","","","","","",""
"","","","","","html-slider-response","62","1402038","0.0-17.0-1.15","93390002-8b00-447e-9b06-8371ce67e8be","1332","
                  <p style=""text-align: center;"">₪71
                                                <br>75%</p>
                  <p id=""wtp"" style=""text-align:center; margin-top: 0px; margin-bottom: 0px; font-size: 40px"";>מוכנים לשלם: <span id=""c_p_y""></span></p>","27","evaluation","36","28","8B","75","71","27","","","","","","","","","","","","","","","","",""
"","","","","","html-keyboard-response","63","1402661","0.0-17.0-2.15","93390002-8b00-447e-9b06-8371ce67e8be","null","<p style=""text-align: center;"">+</p>","null","fixation","","","","","","","","","","","","","","","","","","","","","","",""
"","","","","","html-slider-response","64","1403675","0.0-17.0-0.16","93390002-8b00-447e-9b06-8371ce67e8be","1000","
                  <p style=""text-align: center;"">₪39
                                                <br>65%</p>
                  <p id=""wtp"" style=""text-align:center; margin-top: 0px; margin-bottom: 0px; font-size: 40px"";>&ensp;</p>","-","viewing","0","16","1A,15A,26C","","","","","","","","","","","","","","","","","","","",""
"","","","","","html-slider-response","65","1405014","0.0-17.0-1.16","93390002-8b00-447e-9b06-8371ce67e8be","1337","
                  <p style=""text-align: center;"">₪39
                                                <br>65%</p>
                  <p id=""wtp"" style=""text-align:center; margin-top: 0px; margin-bottom: 0px; font-size: 40px"";>מוכנים לשלם: <span id=""c_p_y""></span></p>","21","evaluation","35","16","1A,15A,26C","65","39","21","","","","","","","","","","","","","","","","",""
"","","","","","html-keyboard-response","66","1406184","0.0-17.0-2.16","93390002-8b00-447e-9b06-8371ce67e8be","null","<p style=""text-align: center;"">+</p>","null","fixation","","","","","","","","","","","","","","","","","","","","","","",""
"","","","","","html-slider-response","67","1407196","0.0-17.0-0.17","93390002-8b00-447e-9b06-8371ce67e8be","1000","
                  <p style=""text-align: center;"">₪18
                                                <br>50%</p>
                  <p id=""wtp"" style=""text-align:center; margin-top: 0px; margin-bottom: 0px; font-size: 40px"";>&ensp;</p>","-","viewing","0","10","2C,16C,22B,28A","","","","","","","","","","","","","","","","","","","",""
"","","","","","html-slider-response","68","1408414","0.0-17.0-1.17","93390002-8b00-447e-9b06-8371ce67e8be","1217","
                  <p style=""text-align: center;"">₪18
                                                <br>50%</p>
                  <p id=""wtp"" style=""text-align:center; margin-top: 0px; margin-bottom: 0px; font-size: 40px"";>מוכנים לשלם: <span id=""c_p_y""></span></p>","15","evaluation","79","10","2C,16C,22B,28A","50","18","15","","","","","","","","","","","","","","","","",""
"","","","","","html-keyboard-response","69","1409587","0.0-17.0-2.17","93390002-8b00-447e-9b06-8371ce67e8be","null","<p style=""text-align: center;"">+</p>","null","fixation","","","","","","","","","","","","","","","","","","","","","","",""
"","","","","","html-slider-response","70","1410600","0.0-17.0-0.18","93390002-8b00-447e-9b06-8371ce67e8be","1000","
                  <p style=""text-align: center;"">₪18
                                                <br>25%</p>
                  <p id=""wtp"" style=""text-align:center; margin-top: 0px; margin-bottom: 0px; font-size: 40px"";>&ensp;</p>","-","viewing","0","9","14A,23A","","","","","","","","","","","","","","","","","","","",""
"","","","","","html-slider-response","71","1411511","0.0-17.0-1.18","93390002-8b00-447e-9b06-8371ce67e8be","909","
                  <p style=""text-align: center;"">₪18
                                                <br>25%</p>
                  <p id=""wtp"" style=""text-align:center; margin-top: 0px; margin-bottom: 0px; font-size: 40px"";>מוכנים לשלם: <span id=""c_p_y""></span></p>","9","evaluation","50","9","14A,23A","25","18","9","","","","","","","","","","","","","","","","",""
"","","","","","html-keyboard-response","72","1412830","0.0-17.0-2.18","93390002-8b00-447e-9b06-8371ce67e8be","null","<p style=""text-align: center;"">+</p>","null","fixation","","","","","","","","","","","","","","","","","","","","","","",""
"","","","","","html-slider-response","73","1413837","0.0-17.0-0.19","93390002-8b00-447e-9b06-8371ce67e8be","1000","
                  <p style=""text-align: center;"">₪58
                                                <br>45%</p>
                  <p id=""wtp"" style=""text-align:center; margin-top: 0px; margin-bottom: 0px; font-size: 40px"";>&ensp;</p>","-","viewing","0","21","11C,18C,25A","","","","","","","","","","","","","","","","","","","",""
"","","","","","html-slider-response","74","1415374","0.0-17.0-1.19","93390002-8b00-447e-9b06-8371ce67e8be","1536","
                  <p style=""text-align: center;"">₪58
                                                <br>45%</p>
                  <p id=""wtp"" style=""text-align:center; margin-top: 0px; margin-bottom: 0px; font-size: 40px"";>מוכנים לשלם: <span id=""c_p_y""></span></p>","10","evaluation","44","21","11C,18C,25A","45","58","11","","","","","","","","","","","","","","","","",""
"","","","","","html-keyboard-response","75","1416393","0.0-17.0-2.19","93390002-8b00-447e-9b06-8371ce67e8be","null","<p style=""text-align: center;"">+</p>","null","fixation","","","","","","","","","","","","","","","","","","","","","","",""
"","","","","","html-slider-response","76","1417405","0.0-17.0-0.20","93390002-8b00-447e-9b06-8371ce67e8be","1000","
                  <p style=""text-align: center;"">₪36
                                                <br>70%</p>
                  <p id=""wtp"" style=""text-align:center; margin-top: 0px; margin-bottom: 0px; font-size: 40px"";>&ensp;</p>","-","viewing","0","13","3A,5C,10B","","","","","","","","","","","","","","","","","","","",""
"","","","","","html-slider-response","77","1418534","0.0-17.0-1.20","93390002-8b00-447e-9b06-8371ce67e8be","1127","
                  <p style=""text-align: center;"">₪36
                                                <br>70%</p>
                  <p id=""wtp"" style=""text-align:center; margin-top: 0px; margin-bottom: 0px; font-size: 40px"";>מוכנים לשלם: <span id=""c_p_y""></span></p>","21","evaluation","52","13","3A,5C,10B","70","36","21","","","","","","","","","","","","","","","","",""
"","","","","","html-keyboard-response","78","1419120","0.0-17.0-2.20","93390002-8b00-447e-9b06-8371ce67e8be","null","<p style=""text-align: center;"">+</p>","null","fixation","","","","","","","","","","","","","","","","","","","","","","",""
"","","","","","html-slider-response","79","1420127","0.0-17.0-0.21","93390002-8b00-447e-9b06-8371ce67e8be","1000","
                  <p style=""text-align: center;"">₪71
                                                <br>55%</p>
                  <p id=""wtp"" style=""text-align:center; margin-top: 0px; margin-bottom: 0px; font-size: 40px"";>&ensp;</p>","-","viewing","0","27","5B,18A","","","","","","","","","","","","","","","","","","","",""
"","","","","","html-slider-response","80","1422710","0.0-17.0-1.21","93390002-8b00-447e-9b06-8371ce67e8be","2582","
                  <p style=""text-align: center;"">₪71
                                                <br>55%</p>
                  <p id=""wtp"" style=""text-align:center; margin-top: 0px; margin-bottom: 0px; font-size: 40px"";>מוכנים לשלם: <span id=""c_p_y""></span></p>","27","evaluation","10","27","5B,18A","55","71","27","","","","","","","","","","","","","","","","",""
"","","","","","html-keyboard-response","81","1423635","0.0-17.0-2.21","93390002-8b00-447e-9b06-8371ce67e8be","null","<p style=""text-align: center;"">+</p>","null","fixation","","","","","","","","","","","","","","","","","","","","","","",""
"","","","","","html-slider-response","82","1424646","0.0-17.0-0.22","93390002-8b00-447e-9b06-8371ce67e8be","1000","
                  <p style=""text-align: center;"">₪39
                                                <br>60%</p>
                  <p id=""wtp"" style=""text-align:center; margin-top: 0px; margin-bottom: 0px; font-size: 40px"";>&ensp;</p>","-","viewing","0","15","9C,25B","","","","","","","","","","","","","","","","","","","",""
"","","","","","html-slider-response","83","1425742","0.0-17.0-1.22","93390002-8b00-447e-9b06-8371ce67e8be","1095","
                  <p style=""text-align: center;"">₪39
                                                <br>60%</p>
                  <p id=""wtp"" style=""text-align:center; margin-top: 0px; margin-bottom: 0px; font-size: 40px"";>מוכנים לשלם: <span id=""c_p_y""></span></p>","30","evaluation","19","15","9C,25B","60","39","30","","","","","","","","","","","","","","","","",""
"","","","","","html-keyboard-response","84","1426780","0.0-17.0-2.22","93390002-8b00-447e-9b06-8371ce67e8be","null","<p style=""text-align: center;"">+</p>","null","fixation","","","","","","","","","","","","","","","","","","","","","","",""
"","","","","","html-slider-response","85","1427784","0.0-17.0-0.23","93390002-8b00-447e-9b06-8371ce67e8be","1000","
                  <p style=""text-align: center;"">₪11
                                                <br>20%</p>
                  <p id=""wtp"" style=""text-align:center; margin-top: 0px; margin-bottom: 0px; font-size: 40px"";>&ensp;</p>","-","viewing","0","4","12C,17C,23C,28C","","","","","","","","","","","","","","","","","","","",""
"","","","","","html-slider-response","86","1429061","0.0-17.0-1.23","93390002-8b00-447e-9b06-8371ce67e8be","1277","
                  <p style=""text-align: center;"">₪11
                                                <br>20%</p>
                  <p id=""wtp"" style=""text-align:center; margin-top: 0px; margin-bottom: 0px; font-size: 40px"";>מוכנים לשלם: <span id=""c_p_y""></span></p>","3","evaluation","15","4","12C,17C,23C,28C","20","11","3","","","","","","","","","","","","","","","","",""
"","","","","","html-keyboard-response","87","1429787","0.0-17.0-2.23","93390002-8b00-447e-9b06-8371ce67e8be","null","<p style=""text-align: center;"">+</p>","null","fixation","","","","","","","","","","","","","","","","","","","","","","",""
"","","","","","html-slider-response","88","1430802","0.0-17.0-0.24","93390002-8b00-447e-9b06-8371ce67e8be","1000","
                  <p style=""text-align: center;"">₪58
                                                <br>40%</p>
                  <p id=""wtp"" style=""text-align:center; margin-top: 0px; margin-bottom: 0px; font-size: 40px"";>&ensp;</p>","-","viewing","0","20","10C,13A,19C,21B","","","","","","","","","","","","","","","","","","","",""
"","","","","","html-slider-response","89","1432854","0.0-17.0-1.24","93390002-8b00-447e-9b06-8371ce67e8be","2051","
                  <p style=""text-align: center;"">₪58
                                                <br>40%</p>
                  <p id=""wtp"" style=""text-align:center; margin-top: 0px; margin-bottom: 0px; font-size: 40px"";>מוכנים לשלם: <span id=""c_p_y""></span></p>","5","evaluation","62","20","10C,13A,19C,21B","40","58","6","","","","","","","","","","","","","","","","",""
"","","","","","html-keyboard-response","90","1434262","0.0-17.0-2.24","93390002-8b00-447e-9b06-8371ce67e8be","null","<p style=""text-align: center;"">+</p>","null","fixation","","","","","","","","","","","","","","","","","","","","","","",""
"","","","","","html-slider-response","91","1435263","0.0-17.0-0.25","93390002-8b00-447e-9b06-8371ce67e8be","1000","
                  <p style=""text-align: center;"">₪76
                                                <br>65%</p>
                  <p id=""wtp"" style=""text-align:center; margin-top: 0px; margin-bottom: 0px; font-size: 40px"";>&ensp;</p>","-","viewing","0","29","8C,19A,24B","","","","","","","","","","","","","","","","","","","",""
"","","","","","html-slider-response","92","1436774","0.0-17.0-1.25","93390002-8b00-447e-9b06-8371ce67e8be","1511","
                  <p style=""text-align: center;"">₪76
                                                <br>65%</p>
                  <p id=""wtp"" style=""text-align:center; margin-top: 0px; margin-bottom: 0px; font-size: 40px"";>מוכנים לשלם: <span id=""c_p_y""></span></p>","32","evaluation","63","29","8C,19A,24B","65","76","32","","","","","","","","","","","","","","","","",""
"","","","","","html-keyboard-response","93","1437916","0.0-17.0-2.25","93390002-8b00-447e-9b06-8371ce67e8be","null","<p style=""text-align: center;"">+</p>","null","fixation","","","","","","","","","","","","","","","","","","","","","","",""
"","","","","","html-slider-response","94","1438927","0.0-17.0-0.26","93390002-8b00-447e-9b06-8371ce67e8be","1000","
                  <p style=""text-align: center;"">₪43
                                                <br>60%</p>
                  <p id=""wtp"" style=""text-align:center; margin-top: 0px; margin-bottom: 0px; font-size: 40px"";>&ensp;</p>","-","viewing","0","17","2A,7A,9A,15B","","","","","","","","","","","","","","","","","","","",""
"","","","","","html-slider-response","95","1439765","0.0-17.0-1.26","93390002-8b00-447e-9b06-8371ce67e8be","838","
                  <p style=""text-align: center;"">₪43
                                                <br>60%</p>
                  <p id=""wtp"" style=""text-align:center; margin-top: 0px; margin-bottom: 0px; font-size: 40px"";>מוכנים לשלם: <span id=""c_p_y""></span></p>","28","evaluation","20","17","2A,7A,9A,15B","60","43","28","","","","","","","","","","","","","","","","",""
"","","","","","html-keyboard-response","96","1440638","0.0-17.0-2.26","93390002-8b00-447e-9b06-8371ce67e8be","null","<p style=""text-align: center;"">+</p>","null","fixation","","","","","","","","","","","","","","","","","","","","","","",""
"","","","","","html-slider-response","97","1441646","0.0-17.0-0.27","93390002-8b00-447e-9b06-8371ce67e8be","1000","
                  <p style=""text-align: center;"">₪4
                                                <br>50%</p>
                  <p id=""wtp"" style=""text-align:center; margin-top: 0px; margin-bottom: 0px; font-size: 40px"";>&ensp;</p>","-","viewing","0","2","4C,17B","","","","","","","","","","","","","","","","","","","",""
"","","","","","html-slider-response","98","1442654","0.0-17.0-1.27","93390002-8b00-447e-9b06-8371ce67e8be","1007","
                  <p style=""text-align: center;"">₪4
                                                <br>50%</p>
                  <p id=""wtp"" style=""text-align:center; margin-top: 0px; margin-bottom: 0px; font-size: 40px"";>מוכנים לשלם: <span id=""c_p_y""></span></p>","1","evaluation","7","2","4C,17B","50","4","1","","","","","","","","","","","","","","","","",""
"","","","","","html-keyboard-response","99","1443353","0.0-17.0-2.27","93390002-8b00-447e-9b06-8371ce67e8be","null","<p style=""text-align: center;"">+</p>","null","fixation","","","","","","","","","","","","","","","","","","","","","","",""
"","","","","","html-slider-response","100","1444365","0.0-17.0-0.28","93390002-8b00-447e-9b06-8371ce67e8be","1000","
                  <p style=""text-align: center;"">₪79
                                                <br>65%</p>
                  <p id=""wtp"" style=""text-align:center; margin-top: 0px; margin-bottom: 0px; font-size: 40px"";>&ensp;</p>","-","viewing","0","31","8A","","","","","","","","","","","","","","","","","","","",""
"","","","","","html-slider-response","101","1445637","0.0-17.0-1.28","93390002-8b00-447e-9b06-8371ce67e8be","1272","
                  <p style=""text-align: center;"">₪79
                                                <br>65%</p>
                  <p id=""wtp"" style=""text-align:center; margin-top: 0px; margin-bottom: 0px; font-size: 40px"";>מוכנים לשלם: <span id=""c_p_y""></span></p>","31","evaluation","75","31","8A","65","79","31","","","","","","","","","","","","","","","","",""
"","","","","","html-keyboard-response","102","1446835","0.0-17.0-2.28","93390002-8b00-447e-9b06-8371ce67e8be","null","<p style=""text-align: center;"">+</p>","null","fixation","","","","","","","","","","","","","","","","","","","","","","",""
"","","","","","html-slider-response","103","1447845","0.0-17.0-0.29","93390002-8b00-447e-9b06-8371ce67e8be","1000","
                  <p style=""text-align: center;"">₪11
                                                <br>25%</p>
                  <p id=""wtp"" style=""text-align:center; margin-top: 0px; margin-bottom: 0px; font-size: 40px"";>&ensp;</p>","-","viewing","0","5","12A,27B,28B,30B","","","","","","","","","","","","","","","","","","","",""
"","","","","","html-slider-response","104","1448941","0.0-17.0-1.29","93390002-8b00-447e-9b06-8371ce67e8be","1096","
                  <p style=""text-align: center;"">₪11
                                                <br>25%</p>
                  <p id=""wtp"" style=""text-align:center; margin-top: 0px; margin-bottom: 0px; font-size: 40px"";>מוכנים לשלם: <span id=""c_p_y""></span></p>","2","evaluation","66","5","12A,27B,28B,30B","25","11","2","","","","","","","","","","","","","","","","",""
"","","","","","html-keyboard-response","105","1449877","0.0-17.0-2.29","93390002-8b00-447e-9b06-8371ce67e8be","null","<p style=""text-align: center;"">+</p>","null","fixation","","","","","","","","","","","","","","","","","","","","","","",""
"","","","","","html-slider-response","106","1450888","0.0-17.0-0.30","93390002-8b00-447e-9b06-8371ce67e8be","1000","
                  <p style=""text-align: center;"">₪79
                                                <br>40%</p>
                  <p id=""wtp"" style=""text-align:center; margin-top: 0px; margin-bottom: 0px; font-size: 40px"";>&ensp;</p>","-","viewing","0","30","9B","","","","","","","","","","","","","","","","","","","",""
"","","","","","html-slider-response","107","1453150","0.0-17.0-1.30","93390002-8b00-447e-9b06-8371ce67e8be","2261","
                  <p style=""text-align: center;"">₪79
                                                <br>40%</p>
                  <p id=""wtp"" style=""text-align:center; margin-top: 0px; margin-bottom: 0px; font-size: 40px"";>מוכנים לשלם: <span id=""c_p_y""></span></p>","27","evaluation","4","30","9B","40","79","27","","","","","","","","","","","","","","","","",""
"","","","","","html-keyboard-response","108","1454518","0.0-17.0-2.30","93390002-8b00-447e-9b06-8371ce67e8be","null","<p style=""text-align: center;"">+</p>","null","fixation","","","","","","","","","","","","","","","","","","","","","","",""
"","","","","","html-keyboard-response","109","1455526","0.0-18.0","93390002-8b00-447e-9b06-8371ce67e8be","null","<p style=""text-align: center;"">+</p>","null","fixation","","","","","","","","","","","","","","","","","","","","","","",""
"","","","","","html-keyboard-response","110","1456846","0.0-19.0","93390002-8b00-447e-9b06-8371ce67e8be","null","<p>הפסקה.
          <br>לחצו כדי להמשיך.</p>","1","scan_wait","","","","","","","","","","","","","","","","","","","","","","",""
"","","","","","html-keyboard-response","111","1457847","0.0-20.0","93390002-8b00-447e-9b06-8371ce67e8be","null","<p style=""text-align: center;"">+</p>","null","fixation","","","","","","","","","","","","","","","","","","","","","","",""
"","","","","","html-slider-response","112","1458863","0.0-21.0-0.0","93390002-8b00-447e-9b06-8371ce67e8be","1000","
                  <p style=""text-align: center;"">₪71
                                                <br>55%</p>
                  <p id=""wtp"" style=""text-align:center; margin-top: 0px; margin-bottom: 0px; font-size: 40px"";>&ensp;</p>","-","viewing","0","27","5B,18A","","","","","","","","","","","","","","","","","","","",""
"","","","","","html-slider-response","113","1460614","0.0-21.0-1.0","93390002-8b00-447e-9b06-8371ce67e8be","1750","
                  <p style=""text-align: center;"">₪71
                                                <br>55%</p>
                  <p id=""wtp"" style=""text-align:center; margin-top: 0px; margin-bottom: 0px; font-size: 40px"";>מוכנים לשלם: <span id=""c_p_y""></span></p>","17","evaluation","31","27","5B,18A","55","71","17","","","","","","","","","","","","","","","","",""
"","","","","","html-keyboard-response","114","1461180","0.0-21.0-2.0","93390002-8b00-447e-9b06-8371ce67e8be","null","<p style=""text-align: center;"">+</p>","null","fixation","","","","","","","","","","","","","","","","","","","","","","",""
"","","","","","html-slider-response","115","1462187","0.0-21.0-0.1","93390002-8b00-447e-9b06-8371ce67e8be","1000","
                  <p style=""text-align: center;"">₪36
                                                <br>30%</p>
                  <p id=""wtp"" style=""text-align:center; margin-top: 0px; margin-bottom: 0px; font-size: 40px"";>&ensp;</p>","-","viewing","0","11","3C,20A,22A","","","","","","","","","","","","","","","","","","","",""
"","","","","","html-slider-response","116","1464094","0.0-21.0-1.1","93390002-8b00-447e-9b06-8371ce67e8be","1906","
                  <p style=""text-align: center;"">₪36
                                                <br>30%</p>
                  <p id=""wtp"" style=""text-align:center; margin-top: 0px; margin-bottom: 0px; font-size: 40px"";>מוכנים לשלם: <span id=""c_p_y""></span></p>","21","evaluation","1","11","3C,20A,22A","30","36","21","","","","","","","","","","","","","","","","",""
"","","","","","html-keyboard-response","117","1464916","0.0-21.0-2.1","93390002-8b00-447e-9b06-8371ce67e8be","null","<p style=""text-align: center;"">+</p>","null","fixation","","","","","","","","","","","","","","","","","","","","","","",""
"","","","","","html-slider-response","118","1465922","0.0-21.0-0.2","93390002-8b00-447e-9b06-8371ce67e8be","1000","
                  <p style=""text-align: center;"">₪58
                                                <br>45%</p>
                  <p id=""wtp"" style=""text-align:center; margin-top: 0px; margin-bottom: 0px; font-size: 40px"";>&ensp;</p>","-","viewing","0","21","11C,18C,25A","","","","","","","","","","","","","","","","","","","",""
"","","","","","html-slider-response","119","1468118","0.0-21.0-1.2","93390002-8b00-447e-9b06-8371ce67e8be","2195","
                  <p style=""text-align: center;"">₪58
                                                <br>45%</p>
                  <p id=""wtp"" style=""text-align:center; margin-top: 0px; margin-bottom: 0px; font-size: 40px"";>מוכנים לשלם: <span id=""c_p_y""></span></p>","17","evaluation","20","21","11C,18C,25A","45","58","17","","","","","","","","","","","","","","","","",""
"","","","","","html-keyboard-response","120","1468864","0.0-21.0-2.2","93390002-8b00-447e-9b06-8371ce67e8be","null","<p style=""text-align: center;"">+</p>","null","fixation","","","","","","","","","","","","","","","","","","","","","","",""
"","","","","","html-slider-response","121","1469875","0.0-21.0-0.3","93390002-8b00-447e-9b06-8371ce67e8be","1000","
                  <p style=""text-align: center;"">₪39
                                                <br>60%</p>
                  <p id=""wtp"" style=""text-align:center; margin-top: 0px; margin-bottom: 0px; font-size: 40px"";>&ensp;</p>","-","viewing","0","15","9C,25B","","","","","","","","","","","","","","","","","","","",""
"","","","","","html-slider-response","122","1471190","0.0-21.0-1.3","93390002-8b00-447e-9b06-8371ce67e8be","1314","
                  <p style=""text-align: center;"">₪39
                                                <br>60%</p>
                  <p id=""wtp"" style=""text-align:center; margin-top: 0px; margin-bottom: 0px; font-size: 40px"";>מוכנים לשלם: <span id=""c_p_y""></span></p>","34","evaluation","28","15","9C,25B","60","39","34","","","","","","","","","","","","","","","","",""
"","","","","","html-keyboard-response","123","1472267","0.0-21.0-2.3","93390002-8b00-447e-9b06-8371ce67e8be","null","<p style=""text-align: center;"">+</p>","null","fixation","","","","","","","","","","","","","","","","","","","","","","",""
"","","","","","html-slider-response","124","1473279","0.0-21.0-0.4","93390002-8b00-447e-9b06-8371ce67e8be","1000","
                  <p style=""text-align: center;"">₪18
                                                <br>25%</p>
                  <p id=""wtp"" style=""text-align:center; margin-top: 0px; margin-bottom: 0px; font-size: 40px"";>&ensp;</p>","-","viewing","0","9","14A,23A","","","","","","","","","","","","","","","","","","","",""
"","","","","","html-slider-response","125","1475910","0.0-21.0-1.4","93390002-8b00-447e-9b06-8371ce67e8be","2631","
                  <p style=""text-align: center;"">₪18
                                                <br>25%</p>
                  <p id=""wtp"" style=""text-align:center; margin-top: 0px; margin-bottom: 0px; font-size: 40px"";>מוכנים לשלם: <span id=""c_p_y""></span></p>","25","evaluation","26","9","14A,23A","25","18","25","","","","","","","","","","","","","","","","",""
"","","","","","html-keyboard-response","126","1476541","0.0-21.0-2.4","93390002-8b00-447e-9b06-8371ce67e8be","null","<p style=""text-align: center;"">+</p>","null","fixation","","","","","","","","","","","","","","","","","","","","","","",""
"","","","","","html-slider-response","127","1477546","0.0-21.0-0.5","93390002-8b00-447e-9b06-8371ce67e8be","1000","
                  <p style=""text-align: center;"">₪4
                                                <br>75%</p>
                  <p id=""wtp"" style=""text-align:center; margin-top: 0px; margin-bottom: 0px; font-size: 40px"";>&ensp;</p>","-","viewing","0","3","12B,20B,23B,27C,29C","","","","","","","","","","","","","","","","","","","",""
"","","","","","html-slider-response","128","1478966","0.0-21.0-1.5","93390002-8b00-447e-9b06-8371ce67e8be","1419","
                  <p style=""text-align: center;"">₪4
                                                <br>75%</p>
                  <p id=""wtp"" style=""text-align:center; margin-top: 0px; margin-bottom: 0px; font-size: 40px"";>מוכנים לשלם: <span id=""c_p_y""></span></p>","0","evaluation","48","3","12B,20B,23B,27C,29C","75","4","0","","","","","","","","","","","","","","","","",""
"","","","","","html-keyboard-response","129","1479892","0.0-21.0-2.5","93390002-8b00-447e-9b06-8371ce67e8be","null","<p style=""text-align: center;"">+</p>","null","fixation","","","","","","","","","","","","","","","","","","","","","","",""
"","","","","","html-slider-response","130","1480903","0.0-21.0-0.6","93390002-8b00-447e-9b06-8371ce67e8be","1000","
                  <p style=""text-align: center;"">₪71
                                                <br>45%</p>
                  <p id=""wtp"" style=""text-align:center; margin-top: 0px; margin-bottom: 0px; font-size: 40px"";>&ensp;</p>","-","viewing","0","26","2B,16A","","","","","","","","","","","","","","","","","","","",""
"","","","","","html-slider-response","131","1482366","0.0-21.0-1.6","93390002-8b00-447e-9b06-8371ce67e8be","1463","
                  <p style=""text-align: center;"">₪71
                                                <br>45%</p>
                  <p id=""wtp"" style=""text-align:center; margin-top: 0px; margin-bottom: 0px; font-size: 40px"";>מוכנים לשלם: <span id=""c_p_y""></span></p>","32","evaluation","1","26","2B,16A","45","71","32","","","","","","","","","","","","","","","","",""
"","","","","","html-keyboard-response","132","1482904","0.0-21.0-2.6","93390002-8b00-447e-9b06-8371ce67e8be","null","<p style=""text-align: center;"">+</p>","null","fixation","","","","","","","","","","","","","","","","","","","","","","",""
"","","","","","html-slider-response","133","1483907","0.0-21.0-0.7","93390002-8b00-447e-9b06-8371ce67e8be","1000","
                  <p style=""text-align: center;"">₪36
                                                <br>60%</p>
                  <p id=""wtp"" style=""text-align:center; margin-top: 0px; margin-bottom: 0px; font-size: 40px"";>&ensp;</p>","-","viewing","0","12","1C,7C,15C","","","","","","","","","","","","","","","","","","","",""
"","","","","","html-slider-response","134","1485726","0.0-21.0-1.7","93390002-8b00-447e-9b06-8371ce67e8be","1819","
                  <p style=""text-align: center;"">₪36
                                                <br>60%</p>
                  <p id=""wtp"" style=""text-align:center; margin-top: 0px; margin-bottom: 0px; font-size: 40px"";>מוכנים לשלם: <span id=""c_p_y""></span></p>","18","evaluation","33","12","1C,7C,15C","60","36","18","","","","","","","","","","","","","","","","",""
"","","","","","html-keyboard-response","135","1486852","0.0-21.0-2.7","93390002-8b00-447e-9b06-8371ce67e8be","null","<p style=""text-align: center;"">+</p>","null","fixation","","","","","","","","","","","","","","","","","","","","","","",""
"","","","","","html-slider-response","136","1487859","0.0-21.0-0.8","93390002-8b00-447e-9b06-8371ce67e8be","1000","
                  <p style=""text-align: center;"">₪11
                                                <br>75%</p>
                  <p id=""wtp"" style=""text-align:center; margin-top: 0px; margin-bottom: 0px; font-size: 40px"";>&ensp;</p>","-","viewing","0","7","6B,18B,22C,24C,29A","","","","","","","","","","","","","","","","","","","",""
"","","","","","html-slider-response","137","1489510","0.0-21.0-1.8","93390002-8b00-447e-9b06-8371ce67e8be","1650","
                  <p style=""text-align: center;"">₪11
                                                <br>75%</p>
                  <p id=""wtp"" style=""text-align:center; margin-top: 0px; margin-bottom: 0px; font-size: 40px"";>מוכנים לשלם: <span id=""c_p_y""></span></p>","48","evaluation","28","7","6B,18B,22C,24C,29A","75","11","48","","","","","","","","","","","","","","","","",""
"","","","","","html-keyboard-response","138","1490131","0.0-21.0-2.8","93390002-8b00-447e-9b06-8371ce67e8be","null","<p style=""text-align: center;"">+</p>","null","fixation","","","","","","","","","","","","","","","","","","","","","","",""
"","","","","","html-slider-response","139","1491146","0.0-21.0-0.9","93390002-8b00-447e-9b06-8371ce67e8be","1000","
                  <p style=""text-align: center;"">₪16
                                                <br>20%</p>
                  <p id=""wtp"" style=""text-align:center; margin-top: 0px; margin-bottom: 0px; font-size: 40px"";>&ensp;</p>","-","viewing","0","8","14C,17A,20C,27A","","","","","","","","","","","","","","","","","","","",""
"","","","","","html-slider-response","140","1493710","0.0-21.0-1.9","93390002-8b00-447e-9b06-8371ce67e8be","2563","
                  <p style=""text-align: center;"">₪16
                                                <br>20%</p>
                  <p id=""wtp"" style=""text-align:center; margin-top: 0px; margin-bottom: 0px; font-size: 40px"";>מוכנים לשלם: <span id=""c_p_y""></span></p>","15","evaluation","37","8","14C,17A,20C,27A","20","16","15","","","","","","","","","","","","","","","","",""
"","","","","","html-keyboard-response","141","1494279","0.0-21.0-2.9","93390002-8b00-447e-9b06-8371ce67e8be","null","<p style=""text-align: center;"">+</p>","null","fixation","","","","","","","","","","","","","","","","","","","","","","",""
"","","","","","html-slider-response","142","1495286","0.0-21.0-0.10","93390002-8b00-447e-9b06-8371ce67e8be","1000","
                  <p style=""text-align: center;"">₪58
                                                <br>40%</p>
                  <p id=""wtp"" style=""text-align:center; margin-top: 0px; margin-bottom: 0px; font-size: 40px"";>&ensp;</p>","-","viewing","0","20","10C,13A,19C,21B","","","","","","","","","","","","","","","","","","","",""
"","","","","","html-slider-response","143","1496838","0.0-21.0-1.10","93390002-8b00-447e-9b06-8371ce67e8be","1552","
                  <p style=""text-align: center;"">₪58
                                                <br>40%</p>
                  <p id=""wtp"" style=""text-align:center; margin-top: 0px; margin-bottom: 0px; font-size: 40px"";>מוכנים לשלם: <span id=""c_p_y""></span></p>","10","evaluation","11","20","10C,13A,19C,21B","40","58","11","","","","","","","","","","","","","","","","",""
"","","","","","html-keyboard-response","144","1497494","0.0-21.0-2.10","93390002-8b00-447e-9b06-8371ce67e8be","null","<p style=""text-align: center;"">+</p>","null","fixation","","","","","","","","","","","","","","","","","","","","","","",""
"","","","","","html-slider-response","145","1498504","0.0-21.0-0.11","93390002-8b00-447e-9b06-8371ce67e8be","1000","
                  <p style=""text-align: center;"">₪71
                                                <br>75%</p>
                  <p id=""wtp"" style=""text-align:center; margin-top: 0px; margin-bottom: 0px; font-size: 40px"";>&ensp;</p>","-","viewing","0","28","8B","","","","","","","","","","","","","","","","","","","",""
"","","","","","html-slider-response","146","1501646","0.0-21.0-1.11","93390002-8b00-447e-9b06-8371ce67e8be","3141","
                  <p style=""text-align: center;"">₪71
                                                <br>75%</p>
                  <p id=""wtp"" style=""text-align:center; margin-top: 0px; margin-bottom: 0px; font-size: 40px"";>מוכנים לשלם: <span id=""c_p_y""></span></p>","14","evaluation","5","28","8B","75","71","15","","","","","","","","","","","","","","","","",""
"","","","","","html-keyboard-response","147","1502408","0.0-21.0-2.11","93390002-8b00-447e-9b06-8371ce67e8be","null","<p style=""text-align: center;"">+</p>","null","fixation","","","","","","","","","","","","","","","","","","","","","","",""
"","","","","","html-slider-response","148","1503410","0.0-21.0-0.12","93390002-8b00-447e-9b06-8371ce67e8be","1000","
                  <p style=""text-align: center;"">₪4
                                                <br>25%</p>
                  <p id=""wtp"" style=""text-align:center; margin-top: 0px; margin-bottom: 0px; font-size: 40px"";>&ensp;</p>","-","viewing","0","1","6C,29B,30C","","","","","","","","","","","","","","","","","","","",""
"","","","","","html-slider-response","149","1505205","0.0-21.0-1.12","93390002-8b00-447e-9b06-8371ce67e8be","1795","
                  <p style=""text-align: center;"">₪4
                                                <br>25%</p>
                  <p id=""wtp"" style=""text-align:center; margin-top: 0px; margin-bottom: 0px; font-size: 40px"";>מוכנים לשלם: <span id=""c_p_y""></span></p>","1","evaluation","22","1","6C,29B,30C","25","4","1","","","","","","","","","","","","","","","","",""
"","","","","","html-keyboard-response","150","1505805","0.0-21.0-2.12","93390002-8b00-447e-9b06-8371ce67e8be","null","<p style=""text-align: center;"">+</p>","null","fixation","","","","","","","","","","","","","","","","","","","","","","",""
"","","","","","html-slider-response","151","1506812","0.0-21.0-0.13","93390002-8b00-447e-9b06-8371ce67e8be","1000","
                  <p style=""text-align: center;"">₪36
                                                <br>75%</p>
                  <p id=""wtp"" style=""text-align:center; margin-top: 0px; margin-bottom: 0px; font-size: 40px"";>&ensp;</p>","-","viewing","0","14","4B,5A,13B,16B","","","","","","","","","","","","","","","","","","","",""
"","","","","","html-slider-response","152","1508966","0.0-21.0-1.13","93390002-8b00-447e-9b06-8371ce67e8be","2153","
                  <p style=""text-align: center;"">₪36
                                                <br>75%</p>
                  <p id=""wtp"" style=""text-align:center; margin-top: 0px; margin-bottom: 0px; font-size: 40px"";>מוכנים לשלם: <span id=""c_p_y""></span></p>","19","evaluation","58","14","4B,5A,13B,16B","75","36","20","","","","","","","","","","","","","","","","",""
"","","","","","html-keyboard-response","153","1509482","0.0-21.0-2.13","93390002-8b00-447e-9b06-8371ce67e8be","null","<p style=""text-align: center;"">+</p>","null","fixation","","","","","","","","","","","","","","","","","","","","","","",""
"","","","","","html-slider-response","154","1510499","0.0-21.0-0.14","93390002-8b00-447e-9b06-8371ce67e8be","1000","
                  <p style=""text-align: center;"">₪61
                                                <br>45%</p>
                  <p id=""wtp"" style=""text-align:center; margin-top: 0px; margin-bottom: 0px; font-size: 40px"";>&ensp;</p>","-","viewing","0","22","10A,11A","","","","","","","","","","","","","","","","","","","",""
"","","","","","html-slider-response","155","1512438","0.0-21.0-1.14","93390002-8b00-447e-9b06-8371ce67e8be","1939","
                  <p style=""text-align: center;"">₪61
                                                <br>45%</p>
                  <p id=""wtp"" style=""text-align:center; margin-top: 0px; margin-bottom: 0px; font-size: 40px"";>מוכנים לשלם: <span id=""c_p_y""></span></p>","25","evaluation","15","22","10A,11A","45","61","26","","","","","","","","","","","","","","","","",""
"","","","","","html-keyboard-response","156","1513654","0.0-21.0-2.14","93390002-8b00-447e-9b06-8371ce67e8be","null","<p style=""text-align: center;"">+</p>","null","fixation","","","","","","","","","","","","","","","","","","","","","","",""
"","","","","","html-slider-response","157","1514670","0.0-21.0-0.15","93390002-8b00-447e-9b06-8371ce67e8be","1000","
                  <p style=""text-align: center;"">₪11
                                                <br>25%</p>
                  <p id=""wtp"" style=""text-align:center; margin-top: 0px; margin-bottom: 0px; font-size: 40px"";>&ensp;</p>","-","viewing","0","5","12A,27B,28B,30B","","","","","","","","","","","","","","","","","","","",""
"","","","","","html-slider-response","158","1518222","0.0-21.0-1.15","93390002-8b00-447e-9b06-8371ce67e8be","3551","
                  <p style=""text-align: center;"">₪11
                                                <br>25%</p>
                  <p id=""wtp"" style=""text-align:center; margin-top: 0px; margin-bottom: 0px; font-size: 40px"";>מוכנים לשלם: <span id=""c_p_y""></span></p>","28","evaluation","0","5","12A,27B,28B,30B","25","11","28","","","","","","","","","","","","","","","","",""
"","","","","","html-keyboard-response","159","1518907","0.0-21.0-2.15","93390002-8b00-447e-9b06-8371ce67e8be","null","<p style=""text-align: center;"">+</p>","null","fixation","","","","","","","","","","","","","","","","","","","","","","",""
"","","","","","html-slider-response","160","1519909","0.0-21.0-0.16","93390002-8b00-447e-9b06-8371ce67e8be","1000","
                  <p style=""text-align: center;"">₪43
                                                <br>60%</p>
                  <p id=""wtp"" style=""text-align:center; margin-top: 0px; margin-bottom: 0px; font-size: 40px"";>&ensp;</p>","-","viewing","0","17","2A,7A,9A,15B","","","","","","","","","","","","","","","","","","","",""
"","","","","","html-slider-response","161","1521638","0.0-21.0-1.16","93390002-8b00-447e-9b06-8371ce67e8be","1728","
                  <p style=""text-align: center;"">₪43
                                                <br>60%</p>
                  <p id=""wtp"" style=""text-align:center; margin-top: 0px; margin-bottom: 0px; font-size: 40px"";>מוכנים לשלם: <span id=""c_p_y""></span></p>","29","evaluation","60","17","2A,7A,9A,15B","60","43","29","","","","","","","","","","","","","","","","",""
"","","","","","html-keyboard-response","162","1523051","0.0-21.0-2.16","93390002-8b00-447e-9b06-8371ce67e8be","null","<p style=""text-align: center;"">+</p>","null","fixation","","","","","","","","","","","","","","","","","","","","","","",""
"","","","","","html-slider-response","163","1524062","0.0-21.0-0.17","93390002-8b00-447e-9b06-8371ce67e8be","1000","
                  <p style=""text-align: center;"">₪4
                                                <br>50%</p>
                  <p id=""wtp"" style=""text-align:center; margin-top: 0px; margin-bottom: 0px; font-size: 40px"";>&ensp;</p>","-","viewing","0","2","4C,17B","","","","","","","","","","","","","","","","","","","",""
"","","","","","html-slider-response","164","1527022","0.0-21.0-1.17","93390002-8b00-447e-9b06-8371ce67e8be","2959","
                  <p style=""text-align: center;"">₪4
                                                <br>50%</p>
                  <p id=""wtp"" style=""text-align:center; margin-top: 0px; margin-bottom: 0px; font-size: 40px"";>מוכנים לשלם: <span id=""c_p_y""></span></p>","18","evaluation","46","2","4C,17B","50","4","18","","","","","","","","","","","","","","","","",""
"","","","","","html-keyboard-response","165","1528460","0.0-21.0-2.17","93390002-8b00-447e-9b06-8371ce67e8be","null","<p style=""text-align: center;"">+</p>","null","fixation","","","","","","","","","","","","","","","","","","","","","","",""
"","","","","","html-slider-response","166","1529468","0.0-21.0-0.18","93390002-8b00-447e-9b06-8371ce67e8be","1000","
                  <p style=""text-align: center;"">₪36
                                                <br>70%</p>
                  <p id=""wtp"" style=""text-align:center; margin-top: 0px; margin-bottom: 0px; font-size: 40px"";>&ensp;</p>","-","viewing","0","13","3A,5C,10B","","","","","","","","","","","","","","","","","","","",""
"","","","","","html-slider-response","167","1530998","0.0-21.0-1.18","93390002-8b00-447e-9b06-8371ce67e8be","1530","
                  <p style=""text-align: center;"">₪36
                                                <br>70%</p>
                  <p id=""wtp"" style=""text-align:center; margin-top: 0px; margin-bottom: 0px; font-size: 40px"";>מוכנים לשלם: <span id=""c_p_y""></span></p>","38","evaluation","29","13","3A,5C,10B","70","36","38","","","","","","","","","","","","","","","","",""
"","","","","","html-keyboard-response","168","1532315","0.0-21.0-2.18","93390002-8b00-447e-9b06-8371ce67e8be","null","<p style=""text-align: center;"">+</p>","null","fixation","","","","","","","","","","","","","","","","","","","","","","",""
"","","","","","html-slider-response","169","1533322","0.0-21.0-0.19","93390002-8b00-447e-9b06-8371ce67e8be","1000","
                  <p style=""text-align: center;"">₪11
                                                <br>20%</p>
                  <p id=""wtp"" style=""text-align:center; margin-top: 0px; margin-bottom: 0px; font-size: 40px"";>&ensp;</p>","-","viewing","0","4","12C,17C,23C,28C","","","","","","","","","","","","","","","","","","","",""
"","","","","","html-slider-response","170","1534494","0.0-21.0-1.19","93390002-8b00-447e-9b06-8371ce67e8be","1171","
                  <p style=""text-align: center;"">₪11
                                                <br>20%</p>
                  <p id=""wtp"" style=""text-align:center; margin-top: 0px; margin-bottom: 0px; font-size: 40px"";>מוכנים לשלם: <span id=""c_p_y""></span></p>","13","evaluation","42","4","12C,17C,23C,28C","20","11","13","","","","","","","","","","","","","","","","",""
"","","","","","html-keyboard-response","171","1535272","0.0-21.0-2.19","93390002-8b00-447e-9b06-8371ce67e8be","null","<p style=""text-align: center;"">+</p>","null","fixation","","","","","","","","","","","","","","","","","","","","","","",""
"","","","","","html-slider-response","172","1536275","0.0-21.0-0.20","93390002-8b00-447e-9b06-8371ce67e8be","1000","
                  <p style=""text-align: center;"">₪76
                                                <br>65%</p>
                  <p id=""wtp"" style=""text-align:center; margin-top: 0px; margin-bottom: 0px; font-size: 40px"";>&ensp;</p>","-","viewing","0","29","8C,19A,24B","","","","","","","","","","","","","","","","","","","",""
"","","","","","html-slider-response","173","1537526","0.0-21.0-1.20","93390002-8b00-447e-9b06-8371ce67e8be","1250","
                  <p style=""text-align: center;"">₪76
                                                <br>65%</p>
                  <p id=""wtp"" style=""text-align:center; margin-top: 0px; margin-bottom: 0px; font-size: 40px"";>מוכנים לשלם: <span id=""c_p_y""></span></p>","36","evaluation","49","29","8C,19A,24B","65","76","36","","","","","","","","","","","","","","","","",""
"","","","","","html-keyboard-response","174","1538225","0.0-21.0-2.20","93390002-8b00-447e-9b06-8371ce67e8be","null","<p style=""text-align: center;"">+</p>","null","fixation","","","","","","","","","","","","","","","","","","","","","","",""
"","","","","","html-slider-response","175","1539237","0.0-21.0-0.21","93390002-8b00-447e-9b06-8371ce67e8be","1000","
                  <p style=""text-align: center;"">₪11
                                                <br>45%</p>
                  <p id=""wtp"" style=""text-align:center; margin-top: 0px; margin-bottom: 0px; font-size: 40px"";>&ensp;</p>","-","viewing","0","6","14B,21C,25C","","","","","","","","","","","","","","","","","","","",""
"","","","","","html-slider-response","176","1540030","0.0-21.0-1.21","93390002-8b00-447e-9b06-8371ce67e8be","792","
                  <p style=""text-align: center;"">₪11
                                                <br>45%</p>
                  <p id=""wtp"" style=""text-align:center; margin-top: 0px; margin-bottom: 0px; font-size: 40px"";>מוכנים לשלם: <span id=""c_p_y""></span></p>","21","evaluation","32","6","14B,21C,25C","45","11","21","","","","","","","","","","","","","","","","",""
"","","","","","html-keyboard-response","177","1540765","0.0-21.0-2.21","93390002-8b00-447e-9b06-8371ce67e8be","null","<p style=""text-align: center;"">+</p>","null","fixation","","","","","","","","","","","","","","","","","","","","","","",""
"","","","","","html-slider-response","178","1541780","0.0-21.0-0.22","93390002-8b00-447e-9b06-8371ce67e8be","1000","
                  <p style=""text-align: center;"">₪39
                                                <br>65%</p>
                  <p id=""wtp"" style=""text-align:center; margin-top: 0px; margin-bottom: 0px; font-size: 40px"";>&ensp;</p>","-","viewing","0","16","1A,15A,26C","","","","","","","","","","","","","","","","","","","",""
"","","","","","html-slider-response","179","1543358","0.0-21.0-1.22","93390002-8b00-447e-9b06-8371ce67e8be","1577","
                  <p style=""text-align: center;"">₪39
                                                <br>65%</p>
                  <p id=""wtp"" style=""text-align:center; margin-top: 0px; margin-bottom: 0px; font-size: 40px"";>מוכנים לשלם: <span id=""c_p_y""></span></p>","17","evaluation","8","16","1A,15A,26C","65","39","17","","","","","","","","","","","","","","","","",""
"","","","","","html-keyboard-response","180","1544335","0.0-21.0-2.22","93390002-8b00-447e-9b06-8371ce67e8be","null","<p style=""text-align: center;"">+</p>","null","fixation","","","","","","","","","","","","","","","","","","","","","","",""
"","","","","","html-slider-response","181","1545350","0.0-21.0-0.23","93390002-8b00-447e-9b06-8371ce67e8be","1000","
                  <p style=""text-align: center;"">₪79
                                                <br>65%</p>
                  <p id=""wtp"" style=""text-align:center; margin-top: 0px; margin-bottom: 0px; font-size: 40px"";>&ensp;</p>","-","viewing","0","31","8A","","","","","","","","","","","","","","","","","","","",""
"","","","","","html-slider-response","182","1546110","0.0-21.0-1.23","93390002-8b00-447e-9b06-8371ce67e8be","759","
                  <p style=""text-align: center;"">₪79
                                                <br>65%</p>
                  <p id=""wtp"" style=""text-align:center; margin-top: 0px; margin-bottom: 0px; font-size: 40px"";>מוכנים לשלם: <span id=""c_p_y""></span></p>","36","evaluation","65","31","8A","65","79","36","","","","","","","","","","","","","","","","",""
"","","","","","html-keyboard-response","183","1547525","0.0-21.0-2.23","93390002-8b00-447e-9b06-8371ce67e8be","null","<p style=""text-align: center;"">+</p>","null","fixation","","","","","","","","","","","","","","","","","","","","","","",""
"","","","","","html-slider-response","184","1548534","0.0-21.0-0.24","93390002-8b00-447e-9b06-8371ce67e8be","1000","
                  <p style=""text-align: center;"">₪58
                                                <br>30%</p>
                  <p id=""wtp"" style=""text-align:center; margin-top: 0px; margin-bottom: 0px; font-size: 40px"";>&ensp;</p>","-","viewing","0","19","13C,30A","","","","","","","","","","","","","","","","","","","",""
"","","","","","html-slider-response","185","1549718","0.0-21.0-1.24","93390002-8b00-447e-9b06-8371ce67e8be","1182","
                  <p style=""text-align: center;"">₪58
                                                <br>30%</p>
                  <p id=""wtp"" style=""text-align:center; margin-top: 0px; margin-bottom: 0px; font-size: 40px"";>מוכנים לשלם: <span id=""c_p_y""></span></p>","9","evaluation","75","19","13C,30A","30","58","9","","","","","","","","","","","","","","","","",""
"","","","","","html-keyboard-response","186","1550369","0.0-21.0-2.24","93390002-8b00-447e-9b06-8371ce67e8be","null","<p style=""text-align: center;"">+</p>","null","fixation","","","","","","","","","","","","","","","","","","","","","","",""
"","","","","","html-slider-response","187","1551375","0.0-21.0-0.25","93390002-8b00-447e-9b06-8371ce67e8be","1000","
                  <p style=""text-align: center;"">₪64
                                                <br>25%</p>
                  <p id=""wtp"" style=""text-align:center; margin-top: 0px; margin-bottom: 0px; font-size: 40px"";>&ensp;</p>","-","viewing","0","24","6A,21A","","","","","","","","","","","","","","","","","","","",""
"","","","","","html-slider-response","188","1553198","0.0-21.0-1.25","93390002-8b00-447e-9b06-8371ce67e8be","1822","
                  <p style=""text-align: center;"">₪64
                                                <br>25%</p>
                  <p id=""wtp"" style=""text-align:center; margin-top: 0px; margin-bottom: 0px; font-size: 40px"";>מוכנים לשלם: <span id=""c_p_y""></span></p>","11","evaluation","37","24","6A,21A","25","64","11","","","","","","","","","","","","","","","","",""
"","","","","","html-keyboard-response","189","1554428","0.0-21.0-2.25","93390002-8b00-447e-9b06-8371ce67e8be","null","<p style=""text-align: center;"">+</p>","null","fixation","","","","","","","","","","","","","","","","","","","","","","",""
"","","","","","html-slider-response","190","1555444","0.0-21.0-0.26","93390002-8b00-447e-9b06-8371ce67e8be","1000","
                  <p style=""text-align: center;"">₪18
                                                <br>50%</p>
                  <p id=""wtp"" style=""text-align:center; margin-top: 0px; margin-bottom: 0px; font-size: 40px"";>&ensp;</p>","-","viewing","0","10","2C,16C,22B,28A","","","","","","","","","","","","","","","","","","","",""
"","","","","","html-slider-response","191","1557694","0.0-21.0-1.26","93390002-8b00-447e-9b06-8371ce67e8be","2249","
                  <p style=""text-align: center;"">₪18
                                                <br>50%</p>
                  <p id=""wtp"" style=""text-align:center; margin-top: 0px; margin-bottom: 0px; font-size: 40px"";>מוכנים לשלם: <span id=""c_p_y""></span></p>","34","evaluation","54","10","2C,16C,22B,28A","50","18","34","","","","","","","","","","","","","","","","",""
"","","","","","html-keyboard-response","192","1558705","0.0-21.0-2.26","93390002-8b00-447e-9b06-8371ce67e8be","null","<p style=""text-align: center;"">+</p>","null","fixation","","","","","","","","","","","","","","","","","","","","","","",""
"","","","","","html-slider-response","193","1559714","0.0-21.0-0.27","93390002-8b00-447e-9b06-8371ce67e8be","1000","
                  <p style=""text-align: center;"">₪64
                                                <br>50%</p>
                  <p id=""wtp"" style=""text-align:center; margin-top: 0px; margin-bottom: 0px; font-size: 40px"";>&ensp;</p>","-","viewing","0","25","1B,3B,4A","","","","","","","","","","","","","","","","","","","",""
"","","","","","html-slider-response","194","1562390","0.0-21.0-1.27","93390002-8b00-447e-9b06-8371ce67e8be","2675","
                  <p style=""text-align: center;"">₪64
                                                <br>50%</p>
                  <p id=""wtp"" style=""text-align:center; margin-top: 0px; margin-bottom: 0px; font-size: 40px"";>מוכנים לשלם: <span id=""c_p_y""></span></p>","37","evaluation","17","25","1B,3B,4A","50","64","37","","","","","","","","","","","","","","","","",""
"","","","","","html-keyboard-response","195","1563031","0.0-21.0-2.27","93390002-8b00-447e-9b06-8371ce67e8be","null","<p style=""text-align: center;"">+</p>","null","fixation","","","","","","","","","","","","","","","","","","","","","","",""
"","","","","","html-slider-response","196","1564037","0.0-21.0-0.28","93390002-8b00-447e-9b06-8371ce67e8be","1000","
                  <p style=""text-align: center;"">₪43
                                                <br>75%</p>
                  <p id=""wtp"" style=""text-align:center; margin-top: 0px; margin-bottom: 0px; font-size: 40px"";>&ensp;</p>","-","viewing","0","18","11B,19B,24A,26A","","","","","","","","","","","","","","","","","","","",""
"","","","","","html-slider-response","197","1565366","0.0-21.0-1.28","93390002-8b00-447e-9b06-8371ce67e8be","1327","
                  <p style=""text-align: center;"">₪43
                                                <br>75%</p>
                  <p id=""wtp"" style=""text-align:center; margin-top: 0px; margin-bottom: 0px; font-size: 40px"";>מוכנים לשלם: <span id=""c_p_y""></span></p>","50","evaluation","25","18","11B,19B,24A,26A","75","43","50","","","","","","","","","","","","","","","","",""
"","","","","","html-keyboard-response","198","1566636","0.0-21.0-2.28","93390002-8b00-447e-9b06-8371ce67e8be","null","<p style=""text-align: center;"">+</p>","null","fixation","","","","","","","","","","","","","","","","","","","","","","",""
"","","","","","html-slider-response","199","1567640","0.0-21.0-0.29","93390002-8b00-447e-9b06-8371ce67e8be","1000","
                  <p style=""text-align: center;"">₪61
                                                <br>55%</p>
                  <p id=""wtp"" style=""text-align:center; margin-top: 0px; margin-bottom: 0px; font-size: 40px"";>&ensp;</p>","-","viewing","0","23","7B,26B","","","","","","","","","","","","","","","","","","","",""
"","","","","","html-slider-response","200","1569614","0.0-21.0-1.29","93390002-8b00-447e-9b06-8371ce67e8be","1973","
                  <p style=""text-align: center;"">₪61
                                                <br>55%</p>
                  <p id=""wtp"" style=""text-align:center; margin-top: 0px; margin-bottom: 0px; font-size: 40px"";>מוכנים לשלם: <span id=""c_p_y""></span></p>","29","evaluation","35","23","7B,26B","55","61","29","","","","","","","","","","","","","","","","",""
"","","","","","html-keyboard-response","201","1570485","0.0-21.0-2.29","93390002-8b00-447e-9b06-8371ce67e8be","null","<p style=""text-align: center;"">+</p>","null","fixation","","","","","","","","","","","","","","","","","","","","","","",""
"","","","","","html-slider-response","202","1571492","0.0-21.0-0.30","93390002-8b00-447e-9b06-8371ce67e8be","1000","
                  <p style=""text-align: center;"">₪79
                                                <br>40%</p>
                  <p id=""wtp"" style=""text-align:center; margin-top: 0px; margin-bottom: 0px; font-size: 40px"";>&ensp;</p>","-","viewing","0","30","9B","","","","","","","","","","","","","","","","","","","",""
"","","","","","html-slider-response","203","1572702","0.0-21.0-1.30","93390002-8b00-447e-9b06-8371ce67e8be","1209","
                  <p style=""text-align: center;"">₪79
                                                <br>40%</p>
                  <p id=""wtp"" style=""text-align:center; margin-top: 0px; margin-bottom: 0px; font-size: 40px"";>מוכנים לשלם: <span id=""c_p_y""></span></p>","18","evaluation","2","30","9B","40","79","18","","","","","","","","","","","","","","","","",""
"","","","","","html-keyboard-response","204","1574196","0.0-21.0-2.30","93390002-8b00-447e-9b06-8371ce67e8be","null","<p style=""text-align: center;"">+</p>","null","fixation","","","","","","","","","","","","","","","","","","","","","","",""
"","","","","","html-keyboard-response","205","1575198","0.0-22.0","93390002-8b00-447e-9b06-8371ce67e8be","null","<p style=""text-align: center;"">+</p>","null","fixation","","","","","","","","","","","","","","","","","","","","","","",""
"","","","","","html-keyboard-response","206","1576870","0.0-23.0","93390002-8b00-447e-9b06-8371ce67e8be","null","<p>הפסקה.
          <br>לחצו כדי להמשיך.</p>","1","scan_wait","","","","","","","","","","","","","","","","","","","","","","",""
"","","","","","html-keyboard-response","207","1577883","0.0-24.0","93390002-8b00-447e-9b06-8371ce67e8be","null","<p style=""text-align: center;"">+</p>","null","fixation","","","","","","","","","","","","","","","","","","","","","","",""
"","","","","","html-slider-response","208","1578885","0.0-25.0-0.0","93390002-8b00-447e-9b06-8371ce67e8be","1000","
                  <p style=""text-align: center;"">₪4
                                                <br>50%</p>
                  <p id=""wtp"" style=""text-align:center; margin-top: 0px; margin-bottom: 0px; font-size: 40px"";>&ensp;</p>","-","viewing","0","2","4C,17B","","","","","","","","","","","","","","","","","","","",""
"","","","","","html-slider-response","209","1580502","0.0-25.0-1.0","93390002-8b00-447e-9b06-8371ce67e8be","1616","
                  <p style=""text-align: center;"">₪4
                                                <br>50%</p>
                  <p id=""wtp"" style=""text-align:center; margin-top: 0px; margin-bottom: 0px; font-size: 40px"";>מוכנים לשלם: <span id=""c_p_y""></span></p>","3","evaluation","60","2","4C,17B","50","4","4","","","","","","","","","","","","","","","","",""
"","","","","","html-keyboard-response","210","1581848","0.0-25.0-2.0","93390002-8b00-447e-9b06-8371ce67e8be","null","<p style=""text-align: center;"">+</p>","null","fixation","","","","","","","","","","","","","","","","","","","","","","",""
"","","","","","html-slider-response","211","1582854","0.0-25.0-0.1","93390002-8b00-447e-9b06-8371ce67e8be","1000","
                  <p style=""text-align: center;"">₪36
                                                <br>70%</p>
                  <p id=""wtp"" style=""text-align:center; margin-top: 0px; margin-bottom: 0px; font-size: 40px"";>&ensp;</p>","-","viewing","0","13","3A,5C,10B","","","","","","","","","","","","","","","","","","","",""
"","","","","","html-slider-response","212","1583934","0.0-25.0-1.1","93390002-8b00-447e-9b06-8371ce67e8be","1078","
                  <p style=""text-align: center;"">₪36
                                                <br>70%</p>
                  <p id=""wtp"" style=""text-align:center; margin-top: 0px; margin-bottom: 0px; font-size: 40px"";>מוכנים לשלם: <span id=""c_p_y""></span></p>","39","evaluation","23","13","3A,5C,10B","70","36","39","","","","","","","","","","","","","","","","",""
"","","","","","html-keyboard-response","213","1584612","0.0-25.0-2.1","93390002-8b00-447e-9b06-8371ce67e8be","null","<p style=""text-align: center;"">+</p>","null","fixation","","","","","","","","","","","","","","","","","","","","","","",""
"","","","","","html-slider-response","214","1585624","0.0-25.0-0.2","93390002-8b00-447e-9b06-8371ce67e8be","1000","
                  <p style=""text-align: center;"">₪43
                                                <br>75%</p>
                  <p id=""wtp"" style=""text-align:center; margin-top: 0px; margin-bottom: 0px; font-size: 40px"";>&ensp;</p>","-","viewing","0","18","11B,19B,24A,26A","","","","","","","","","","","","","","","","","","","",""
"","","","","","html-slider-response","215","1587406","0.0-25.0-1.2","93390002-8b00-447e-9b06-8371ce67e8be","1781","
                  <p style=""text-align: center;"">₪43
                                                <br>75%</p>
                  <p id=""wtp"" style=""text-align:center; margin-top: 0px; margin-bottom: 0px; font-size: 40px"";>מוכנים לשלם: <span id=""c_p_y""></span></p>","43","evaluation","35","18","11B,19B,24A,26A","75","43","43","","","","","","","","","","","","","","","","",""
"","","","","","html-keyboard-response","216","1588225","0.0-25.0-2.2","93390002-8b00-447e-9b06-8371ce67e8be","null","<p style=""text-align: center;"">+</p>","null","fixation","","","","","","","","","","","","","","","","","","","","","","",""
"","","","","","html-slider-response","217","1589229","0.0-25.0-0.3","93390002-8b00-447e-9b06-8371ce67e8be","1000","
                  <p style=""text-align: center;"">₪11
                                                <br>45%</p>
                  <p id=""wtp"" style=""text-align:center; margin-top: 0px; margin-bottom: 0px; font-size: 40px"";>&ensp;</p>","-","viewing","0","6","14B,21C,25C","","","","","","","","","","","","","","","","","","","",""
"","","","","","html-slider-response","218","1590478","0.0-25.0-1.3","93390002-8b00-447e-9b06-8371ce67e8be","1248","
                  <p style=""text-align: center;"">₪11
                                                <br>45%</p>
                  <p id=""wtp"" style=""text-align:center; margin-top: 0px; margin-bottom: 0px; font-size: 40px"";>מוכנים לשלם: <span id=""c_p_y""></span></p>","10","evaluation","34","6","14B,21C,25C","45","11","10","","","","","","","","","","","","","","","","",""
"","","","","","html-keyboard-response","219","1591199","0.0-25.0-2.3","93390002-8b00-447e-9b06-8371ce67e8be","null","<p style=""text-align: center;"">+</p>","null","fixation","","","","","","","","","","","","","","","","","","","","","","",""
"","","","","","html-slider-response","220","1592208","0.0-25.0-0.4","93390002-8b00-447e-9b06-8371ce67e8be","1000","
                  <p style=""text-align: center;"">₪18
                                                <br>50%</p>
                  <p id=""wtp"" style=""text-align:center; margin-top: 0px; margin-bottom: 0px; font-size: 40px"";>&ensp;</p>","-","viewing","0","10","2C,16C,22B,28A","","","","","","","","","","","","","","","","","","","",""
"","","","","","html-slider-response","221","1592630","0.0-25.0-1.4","93390002-8b00-447e-9b06-8371ce67e8be","421","
                  <p style=""text-align: center;"">₪18
                                                <br>50%</p>
                  <p id=""wtp"" style=""text-align:center; margin-top: 0px; margin-bottom: 0px; font-size: 40px"";>מוכנים לשלם: <span id=""c_p_y""></span></p>","8","evaluation","73","10","2C,16C,22B,28A","50","18","8","","","","","","","","","","","","","","","","",""
"","","","","","html-keyboard-response","222","1593695","0.0-25.0-2.4","93390002-8b00-447e-9b06-8371ce67e8be","null","<p style=""text-align: center;"">+</p>","null","fixation","","","","","","","","","","","","","","","","","","","","","","",""
"","","","","","html-slider-response","223","1594697","0.0-25.0-0.5","93390002-8b00-447e-9b06-8371ce67e8be","1000","
                  <p style=""text-align: center;"">₪61
                                                <br>45%</p>
                  <p id=""wtp"" style=""text-align:center; margin-top: 0px; margin-bottom: 0px; font-size: 40px"";>&ensp;</p>","-","viewing","0","22","10A,11A","","","","","","","","","","","","","","","","","","","",""
"","","","","","html-slider-response","224","1595286","0.0-25.0-1.5","93390002-8b00-447e-9b06-8371ce67e8be","587","
                  <p style=""text-align: center;"">₪61
                                                <br>45%</p>
                  <p id=""wtp"" style=""text-align:center; margin-top: 0px; margin-bottom: 0px; font-size: 40px"";>מוכנים לשלם: <span id=""c_p_y""></span></p>","24","evaluation","9","22","10A,11A","45","61","24","","","","","","","","","","","","","","","","",""
"","","","","","html-keyboard-response","225","1596202","0.0-25.0-2.5","93390002-8b00-447e-9b06-8371ce67e8be","null","<p style=""text-align: center;"">+</p>","null","fixation","","","","","","","","","","","","","","","","","","","","","","",""
"","","","","","html-slider-response","226","1597204","0.0-25.0-0.6","93390002-8b00-447e-9b06-8371ce67e8be","1000","
                  <p style=""text-align: center;"">₪71
                                                <br>55%</p>
                  <p id=""wtp"" style=""text-align:center; margin-top: 0px; margin-bottom: 0px; font-size: 40px"";>&ensp;</p>","-","viewing","0","27","5B,18A","","","","","","","","","","","","","","","","","","","",""
"","","","","","html-slider-response","227","1598166","0.0-25.0-1.6","93390002-8b00-447e-9b06-8371ce67e8be","960","
                  <p style=""text-align: center;"">₪71
                                                <br>55%</p>
                  <p id=""wtp"" style=""text-align:center; margin-top: 0px; margin-bottom: 0px; font-size: 40px"";>מוכנים לשלם: <span id=""c_p_y""></span></p>","32","evaluation","15","27","5B,18A","55","71","32","","","","","","","","","","","","","","","","",""
"","","","","","html-keyboard-response","228","1598781","0.0-25.0-2.6","93390002-8b00-447e-9b06-8371ce67e8be","null","<p style=""text-align: center;"">+</p>","null","fixation","","","","","","","","","","","","","","","","","","","","","","",""
"","","","","","html-slider-response","229","1599789","0.0-25.0-0.7","93390002-8b00-447e-9b06-8371ce67e8be","1000","
                  <p style=""text-align: center;"">₪11
                                                <br>75%</p>
                  <p id=""wtp"" style=""text-align:center; margin-top: 0px; margin-bottom: 0px; font-size: 40px"";>&ensp;</p>","-","viewing","0","7","6B,18B,22C,24C,29A","","","","","","","","","","","","","","","","","","","",""
"","","","","","html-slider-response","230","1603038","0.0-25.0-1.7","93390002-8b00-447e-9b06-8371ce67e8be","3248","
                  <p style=""text-align: center;"">₪11
                                                <br>75%</p>
                  <p id=""wtp"" style=""text-align:center; margin-top: 0px; margin-bottom: 0px; font-size: 40px"";>מוכנים לשלם: <span id=""c_p_y""></span></p>","34","evaluation","36","7","6B,18B,22C,24C,29A","75","11","34","","","","","","","","","","","","","","","","",""
"","","","","","html-keyboard-response","231","1604325","0.0-25.0-2.7","93390002-8b00-447e-9b06-8371ce67e8be","null","<p style=""text-align: center;"">+</p>","null","fixation","","","","","","","","","","","","","","","","","","","","","","",""
"","","","","","html-slider-response","232","1605327","0.0-25.0-0.8","93390002-8b00-447e-9b06-8371ce67e8be","1000","
                  <p style=""text-align: center;"">₪79
                                                <br>65%</p>
                  <p id=""wtp"" style=""text-align:center; margin-top: 0px; margin-bottom: 0px; font-size: 40px"";>&ensp;</p>","-","viewing","0","31","8A","","","","","","","","","","","","","","","","","","","",""
"","","","","","html-slider-response","233","1606006","0.0-25.0-1.8","93390002-8b00-447e-9b06-8371ce67e8be","677","
                  <p style=""text-align: center;"">₪79
                                                <br>65%</p>
                  <p id=""wtp"" style=""text-align:center; margin-top: 0px; margin-bottom: 0px; font-size: 40px"";>מוכנים לשלם: <span id=""c_p_y""></span></p>","42","evaluation","41","31","8A","65","79","42","","","","","","","","","","","","","","","","",""
"","","","","","html-keyboard-response","234","1607281","0.0-25.0-2.8","93390002-8b00-447e-9b06-8371ce67e8be","null","<p style=""text-align: center;"">+</p>","null","fixation","","","","","","","","","","","","","","","","","","","","","","",""
"","","","","","html-slider-response","235","1608296","0.0-25.0-0.9","93390002-8b00-447e-9b06-8371ce67e8be","1000","
                  <p style=""text-align: center;"">₪11
                                                <br>25%</p>
                  <p id=""wtp"" style=""text-align:center; margin-top: 0px; margin-bottom: 0px; font-size: 40px"";>&ensp;</p>","-","viewing","0","5","12A,27B,28B,30B","","","","","","","","","","","","","","","","","","","",""
"","","","","","html-slider-response","236","1609525","0.0-25.0-1.9","93390002-8b00-447e-9b06-8371ce67e8be","1228","
                  <p style=""text-align: center;"">₪11
                                                <br>25%</p>
                  <p id=""wtp"" style=""text-align:center; margin-top: 0px; margin-bottom: 0px; font-size: 40px"";>מוכנים לשלם: <span id=""c_p_y""></span></p>","8","evaluation","30","5","12A,27B,28B,30B","25","11","8","","","","","","","","","","","","","","","","",""
"","","","","","html-keyboard-response","237","1610031","0.0-25.0-2.9","93390002-8b00-447e-9b06-8371ce67e8be","null","<p style=""text-align: center;"">+</p>","null","fixation","","","","","","","","","","","","","","","","","","","","","","",""
"","","","","","html-slider-response","238","1611034","0.0-25.0-0.10","93390002-8b00-447e-9b06-8371ce67e8be","1000","
                  <p style=""text-align: center;"">₪43
                                                <br>60%</p>
                  <p id=""wtp"" style=""text-align:center; margin-top: 0px; margin-bottom: 0px; font-size: 40px"";>&ensp;</p>","-","viewing","0","17","2A,7A,9A,15B","","","","","","","","","","","","","","","","","","","",""
"","","","","","html-slider-response","239","1612238","0.0-25.0-1.10","93390002-8b00-447e-9b06-8371ce67e8be","1203","
                  <p style=""text-align: center;"">₪43
                                                <br>60%</p>
                  <p id=""wtp"" style=""text-align:center; margin-top: 0px; margin-bottom: 0px; font-size: 40px"";>מוכנים לשלם: <span id=""c_p_y""></span></p>","15","evaluation","17","17","2A,7A,9A,15B","60","43","15","","","","","","","","","","","","","","","","",""
"","","","","","html-keyboard-response","240","1613557","0.0-25.0-2.10","93390002-8b00-447e-9b06-8371ce67e8be","null","<p style=""text-align: center;"">+</p>","null","fixation","","","","","","","","","","","","","","","","","","","","","","",""
"","","","","","html-slider-response","241","1614570","0.0-25.0-0.11","93390002-8b00-447e-9b06-8371ce67e8be","1000","
                  <p style=""text-align: center;"">₪61
                                                <br>55%</p>
                  <p id=""wtp"" style=""text-align:center; margin-top: 0px; margin-bottom: 0px; font-size: 40px"";>&ensp;</p>","-","viewing","0","23","7B,26B","","","","","","","","","","","","","","","","","","","",""
"","","","","","html-slider-response","242","1615734","0.0-25.0-1.11","93390002-8b00-447e-9b06-8371ce67e8be","1163","
                  <p style=""text-align: center;"">₪61
                                                <br>55%</p>
                  <p id=""wtp"" style=""text-align:center; margin-top: 0px; margin-bottom: 0px; font-size: 40px"";>מוכנים לשלם: <span id=""c_p_y""></span></p>","33","evaluation","58","23","7B,26B","55","61","33","","","","","","","","","","","","","","","","",""
"","","","","","html-keyboard-response","243","1616725","0.0-25.0-2.11","93390002-8b00-447e-9b06-8371ce67e8be","null","<p style=""text-align: center;"">+</p>","null","fixation","","","","","","","","","","","","","","","","","","","","","","",""
"","","","","","html-slider-response","244","1617738","0.0-25.0-0.12","93390002-8b00-447e-9b06-8371ce67e8be","1000","
                  <p style=""text-align: center;"">₪36
                                                <br>75%</p>
                  <p id=""wtp"" style=""text-align:center; margin-top: 0px; margin-bottom: 0px; font-size: 40px"";>&ensp;</p>","-","viewing","0","14","4B,5A,13B,16B","","","","","","","","","","","","","","","","","","","",""
"","","","","","html-slider-response","245","1619726","0.0-25.0-1.12","93390002-8b00-447e-9b06-8371ce67e8be","1987","
                  <p style=""text-align: center;"">₪36
                                                <br>75%</p>
                  <p id=""wtp"" style=""text-align:center; margin-top: 0px; margin-bottom: 0px; font-size: 40px"";>מוכנים לשלם: <span id=""c_p_y""></span></p>","27","evaluation","76","14","4B,5A,13B,16B","75","36","27","","","","","","","","","","","","","","","","",""
"","","","","","html-keyboard-response","246","1620633","0.0-25.0-2.12","93390002-8b00-447e-9b06-8371ce67e8be","null","<p style=""text-align: center;"">+</p>","null","fixation","","","","","","","","","","","","","","","","","","","","","","",""
"","","","","","html-slider-response","247","1621643","0.0-25.0-0.13","93390002-8b00-447e-9b06-8371ce67e8be","1000","
                  <p style=""text-align: center;"">₪58
                                                <br>30%</p>
                  <p id=""wtp"" style=""text-align:center; margin-top: 0px; margin-bottom: 0px; font-size: 40px"";>&ensp;</p>","-","viewing","0","19","13C,30A","","","","","","","","","","","","","","","","","","","",""
"","","","","","html-slider-response","248","1622582","0.0-25.0-1.13","93390002-8b00-447e-9b06-8371ce67e8be","938","
                  <p style=""text-align: center;"">₪58
                                                <br>30%</p>
