"success","timeout","failed_images","failed_audio","failed_video","trial_type","trial_index","time_elapsed","internal_node_id","subject_id","rt","stimulus","response","part","slider_start","ID","set_ID","prob","amount","last_location","actual_choice","actual_EV","binary_id","trinary_id","catch","A_key","D_key","choice_prob","choice_amount","chosen_part","won_prize","potential_prize_amount","potential_prize_prob","total_prize","accuracy"
"true","false","[]","[]","[]","preload","0","98","0.0-0.0","514f5d99-a157-42d0-b9e5-0407d2049090","","","","","","","","","","","","","","","","","","","","","","","","",""
"","","","","","html-keyboard-response","1","493176","0.0-1.0","514f5d99-a157-42d0-b9e5-0407d2049090","null","
          <h1>שלום וברוכים הבאים!</h1>
          <p>לפניכם ניסוי בקבלת החלטות עם שני חלקים.
          <br><br>לחצו על העכבר כדי להמשיך.</p>","0","example","","","","","","","","","","","","","","","","","","","","",""
"","","","","","html-keyboard-response","2","515319","0.0-2.0","514f5d99-a157-42d0-b9e5-0407d2049090","null","
        <h1>חלק 1</h1>
        <p>בקרוב יוצגו בפניכם הגרלות.
        <br>עליכם לבחור את המחיר המירבי שתהיו מוכנים לשלם כדי להשתתף בהגרלה שתוצג.
        <br>יש לכם תקציב של ₪80 לכל הגרלה. 
        <br>נסו להעריך כל הגרלה בנפרד ולחשוב כמה היא שווה עבורכם, ₪80 זמינים לכל הגרלה בנפרד.
        <br><br>לחצו על העכבר כדי להמשיך.</p>","1","instructions","","","","","","","","","","","","","","","","","","","","",""
"","","","","","html-keyboard-response","3","538831","0.0-3.0","514f5d99-a157-42d0-b9e5-0407d2049090","null","
        <p>בסוף הניסוי, המחשב יבחר את אחת ההגרלות ויקבע מחיר לכרטיס עבורה. 
        <br>במידה והמחיר שבחרתם נמוך מהמחיר שנבחר על ידי המחשב, לא תשתתפו בהגרלה ותשארו עם מלוא התקציב.
        <br>במידה והמחיר שבחרתם גבוה מהמחיר שנבחר על ידי המחשב, תשלמו את המחיר שנקבע ותשתתפו בהגרלה.
        <br><br>לחצו על העכבר כדי להמשיך.</p>","1","instructions","","","","","","","","","","","","","","","","","","","","",""
"","","","","","html-slider-response","4","557616","0.0-4.0","514f5d99-a157-42d0-b9e5-0407d2049090","18671","
        <p style=""font-size: 42px;"">נתחיל עם דוגמא: 
        <br>ההגרלה מטה מציעה 65% סיכוי לזכות ב-₪40 
        <br>&emsp;&emsp;&emsp;&emsp;&emsp;&emsp;&emsp;&emsp;&ensp;35% סיכוי לזכות ב-₪0.
        <br><br>מה המחיר המירבי שתהיו מוכנים לשלם על כרטיס להגרלה זו בין 0 ל-₪80?
        <br>הזיזו את העכבר על פני המלבן ולחצו כדי לבצע בחירה.</p>
        
        <p style=""text-align: center;"">₪40<br>65%</p>

        <p id=""wtp"" style=""text-align:center; margin-top: 0px; margin-bottom: 0px; font-size: 40px"";>מוכנים לשלם: <span id=""c_p_y""></span></p>","33","example","18","","","","","","","","","","","","","","","","","","","",""
"","","","","","html-keyboard-response","5","567664","0.0-5.0","514f5d99-a157-42d0-b9e5-0407d2049090","null","<p>יפה מאוד!
                <br> בחרתם שתהיו מוכנים לשלם ₪33 כדי להשתתף בהגרלה:
                <br><p style=""text-align: center;"">₪40<br>65%</p>
                <p>נשמע נכון?
                <br>נניח שהגרלה זו נבחרה בסוף הניסוי.
                <br>כעת המחשב יקבע מחיר עבורה באקראי.
                <br>לחצו על העכבר להמשך.</p>","1","example","","","","","","","","","","","","","","","","","","","","",""
"","","","","","html-keyboard-response","6","573472","0.0-6.0","514f5d99-a157-42d0-b9e5-0407d2049090","null","<p>המחשב קבע מחיר: ₪34
                <br>ואתם בחרתם לשלם לכל היותר: ₪33
                <br><br>מכיוון שהמחיר שבחרתם נמוך מהמחיר שנקבע, לא תתשתתפו בהגרלה.
                <br>במקרה כזה, בסוף הניסוי תקבלו את כל התקציב ההתחלתי של ₪80.
                <br><br>לחצו על העכבר להמשך.</p>","1","example","","","","","","","","","","","","","","","","","","","","",""
"","","","","","html-slider-response","7","582968","0.0-7.0","514f5d99-a157-42d0-b9e5-0407d2049090","9233","<p style=""font-size: 42px;"">הנה עוד דוגמא:
                <br>ההגרלה מטה מציעה 35% סיכוי לזכות ב-₪18 
                <br>&emsp;&emsp;&emsp;&emsp;&emsp;&emsp;&emsp;&emsp;&ensp;65% סיכוי לזכות ב-₪0.</p>
        
                <p style=""text-align: center;"">₪18<br>35%</p>
                <p id=""wtp"" style=""text-align:center; margin-top: 0px; margin-bottom: 0px; font-size: 40px"";>מוכנים לשלם: <span id=""c_p_y""></span></p>","16","example","2","","","","","","","","","","","","","","","","","","","",""
"","","","","","html-keyboard-response","8","585863","0.0-8.0","514f5d99-a157-42d0-b9e5-0407d2049090","null","<p>הייתם מוכנים לשלם  ₪16 כדי להשתתף בהגרלה:
                <p style=""text-align: center;"">₪18<br>35%</p>
                <p>כעת נניח שהמחשב בחר את ההגרלה הזו בסוף הניסוי, וקבע עבורה מחיר.
                <br><br>לחצו על העכבר כדי להמשיך.</p>","1","instructions","","","","","","","","","","","","","","","","","","","","",""
"","","","","","html-keyboard-response","9","605903","0.0-9.0","514f5d99-a157-42d0-b9e5-0407d2049090","null","<p>המחשב קבע מחיר להגרלה: ₪15<br>ואתם בחרתם לשלם לכל היותר: ₪16
                <br><br>כעת המחיר שנקבע נמוך מזה שבחרתם, אז תשלמו את המחיר שקבע המחשב (₪15) ותשתתפו בהגרלה.
                <br>במקרה כזה, תסיימו את הניסוי עם תקציב של ₪65 ועם סיכוי לזכות ב-₪18 נוספים מההגרלה.
                <br>כלומר, תוכלו לקבל ₪65 אם לא תזכו בהגרלה, או ₪83 אם תזכו בהגרלה.
                <br><br>לחצו על העכבר להמשך.</p>","1","example","","","","","","","","","","","","","","","","","","","","",""
"","","","","","html-keyboard-response","10","611648","0.0-10.0","514f5d99-a157-42d0-b9e5-0407d2049090","null","<p>במהלך הניסוי, קודם תראו את ההגרלה ורק לאחר מכן תוכלו לבחור.
                <p>כמו כן, יהיו לכם מספר שניות מוגבל להגיב.
                <p>בואו ננסה זאת עם ההגרלה הקודמת.
                <br>לחצו על העכבר כדי להמשיך.</p>","1","instructions","","","","","","","","","","","","","","","","","","","","",""
"","","","","","html-slider-response","11","612920","0.0-11.0","514f5d99-a157-42d0-b9e5-0407d2049090","1000","
                    <p style=""text-align: center;"">₪18<br>35%</p>
                    <p id=""wtp"" style=""text-align:center; margin-top: 0px; margin-bottom: 0px; font-size: 40px"";>&ensp;</p>","33","instructions","0","","","","","","","","","","","","","","","","","","","",""
"","","","","","html-slider-response","12","617189","0.0-12.0","514f5d99-a157-42d0-b9e5-0407d2049090","null","
                    <p style=""text-align: center;"">₪18<br>35%</p>
                    <p id=""wtp"" style=""text-align:center; margin-top: 0px; margin-bottom: 0px; font-size: 40px"";>מוכנים לשלם: <span id=""c_p_y""></span></p>","null","instructions","49","","","","","","","","","","","","","","","","","","","",""
"","","","","","html-keyboard-response","13","617631","0.0-13.0","514f5d99-a157-42d0-b9e5-0407d2049090","null","<p>לא הגבתם בזמן המוקצב לתגובה. 
                <br>נסו להגיב מהר יותר בפעם הבאה.
                <br><br>לחצו על העכבר כדי להמשיך.</p>","1","instructions","","","","","","","","","","","","","","","","","","","","",""
"","","","","","html-slider-response","14","621159","0.0-14.0-0.0","514f5d99-a157-42d0-b9e5-0407d2049090","3263","
                    <p style=""text-align: center;"">₪40<br>65%</p>
                    <p id=""wtp"" style=""text-align:center; margin-top: 0px; margin-bottom: 0px; font-size: 40px"";>מוכנים לשלם: <span id=""c_p_y""></span></p>","35","instructions","64","","","","","","","","","","","","","","","","","","","",""
"","","","","","html-keyboard-response","15","622799","0.0-14.0-1.0","514f5d99-a157-42d0-b9e5-0407d2049090","null","<p>יפה. הפעם בחרתם לשלם לכל היותר ₪35.
                <br><br>לחצו על העכבר כדי להמשיך.</p>","1","instructions","","","","","","","","","","","","","","","","","","","","",""
"","","","","","html-keyboard-response","16","628527","0.0-15.0","514f5d99-a157-42d0-b9e5-0407d2049090","null","<p>כעת נתחיל את הניסוי.
                <br><br>אתם תראו הגרלות ותתבקשו לבחור כמה תהיו מוכנים לשלם כדי להשתתף בהן.
                <br>יש לכם תקציב של ₪80 עבור כל הגרלה.
                <br>בסוף הניסוי הגרלה אחת תבחר באקראי ותשוחק.
                <br><br>לחצו על העכבר כדי להתחיל את הניסוי.</p>","1","instructions","","","","","","","","","","","","","","","","","","","","",""
"","","","","","html-keyboard-response","17","629790","0.0-16.0","514f5d99-a157-42d0-b9e5-0407d2049090","null","<p style=""text-align: center;"">+</p>","null","fixation","","","","","","","","","","","","","","","","","","","","",""
"","","","","","html-slider-response","18","630792","0.0-17.0-0.0","514f5d99-a157-42d0-b9e5-0407d2049090","1000","
                  <p style=""text-align: center;"">₪58
                                                <br>40%</p>
                  <p id=""wtp"" style=""text-align:center; margin-top: 0px; margin-bottom: 0px; font-size: 40px"";>&ensp;</p>","-","viewing","0","20","10C,13A,19C,21B","","","","","","","","","","","","","","","","","",""
"","","","","","html-slider-response","19","633191","0.0-17.0-1.0","514f5d99-a157-42d0-b9e5-0407d2049090","2398","
                  <p style=""text-align: center;"">₪58
                                                <br>40%</p>
                  <p id=""wtp"" style=""text-align:center; margin-top: 0px; margin-bottom: 0px; font-size: 40px"";>מוכנים לשלם: <span id=""c_p_y""></span></p>","43","evaluation","47","20","10C,13A,19C,21B","40","58","43","","","","","","","","","","","","","","",""
"","","","","","html-keyboard-response","20","634202","0.0-17.0-2.0","514f5d99-a157-42d0-b9e5-0407d2049090","null","<p style=""text-align: center;"">+</p>","null","fixation","","","","","","","","","","","","","","","","","","","","",""
"","","","","","html-slider-response","21","635216","0.0-17.0-0.1","514f5d99-a157-42d0-b9e5-0407d2049090","1000","
                  <p style=""text-align: center;"">₪11
                                                <br>75%</p>
                  <p id=""wtp"" style=""text-align:center; margin-top: 0px; margin-bottom: 0px; font-size: 40px"";>&ensp;</p>","-","viewing","0","7","6B,18B,22C,24C,29A","","","","","","","","","","","","","","","","","",""
"","","","","","html-slider-response","22","639231","0.0-17.0-1.1","514f5d99-a157-42d0-b9e5-0407d2049090","null","
                  <p style=""text-align: center;"">₪11
                                                <br>75%</p>
                  <p id=""wtp"" style=""text-align:center; margin-top: 0px; margin-bottom: 0px; font-size: 40px"";>מוכנים לשלם: <span id=""c_p_y""></span></p>","null","evaluation","49","7","6B,18B,22C,24C,29A","75","11","21","","","","","","","","","","","","","","",""
"","","","","","html-keyboard-response","23","640514","0.0-17.0-2.1","514f5d99-a157-42d0-b9e5-0407d2049090","null","<p style=""text-align: center;"">+</p>","null","fixation","","","","","","","","","","","","","","","","","","","","",""
"","","","","","html-slider-response","24","641519","0.0-17.0-0.2","514f5d99-a157-42d0-b9e5-0407d2049090","1000","
                  <p style=""text-align: center;"">₪18
                                                <br>50%</p>
                  <p id=""wtp"" style=""text-align:center; margin-top: 0px; margin-bottom: 0px; font-size: 40px"";>&ensp;</p>","-","viewing","0","10","2C,16C,22B,28A","","","","","","","","","","","","","","","","","",""
"","","","","","html-slider-response","25","644264","0.0-17.0-1.2","514f5d99-a157-42d0-b9e5-0407d2049090","2744","
                  <p style=""text-align: center;"">₪18
                                                <br>50%</p>
                  <p id=""wtp"" style=""text-align:center; margin-top: 0px; margin-bottom: 0px; font-size: 40px"";>מוכנים לשלם: <span id=""c_p_y""></span></p>","19","evaluation","62","10","2C,16C,22B,28A","50","18","19","","","","","","","","","","","","","","",""
"","","","","","html-keyboard-response","26","645231","0.0-17.0-2.2","514f5d99-a157-42d0-b9e5-0407d2049090","null","<p style=""text-align: center;"">+</p>","null","fixation","","","","","","","","","","","","","","","","","","","","",""
"","","","","","html-slider-response","27","646249","0.0-17.0-0.3","514f5d99-a157-42d0-b9e5-0407d2049090","1000","
                  <p style=""text-align: center;"">₪64
                                                <br>25%</p>
                  <p id=""wtp"" style=""text-align:center; margin-top: 0px; margin-bottom: 0px; font-size: 40px"";>&ensp;</p>","-","viewing","0","24","6A,21A","","","","","","","","","","","","","","","","","",""
"","","","","","html-slider-response","28","647751","0.0-17.0-1.3","514f5d99-a157-42d0-b9e5-0407d2049090","1502","
                  <p style=""text-align: center;"">₪64
                                                <br>25%</p>
                  <p id=""wtp"" style=""text-align:center; margin-top: 0px; margin-bottom: 0px; font-size: 40px"";>מוכנים לשלם: <span id=""c_p_y""></span></p>","16","evaluation","59","24","6A,21A","25","64","16","","","","","","","","","","","","","","",""
"","","","","","html-keyboard-response","29","648947","0.0-17.0-2.3","514f5d99-a157-42d0-b9e5-0407d2049090","null","<p style=""text-align: center;"">+</p>","null","fixation","","","","","","","","","","","","","","","","","","","","",""
"","","","","","html-slider-response","30","649952","0.0-17.0-0.4","514f5d99-a157-42d0-b9e5-0407d2049090","1000","
                  <p style=""text-align: center;"">₪4
                                                <br>25%</p>
                  <p id=""wtp"" style=""text-align:center; margin-top: 0px; margin-bottom: 0px; font-size: 40px"";>&ensp;</p>","-","viewing","0","1","6C,29B,30C","","","","","","","","","","","","","","","","","",""
"","","","","","html-slider-response","31","651607","0.0-17.0-1.4","514f5d99-a157-42d0-b9e5-0407d2049090","1654","
                  <p style=""text-align: center;"">₪4
                                                <br>25%</p>
                  <p id=""wtp"" style=""text-align:center; margin-top: 0px; margin-bottom: 0px; font-size: 40px"";>מוכנים לשלם: <span id=""c_p_y""></span></p>","3","evaluation","77","1","6C,29B,30C","25","4","3","","","","","","","","","","","","","","",""
"","","","","","html-keyboard-response","32","652476","0.0-17.0-2.4","514f5d99-a157-42d0-b9e5-0407d2049090","null","<p style=""text-align: center;"">+</p>","null","fixation","","","","","","","","","","","","","","","","","","","","",""
"","","","","","html-slider-response","33","653482","0.0-17.0-0.5","514f5d99-a157-42d0-b9e5-0407d2049090","1000","
                  <p style=""text-align: center;"">₪58
                                                <br>45%</p>
                  <p id=""wtp"" style=""text-align:center; margin-top: 0px; margin-bottom: 0px; font-size: 40px"";>&ensp;</p>","-","viewing","0","21","11C,18C,25A","","","","","","","","","","","","","","","","","",""
"","","","","","html-slider-response","34","655583","0.0-17.0-1.5","514f5d99-a157-42d0-b9e5-0407d2049090","2101","
                  <p style=""text-align: center;"">₪58
                                                <br>45%</p>
                  <p id=""wtp"" style=""text-align:center; margin-top: 0px; margin-bottom: 0px; font-size: 40px"";>מוכנים לשלם: <span id=""c_p_y""></span></p>","34","evaluation","6","21","11C,18C,25A","45","58","34","","","","","","","","","","","","","","",""
"","","","","","html-keyboard-response","35","656924","0.0-17.0-2.5","514f5d99-a157-42d0-b9e5-0407d2049090","null","<p style=""text-align: center;"">+</p>","null","fixation","","","","","","","","","","","","","","","","","","","","",""
"","","","","","html-slider-response","36","657930","0.0-17.0-0.6","514f5d99-a157-42d0-b9e5-0407d2049090","1000","
                  <p style=""text-align: center;"">₪11
                                                <br>20%</p>
                  <p id=""wtp"" style=""text-align:center; margin-top: 0px; margin-bottom: 0px; font-size: 40px"";>&ensp;</p>","-","viewing","0","4","12C,17C,23C,28C","","","","","","","","","","","","","","","","","",""
"","","","","","html-slider-response","37","660047","0.0-17.0-1.6","514f5d99-a157-42d0-b9e5-0407d2049090","2115","
                  <p style=""text-align: center;"">₪11
                                                <br>20%</p>
                  <p id=""wtp"" style=""text-align:center; margin-top: 0px; margin-bottom: 0px; font-size: 40px"";>מוכנים לשלם: <span id=""c_p_y""></span></p>","13","evaluation","54","4","12C,17C,23C,28C","20","11","13","","","","","","","","","","","","","","",""
"","","","","","html-keyboard-response","38","661282","0.0-17.0-2.6","514f5d99-a157-42d0-b9e5-0407d2049090","null","<p style=""text-align: center;"">+</p>","null","fixation","","","","","","","","","","","","","","","","","","","","",""
"","","","","","html-slider-response","39","662289","0.0-17.0-0.7","514f5d99-a157-42d0-b9e5-0407d2049090","1000","
                  <p style=""text-align: center;"">₪64
                                                <br>50%</p>
                  <p id=""wtp"" style=""text-align:center; margin-top: 0px; margin-bottom: 0px; font-size: 40px"";>&ensp;</p>","-","viewing","0","25","1B,3B,4A","","","","","","","","","","","","","","","","","",""
"","","","","","html-slider-response","40","664943","0.0-17.0-1.7","514f5d99-a157-42d0-b9e5-0407d2049090","2654","
                  <p style=""text-align: center;"">₪64
                                                <br>50%</p>
                  <p id=""wtp"" style=""text-align:center; margin-top: 0px; margin-bottom: 0px; font-size: 40px"";>מוכנים לשלם: <span id=""c_p_y""></span></p>","45","evaluation","31","25","1B,3B,4A","50","64","45","","","","","","","","","","","","","","",""
"","","","","","html-keyboard-response","41","666051","0.0-17.0-2.7","514f5d99-a157-42d0-b9e5-0407d2049090","null","<p style=""text-align: center;"">+</p>","null","fixation","","","","","","","","","","","","","","","","","","","","",""
"","","","","","html-slider-response","42","667065","0.0-17.0-0.8","514f5d99-a157-42d0-b9e5-0407d2049090","1000","
                  <p style=""text-align: center;"">₪71
                                                <br>45%</p>
                  <p id=""wtp"" style=""text-align:center; margin-top: 0px; margin-bottom: 0px; font-size: 40px"";>&ensp;</p>","-","viewing","0","26","2B,16A","","","","","","","","","","","","","","","","","",""
"","","","","","html-slider-response","43","669583","0.0-17.0-1.8","514f5d99-a157-42d0-b9e5-0407d2049090","2518","
                  <p style=""text-align: center;"">₪71
                                                <br>45%</p>
                  <p id=""wtp"" style=""text-align:center; margin-top: 0px; margin-bottom: 0px; font-size: 40px"";>מוכנים לשלם: <span id=""c_p_y""></span></p>","52","evaluation","3","26","2B,16A","45","71","52","","","","","","","","","","","","","","",""
"","","","","","html-keyboard-response","44","670690","0.0-17.0-2.8","514f5d99-a157-42d0-b9e5-0407d2049090","null","<p style=""text-align: center;"">+</p>","null","fixation","","","","","","","","","","","","","","","","","","","","",""
"","","","","","html-slider-response","45","671698","0.0-17.0-0.9","514f5d99-a157-42d0-b9e5-0407d2049090","1000","
                  <p style=""text-align: center;"">₪4
                                                <br>75%</p>
                  <p id=""wtp"" style=""text-align:center; margin-top: 0px; margin-bottom: 0px; font-size: 40px"";>&ensp;</p>","-","viewing","0","3","12B,20B,23B,27C,29C","","","","","","","","","","","","","","","","","",""
"","","","","","html-slider-response","46","674023","0.0-17.0-1.9","514f5d99-a157-42d0-b9e5-0407d2049090","2324","
                  <p style=""text-align: center;"">₪4
                                                <br>75%</p>
                  <p id=""wtp"" style=""text-align:center; margin-top: 0px; margin-bottom: 0px; font-size: 40px"";>מוכנים לשלם: <span id=""c_p_y""></span></p>","7","evaluation","31","3","12B,20B,23B,27C,29C","75","4","7","","","","","","","","","","","","","","",""
"","","","","","html-keyboard-response","47","675413","0.0-17.0-2.9","514f5d99-a157-42d0-b9e5-0407d2049090","null","<p style=""text-align: center;"">+</p>","null","fixation","","","","","","","","","","","","","","","","","","","","",""
"","","","","","html-slider-response","48","676421","0.0-17.0-0.10","514f5d99-a157-42d0-b9e5-0407d2049090","1000","
                  <p style=""text-align: center;"">₪43
                                                <br>60%</p>
                  <p id=""wtp"" style=""text-align:center; margin-top: 0px; margin-bottom: 0px; font-size: 40px"";>&ensp;</p>","-","viewing","0","17","2A,7A,9A,15B","","","","","","","","","","","","","","","","","",""
"","","","","","html-slider-response","49","680391","0.0-17.0-1.10","514f5d99-a157-42d0-b9e5-0407d2049090","3969","
                  <p style=""text-align: center;"">₪43
                                                <br>60%</p>
                  <p id=""wtp"" style=""text-align:center; margin-top: 0px; margin-bottom: 0px; font-size: 40px"";>מוכנים לשלם: <span id=""c_p_y""></span></p>","28","evaluation","79","17","2A,7A,9A,15B","60","43","28","","","","","","","","","","","","","","",""
"","","","","","html-keyboard-response","50","681762","0.0-17.0-2.10","514f5d99-a157-42d0-b9e5-0407d2049090","null","<p style=""text-align: center;"">+</p>","null","fixation","","","","","","","","","","","","","","","","","","","","",""
"","","","","","html-slider-response","51","682768","0.0-17.0-0.11","514f5d99-a157-42d0-b9e5-0407d2049090","1000","
                  <p style=""text-align: center;"">₪11
                                                <br>45%</p>
                  <p id=""wtp"" style=""text-align:center; margin-top: 0px; margin-bottom: 0px; font-size: 40px"";>&ensp;</p>","-","viewing","0","6","14B,21C,25C","","","","","","","","","","","","","","","","","",""
"","","","","","html-slider-response","52","685552","0.0-17.0-1.11","514f5d99-a157-42d0-b9e5-0407d2049090","2782","
                  <p style=""text-align: center;"">₪11
                                                <br>45%</p>
                  <p id=""wtp"" style=""text-align:center; margin-top: 0px; margin-bottom: 0px; font-size: 40px"";>מוכנים לשלם: <span id=""c_p_y""></span></p>","7","evaluation","38","6","14B,21C,25C","45","11","8","","","","","","","","","","","","","","",""
"","","","","","html-keyboard-response","53","686912","0.0-17.0-2.11","514f5d99-a157-42d0-b9e5-0407d2049090","null","<p style=""text-align: center;"">+</p>","null","fixation","","","","","","","","","","","","","","","","","","","","",""
"","","","","","html-slider-response","54","687913","0.0-17.0-0.12","514f5d99-a157-42d0-b9e5-0407d2049090","1000","
                  <p style=""text-align: center;"">₪16
                                                <br>20%</p>
                  <p id=""wtp"" style=""text-align:center; margin-top: 0px; margin-bottom: 0px; font-size: 40px"";>&ensp;</p>","-","viewing","0","8","14C,17A,20C,27A","","","","","","","","","","","","","","","","","",""
"","","","","","html-slider-response","55","689583","0.0-17.0-1.12","514f5d99-a157-42d0-b9e5-0407d2049090","1669","
                  <p style=""text-align: center;"">₪16
                                                <br>20%</p>
                  <p id=""wtp"" style=""text-align:center; margin-top: 0px; margin-bottom: 0px; font-size: 40px"";>מוכנים לשלם: <span id=""c_p_y""></span></p>","11","evaluation","76","8","14C,17A,20C,27A","20","16","11","","","","","","","","","","","","","","",""
"","","","","","html-keyboard-response","56","690404","0.0-17.0-2.12","514f5d99-a157-42d0-b9e5-0407d2049090","null","<p style=""text-align: center;"">+</p>","null","fixation","","","","","","","","","","","","","","","","","","","","",""
"","","","","","html-slider-response","57","691408","0.0-17.0-0.13","514f5d99-a157-42d0-b9e5-0407d2049090","1000","
                  <p style=""text-align: center;"">₪39
                                                <br>60%</p>
                  <p id=""wtp"" style=""text-align:center; margin-top: 0px; margin-bottom: 0px; font-size: 40px"";>&ensp;</p>","-","viewing","0","15","9C,25B","","","","","","","","","","","","","","","","","",""
"","","","","","html-slider-response","58","695319","0.0-17.0-1.13","514f5d99-a157-42d0-b9e5-0407d2049090","3911","
                  <p style=""text-align: center;"">₪39
                                                <br>60%</p>
                  <p id=""wtp"" style=""text-align:center; margin-top: 0px; margin-bottom: 0px; font-size: 40px"";>מוכנים לשלם: <span id=""c_p_y""></span></p>","30","evaluation","0","15","9C,25B","60","39","30","","","","","","","","","","","","","","",""
"","","","","","html-keyboard-response","59","695886","0.0-17.0-2.13","514f5d99-a157-42d0-b9e5-0407d2049090","null","<p style=""text-align: center;"">+</p>","null","fixation","","","","","","","","","","","","","","","","","","","","",""
"","","","","","html-slider-response","60","696891","0.0-17.0-0.14","514f5d99-a157-42d0-b9e5-0407d2049090","1000","
                  <p style=""text-align: center;"">₪58
                                                <br>30%</p>
                  <p id=""wtp"" style=""text-align:center; margin-top: 0px; margin-bottom: 0px; font-size: 40px"";>&ensp;</p>","-","viewing","0","19","13C,30A","","","","","","","","","","","","","","","","","",""
"","","","","","html-slider-response","61","700496","0.0-17.0-1.14","514f5d99-a157-42d0-b9e5-0407d2049090","3603","
                  <p style=""text-align: center;"">₪58
                                                <br>30%</p>
                  <p id=""wtp"" style=""text-align:center; margin-top: 0px; margin-bottom: 0px; font-size: 40px"";>מוכנים לשלם: <span id=""c_p_y""></span></p>","17","evaluation","34","19","13C,30A","30","58","17","","","","","","","","","","","","","","",""
"","","","","","html-keyboard-response","62","701869","0.0-17.0-2.14","514f5d99-a157-42d0-b9e5-0407d2049090","null","<p style=""text-align: center;"">+</p>","null","fixation","","","","","","","","","","","","","","","","","","","","",""
"","","","","","html-slider-response","63","702871","0.0-17.0-0.15","514f5d99-a157-42d0-b9e5-0407d2049090","1000","
                  <p style=""text-align: center;"">₪71
                                                <br>75%</p>
                  <p id=""wtp"" style=""text-align:center; margin-top: 0px; margin-bottom: 0px; font-size: 40px"";>&ensp;</p>","-","viewing","0","28","8B","","","","","","","","","","","","","","","","","",""
"","","","","","html-slider-response","64","704951","0.0-17.0-1.15","514f5d99-a157-42d0-b9e5-0407d2049090","2080","
                  <p style=""text-align: center;"">₪71
                                                <br>75%</p>
                  <p id=""wtp"" style=""text-align:center; margin-top: 0px; margin-bottom: 0px; font-size: 40px"";>מוכנים לשלם: <span id=""c_p_y""></span></p>","51","evaluation","2","28","8B","75","71","51","","","","","","","","","","","","","","",""
"","","","","","html-keyboard-response","65","706312","0.0-17.0-2.15","514f5d99-a157-42d0-b9e5-0407d2049090","null","<p style=""text-align: center;"">+</p>","null","fixation","","","","","","","","","","","","","","","","","","","","",""
"","","","","","html-slider-response","66","707318","0.0-17.0-0.16","514f5d99-a157-42d0-b9e5-0407d2049090","1000","
                  <p style=""text-align: center;"">₪36
                                                <br>60%</p>
                  <p id=""wtp"" style=""text-align:center; margin-top: 0px; margin-bottom: 0px; font-size: 40px"";>&ensp;</p>","-","viewing","0","12","1C,7C,15C","","","","","","","","","","","","","","","","","",""
"","","","","","html-slider-response","67","709687","0.0-17.0-1.16","514f5d99-a157-42d0-b9e5-0407d2049090","2368","
                  <p style=""text-align: center;"">₪36
                                                <br>60%</p>
                  <p id=""wtp"" style=""text-align:center; margin-top: 0px; margin-bottom: 0px; font-size: 40px"";>מוכנים לשלם: <span id=""c_p_y""></span></p>","25","evaluation","18","12","1C,7C,15C","60","36","25","","","","","","","","","","","","","","",""
"","","","","","html-keyboard-response","68","710876","0.0-17.0-2.16","514f5d99-a157-42d0-b9e5-0407d2049090","null","<p style=""text-align: center;"">+</p>","null","fixation","","","","","","","","","","","","","","","","","","","","",""
"","","","","","html-slider-response","69","711888","0.0-17.0-0.17","514f5d99-a157-42d0-b9e5-0407d2049090","1000","
                  <p style=""text-align: center;"">₪76
                                                <br>65%</p>
                  <p id=""wtp"" style=""text-align:center; margin-top: 0px; margin-bottom: 0px; font-size: 40px"";>&ensp;</p>","-","viewing","0","29","8C,19A,24B","","","","","","","","","","","","","","","","","",""
"","","","","","html-slider-response","70","715890","0.0-17.0-1.17","514f5d99-a157-42d0-b9e5-0407d2049090","null","
                  <p style=""text-align: center;"">₪76
                                                <br>65%</p>
                  <p id=""wtp"" style=""text-align:center; margin-top: 0px; margin-bottom: 0px; font-size: 40px"";>מוכנים לשלם: <span id=""c_p_y""></span></p>","null","evaluation","55","29","8C,19A,24B","65","76","54","","","","","","","","","","","","","","",""
"","","","","","html-keyboard-response","71","716836","0.0-17.0-2.17","514f5d99-a157-42d0-b9e5-0407d2049090","null","<p style=""text-align: center;"">+</p>","null","fixation","","","","","","","","","","","","","","","","","","","","",""
"","","","","","html-slider-response","72","717850","0.0-17.0-0.18","514f5d99-a157-42d0-b9e5-0407d2049090","1000","
                  <p style=""text-align: center;"">₪61
                                                <br>45%</p>
                  <p id=""wtp"" style=""text-align:center; margin-top: 0px; margin-bottom: 0px; font-size: 40px"";>&ensp;</p>","-","viewing","0","22","10A,11A","","","","","","","","","","","","","","","","","",""
"","","","","","html-slider-response","73","720968","0.0-17.0-1.18","514f5d99-a157-42d0-b9e5-0407d2049090","3116","
                  <p style=""text-align: center;"">₪61
                                                <br>45%</p>
                  <p id=""wtp"" style=""text-align:center; margin-top: 0px; margin-bottom: 0px; font-size: 40px"";>מוכנים לשלם: <span id=""c_p_y""></span></p>","34","evaluation","48","22","10A,11A","45","61","34","","","","","","","","","","","","","","",""
"","","","","","html-keyboard-response","74","722075","0.0-17.0-2.18","514f5d99-a157-42d0-b9e5-0407d2049090","null","<p style=""text-align: center;"">+</p>","null","fixation","","","","","","","","","","","","","","","","","","","","",""
"","","","","","html-slider-response","75","723081","0.0-17.0-0.19","514f5d99-a157-42d0-b9e5-0407d2049090","1000","
                  <p style=""text-align: center;"">₪36
                                                <br>30%</p>
                  <p id=""wtp"" style=""text-align:center; margin-top: 0px; margin-bottom: 0px; font-size: 40px"";>&ensp;</p>","-","viewing","0","11","3C,20A,22A","","","","","","","","","","","","","","","","","",""
"","","","","","html-slider-response","76","725175","0.0-17.0-1.19","514f5d99-a157-42d0-b9e5-0407d2049090","2093","
                  <p style=""text-align: center;"">₪36
                                                <br>30%</p>
                  <p id=""wtp"" style=""text-align:center; margin-top: 0px; margin-bottom: 0px; font-size: 40px"";>מוכנים לשלם: <span id=""c_p_y""></span></p>","18","evaluation","34","11","3C,20A,22A","30","36","18","","","","","","","","","","","","","","",""
"","","","","","html-keyboard-response","77","726238","0.0-17.0-2.19","514f5d99-a157-42d0-b9e5-0407d2049090","null","<p style=""text-align: center;"">+</p>","null","fixation","","","","","","","","","","","","","","","","","","","","",""
"","","","","","html-slider-response","78","727248","0.0-17.0-0.20","514f5d99-a157-42d0-b9e5-0407d2049090","1000","
                  <p style=""text-align: center;"">₪4
                                                <br>50%</p>
                  <p id=""wtp"" style=""text-align:center; margin-top: 0px; margin-bottom: 0px; font-size: 40px"";>&ensp;</p>","-","viewing","0","2","4C,17B","","","","","","","","","","","","","","","","","",""
"","","","","","html-slider-response","79","730255","0.0-17.0-1.20","514f5d99-a157-42d0-b9e5-0407d2049090","3007","
                  <p style=""text-align: center;"">₪4
                                                <br>50%</p>
                  <p id=""wtp"" style=""text-align:center; margin-top: 0px; margin-bottom: 0px; font-size: 40px"";>מוכנים לשלם: <span id=""c_p_y""></span></p>","6","evaluation","15","2","4C,17B","50","4","6","","","","","","","","","","","","","","",""
"","","","","","html-keyboard-response","80","731478","0.0-17.0-2.20","514f5d99-a157-42d0-b9e5-0407d2049090","null","<p style=""text-align: center;"">+</p>","null","fixation","","","","","","","","","","","","","","","","","","","","",""
"","","","","","html-slider-response","81","732492","0.0-17.0-0.21","514f5d99-a157-42d0-b9e5-0407d2049090","1000","
                  <p style=""text-align: center;"">₪79
                                                <br>40%</p>
                  <p id=""wtp"" style=""text-align:center; margin-top: 0px; margin-bottom: 0px; font-size: 40px"";>&ensp;</p>","-","viewing","0","30","9B","","","","","","","","","","","","","","","","","",""
"","","","","","html-slider-response","82","735727","0.0-17.0-1.21","514f5d99-a157-42d0-b9e5-0407d2049090","3234","
                  <p style=""text-align: center;"">₪79
                                                <br>40%</p>
                  <p id=""wtp"" style=""text-align:center; margin-top: 0px; margin-bottom: 0px; font-size: 40px"";>מוכנים לשלם: <span id=""c_p_y""></span></p>","33","evaluation","77","30","9B","40","79","33","","","","","","","","","","","","","","",""
"","","","","","html-keyboard-response","83","736371","0.0-17.0-2.21","514f5d99-a157-42d0-b9e5-0407d2049090","null","<p style=""text-align: center;"">+</p>","null","fixation","","","","","","","","","","","","","","","","","","","","",""
"","","","","","html-slider-response","84","737379","0.0-17.0-0.22","514f5d99-a157-42d0-b9e5-0407d2049090","1000","
                  <p style=""text-align: center;"">₪79
                                                <br>65%</p>
                  <p id=""wtp"" style=""text-align:center; margin-top: 0px; margin-bottom: 0px; font-size: 40px"";>&ensp;</p>","-","viewing","0","31","8A","","","","","","","","","","","","","","","","","",""
"","","","","","html-slider-response","85","740159","0.0-17.0-1.22","514f5d99-a157-42d0-b9e5-0407d2049090","2779","
                  <p style=""text-align: center;"">₪79
                                                <br>65%</p>
                  <p id=""wtp"" style=""text-align:center; margin-top: 0px; margin-bottom: 0px; font-size: 40px"";>מוכנים לשלם: <span id=""c_p_y""></span></p>","48","evaluation","41","31","8A","65","79","48","","","","","","","","","","","","","","",""
"","","","","","html-keyboard-response","86","740927","0.0-17.0-2.22","514f5d99-a157-42d0-b9e5-0407d2049090","null","<p style=""text-align: center;"">+</p>","null","fixation","","","","","","","","","","","","","","","","","","","","",""
"","","","","","html-slider-response","87","741941","0.0-17.0-0.23","514f5d99-a157-42d0-b9e5-0407d2049090","1000","
                  <p style=""text-align: center;"">₪36
                                                <br>70%</p>
                  <p id=""wtp"" style=""text-align:center; margin-top: 0px; margin-bottom: 0px; font-size: 40px"";>&ensp;</p>","-","viewing","0","13","3A,5C,10B","","","","","","","","","","","","","","","","","",""
"","","","","","html-slider-response","88","745343","0.0-17.0-1.23","514f5d99-a157-42d0-b9e5-0407d2049090","3401","
                  <p style=""text-align: center;"">₪36
                                                <br>70%</p>
                  <p id=""wtp"" style=""text-align:center; margin-top: 0px; margin-bottom: 0px; font-size: 40px"";>מוכנים לשלם: <span id=""c_p_y""></span></p>","29","evaluation","12","13","3A,5C,10B","70","36","29","","","","","","","","","","","","","","",""
"","","","","","html-keyboard-response","89","745934","0.0-17.0-2.23","514f5d99-a157-42d0-b9e5-0407d2049090","null","<p style=""text-align: center;"">+</p>","null","fixation","","","","","","","","","","","","","","","","","","","","",""
"","","","","","html-slider-response","90","746940","0.0-17.0-0.24","514f5d99-a157-42d0-b9e5-0407d2049090","1000","
                  <p style=""text-align: center;"">₪11
                                                <br>25%</p>
                  <p id=""wtp"" style=""text-align:center; margin-top: 0px; margin-bottom: 0px; font-size: 40px"";>&ensp;</p>","-","viewing","0","5","12A,27B,28B,30B","","","","","","","","","","","","","","","","","",""
"","","","","","html-slider-response","91","749599","0.0-17.0-1.24","514f5d99-a157-42d0-b9e5-0407d2049090","2658","
                  <p style=""text-align: center;"">₪11
                                                <br>25%</p>
                  <p id=""wtp"" style=""text-align:center; margin-top: 0px; margin-bottom: 0px; font-size: 40px"";>מוכנים לשלם: <span id=""c_p_y""></span></p>","11","evaluation","77","5","12A,27B,28B,30B","25","11","11","","","","","","","","","","","","","","",""
"","","","","","html-keyboard-response","92","750491","0.0-17.0-2.24","514f5d99-a157-42d0-b9e5-0407d2049090","null","<p style=""text-align: center;"">+</p>","null","fixation","","","","","","","","","","","","","","","","","","","","",""
"","","","","","html-slider-response","93","751498","0.0-17.0-0.25","514f5d99-a157-42d0-b9e5-0407d2049090","1000","
                  <p style=""text-align: center;"">₪71
                                                <br>55%</p>
                  <p id=""wtp"" style=""text-align:center; margin-top: 0px; margin-bottom: 0px; font-size: 40px"";>&ensp;</p>","-","viewing","0","27","5B,18A","","","","","","","","","","","","","","","","","",""
"","","","","","html-slider-response","94","752895","0.0-17.0-1.25","514f5d99-a157-42d0-b9e5-0407d2049090","1396","
                  <p style=""text-align: center;"">₪71
                                                <br>55%</p>
                  <p id=""wtp"" style=""text-align:center; margin-top: 0px; margin-bottom: 0px; font-size: 40px"";>מוכנים לשלם: <span id=""c_p_y""></span></p>","37","evaluation","50","27","5B,18A","55","71","37","","","","","","","","","","","","","","",""
"","","","","","html-keyboard-response","95","753770","0.0-17.0-2.25","514f5d99-a157-42d0-b9e5-0407d2049090","null","<p style=""text-align: center;"">+</p>","null","fixation","","","","","","","","","","","","","","","","","","","","",""
"","","","","","html-slider-response","96","754781","0.0-17.0-0.26","514f5d99-a157-42d0-b9e5-0407d2049090","1000","
                  <p style=""text-align: center;"">₪39
                                                <br>65%</p>
                  <p id=""wtp"" style=""text-align:center; margin-top: 0px; margin-bottom: 0px; font-size: 40px"";>&ensp;</p>","-","viewing","0","16","1A,15A,26C","","","","","","","","","","","","","","","","","",""
"","","","","","html-slider-response","97","757887","0.0-17.0-1.26","514f5d99-a157-42d0-b9e5-0407d2049090","3105","
                  <p style=""text-align: center;"">₪39
                                                <br>65%</p>
                  <p id=""wtp"" style=""text-align:center; margin-top: 0px; margin-bottom: 0px; font-size: 40px"";>מוכנים לשלם: <span id=""c_p_y""></span></p>","20","evaluation","3","16","1A,15A,26C","65","39","20","","","","","","","","","","","","","","",""
"","","","","","html-keyboard-response","98","758801","0.0-17.0-2.26","514f5d99-a157-42d0-b9e5-0407d2049090","null","<p style=""text-align: center;"">+</p>","null","fixation","","","","","","","","","","","","","","","","","","","","",""
"","","","","","html-slider-response","99","759812","0.0-17.0-0.27","514f5d99-a157-42d0-b9e5-0407d2049090","1000","
                  <p style=""text-align: center;"">₪18
                                                <br>25%</p>
                  <p id=""wtp"" style=""text-align:center; margin-top: 0px; margin-bottom: 0px; font-size: 40px"";>&ensp;</p>","-","viewing","0","9","14A,23A","","","","","","","","","","","","","","","","","",""
"","","","","","html-slider-response","100","760911","0.0-17.0-1.27","514f5d99-a157-42d0-b9e5-0407d2049090","1098","
                  <p style=""text-align: center;"">₪18
                                                <br>25%</p>
                  <p id=""wtp"" style=""text-align:center; margin-top: 0px; margin-bottom: 0px; font-size: 40px"";>מוכנים לשלם: <span id=""c_p_y""></span></p>","12","evaluation","56","9","14A,23A","25","18","13","","","","","","","","","","","","","","",""
"","","","","","html-keyboard-response","101","762052","0.0-17.0-2.27","514f5d99-a157-42d0-b9e5-0407d2049090","null","<p style=""text-align: center;"">+</p>","null","fixation","","","","","","","","","","","","","","","","","","","","",""
"","","","","","html-slider-response","102","763056","0.0-17.0-0.28","514f5d99-a157-42d0-b9e5-0407d2049090","1000","
                  <p style=""text-align: center;"">₪43
                                                <br>75%</p>
                  <p id=""wtp"" style=""text-align:center; margin-top: 0px; margin-bottom: 0px; font-size: 40px"";>&ensp;</p>","-","viewing","0","18","11B,19B,24A,26A","","","","","","","","","","","","","","","","","",""
"","","","","","html-slider-response","103","764984","0.0-17.0-1.28","514f5d99-a157-42d0-b9e5-0407d2049090","1926","
                  <p style=""text-align: center;"">₪43
                                                <br>75%</p>
                  <p id=""wtp"" style=""text-align:center; margin-top: 0px; margin-bottom: 0px; font-size: 40px"";>מוכנים לשלם: <span id=""c_p_y""></span></p>","29","evaluation","18","18","11B,19B,24A,26A","75","43","29","","","","","","","","","","","","","","",""
"","","","","","html-keyboard-response","104","765742","0.0-17.0-2.28","514f5d99-a157-42d0-b9e5-0407d2049090","null","<p style=""text-align: center;"">+</p>","null","fixation","","","","","","","","","","","","","","","","","","","","",""
"","","","","","html-slider-response","105","766760","0.0-17.0-0.29","514f5d99-a157-42d0-b9e5-0407d2049090","1000","
                  <p style=""text-align: center;"">₪61
                                                <br>55%</p>
                  <p id=""wtp"" style=""text-align:center; margin-top: 0px; margin-bottom: 0px; font-size: 40px"";>&ensp;</p>","-","viewing","0","23","7B,26B","","","","","","","","","","","","","","","","","",""
"","","","","","html-slider-response","106","768783","0.0-17.0-1.29","514f5d99-a157-42d0-b9e5-0407d2049090","2023","
                  <p style=""text-align: center;"">₪61
                                                <br>55%</p>
                  <p id=""wtp"" style=""text-align:center; margin-top: 0px; margin-bottom: 0px; font-size: 40px"";>מוכנים לשלם: <span id=""c_p_y""></span></p>","36","evaluation","2","23","7B,26B","55","61","36","","","","","","","","","","","","","","",""
"","","","","","html-keyboard-response","107","769396","0.0-17.0-2.29","514f5d99-a157-42d0-b9e5-0407d2049090","null","<p style=""text-align: center;"">+</p>","null","fixation","","","","","","","","","","","","","","","","","","","","",""
"","","","","","html-slider-response","108","770398","0.0-17.0-0.30","514f5d99-a157-42d0-b9e5-0407d2049090","1000","
                  <p style=""text-align: center;"">₪36
                                                <br>75%</p>
                  <p id=""wtp"" style=""text-align:center; margin-top: 0px; margin-bottom: 0px; font-size: 40px"";>&ensp;</p>","-","viewing","0","14","4B,5A,13B,16B","","","","","","","","","","","","","","","","","",""
"","","","","","html-slider-response","109","773239","0.0-17.0-1.30","514f5d99-a157-42d0-b9e5-0407d2049090","2840","
                  <p style=""text-align: center;"">₪36
                                                <br>75%</p>
                  <p id=""wtp"" style=""text-align:center; margin-top: 0px; margin-bottom: 0px; font-size: 40px"";>מוכנים לשלם: <span id=""c_p_y""></span></p>","28","evaluation","33","14","4B,5A,13B,16B","75","36","28","","","","","","","","","","","","","","",""
"","","","","","html-keyboard-response","110","774594","0.0-17.0-2.30","514f5d99-a157-42d0-b9e5-0407d2049090","null","<p style=""text-align: center;"">+</p>","null","fixation","","","","","","","","","","","","","","","","","","","","",""
"","","","","","html-keyboard-response","111","775601","0.0-18.0","514f5d99-a157-42d0-b9e5-0407d2049090","null","<p style=""text-align: center;"">+</p>","null","fixation","","","","","","","","","","","","","","","","","","","","",""
"","","","","","html-keyboard-response","112","777119","0.0-19.0","514f5d99-a157-42d0-b9e5-0407d2049090","null","<p>הפסקה.
          <br>לחצו כדי להמשיך.</p>","1","scan_wait","","","","","","","","","","","","","","","","","","","","",""
"","","","","","html-keyboard-response","113","778134","0.0-20.0","514f5d99-a157-42d0-b9e5-0407d2049090","null","<p style=""text-align: center;"">+</p>","null","fixation","","","","","","","","","","","","","","","","","","","","",""
"","","","","","html-slider-response","114","779141","0.0-21.0-0.0","514f5d99-a157-42d0-b9e5-0407d2049090","1000","
                  <p style=""text-align: center;"">₪11
                                                <br>20%</p>
                  <p id=""wtp"" style=""text-align:center; margin-top: 0px; margin-bottom: 0px; font-size: 40px"";>&ensp;</p>","-","viewing","0","4","12C,17C,23C,28C","","","","","","","","","","","","","","","","","",""
"","","","","","html-slider-response","115","780112","0.0-21.0-1.0","514f5d99-a157-42d0-b9e5-0407d2049090","970","
                  <p style=""text-align: center;"">₪11
                                                <br>20%</p>
                  <p id=""wtp"" style=""text-align:center; margin-top: 0px; margin-bottom: 0px; font-size: 40px"";>מוכנים לשלם: <span id=""c_p_y""></span></p>","10","evaluation","78","4","12C,17C,23C,28C","20","11","11","","","","","","","","","","","","","","",""
"","","","","","html-keyboard-response","116","780638","0.0-21.0-2.0","514f5d99-a157-42d0-b9e5-0407d2049090","null","<p style=""text-align: center;"">+</p>","null","fixation","","","","","","","","","","","","","","","","","","","","",""
"","","","","","html-slider-response","117","781642","0.0-21.0-0.1","514f5d99-a157-42d0-b9e5-0407d2049090","1000","
                  <p style=""text-align: center;"">₪36
                                                <br>30%</p>
                  <p id=""wtp"" style=""text-align:center; margin-top: 0px; margin-bottom: 0px; font-size: 40px"";>&ensp;</p>","-","viewing","0","11","3C,20A,22A","","","","","","","","","","","","","","","","","",""
"","","","","","html-slider-response","118","785447","0.0-21.0-1.1","514f5d99-a157-42d0-b9e5-0407d2049090","3804","
                  <p style=""text-align: center;"">₪36
                                                <br>30%</p>
                  <p id=""wtp"" style=""text-align:center; margin-top: 0px; margin-bottom: 0px; font-size: 40px"";>מוכנים לשלם: <span id=""c_p_y""></span></p>","23","evaluation","1","11","3C,20A,22A","30","36","23","","","","","","","","","","","","","","",""
"","","","","","html-keyboard-response","119","786713","0.0-21.0-2.1","514f5d99-a157-42d0-b9e5-0407d2049090","null","<p style=""text-align: center;"">+</p>","null","fixation","","","","","","","","","","","","","","","","","","","","",""
"","","","","","html-slider-response","120","787715","0.0-21.0-0.2","514f5d99-a157-42d0-b9e5-0407d2049090","1000","
                  <p style=""text-align: center;"">₪58
                                                <br>45%</p>
                  <p id=""wtp"" style=""text-align:center; margin-top: 0px; margin-bottom: 0px; font-size: 40px"";>&ensp;</p>","-","viewing","0","21","11C,18C,25A","","","","","","","","","","","","","","","","","",""
"","","","","","html-slider-response","121","789879","0.0-21.0-1.2","514f5d99-a157-42d0-b9e5-0407d2049090","2164","
                  <p style=""text-align: center;"">₪58
                                                <br>45%</p>
                  <p id=""wtp"" style=""text-align:center; margin-top: 0px; margin-bottom: 0px; font-size: 40px"";>מוכנים לשלם: <span id=""c_p_y""></span></p>","28","evaluation","17","21","11C,18C,25A","45","58","28","","","","","","","","","","","","","","",""
"","","","","","html-keyboard-response","122","790432","0.0-21.0-2.2","514f5d99-a157-42d0-b9e5-0407d2049090","null","<p style=""text-align: center;"">+</p>","null","fixation","","","","","","","","","","","","","","","","","","","","",""
"","","","","","html-slider-response","123","791435","0.0-21.0-0.3","514f5d99-a157-42d0-b9e5-0407d2049090","1000","
                  <p style=""text-align: center;"">₪43
                                                <br>75%</p>
                  <p id=""wtp"" style=""text-align:center; margin-top: 0px; margin-bottom: 0px; font-size: 40px"";>&ensp;</p>","-","viewing","0","18","11B,19B,24A,26A","","","","","","","","","","","","","","","","","",""
"","","","","","html-slider-response","124","793119","0.0-21.0-1.3","514f5d99-a157-42d0-b9e5-0407d2049090","1683","
                  <p style=""text-align: center;"">₪43
                                                <br>75%</p>
                  <p id=""wtp"" style=""text-align:center; margin-top: 0px; margin-bottom: 0px; font-size: 40px"";>מוכנים לשלם: <span id=""c_p_y""></span></p>","28","evaluation","37","18","11B,19B,24A,26A","75","43","28","","","","","","","","","","","","","","",""
"","","","","","html-keyboard-response","125","794153","0.0-21.0-2.3","514f5d99-a157-42d0-b9e5-0407d2049090","null","<p style=""text-align: center;"">+</p>","null","fixation","","","","","","","","","","","","","","","","","","","","",""
"","","","","","html-slider-response","126","795156","0.0-21.0-0.4","514f5d99-a157-42d0-b9e5-0407d2049090","1000","
                  <p style=""text-align: center;"">₪79
                                                <br>65%</p>
                  <p id=""wtp"" style=""text-align:center; margin-top: 0px; margin-bottom: 0px; font-size: 40px"";>&ensp;</p>","-","viewing","0","31","8A","","","","","","","","","","","","","","","","","",""
"","","","","","html-slider-response","127","797375","0.0-21.0-1.4","514f5d99-a157-42d0-b9e5-0407d2049090","2219","
                  <p style=""text-align: center;"">₪79
                                                <br>65%</p>
                  <p id=""wtp"" style=""text-align:center; margin-top: 0px; margin-bottom: 0px; font-size: 40px"";>מוכנים לשלם: <span id=""c_p_y""></span></p>","33","evaluation","50","31","8A","65","79","33","","","","","","","","","","","","","","",""
"","","","","","html-keyboard-response","128","798410","0.0-21.0-2.4","514f5d99-a157-42d0-b9e5-0407d2049090","null","<p style=""text-align: center;"">+</p>","null","fixation","","","","","","","","","","","","","","","","","","","","",""
"","","","","","html-slider-response","129","799425","0.0-21.0-0.5","514f5d99-a157-42d0-b9e5-0407d2049090","1000","
                  <p style=""text-align: center;"">₪64
                                                <br>25%</p>
                  <p id=""wtp"" style=""text-align:center; margin-top: 0px; margin-bottom: 0px; font-size: 40px"";>&ensp;</p>","-","viewing","0","24","6A,21A","","","","","","","","","","","","","","","","","",""
"","","","","","html-slider-response","130","801615","0.0-21.0-1.5","514f5d99-a157-42d0-b9e5-0407d2049090","2188","
                  <p style=""text-align: center;"">₪64
                                                <br>25%</p>
                  <p id=""wtp"" style=""text-align:center; margin-top: 0px; margin-bottom: 0px; font-size: 40px"";>מוכנים לשלם: <span id=""c_p_y""></span></p>","12","evaluation","19","24","6A,21A","25","64","12","","","","","","","","","","","","","","",""
"","","","","","html-keyboard-response","131","802386","0.0-21.0-2.5","514f5d99-a157-42d0-b9e5-0407d2049090","null","<p style=""text-align: center;"">+</p>","null","fixation","","","","","","","","","","","","","","","","","","","","",""
"","","","","","html-slider-response","132","803392","0.0-21.0-0.6","514f5d99-a157-42d0-b9e5-0407d2049090","1000","
                  <p style=""text-align: center;"">₪36
                                                <br>75%</p>
                  <p id=""wtp"" style=""text-align:center; margin-top: 0px; margin-bottom: 0px; font-size: 40px"";>&ensp;</p>","-","viewing","0","14","4B,5A,13B,16B","","","","","","","","","","","","","","","","","",""
"","","","","","html-slider-response","133","804695","0.0-21.0-1.6","514f5d99-a157-42d0-b9e5-0407d2049090","1302","
                  <p style=""text-align: center;"">₪36
                                                <br>75%</p>
                  <p id=""wtp"" style=""text-align:center; margin-top: 0px; margin-bottom: 0px; font-size: 40px"";>מוכנים לשלם: <span id=""c_p_y""></span></p>","27","evaluation","56","14","4B,5A,13B,16B","75","36","27","","","","","","","","","","","","","","",""
"","","","","","html-keyboard-response","134","806027","0.0-21.0-2.6","514f5d99-a157-42d0-b9e5-0407d2049090","null","<p style=""text-align: center;"">+</p>","null","fixation","","","","","","","","","","","","","","","","","","","","",""
"","","","","","html-slider-response","135","807033","0.0-21.0-0.7","514f5d99-a157-42d0-b9e5-0407d2049090","1000","
                  <p style=""text-align: center;"">₪76
                                                <br>65%</p>
                  <p id=""wtp"" style=""text-align:center; margin-top: 0px; margin-bottom: 0px; font-size: 40px"";>&ensp;</p>","-","viewing","0","29","8C,19A,24B","","","","","","","","","","","","","","","","","",""
"","","","","","html-slider-response","136","809263","0.0-21.0-1.7","514f5d99-a157-42d0-b9e5-0407d2049090","2229","
                  <p style=""text-align: center;"">₪76
                                                <br>65%</p>
                  <p id=""wtp"" style=""text-align:center; margin-top: 0px; margin-bottom: 0px; font-size: 40px"";>מוכנים לשלם: <span id=""c_p_y""></span></p>","40","evaluation","18","29","8C,19A,24B","65","76","40","","","","","","","","","","","","","","",""
"","","","","","html-keyboard-response","137","810175","0.0-21.0-2.7","514f5d99-a157-42d0-b9e5-0407d2049090","null","<p style=""text-align: center;"">+</p>","null","fixation","","","","","","","","","","","","","","","","","","","","",""
"","","","","","html-slider-response","138","811181","0.0-21.0-0.8","514f5d99-a157-42d0-b9e5-0407d2049090","1000","
                  <p style=""text-align: center;"">₪36
                                                <br>70%</p>
                  <p id=""wtp"" style=""text-align:center; margin-top: 0px; margin-bottom: 0px; font-size: 40px"";>&ensp;</p>","-","viewing","0","13","3A,5C,10B","","","","","","","","","","","","","","","","","",""
"","","","","","html-slider-response","139","813615","0.0-21.0-1.8","514f5d99-a157-42d0-b9e5-0407d2049090","2434","
                  <p style=""text-align: center;"">₪36
                                                <br>70%</p>
                  <p id=""wtp"" style=""text-align:center; margin-top: 0px; margin-bottom: 0px; font-size: 40px"";>מוכנים לשלם: <span id=""c_p_y""></span></p>","19","evaluation","71","13","3A,5C,10B","70","36","19","","","","","","","","","","","","","","",""
"","","","","","html-keyboard-response","140","814779","0.0-21.0-2.8","514f5d99-a157-42d0-b9e5-0407d2049090","null","<p style=""text-align: center;"">+</p>","null","fixation","","","","","","","","","","","","","","","","","","","","",""
"","","","","","html-slider-response","141","815792","0.0-21.0-0.9","514f5d99-a157-42d0-b9e5-0407d2049090","1000","
                  <p style=""text-align: center;"">₪18
                                                <br>25%</p>
                  <p id=""wtp"" style=""text-align:center; margin-top: 0px; margin-bottom: 0px; font-size: 40px"";>&ensp;</p>","-","viewing","0","9","14A,23A","","","","","","","","","","","","","","","","","",""
"","","","","","html-slider-response","142","817055","0.0-21.0-1.9","514f5d99-a157-42d0-b9e5-0407d2049090","1263","
                  <p style=""text-align: center;"">₪18
                                                <br>25%</p>
                  <p id=""wtp"" style=""text-align:center; margin-top: 0px; margin-bottom: 0px; font-size: 40px"";>מוכנים לשלם: <span id=""c_p_y""></span></p>","6","evaluation","1","9","14A,23A","25","18","6","","","","","","","","","","","","","","",""
"","","","","","html-keyboard-response","143","818470","0.0-21.0-2.9","514f5d99-a157-42d0-b9e5-0407d2049090","null","<p style=""text-align: center;"">+</p>","null","fixation","","","","","","","","","","","","","","","","","","","","",""
"","","","","","html-slider-response","144","819479","0.0-21.0-0.10","514f5d99-a157-42d0-b9e5-0407d2049090","1000","
                  <p style=""text-align: center;"">₪16
                                                <br>20%</p>
                  <p id=""wtp"" style=""text-align:center; margin-top: 0px; margin-bottom: 0px; font-size: 40px"";>&ensp;</p>","-","viewing","0","8","14C,17A,20C,27A","","","","","","","","","","","","","","","","","",""
"","","","","","html-slider-response","145","821303","0.0-21.0-1.10","514f5d99-a157-42d0-b9e5-0407d2049090","1823","
                  <p style=""text-align: center;"">₪16
                                                <br>20%</p>
                  <p id=""wtp"" style=""text-align:center; margin-top: 0px; margin-bottom: 0px; font-size: 40px"";>מוכנים לשלם: <span id=""c_p_y""></span></p>","6","evaluation","60","8","14C,17A,20C,27A","20","16","7","","","","","","","","","","","","","","",""
"","","","","","html-keyboard-response","146","821878","0.0-21.0-2.10","514f5d99-a157-42d0-b9e5-0407d2049090","null","<p style=""text-align: center;"">+</p>","null","fixation","","","","","","","","","","","","","","","","","","","","",""
"","","","","","html-slider-response","147","822888","0.0-21.0-0.11","514f5d99-a157-42d0-b9e5-0407d2049090","1000","
                  <p style=""text-align: center;"">₪4
                                                <br>25%</p>
                  <p id=""wtp"" style=""text-align:center; margin-top: 0px; margin-bottom: 0px; font-size: 40px"";>&ensp;</p>","-","viewing","0","1","6C,29B,30C","","","","","","","","","","","","","","","","","",""
"","","","","","html-slider-response","148","824223","0.0-21.0-1.11","514f5d99-a157-42d0-b9e5-0407d2049090","1334","
                  <p style=""text-align: center;"">₪4
                                                <br>25%</p>
                  <p id=""wtp"" style=""text-align:center; margin-top: 0px; margin-bottom: 0px; font-size: 40px"";>מוכנים לשלם: <span id=""c_p_y""></span></p>","4","evaluation","55","1","6C,29B,30C","25","4","4","","","","","","","","","","","","","","",""
"","","","","","html-keyboard-response","149","825531","0.0-21.0-2.11","514f5d99-a157-42d0-b9e5-0407d2049090","null","<p style=""text-align: center;"">+</p>","null","fixation","","","","","","","","","","","","","","","","","","","","",""
"","","","","","html-slider-response","150","826538","0.0-21.0-0.12","514f5d99-a157-42d0-b9e5-0407d2049090","1000","
                  <p style=""text-align: center;"">₪36
                                                <br>60%</p>
                  <p id=""wtp"" style=""text-align:center; margin-top: 0px; margin-bottom: 0px; font-size: 40px"";>&ensp;</p>","-","viewing","0","12","1C,7C,15C","","","","","","","","","","","","","","","","","",""
"","","","","","html-slider-response","151","829407","0.0-21.0-1.12","514f5d99-a157-42d0-b9e5-0407d2049090","2868","
                  <p style=""text-align: center;"">₪36
                                                <br>60%</p>
                  <p id=""wtp"" style=""text-align:center; margin-top: 0px; margin-bottom: 0px; font-size: 40px"";>מוכנים לשלם: <span id=""c_p_y""></span></p>","17","evaluation","31","12","1C,7C,15C","60","36","17","","","","","","","","","","","","","","",""
"","","","","","html-keyboard-response","152","830329","0.0-21.0-2.12","514f5d99-a157-42d0-b9e5-0407d2049090","null","<p style=""text-align: center;"">+</p>","null","fixation","","","","","","","","","","","","","","","","","","","","",""
"","","","","","html-slider-response","153","831341","0.0-21.0-0.13","514f5d99-a157-42d0-b9e5-0407d2049090","1000","
                  <p style=""text-align: center;"">₪39
                                                <br>65%</p>
                  <p id=""wtp"" style=""text-align:center; margin-top: 0px; margin-bottom: 0px; font-size: 40px"";>&ensp;</p>","-","viewing","0","16","1A,15A,26C","","","","","","","","","","","","","","","","","",""
"","","","","","html-slider-response","154","832839","0.0-21.0-1.13","514f5d99-a157-42d0-b9e5-0407d2049090","1498","
                  <p style=""text-align: center;"">₪39
                                                <br>65%</p>
                  <p id=""wtp"" style=""text-align:center; margin-top: 0px; margin-bottom: 0px; font-size: 40px"";>מוכנים לשלם: <span id=""c_p_y""></span></p>","19","evaluation","65","16","1A,15A,26C","65","39","19","","","","","","","","","","","","","","",""
"","","","","","html-keyboard-response","155","834157","0.0-21.0-2.13","514f5d99-a157-42d0-b9e5-0407d2049090","null","<p style=""text-align: center;"">+</p>","null","fixation","","","","","","","","","","","","","","","","","","","","",""
"","","","","","html-slider-response","156","835163","0.0-21.0-0.14","514f5d99-a157-42d0-b9e5-0407d2049090","1000","
                  <p style=""text-align: center;"">₪11
                                                <br>45%</p>
                  <p id=""wtp"" style=""text-align:center; margin-top: 0px; margin-bottom: 0px; font-size: 40px"";>&ensp;</p>","-","viewing","0","6","14B,21C,25C","","","","","","","","","","","","","","","","","",""
"","","","","","html-slider-response","157","837215","0.0-21.0-1.14","514f5d99-a157-42d0-b9e5-0407d2049090","2051","
                  <p style=""text-align: center;"">₪11
                                                <br>45%</p>
                  <p id=""wtp"" style=""text-align:center; margin-top: 0px; margin-bottom: 0px; font-size: 40px"";>מוכנים לשלם: <span id=""c_p_y""></span></p>","6","evaluation","17","6","14B,21C,25C","45","11","6","","","","","","","","","","","","","","",""
"","","","","","html-keyboard-response","158","838356","0.0-21.0-2.14","514f5d99-a157-42d0-b9e5-0407d2049090","null","<p style=""text-align: center;"">+</p>","null","fixation","","","","","","","","","","","","","","","","","","","","",""
"","","","","","html-slider-response","159","839365","0.0-21.0-0.15","514f5d99-a157-42d0-b9e5-0407d2049090","1000","
                  <p style=""text-align: center;"">₪71
                                                <br>45%</p>
                  <p id=""wtp"" style=""text-align:center; margin-top: 0px; margin-bottom: 0px; font-size: 40px"";>&ensp;</p>","-","viewing","0","26","2B,16A","","","","","","","","","","","","","","","","","",""
"","","","","","html-slider-response","160","841703","0.0-21.0-1.15","514f5d99-a157-42d0-b9e5-0407d2049090","2337","
                  <p style=""text-align: center;"">₪71
                                                <br>45%</p>
                  <p id=""wtp"" style=""text-align:center; margin-top: 0px; margin-bottom: 0px; font-size: 40px"";>מוכנים לשלם: <span id=""c_p_y""></span></p>","26","evaluation","20","26","2B,16A","45","71","26","","","","","","","","","","","","","","",""
"","","","","","html-keyboard-response","161","843034","0.0-21.0-2.15","514f5d99-a157-42d0-b9e5-0407d2049090","null","<p style=""text-align: center;"">+</p>","null","fixation","","","","","","","","","","","","","","","","","","","","",""
"","","","","","html-slider-response","162","844038","0.0-21.0-0.16","514f5d99-a157-42d0-b9e5-0407d2049090","1000","
                  <p style=""text-align: center;"">₪61
                                                <br>55%</p>
                  <p id=""wtp"" style=""text-align:center; margin-top: 0px; margin-bottom: 0px; font-size: 40px"";>&ensp;</p>","-","viewing","0","23","7B,26B","","","","","","","","","","","","","","","","","",""
"","","","","","html-slider-response","163","846655","0.0-21.0-1.16","514f5d99-a157-42d0-b9e5-0407d2049090","2617","
                  <p style=""text-align: center;"">₪61
                                                <br>55%</p>
                  <p id=""wtp"" style=""text-align:center; margin-top: 0px; margin-bottom: 0px; font-size: 40px"";>מוכנים לשלם: <span id=""c_p_y""></span></p>","27","evaluation","6","23","7B,26B","55","61","27","","","","","","","","","","","","","","",""
"","","","","","html-keyboard-response","164","847423","0.0-21.0-2.16","514f5d99-a157-42d0-b9e5-0407d2049090","null","<p style=""text-align: center;"">+</p>","null","fixation","","","","","","","","","","","","","","","","","","","","",""
"","","","","","html-slider-response","165","848441","0.0-21.0-0.17","514f5d99-a157-42d0-b9e5-0407d2049090","1000","
                  <p style=""text-align: center;"">₪4
                                                <br>50%</p>
                  <p id=""wtp"" style=""text-align:center; margin-top: 0px; margin-bottom: 0px; font-size: 40px"";>&ensp;</p>","-","viewing","0","2","4C,17B","","","","","","","","","","","","","","","","","",""
"","","","","","html-slider-response","166","850023","0.0-21.0-1.17","514f5d99-a157-42d0-b9e5-0407d2049090","1581","
                  <p style=""text-align: center;"">₪4
                                                <br>50%</p>
                  <p id=""wtp"" style=""text-align:center; margin-top: 0px; margin-bottom: 0px; font-size: 40px"";>מוכנים לשלם: <span id=""c_p_y""></span></p>","1","evaluation","43","2","4C,17B","50","4","1","","","","","","","","","","","","","","",""
"","","","","","html-keyboard-response","167","851078","0.0-21.0-2.17","514f5d99-a157-42d0-b9e5-0407d2049090","null","<p style=""text-align: center;"">+</p>","null","fixation","","","","","","","","","","","","","","","","","","","","",""
"","","","","","html-slider-response","168","852087","0.0-21.0-0.18","514f5d99-a157-42d0-b9e5-0407d2049090","1000","
                  <p style=""text-align: center;"">₪58
                                                <br>30%</p>
                  <p id=""wtp"" style=""text-align:center; margin-top: 0px; margin-bottom: 0px; font-size: 40px"";>&ensp;</p>","-","viewing","0","19","13C,30A","","","","","","","","","","","","","","","","","",""
"","","","","","html-slider-response","169","854287","0.0-21.0-1.18","514f5d99-a157-42d0-b9e5-0407d2049090","2199","
                  <p style=""text-align: center;"">₪58
                                                <br>30%</p>
                  <p id=""wtp"" style=""text-align:center; margin-top: 0px; margin-bottom: 0px; font-size: 40px"";>מוכנים לשלם: <span id=""c_p_y""></span></p>","24","evaluation","27","19","13C,30A","30","58","24","","","","","","","","","","","","","","",""
"","","","","","html-keyboard-response","170","855787","0.0-21.0-2.18","514f5d99-a157-42d0-b9e5-0407d2049090","null","<p style=""text-align: center;"">+</p>","null","fixation","","","","","","","","","","","","","","","","","","","","",""
"","","","","","html-slider-response","171","856799","0.0-21.0-0.19","514f5d99-a157-42d0-b9e5-0407d2049090","1000","
                  <p style=""text-align: center;"">₪64
                                                <br>50%</p>
                  <p id=""wtp"" style=""text-align:center; margin-top: 0px; margin-bottom: 0px; font-size: 40px"";>&ensp;</p>","-","viewing","0","25","1B,3B,4A","","","","","","","","","","","","","","","","","",""
"","","","","","html-slider-response","172","859831","0.0-21.0-1.19","514f5d99-a157-42d0-b9e5-0407d2049090","3031","
                  <p style=""text-align: center;"">₪64
                                                <br>50%</p>
                  <p id=""wtp"" style=""text-align:center; margin-top: 0px; margin-bottom: 0px; font-size: 40px"";>מוכנים לשלם: <span id=""c_p_y""></span></p>","22","evaluation","44","25","1B,3B,4A","50","64","22","","","","","","","","","","","","","","",""
"","","","","","html-keyboard-response","173","860801","0.0-21.0-2.19","514f5d99-a157-42d0-b9e5-0407d2049090","null","<p style=""text-align: center;"">+</p>","null","fixation","","","","","","","","","","","","","","","","","","","","",""
"","","","","","html-slider-response","174","861805","0.0-21.0-0.20","514f5d99-a157-42d0-b9e5-0407d2049090","1000","
                  <p style=""text-align: center;"">₪71
                                                <br>75%</p>
                  <p id=""wtp"" style=""text-align:center; margin-top: 0px; margin-bottom: 0px; font-size: 40px"";>&ensp;</p>","-","viewing","0","28","8B","","","","","","","","","","","","","","","","","",""
"","","","","","html-slider-response","175","863423","0.0-21.0-1.20","514f5d99-a157-42d0-b9e5-0407d2049090","1617","
                  <p style=""text-align: center;"">₪71
                                                <br>75%</p>
                  <p id=""wtp"" style=""text-align:center; margin-top: 0px; margin-bottom: 0px; font-size: 40px"";>מוכנים לשלם: <span id=""c_p_y""></span></p>","51","evaluation","33","28","8B","75","71","51","","","","","","","","","","","","","","",""
"","","","","","html-keyboard-response","176","864592","0.0-21.0-2.20","514f5d99-a157-42d0-b9e5-0407d2049090","null","<p style=""text-align: center;"">+</p>","null","fixation","","","","","","","","","","","","","","","","","","","","",""
"","","","","","html-slider-response","177","865609","0.0-21.0-0.21","514f5d99-a157-42d0-b9e5-0407d2049090","1000","
                  <p style=""text-align: center;"">₪11
                                                <br>25%</p>
                  <p id=""wtp"" style=""text-align:center; margin-top: 0px; margin-bottom: 0px; font-size: 40px"";>&ensp;</p>","-","viewing","0","5","12A,27B,28B,30B","","","","","","","","","","","","","","","","","",""
"","","","","","html-slider-response","178","868488","0.0-21.0-1.21","514f5d99-a157-42d0-b9e5-0407d2049090","2878","
                  <p style=""text-align: center;"">₪11
                                                <br>25%</p>
                  <p id=""wtp"" style=""text-align:center; margin-top: 0px; margin-bottom: 0px; font-size: 40px"";>מוכנים לשלם: <span id=""c_p_y""></span></p>","4","evaluation","15","5","12A,27B,28B,30B","25","11","4","","","","","","","","","","","","","","",""
"","","","","","html-keyboard-response","179","869359","0.0-21.0-2.21","514f5d99-a157-42d0-b9e5-0407d2049090","null","<p style=""text-align: center;"">+</p>","null","fixation","","","","","","","","","","","","","","","","","","","","",""
"","","","","","html-slider-response","180","870365","0.0-21.0-0.22","514f5d99-a157-42d0-b9e5-0407d2049090","1000","
                  <p style=""text-align: center;"">₪39
                                                <br>60%</p>
                  <p id=""wtp"" style=""text-align:center; margin-top: 0px; margin-bottom: 0px; font-size: 40px"";>&ensp;</p>","-","viewing","0","15","9C,25B","","","","","","","","","","","","","","","","","",""
"","","","","","html-slider-response","181","872527","0.0-21.0-1.22","514f5d99-a157-42d0-b9e5-0407d2049090","2161","
                  <p style=""text-align: center;"">₪39
                                                <br>60%</p>
                  <p id=""wtp"" style=""text-align:center; margin-top: 0px; margin-bottom: 0px; font-size: 40px"";>מוכנים לשלם: <span id=""c_p_y""></span></p>","20","evaluation","6","15","9C,25B","60","39","20","","","","","","","","","","","","","","",""
"","","","","","html-keyboard-response","182","873174","0.0-21.0-2.22","514f5d99-a157-42d0-b9e5-0407d2049090","null","<p style=""text-align: center;"">+</p>","null","fixation","","","","","","","","","","","","","","","","","","","","",""
"","","","","","html-slider-response","183","874183","0.0-21.0-0.23","514f5d99-a157-42d0-b9e5-0407d2049090","1000","
                  <p style=""text-align: center;"">₪18
                                                <br>50%</p>
                  <p id=""wtp"" style=""text-align:center; margin-top: 0px; margin-bottom: 0px; font-size: 40px"";>&ensp;</p>","-","viewing","0","10","2C,16C,22B,28A","","","","","","","","","","","","","","","","","",""
"","","","","","html-slider-response","184","876191","0.0-21.0-1.23","514f5d99-a157-42d0-b9e5-0407d2049090","2008","
                  <p style=""text-align: center;"">₪18
                                                <br>50%</p>
                  <p id=""wtp"" style=""text-align:center; margin-top: 0px; margin-bottom: 0px; font-size: 40px"";>מוכנים לשלם: <span id=""c_p_y""></span></p>","7","evaluation","33","10","2C,16C,22B,28A","50","18","8","","","","","","","","","","","","","","",""
"","","","","","html-keyboard-response","185","877649","0.0-21.0-2.23","514f5d99-a157-42d0-b9e5-0407d2049090","null","<p style=""text-align: center;"">+</p>","null","fixation","","","","","","","","","","","","","","","","","","","","",""
"","","","","","html-slider-response","186","878665","0.0-21.0-0.24","514f5d99-a157-42d0-b9e5-0407d2049090","1000","
                  <p style=""text-align: center;"">₪61
                                                <br>45%</p>
                  <p id=""wtp"" style=""text-align:center; margin-top: 0px; margin-bottom: 0px; font-size: 40px"";>&ensp;</p>","-","viewing","0","22","10A,11A","","","","","","","","","","","","","","","","","",""
"","","","","","html-slider-response","187","880991","0.0-21.0-1.24","514f5d99-a157-42d0-b9e5-0407d2049090","2325","
                  <p style=""text-align: center;"">₪61
                                                <br>45%</p>
                  <p id=""wtp"" style=""text-align:center; margin-top: 0px; margin-bottom: 0px; font-size: 40px"";>מוכנים לשלם: <span id=""c_p_y""></span></p>","15","evaluation","2","22","10A,11A","45","61","15","","","","","","","","","","","","","","",""
"","","","","","html-keyboard-response","188","882371","0.0-21.0-2.24","514f5d99-a157-42d0-b9e5-0407d2049090","null","<p style=""text-align: center;"">+</p>","null","fixation","","","","","","","","","","","","","","","","","","","","",""
"","","","","","html-slider-response","189","883384","0.0-21.0-0.25","514f5d99-a157-42d0-b9e5-0407d2049090","1000","
                  <p style=""text-align: center;"">₪4
                                                <br>75%</p>
                  <p id=""wtp"" style=""text-align:center; margin-top: 0px; margin-bottom: 0px; font-size: 40px"";>&ensp;</p>","-","viewing","0","3","12B,20B,23B,27C,29C","","","","","","","","","","","","","","","","","",""
"","","","","","html-slider-response","190","885271","0.0-21.0-1.25","514f5d99-a157-42d0-b9e5-0407d2049090","1887","
                  <p style=""text-align: center;"">₪4
                                                <br>75%</p>
                  <p id=""wtp"" style=""text-align:center; margin-top: 0px; margin-bottom: 0px; font-size: 40px"";>מוכנים לשלם: <span id=""c_p_y""></span></p>","1","evaluation","32","3","12B,20B,23B,27C,29C","75","4","2","","","","","","","","","","","","","","",""
"","","","","","html-keyboard-response","191","885806","0.0-21.0-2.25","514f5d99-a157-42d0-b9e5-0407d2049090","null","<p style=""text-align: center;"">+</p>","null","fixation","","","","","","","","","","","","","","","","","","","","",""
"","","","","","html-slider-response","192","886822","0.0-21.0-0.26","514f5d99-a157-42d0-b9e5-0407d2049090","1000","
                  <p style=""text-align: center;"">₪58
                                                <br>40%</p>
                  <p id=""wtp"" style=""text-align:center; margin-top: 0px; margin-bottom: 0px; font-size: 40px"";>&ensp;</p>","-","viewing","0","20","10C,13A,19C,21B","","","","","","","","","","","","","","","","","",""
"","","","","","html-slider-response","193","889463","0.0-21.0-1.26","514f5d99-a157-42d0-b9e5-0407d2049090","2640","
                  <p style=""text-align: center;"">₪58
                                                <br>40%</p>
                  <p id=""wtp"" style=""text-align:center; margin-top: 0px; margin-bottom: 0px; font-size: 40px"";>מוכנים לשלם: <span id=""c_p_y""></span></p>","27","evaluation","52","20","10C,13A,19C,21B","40","58","27","","","","","","","","","","","","","","",""
"","","","","","html-keyboard-response","194","890327","0.0-21.0-2.26","514f5d99-a157-42d0-b9e5-0407d2049090","null","<p style=""text-align: center;"">+</p>","null","fixation","","","","","","","","","","","","","","","","","","","","",""
"","","","","","html-slider-response","195","891334","0.0-21.0-0.27","514f5d99-a157-42d0-b9e5-0407d2049090","1000","
                  <p style=""text-align: center;"">₪11
                                                <br>75%</p>
                  <p id=""wtp"" style=""text-align:center; margin-top: 0px; margin-bottom: 0px; font-size: 40px"";>&ensp;</p>","-","viewing","0","7","6B,18B,22C,24C,29A","","","","","","","","","","","","","","","","","",""
"","","","","","html-slider-response","196","893743","0.0-21.0-1.27","514f5d99-a157-42d0-b9e5-0407d2049090","2408","
                  <p style=""text-align: center;"">₪11
                                                <br>75%</p>
                  <p id=""wtp"" style=""text-align:center; margin-top: 0px; margin-bottom: 0px; font-size: 40px"";>מוכנים לשלם: <span id=""c_p_y""></span></p>","8","evaluation","3","7","6B,18B,22C,24C,29A","75","11","9","","","","","","","","","","","","","","",""
"","","","","","html-keyboard-response","197","894551","0.0-21.0-2.27","514f5d99-a157-42d0-b9e5-0407d2049090","null","<p style=""text-align: center;"">+</p>","null","fixation","","","","","","","","","","","","","","","","","","","","",""
"","","","","","html-slider-response","198","895556","0.0-21.0-0.28","514f5d99-a157-42d0-b9e5-0407d2049090","1000","
                  <p style=""text-align: center;"">₪79
                                                <br>40%</p>
                  <p id=""wtp"" style=""text-align:center; margin-top: 0px; margin-bottom: 0px; font-size: 40px"";>&ensp;</p>","-","viewing","0","30","9B","","","","","","","","","","","","","","","","","",""
"","","","","","html-slider-response","199","898279","0.0-21.0-1.28","514f5d99-a157-42d0-b9e5-0407d2049090","2722","
                  <p style=""text-align: center;"">₪79
                                                <br>40%</p>
                  <p id=""wtp"" style=""text-align:center; margin-top: 0px; margin-bottom: 0px; font-size: 40px"";>מוכנים לשלם: <span id=""c_p_y""></span></p>","31","evaluation","75","30","9B","40","79","31","","","","","","","","","","","","","","",""
"","","","","","html-keyboard-response","200","898822","0.0-21.0-2.28","514f5d99-a157-42d0-b9e5-0407d2049090","null","<p style=""text-align: center;"">+</p>","null","fixation","","","","","","","","","","","","","","","","","","","","",""
"","","","","","html-slider-response","201","899831","0.0-21.0-0.29","514f5d99-a157-42d0-b9e5-0407d2049090","1000","
                  <p style=""text-align: center;"">₪43
                                                <br>60%</p>
                  <p id=""wtp"" style=""text-align:center; margin-top: 0px; margin-bottom: 0px; font-size: 40px"";>&ensp;</p>","-","viewing","0","17","2A,7A,9A,15B","","","","","","","","","","","","","","","","","",""
"","","","","","html-slider-response","202","902487","0.0-21.0-1.29","514f5d99-a157-42d0-b9e5-0407d2049090","2655","
                  <p style=""text-align: center;"">₪43
                                                <br>60%</p>
                  <p id=""wtp"" style=""text-align:center; margin-top: 0px; margin-bottom: 0px; font-size: 40px"";>מוכנים לשלם: <span id=""c_p_y""></span></p>","20","evaluation","47","17","2A,7A,9A,15B","60","43","20","","","","","","","","","","","","","","",""
"","","","","","html-keyboard-response","203","903152","0.0-21.0-2.29","514f5d99-a157-42d0-b9e5-0407d2049090","null","<p style=""text-align: center;"">+</p>","null","fixation","","","","","","","","","","","","","","","","","","","","",""
"","","","","","html-slider-response","204","904163","0.0-21.0-0.30","514f5d99-a157-42d0-b9e5-0407d2049090","1000","
                  <p style=""text-align: center;"">₪71
                                                <br>55%</p>
                  <p id=""wtp"" style=""text-align:center; margin-top: 0px; margin-bottom: 0px; font-size: 40px"";>&ensp;</p>","-","viewing","0","27","5B,18A","","","","","","","","","","","","","","","","","",""
"","","","","","html-slider-response","205","906487","0.0-21.0-1.30","514f5d99-a157-42d0-b9e5-0407d2049090","2323","
                  <p style=""text-align: center;"">₪71
                                                <br>55%</p>
                  <p id=""wtp"" style=""text-align:center; margin-top: 0px; margin-bottom: 0px; font-size: 40px"";>מוכנים לשלם: <span id=""c_p_y""></span></p>","52","evaluation","62","27","5B,18A","55","71","52","","","","","","","","","","","","","","",""
"","","","","","html-keyboard-response","206","907433","0.0-21.0-2.30","514f5d99-a157-42d0-b9e5-0407d2049090","null","<p style=""text-align: center;"">+</p>","null","fixation","","","","","","","","","","","","","","","","","","","","",""
"","","","","","html-keyboard-response","207","908440","0.0-22.0","514f5d99-a157-42d0-b9e5-0407d2049090","null","<p style=""text-align: center;"">+</p>","null","fixation","","","","","","","","","","","","","","","","","","","","",""
"","","","","","html-keyboard-response","208","923503","0.0-23.0","514f5d99-a157-42d0-b9e5-0407d2049090","null","<p>הפסקה.
          <br>לחצו כדי להמשיך.</p>","1","scan_wait","","","","","","","","","","","","","","","","","","","","",""
"","","","","","html-keyboard-response","209","924511","0.0-24.0","514f5d99-a157-42d0-b9e5-0407d2049090","null","<p style=""text-align: center;"">+</p>","null","fixation","","","","","","","","","","","","","","","","","","","","",""
"","","","","","html-slider-response","210","925514","0.0-25.0-0.0","514f5d99-a157-42d0-b9e5-0407d2049090","1000","
                  <p style=""text-align: center;"">₪4
                                                <br>75%</p>
                  <p id=""wtp"" style=""text-align:center; margin-top: 0px; margin-bottom: 0px; font-size: 40px"";>&ensp;</p>","-","viewing","0","3","12B,20B,23B,27C,29C","","","","","","","","","","","","","","","","","",""
"","","","","","html-slider-response","211","926791","0.0-25.0-1.0","514f5d99-a157-42d0-b9e5-0407d2049090","1276","
                  <p style=""text-align: center;"">₪4
                                                <br>75%</p>
                  <p id=""wtp"" style=""text-align:center; margin-top: 0px; margin-bottom: 0px; font-size: 40px"";>מוכנים לשלם: <span id=""c_p_y""></span></p>","2","evaluation","63","3","12B,20B,23B,27C,29C","75","4","2","","","","","","","","","","","","","","",""
"","","","","","html-keyboard-response","212","927810","0.0-25.0-2.0","514f5d99-a157-42d0-b9e5-0407d2049090","null","<p style=""text-align: center;"">+</p>","null","fixation","","","","","","","","","","","","","","","","","","","","",""
"","","","","","html-slider-response","213","928816","0.0-25.0-0.1","514f5d99-a157-42d0-b9e5-0407d2049090","1000","
                  <p style=""text-align: center;"">₪61
                                                <br>45%</p>
                  <p id=""wtp"" style=""text-align:center; margin-top: 0px; margin-bottom: 0px; font-size: 40px"";>&ensp;</p>","-","viewing","0","22","10A,11A","","","","","","","","","","","","","","","","","",""
"","","","","","html-slider-response","214","930255","0.0-25.0-1.1","514f5d99-a157-42d0-b9e5-0407d2049090","1439","
                  <p style=""text-align: center;"">₪61
                                                <br>45%</p>
                  <p id=""wtp"" style=""text-align:center; margin-top: 0px; margin-bottom: 0px; font-size: 40px"";>מוכנים לשלם: <span id=""c_p_y""></span></p>","23","evaluation","58","22","10A,11A","45","61","23","","","","","","","","","","","","","","",""
"","","","","","html-keyboard-response","215","931136","0.0-25.0-2.1","514f5d99-a157-42d0-b9e5-0407d2049090","null","<p style=""text-align: center;"">+</p>","null","fixation","","","","","","","","","","","","","","","","","","","","",""
"","","","","","html-slider-response","216","932148","0.0-25.0-0.2","514f5d99-a157-42d0-b9e5-0407d2049090","1000","
                  <p style=""text-align: center;"">₪71
                                                <br>55%</p>
                  <p id=""wtp"" style=""text-align:center; margin-top: 0px; margin-bottom: 0px; font-size: 40px"";>&ensp;</p>","-","viewing","0","27","5B,18A","","","","","","","","","","","","","","","","","",""
"","","","","","html-slider-response","217","934559","0.0-25.0-1.2","514f5d99-a157-42d0-b9e5-0407d2049090","2410","
                  <p style=""text-align: center;"">₪71
                                                <br>55%</p>
                  <p id=""wtp"" style=""text-align:center; margin-top: 0px; margin-bottom: 0px; font-size: 40px"";>מוכנים לשלם: <span id=""c_p_y""></span></p>","31","evaluation","4","27","5B,18A","55","71","31","","","","","","","","","","","","","","",""
"","","","","","html-keyboard-response","218","935125","0.0-25.0-2.2","514f5d99-a157-42d0-b9e5-0407d2049090","null","<p style=""text-align: center;"">+</p>","null","fixation","","","","","","","","","","","","","","","","","","","","",""
"","","","","","html-slider-response","219","936134","0.0-25.0-0.3","514f5d99-a157-42d0-b9e5-0407d2049090","1000","
                  <p style=""text-align: center;"">₪64
                                                <br>25%</p>
                  <p id=""wtp"" style=""text-align:center; margin-top: 0px; margin-bottom: 0px; font-size: 40px"";>&ensp;</p>","-","viewing","0","24","6A,21A","","","","","","","","","","","","","","","","","",""
"","","","","","html-slider-response","220","937431","0.0-25.0-1.3","514f5d99-a157-42d0-b9e5-0407d2049090","1296","
                  <p style=""text-align: center;"">₪64
                                                <br>25%</p>
                  <p id=""wtp"" style=""text-align:center; margin-top: 0px; margin-bottom: 0px; font-size: 40px"";>מוכנים לשלם: <span id=""c_p_y""></span></p>","17","evaluation","28","24","6A,21A","25","64","17","","","","","","","","","","","","","","",""
"","","","","","html-keyboard-response","221","938931","0.0-25.0-2.3","514f5d99-a157-42d0-b9e5-0407d2049090","null","<p style=""text-align: center;"">+</p>","null","fixation","","","","","","","","","","","","","","","","","","","","",""
"","","","","","html-slider-response","222","939934","0.0-25.0-0.4","514f5d99-a157-42d0-b9e5-0407d2049090","1000","
                  <p style=""text-align: center;"">₪36
                                                <br>70%</p>
                  <p id=""wtp"" style=""text-align:center; margin-top: 0px; margin-bottom: 0px; font-size: 40px"";>&ensp;</p>","-","viewing","0","13","3A,5C,10B","","","","","","","","","","","","","","","","","",""
"","","","","","html-slider-response","223","942223","0.0-25.0-1.4","514f5d99-a157-42d0-b9e5-0407d2049090","2289","
                  <p style=""text-align: center;"">₪36
                                                <br>70%</p>
                  <p id=""wtp"" style=""text-align:center; margin-top: 0px; margin-bottom: 0px; font-size: 40px"";>מוכנים לשלם: <span id=""c_p_y""></span></p>","21","evaluation","49","13","3A,5C,10B","70","36","21","","","","","","","","","","","","","","",""
"","","","","","html-keyboard-response","224","942777","0.0-25.0-2.4","514f5d99-a157-42d0-b9e5-0407d2049090","null","<p style=""text-align: center;"">+</p>","null","fixation","","","","","","","","","","","","","","","","","","","","",""
"","","","","","html-slider-response","225","943786","0.0-25.0-0.5","514f5d99-a157-42d0-b9e5-0407d2049090","1000","
                  <p style=""text-align: center;"">₪71
                                                <br>45%</p>
                  <p id=""wtp"" style=""text-align:center; margin-top: 0px; margin-bottom: 0px; font-size: 40px"";>&ensp;</p>","-","viewing","0","26","2B,16A","","","","","","","","","","","","","","","","","",""
"","","","","","html-slider-response","226","946311","0.0-25.0-1.5","514f5d99-a157-42d0-b9e5-0407d2049090","2524","
                  <p style=""text-align: center;"">₪71
                                                <br>45%</p>
                  <p id=""wtp"" style=""text-align:center; margin-top: 0px; margin-bottom: 0px; font-size: 40px"";>מוכנים לשלם: <span id=""c_p_y""></span></p>","26","evaluation","37","26","2B,16A","45","71","26","","","","","","","","","","","","","","",""
"","","","","","html-keyboard-response","227","947589","0.0-25.0-2.5","514f5d99-a157-42d0-b9e5-0407d2049090","null","<p style=""text-align: center;"">+</p>","null","fixation","","","","","","","","","","","","","","","","","","","","",""
"","","","","","html-slider-response","228","948592","0.0-25.0-0.6","514f5d99-a157-42d0-b9e5-0407d2049090","1000","
                  <p style=""text-align: center;"">₪4
                                                <br>25%</p>
                  <p id=""wtp"" style=""text-align:center; margin-top: 0px; margin-bottom: 0px; font-size: 40px"";>&ensp;</p>","-","viewing","0","1","6C,29B,30C","","","","","","","","","","","","","","","","","",""
"","","","","","html-slider-response","229","949431","0.0-25.0-1.6","514f5d99-a157-42d0-b9e5-0407d2049090","838","
                  <p style=""text-align: center;"">₪4
                                                <br>25%</p>
                  <p id=""wtp"" style=""text-align:center; margin-top: 0px; margin-bottom: 0px; font-size: 40px"";>מוכנים לשלם: <span id=""c_p_y""></span></p>","2","evaluation","30","1","6C,29B,30C","25","4","2","","","","","","","","","","","","","","",""
"","","","","","html-keyboard-response","230","950771","0.0-25.0-2.6","514f5d99-a157-42d0-b9e5-0407d2049090","null","<p style=""text-align: center;"">+</p>","null","fixation","","","","","","","","","","","","","","","","","","","","",""
"","","","","","html-slider-response","231","951778","0.0-25.0-0.7","514f5d99-a157-42d0-b9e5-0407d2049090","1000","
                  <p style=""text-align: center;"">₪58
                                                <br>30%</p>
                  <p id=""wtp"" style=""text-align:center; margin-top: 0px; margin-bottom: 0px; font-size: 40px"";>&ensp;</p>","-","viewing","0","19","13C,30A","","","","","","","","","","","","","","","","","",""
"","","","","","html-slider-response","232","954135","0.0-25.0-1.7","514f5d99-a157-42d0-b9e5-0407d2049090","2356","
                  <p style=""text-align: center;"">₪58
                                                <br>30%</p>
                  <p id=""wtp"" style=""text-align:center; margin-top: 0px; margin-bottom: 0px; font-size: 40px"";>מוכנים לשלם: <span id=""c_p_y""></span></p>","19","evaluation","71","19","13C,30A","30","58","19","","","","","","","","","","","","","","",""
"","","","","","html-keyboard-response","233","955050","0.0-25.0-2.7","514f5d99-a157-42d0-b9e5-0407d2049090","null","<p style=""text-align: center;"">+</p>","null","fixation","","","","","","","","","","","","","","","","","","","","",""
"","","","","","html-slider-response","234","956065","0.0-25.0-0.8","514f5d99-a157-42d0-b9e5-0407d2049090","1000","
                  <p style=""text-align: center;"">₪36
                                                <br>75%</p>
                  <p id=""wtp"" style=""text-align:center; margin-top: 0px; margin-bottom: 0px; font-size: 40px"";>&ensp;</p>","-","viewing","0","14","4B,5A,13B,16B","","","","","","","","","","","","","","","","","",""
"","","","","","html-slider-response","235","957415","0.0-25.0-1.8","514f5d99-a157-42d0-b9e5-0407d2049090","1349","
                  <p style=""text-align: center;"">₪36
                                                <br>75%</p>
                  <p id=""wtp"" style=""text-align:center; margin-top: 0px; margin-bottom: 0px; font-size: 40px"";>מוכנים לשלם: <span id=""c_p_y""></span></p>","15","evaluation","49","14","4B,5A,13B,16B","75","36","15","","","","","","","","","","","","","","",""
"","","","","","html-keyboard-response","236","958007","0.0-25.0-2.8","514f5d99-a157-42d0-b9e5-0407d2049090","null","<p style=""text-align: center;"">+</p>","null","fixation","","","","","","","","","","","","","","","","","","","","",""
"","","","","","html-slider-response","237","959009","0.0-25.0-0.9","514f5d99-a157-42d0-b9e5-0407d2049090","1000","
                  <p style=""text-align: center;"">₪11
                                                <br>25%</p>
                  <p id=""wtp"" style=""text-align:center; margin-top: 0px; margin-bottom: 0px; font-size: 40px"";>&ensp;</p>","-","viewing","0","5","12A,27B,28B,30B","","","","","","","","","","","","","","","","","",""
"","","","","","html-slider-response","238","959815","0.0-25.0-1.9","514f5d99-a157-42d0-b9e5-0407d2049090","805","
                  <p style=""text-align: center;"">₪11
                                                <br>25%</p>
                  <p id=""wtp"" style=""text-align:center; margin-top: 0px; margin-bottom: 0px; font-size: 40px"";>מוכנים לשלם: <span id=""c_p_y""></span></p>","2","evaluation","58","5","12A,27B,28B,30B","25","11","3","","","","","","","","","","","","","","",""
"","","","","","html-keyboard-response","239","961283","0.0-25.0-2.9","514f5d99-a157-42d0-b9e5-0407d2049090","null","<p style=""text-align: center;"">+</p>","null","fixation","","","","","","","","","","","","","","","","","","","","",""
"","","","","","html-slider-response","240","962289","0.0-25.0-0.10","514f5d99-a157-42d0-b9e5-0407d2049090","1000","
                  <p style=""text-align: center;"">₪71
                                                <br>75%</p>
                  <p id=""wtp"" style=""text-align:center; margin-top: 0px; margin-bottom: 0px; font-size: 40px"";>&ensp;</p>","-","viewing","0","28","8B","","","","","","","","","","","","","","","","","",""
"","","","","","html-slider-response","241","963799","0.0-25.0-1.10","514f5d99-a157-42d0-b9e5-0407d2049090","1509","
                  <p style=""text-align: center;"">₪71
                                                <br>75%</p>
                  <p id=""wtp"" style=""text-align:center; margin-top: 0px; margin-bottom: 0px; font-size: 40px"";>מוכנים לשלם: <span id=""c_p_y""></span></p>","51","evaluation","55","28","8B","75","71","51","","","","","","","","","","","","","","",""
"","","","","","html-keyboard-response","242","964730","0.0-25.0-2.10","514f5d99-a157-42d0-b9e5-0407d2049090","null","<p style=""text-align: center;"">+</p>","null","fixation","","","","","","","","","","","","","","","","","","","","",""
"","","","","","html-slider-response","243","965740","0.0-25.0-0.11","514f5d99-a157-42d0-b9e5-0407d2049090","1000","
                  <p style=""text-align: center;"">₪39
                                                <br>65%</p>
                  <p id=""wtp"" style=""text-align:center; margin-top: 0px; margin-bottom: 0px; font-size: 40px"";>&ensp;</p>","-","viewing","0","16","1A,15A,26C","","","","","","","","","","","","","","","","","",""
"","","","","","html-slider-response","244","968159","0.0-25.0-1.11","514f5d99-a157-42d0-b9e5-0407d2049090","2418","
                  <p style=""text-align: center;"">₪39
                                                <br>65%</p>
                  <p id=""wtp"" style=""text-align:center; margin-top: 0px; margin-bottom: 0px; font-size: 40px"";>מוכנים לשלם: <span id=""c_p_y""></span></p>","20","evaluation","76","16","1A,15A,26C","65","39","20","","","","","","","","","","","","","","",""
"","","","","","html-keyboard-response","245","968863","0.0-25.0-2.11","514f5d99-a157-42d0-b9e5-0407d2049090","null","<p style=""text-align: center;"">+</p>","null","fixation","","","","","","","","","","","","","","","","","","","","",""
"","","","","","html-slider-response","246","969877","0.0-25.0-0.12","514f5d99-a157-42d0-b9e5-0407d2049090","1000","
                  <p style=""text-align: center;"">₪58
                                                <br>40%</p>
                  <p id=""wtp"" style=""text-align:center; margin-top: 0px; margin-bottom: 0px; font-size: 40px"";>&ensp;</p>","-","viewing","0","20","10C,13A,19C,21B","","","","","","","","","","","","","","","","","",""
"","","","","","html-slider-response","247","971575","0.0-25.0-1.12","514f5d99-a157-42d0-b9e5-0407d2049090","1697","
                  <p style=""text-align: center;"">₪58
                                                <br>40%</p>
                  <p id=""wtp"" style=""text-align:center; margin-top: 0px; margin-bottom: 0px; font-size: 40px"";>מוכנים לשלם: <span id=""c_p_y""></span></p>","26","evaluation","24","20","10C,13A,19C,21B","40","58","26","","","","","","","","","","","","","","",""
"","","","","","html-keyboard-response","248","972847","0.0-25.0-2.12","514f5d99-a157-42d0-b9e5-0407d2049090","null","<p style=""text-align: center;"">+</p>","null","fixation","","","","","","","","","","","","","","","","","","","","",""
"","","","","","html-slider-response","249","973864","0.0-25.0-0.13","514f5d99-a157-42d0-b9e5-0407d2049090","1000","
                  <p style=""text-align: center;"">₪43
                                                <br>75%</p>
                  <p id=""wtp"" style=""text-align:center; margin-top: 0px; margin-bottom: 0px; font-size: 40px"";>&ensp;</p>","-","viewing","0","18","11B,19B,24A,26A","","","","","","","","","","","","","","","","","",""
"","","","","","html-slider-response","250","974919","0.0-25.0-1.13","514f5d99-a157-42d0-b9e5-0407d2049090","1054","
                  <p style=""text-align: center;"">₪43
                                                <br>75%</p>
                  <p id=""wtp"" style=""text-align:center; margin-top: 0px; margin-bottom: 0px; font-size: 40px"";>מוכנים לשלם: <span id=""c_p_y""></span></p>","18","evaluation","73","18","11B,19B,24A,26A","75","43","18","","","","","","","","","","","","","","",""
"","","","","","html-keyboard-response","251","975680","0.0-25.0-2.13","514f5d99-a157-42d0-b9e5-0407d2049090","null","<p style=""text-align: center;"">+</p>","null","fixation","","","","","","","","","","","","","","","","","","","","",""
"","","","","","html-slider-response","252","976683","0.0-25.0-0.14","514f5d99-a157-42d0-b9e5-0407d2049090","1000","
                  <p style=""text-align: center;"">₪43
                                                <br>60%</p>
                  <p id=""wtp"" style=""text-align:center; margin-top: 0px; margin-bottom: 0px; font-size: 40px"";>&ensp;</p>","-","viewing","0","17","2A,7A,9A,15B","","","","","","","","","","","","","","","","","",""
"","","","","","html-slider-response","253","977895","0.0-25.0-1.14","514f5d99-a157-42d0-b9e5-0407d2049090","1211","
                  <p style=""text-align: center;"">₪43
                                                <br>60%</p>
