success,timeout,failed_images,failed_audio,failed_video,trial_type,trial_index,time_elapsed,internal_node_id,subject_id,rt,stimulus,response,part,slider_start,ID,set_ID,prob,amount,last_location,actual_choice,actual_EV,binary_id,trinary_id,catch,direction,A_key,S_key,D_key,choice_prob,choice_amount,total_prize
TRUE,FALSE,[],[],[],preload,0,6,0.0-0.0,718622d5-fb0c-4fe9-adf5-366d10b39301,,,,,,,,,,,,,,,,,,,,,,
,,,,,html-keyboard-response,1,413904,0.0-1.0,718622d5-fb0c-4fe9-adf5-366d10b39301,null,"
          <h1>שלום וברוכים הבאים!</h1>
          <p>לפניכם ניסוי בקבלת החלטות עם שני חלקים.
          <br><br>לחצו על העכבר כדי להמשיך.</p>",0,example,,,,,,,,,,,,,,,,,,
,,,,,html-keyboard-response,2,419711,0.0-2.0,718622d5-fb0c-4fe9-adf5-366d10b39301,null,"
        <h1>חלק 1</h1>
        <p>בקרוב יוצגו בפניכם הגרלות.
        <br>עליכם לבחור את המחיר המירבי שתהיו מוכנים לשלם כדי להשתתף בהגרלה שתוצג.
        <br>יש לכם תקציב של ₪80 לכל הגרלה. 
        <br>נסו להעריך כל הגרלה בנפרד ולחשוב כמה היא שווה עבורכם, ₪80 זמינים לכל הגרלה בנפרד.
        <br><br>לחצו על העכבר כדי להמשיך.</p>",1,instructions,,,,,,,,,,,,,,,,,,
,,,,,html-keyboard-response,3,424495,0.0-3.0,718622d5-fb0c-4fe9-adf5-366d10b39301,null,"
        <p>בסוף הניסוי, המחשב יבחר את אחת ההגרלות ויקבע מחיר לכרטיס עבורה. 
        <br>במידה והמחיר שבחרתם נמוך מהמחיר שנבחר על ידי המחשב, לא תשתתפו בהגרלה ותשארו עם מלוא התקציב.
        <br>במידה והמחיר שבחרתם גבוה מהמחיר שנבחר על ידי המחשב, תשלמו את המחיר שנקבע ותשתתפו בהגרלה.
        <br><br>לחצו על העכבר כדי להמשיך.</p>",1,instructions,,,,,,,,,,,,,,,,,,
,,,,,html-slider-response,4,438760,0.0-4.0,718622d5-fb0c-4fe9-adf5-366d10b39301,14159,"
        <p style=""font-size: 42px;"">נתחיל עם דוגמא: 
        <br>ההגרלה מטה מציעה 65% סיכוי לזכות ב-₪40 
        <br>&emsp;&emsp;&emsp;&emsp;&emsp;&emsp;&emsp;&emsp;&ensp;35% סיכוי לזכות ב-₪0.
        <br><br>מה המחיר המירבי שתהיו מוכנים לשלם על כרטיס להגרלה זו בין 0 ל-₪80?
        <br>הזיזו את העכבר על פני המלבן ולחצו כדי לבצע בחירה.</p>
        
        <p style=""text-align: center;"">₪40<br>65%</p>

        <p id=""wtp"" style=""text-align:center; margin-top: 0px; margin-bottom: 0px; font-size: 40px"";>מוכנים לשלם: <span id=""c_p_y""></span></p>",10,example,45,,,,,,,,,,,,,,,,,
,,,,,html-keyboard-response,5,443960,0.0-5.0,718622d5-fb0c-4fe9-adf5-366d10b39301,null,"<p>יפה מאוד!
                <br> בחרתם שתהיו מוכנים לשלם ₪10 כדי להשתתף בהגרלה:
                <br><p style=""text-align: center;"">₪40<br>65%</p>
                <p>נשמע נכון?
                <br>נניח שהגרלה זו נבחרה בסוף הניסוי.
                <br>כעת המחשב יקבע מחיר עבורה באקראי.
                <br>לחצו על העכבר להמשך.</p>",1,example,,,,,,,,,,,,,,,,,,
,,,,,html-keyboard-response,6,448840,0.0-6.0,718622d5-fb0c-4fe9-adf5-366d10b39301,null,"<p>המחשב קבע מחיר: ₪69
                <br>ואתם בחרתם לשלם לכל היותר: ₪10
                <br><br>מכיוון שהמחיר שבחרתם נמוך מהמחיר שנקבע, לא תתשתתפו בהגרלה.
                <br>במקרה כזה, בסוף הניסוי תקבלו את כל התקציב ההתחלתי של ₪80.
                <br><br>לחצו על העכבר להמשך.</p>",1,example,,,,,,,,,,,,,,,,,,
,,,,,html-slider-response,7,458888,0.0-7.0,718622d5-fb0c-4fe9-adf5-366d10b39301,9790,"<p style=""font-size: 42px;"">הנה עוד דוגמא:
                <br>ההגרלה מטה מציעה 35% סיכוי לזכות ב-₪18 
                <br>&emsp;&emsp;&emsp;&emsp;&emsp;&emsp;&emsp;&emsp;&ensp;65% סיכוי לזכות ב-₪0.</p>
        
                <p style=""text-align: center;"">₪18<br>35%</p>
                <p id=""wtp"" style=""text-align:center; margin-top: 0px; margin-bottom: 0px; font-size: 40px"";>מוכנים לשלם: <span id=""c_p_y""></span></p>",0,example,29,,,,,,,,,,,,,,,,,
,,,,,html-keyboard-response,8,460583,0.0-8.0,718622d5-fb0c-4fe9-adf5-366d10b39301,null,"<p>הייתם מוכנים לשלם  ₪0 כדי להשתתף בהגרלה:
                <p style=""text-align: center;"">₪18<br>35%</p>
                <p>כעת נניח שהמחשב בחר את ההגרלה הזו בסוף הניסוי, וקבע עבורה מחיר.
                <br><br>לחצו על העכבר כדי להמשיך.</p>",1,instructions,,,,,,,,,,,,,,,,,,
,,,,,html-keyboard-response,9,503232,0.0-9.0,718622d5-fb0c-4fe9-adf5-366d10b39301,null,"<p>המחשב קבע מחיר להגרלה: ₪0
                <br>ואתם בחרתם לשלם לכל היותר: ₪0
                <br><br>כעת המחיר שנקבע זהה לזה שבחרתם, אז תשלמו את המחיר שקבע המחשב (₪0) ותשתתפו בהגרלה.
                <br>במקרה כזה, תסיימו את הניסוי עם תקציב של ₪80 ועם סיכוי לזכות ב-₪18 נוספים מההגרלה.
                <br>כלומר, תוכלו לקבל ₪80 אם לא תזכו בהגרלה, או ₪98 אם תזכו בהגרלה.
                <br><br>לחצו על העכבר להמשך.</p>",1,example,,,,,,,,,,,,,,,,,,
,,,,,html-keyboard-response,10,507728,0.0-10.0,718622d5-fb0c-4fe9-adf5-366d10b39301,null,"<p>במהלך הניסוי, קודם תראו את ההגרלה ורק לאחר מכן תוכלו לבחור.
                <p>כמו כן, יהיו לכם מספר שניות מוגבל להגיב.
                <p>בואו ננסה זאת עם ההגרלה הקודמת.
                <br>לחצו על העכבר כדי להמשיך.</p>",1,instructions,,,,,,,,,,,,,,,,,,
,,,,,html-slider-response,11,509000,0.0-11.0,718622d5-fb0c-4fe9-adf5-366d10b39301,1000,"
                    <p style=""text-align: center;"">₪18<br>35%</p>
                    <p id=""wtp"" style=""text-align:center; margin-top: 0px; margin-bottom: 0px; font-size: 40px"";>&ensp;</p>",67,instructions,0,,,,,,,,,,,,,,,,,
,,,,,html-slider-response,12,512544,0.0-12.0,718622d5-fb0c-4fe9-adf5-366d10b39301,3287,"
                    <p style=""text-align: center;"">₪18<br>35%</p>
                    <p id=""wtp"" style=""text-align:center; margin-top: 0px; margin-bottom: 0px; font-size: 40px"";>מוכנים לשלם: <span id=""c_p_y""></span></p>",0,instructions,80,,,,,,,,,,,,,,,,,
,,,,,html-keyboard-response,13,513920,0.0-13.0,718622d5-fb0c-4fe9-adf5-366d10b39301,null,"<p>יפה. הפעם בחרתם לשלם לכל היותר ₪0.
                <br><br>לחצו על העכבר כדי להמשיך.</p>",1,instructions,,,,,,,,,,,,,,,,,,
,,,,,html-keyboard-response,14,521072,0.0-15.0,718622d5-fb0c-4fe9-adf5-366d10b39301,null,"<p>כעת נתחיל את הניסוי.
                <br><br>אתם תראו הגרלות ותתבקשו לבחור כמה תהיו מוכנים לשלם כדי להשתתף בהן.
                <br>יש לכם תקציב של ₪80 עבור כל הגרלה.
                <br>בסוף הניסוי הגרלה אחת תבחר באקראי ותשוחק.
                <br><br>לחצו על העכבר כדי להתחיל את הניסוי.</p>",1,instructions,,,,,,,,,,,,,,,,,,
,,,,,html-keyboard-response,15,522325,0.0-16.0,718622d5-fb0c-4fe9-adf5-366d10b39301,null,"<p style=""text-align: center;"">+</p>",null,fixation,,,,,,,,,,,,,,,,,,
,,,,,html-slider-response,16,523336,0.0-17.0-0.0,718622d5-fb0c-4fe9-adf5-366d10b39301,1000,"
                  <p style=""text-align: center;"">₪11
                                                <br>75%</p>
                  <p id=""wtp"" style=""text-align:center; margin-top: 0px; margin-bottom: 0px; font-size: 40px"";>&ensp;</p>",-,viewing,0,7,"6B,18B,22C,24C,29A",,,,,,,,,,,,,,,
,,,,,html-slider-response,17,527024,0.0-17.0-1.0,718622d5-fb0c-4fe9-adf5-366d10b39301,3686,"
                  <p style=""text-align: center;"">₪11
                                                <br>75%</p>
                  <p id=""wtp"" style=""text-align:center; margin-top: 0px; margin-bottom: 0px; font-size: 40px"";>מוכנים לשלם: <span id=""c_p_y""></span></p>",10,evaluation,67,7,"6B,18B,22C,24C,29A",75,11,10,,,,,,,,,,,,
,,,,,html-keyboard-response,18,528528,0.0-17.0-2.0,718622d5-fb0c-4fe9-adf5-366d10b39301,null,"<p style=""text-align: center;"">+</p>",null,fixation,,,,,,,,,,,,,,,,,,
,,,,,html-slider-response,19,529537,0.0-17.0-0.1,718622d5-fb0c-4fe9-adf5-366d10b39301,1000,"
                  <p style=""text-align: center;"">₪11
                                                <br>20%</p>
                  <p id=""wtp"" style=""text-align:center; margin-top: 0px; margin-bottom: 0px; font-size: 40px"";>&ensp;</p>",-,viewing,0,4,"12C,17C,23C,28C",,,,,,,,,,,,,,,
,,,,,html-slider-response,20,533296,0.0-17.0-1.1,718622d5-fb0c-4fe9-adf5-366d10b39301,3758,"
                  <p style=""text-align: center;"">₪11
                                                <br>20%</p>
                  <p id=""wtp"" style=""text-align:center; margin-top: 0px; margin-bottom: 0px; font-size: 40px"";>מוכנים לשלם: <span id=""c_p_y""></span></p>",11,evaluation,20,4,"12C,17C,23C,28C",20,11,11,,,,,,,,,,,,
,,,,,html-keyboard-response,21,534796,0.0-17.0-2.1,718622d5-fb0c-4fe9-adf5-366d10b39301,null,"<p style=""text-align: center;"">+</p>",null,fixation,,,,,,,,,,,,,,,,,,
,,,,,html-slider-response,22,535799,0.0-17.0-0.2,718622d5-fb0c-4fe9-adf5-366d10b39301,1000,"
                  <p style=""text-align: center;"">₪36
                                                <br>60%</p>
                  <p id=""wtp"" style=""text-align:center; margin-top: 0px; margin-bottom: 0px; font-size: 40px"";>&ensp;</p>",-,viewing,0,12,"1C,7C,15C",,,,,,,,,,,,,,,
,,,,,html-slider-response,23,538496,0.0-17.0-1.2,718622d5-fb0c-4fe9-adf5-366d10b39301,2695,"
                  <p style=""text-align: center;"">₪36
                                                <br>60%</p>
                  <p id=""wtp"" style=""text-align:center; margin-top: 0px; margin-bottom: 0px; font-size: 40px"";>מוכנים לשלם: <span id=""c_p_y""></span></p>",10,evaluation,75,12,"1C,7C,15C",60,36,10,,,,,,,,,,,,
,,,,,html-keyboard-response,24,539477,0.0-17.0-2.2,718622d5-fb0c-4fe9-adf5-366d10b39301,null,"<p style=""text-align: center;"">+</p>",null,fixation,,,,,,,,,,,,,,,,,,
,,,,,html-slider-response,25,540494,0.0-17.0-0.3,718622d5-fb0c-4fe9-adf5-366d10b39301,1000,"
                  <p style=""text-align: center;"">₪4
                                                <br>75%</p>
                  <p id=""wtp"" style=""text-align:center; margin-top: 0px; margin-bottom: 0px; font-size: 40px"";>&ensp;</p>",-,viewing,0,3,"12B,20B,23B,27C,29C",,,,,,,,,,,,,,,
,,,,,html-slider-response,26,541496,0.0-17.0-1.3,718622d5-fb0c-4fe9-adf5-366d10b39301,1000,"
                  <p style=""text-align: center;"">₪4
                                                <br>75%</p>
                  <p id=""wtp"" style=""text-align:center; margin-top: 0px; margin-bottom: 0px; font-size: 40px"";>מוכנים לשלם: <span id=""c_p_y""></span></p>",10,evaluation,16,3,"12B,20B,23B,27C,29C",75,4,10,,,,,,,,,,,,
,,,,,html-keyboard-response,27,542903,0.0-17.0-2.3,718622d5-fb0c-4fe9-adf5-366d10b39301,null,"<p style=""text-align: center;"">+</p>",null,fixation,,,,,,,,,,,,,,,,,,
,,,,,html-slider-response,28,543909,0.0-17.0-0.4,718622d5-fb0c-4fe9-adf5-366d10b39301,1000,"
                  <p style=""text-align: center;"">₪76
                                                <br>65%</p>
                  <p id=""wtp"" style=""text-align:center; margin-top: 0px; margin-bottom: 0px; font-size: 40px"";>&ensp;</p>",-,viewing,0,29,"8C,19A,24B",,,,,,,,,,,,,,,
,,,,,html-slider-response,29,547910,0.0-17.0-1.4,718622d5-fb0c-4fe9-adf5-366d10b39301,null,"
                  <p style=""text-align: center;"">₪76
                                                <br>65%</p>
                  <p id=""wtp"" style=""text-align:center; margin-top: 0px; margin-bottom: 0px; font-size: 40px"";>מוכנים לשלם: <span id=""c_p_y""></span></p>",null,evaluation,58,29,"8C,19A,24B",65,76,9,,,,,,,,,,,,
,,,,,html-keyboard-response,30,548516,0.0-17.0-2.4,718622d5-fb0c-4fe9-adf5-366d10b39301,null,"<p style=""text-align: center;"">+</p>",null,fixation,,,,,,,,,,,,,,,,,,
,,,,,html-slider-response,31,549534,0.0-17.0-0.5,718622d5-fb0c-4fe9-adf5-366d10b39301,1000,"
                  <p style=""text-align: center;"">₪64
                                                <br>50%</p>
                  <p id=""wtp"" style=""text-align:center; margin-top: 0px; margin-bottom: 0px; font-size: 40px"";>&ensp;</p>",-,viewing,0,25,"1B,3B,4A",,,,,,,,,,,,,,,
,,,,,html-slider-response,32,550672,0.0-17.0-1.5,718622d5-fb0c-4fe9-adf5-366d10b39301,1137,"
                  <p style=""text-align: center;"">₪64
                                                <br>50%</p>
                  <p id=""wtp"" style=""text-align:center; margin-top: 0px; margin-bottom: 0px; font-size: 40px"";>מוכנים לשלם: <span id=""c_p_y""></span></p>",9,evaluation,67,25,"1B,3B,4A",50,64,9,,,,,,,,,,,,
,,,,,html-keyboard-response,33,551881,0.0-17.0-2.5,718622d5-fb0c-4fe9-adf5-366d10b39301,null,"<p style=""text-align: center;"">+</p>",null,fixation,,,,,,,,,,,,,,,,,,
,,,,,html-slider-response,34,552888,0.0-17.0-0.6,718622d5-fb0c-4fe9-adf5-366d10b39301,1000,"
                  <p style=""text-align: center;"">₪43
                                                <br>75%</p>
                  <p id=""wtp"" style=""text-align:center; margin-top: 0px; margin-bottom: 0px; font-size: 40px"";>&ensp;</p>",-,viewing,0,18,"11B,19B,24A,26A",,,,,,,,,,,,,,,
,,,,,html-slider-response,35,556200,0.0-17.0-1.6,718622d5-fb0c-4fe9-adf5-366d10b39301,3310,"
                  <p style=""text-align: center;"">₪43
                                                <br>75%</p>
                  <p id=""wtp"" style=""text-align:center; margin-top: 0px; margin-bottom: 0px; font-size: 40px"";>מוכנים לשלם: <span id=""c_p_y""></span></p>",35,evaluation,73,18,"11B,19B,24A,26A",75,43,35,,,,,,,,,,,,
,,,,,html-keyboard-response,36,557417,0.0-17.0-2.6,718622d5-fb0c-4fe9-adf5-366d10b39301,null,"<p style=""text-align: center;"">+</p>",null,fixation,,,,,,,,,,,,,,,,,,
,,,,,html-slider-response,37,558424,0.0-17.0-0.7,718622d5-fb0c-4fe9-adf5-366d10b39301,1000,"
                  <p style=""text-align: center;"">₪58
                                                <br>40%</p>
                  <p id=""wtp"" style=""text-align:center; margin-top: 0px; margin-bottom: 0px; font-size: 40px"";>&ensp;</p>",-,viewing,0,20,"10C,13A,19C,21B",,,,,,,,,,,,,,,
,,,,,html-slider-response,38,562426,0.0-17.0-1.7,718622d5-fb0c-4fe9-adf5-366d10b39301,null,"
                  <p style=""text-align: center;"">₪58
                                                <br>40%</p>
                  <p id=""wtp"" style=""text-align:center; margin-top: 0px; margin-bottom: 0px; font-size: 40px"";>מוכנים לשלם: <span id=""c_p_y""></span></p>",null,evaluation,4,20,"10C,13A,19C,21B",40,58,41,,,,,,,,,,,,
,,,,,html-keyboard-response,39,563611,0.0-17.0-2.7,718622d5-fb0c-4fe9-adf5-366d10b39301,null,"<p style=""text-align: center;"">+</p>",null,fixation,,,,,,,,,,,,,,,,,,
,,,,,html-slider-response,40,564627,0.0-17.0-0.8,718622d5-fb0c-4fe9-adf5-366d10b39301,1000,"
                  <p style=""text-align: center;"">₪39
                                                <br>60%</p>
                  <p id=""wtp"" style=""text-align:center; margin-top: 0px; margin-bottom: 0px; font-size: 40px"";>&ensp;</p>",-,viewing,0,15,"9C,25B",,,,,,,,,,,,,,,
,,,,,html-slider-response,41,568628,0.0-17.0-1.8,718622d5-fb0c-4fe9-adf5-366d10b39301,null,"
                  <p style=""text-align: center;"">₪39
                                                <br>60%</p>
                  <p id=""wtp"" style=""text-align:center; margin-top: 0px; margin-bottom: 0px; font-size: 40px"";>מוכנים לשלם: <span id=""c_p_y""></span></p>",null,evaluation,69,15,"9C,25B",60,39,34,,,,,,,,,,,,
,,,,,html-keyboard-response,42,569559,0.0-17.0-2.8,718622d5-fb0c-4fe9-adf5-366d10b39301,null,"<p style=""text-align: center;"">+</p>",null,fixation,,,,,,,,,,,,,,,,,,
,,,,,html-slider-response,43,570574,0.0-17.0-0.9,718622d5-fb0c-4fe9-adf5-366d10b39301,1000,"
                  <p style=""text-align: center;"">₪36
                                                <br>70%</p>
                  <p id=""wtp"" style=""text-align:center; margin-top: 0px; margin-bottom: 0px; font-size: 40px"";>&ensp;</p>",-,viewing,0,13,"3A,5C,10B",,,,,,,,,,,,,,,
,,,,,html-slider-response,44,573359,0.0-17.0-1.9,718622d5-fb0c-4fe9-adf5-366d10b39301,2783,"
                  <p style=""text-align: center;"">₪36
                                                <br>70%</p>
                  <p id=""wtp"" style=""text-align:center; margin-top: 0px; margin-bottom: 0px; font-size: 40px"";>מוכנים לשלם: <span id=""c_p_y""></span></p>",31,evaluation,11,13,"3A,5C,10B",70,36,31,,,,,,,,,,,,
,,,,,html-keyboard-response,45,573906,0.0-17.0-2.9,718622d5-fb0c-4fe9-adf5-366d10b39301,null,"<p style=""text-align: center;"">+</p>",null,fixation,,,,,,,,,,,,,,,,,,
,,,,,html-slider-response,46,574920,0.0-17.0-0.10,718622d5-fb0c-4fe9-adf5-366d10b39301,1000,"
                  <p style=""text-align: center;"">₪61
                                                <br>55%</p>
                  <p id=""wtp"" style=""text-align:center; margin-top: 0px; margin-bottom: 0px; font-size: 40px"";>&ensp;</p>",-,viewing,0,23,"7B,26B",,,,,,,,,,,,,,,
,,,,,html-slider-response,47,578933,0.0-17.0-1.10,718622d5-fb0c-4fe9-adf5-366d10b39301,null,"
                  <p style=""text-align: center;"">₪61
                                                <br>55%</p>
                  <p id=""wtp"" style=""text-align:center; margin-top: 0px; margin-bottom: 0px; font-size: 40px"";>מוכנים לשלם: <span id=""c_p_y""></span></p>",null,evaluation,53,23,"7B,26B",55,61,34,,,,,,,,,,,,
,,,,,html-keyboard-response,48,580238,0.0-17.0-2.10,718622d5-fb0c-4fe9-adf5-366d10b39301,null,"<p style=""text-align: center;"">+</p>",null,fixation,,,,,,,,,,,,,,,,,,
,,,,,html-slider-response,49,581245,0.0-17.0-0.11,718622d5-fb0c-4fe9-adf5-366d10b39301,1000,"
                  <p style=""text-align: center;"">₪58
                                                <br>45%</p>
                  <p id=""wtp"" style=""text-align:center; margin-top: 0px; margin-bottom: 0px; font-size: 40px"";>&ensp;</p>",-,viewing,0,21,"11C,18C,25A",,,,,,,,,,,,,,,
,,,,,html-slider-response,50,585250,0.0-17.0-1.11,718622d5-fb0c-4fe9-adf5-366d10b39301,null,"
                  <p style=""text-align: center;"">₪58
                                                <br>45%</p>
                  <p id=""wtp"" style=""text-align:center; margin-top: 0px; margin-bottom: 0px; font-size: 40px"";>מוכנים לשלם: <span id=""c_p_y""></span></p>",null,evaluation,33,21,"11C,18C,25A",45,58,36,,,,,,,,,,,,
,,,,,html-keyboard-response,51,586721,0.0-17.0-2.11,718622d5-fb0c-4fe9-adf5-366d10b39301,null,"<p style=""text-align: center;"">+</p>",null,fixation,,,,,,,,,,,,,,,,,,
,,,,,html-slider-response,52,587734,0.0-17.0-0.12,718622d5-fb0c-4fe9-adf5-366d10b39301,1000,"
                  <p style=""text-align: center;"">₪79
                                                <br>65%</p>
                  <p id=""wtp"" style=""text-align:center; margin-top: 0px; margin-bottom: 0px; font-size: 40px"";>&ensp;</p>",-,viewing,0,31,8A,,,,,,,,,,,,,,,
,,,,,html-slider-response,53,591737,0.0-17.0-1.12,718622d5-fb0c-4fe9-adf5-366d10b39301,null,"
                  <p style=""text-align: center;"">₪79
                                                <br>65%</p>
                  <p id=""wtp"" style=""text-align:center; margin-top: 0px; margin-bottom: 0px; font-size: 40px"";>מוכנים לשלם: <span id=""c_p_y""></span></p>",null,evaluation,24,31,8A,65,79,67,,,,,,,,,,,,
,,,,,html-keyboard-response,54,592405,0.0-17.0-2.12,718622d5-fb0c-4fe9-adf5-366d10b39301,null,"<p style=""text-align: center;"">+</p>",null,fixation,,,,,,,,,,,,,,,,,,
,,,,,html-slider-response,55,593412,0.0-17.0-0.13,718622d5-fb0c-4fe9-adf5-366d10b39301,1000,"
                  <p style=""text-align: center;"">₪16
                                                <br>20%</p>
                  <p id=""wtp"" style=""text-align:center; margin-top: 0px; margin-bottom: 0px; font-size: 40px"";>&ensp;</p>",-,viewing,0,8,"14C,17A,20C,27A",,,,,,,,,,,,,,,
,,,,,html-slider-response,56,597215,0.0-17.0-1.13,718622d5-fb0c-4fe9-adf5-366d10b39301,3803,"
                  <p style=""text-align: center;"">₪16
                                                <br>20%</p>
                  <p id=""wtp"" style=""text-align:center; margin-top: 0px; margin-bottom: 0px; font-size: 40px"";>מוכנים לשלם: <span id=""c_p_y""></span></p>",20,evaluation,47,8,"14C,17A,20C,27A",20,16,20,,,,,,,,,,,,
,,,,,html-keyboard-response,57,597985,0.0-17.0-2.13,718622d5-fb0c-4fe9-adf5-366d10b39301,null,"<p style=""text-align: center;"">+</p>",null,fixation,,,,,,,,,,,,,,,,,,
,,,,,html-slider-response,58,598997,0.0-17.0-0.14,718622d5-fb0c-4fe9-adf5-366d10b39301,1000,"
                  <p style=""text-align: center;"">₪39
                                                <br>65%</p>
                  <p id=""wtp"" style=""text-align:center; margin-top: 0px; margin-bottom: 0px; font-size: 40px"";>&ensp;</p>",-,viewing,0,16,"1A,15A,26C",,,,,,,,,,,,,,,
,,,,,html-slider-response,59,601887,0.0-17.0-1.14,718622d5-fb0c-4fe9-adf5-366d10b39301,2888,"
                  <p style=""text-align: center;"">₪39
                                                <br>65%</p>
                  <p id=""wtp"" style=""text-align:center; margin-top: 0px; margin-bottom: 0px; font-size: 40px"";>מוכנים לשלם: <span id=""c_p_y""></span></p>",15,evaluation,12,16,"1A,15A,26C",65,39,15,,,,,,,,,,,,
,,,,,html-keyboard-response,60,602813,0.0-17.0-2.14,718622d5-fb0c-4fe9-adf5-366d10b39301,null,"<p style=""text-align: center;"">+</p>",null,fixation,,,,,,,,,,,,,,,,,,
,,,,,html-slider-response,61,603816,0.0-17.0-0.15,718622d5-fb0c-4fe9-adf5-366d10b39301,1000,"
                  <p style=""text-align: center;"">₪18
                                                <br>50%</p>
                  <p id=""wtp"" style=""text-align:center; margin-top: 0px; margin-bottom: 0px; font-size: 40px"";>&ensp;</p>",-,viewing,0,10,"2C,16C,22B,28A",,,,,,,,,,,,,,,
,,,,,html-slider-response,62,604607,0.0-17.0-1.15,718622d5-fb0c-4fe9-adf5-366d10b39301,789,"
                  <p style=""text-align: center;"">₪18
                                                <br>50%</p>
                  <p id=""wtp"" style=""text-align:center; margin-top: 0px; margin-bottom: 0px; font-size: 40px"";>מוכנים לשלם: <span id=""c_p_y""></span></p>",15,evaluation,32,10,"2C,16C,22B,28A",50,18,15,,,,,,,,,,,,
,,,,,html-keyboard-response,63,605887,0.0-17.0-2.15,718622d5-fb0c-4fe9-adf5-366d10b39301,null,"<p style=""text-align: center;"">+</p>",null,fixation,,,,,,,,,,,,,,,,,,
,,,,,html-slider-response,64,606896,0.0-17.0-0.16,718622d5-fb0c-4fe9-adf5-366d10b39301,1000,"
                  <p style=""text-align: center;"">₪4
                                                <br>50%</p>
                  <p id=""wtp"" style=""text-align:center; margin-top: 0px; margin-bottom: 0px; font-size: 40px"";>&ensp;</p>",-,viewing,0,2,"4C,17B",,,,,,,,,,,,,,,
,,,,,html-slider-response,65,608527,0.0-17.0-1.16,718622d5-fb0c-4fe9-adf5-366d10b39301,1629,"
                  <p style=""text-align: center;"">₪4
                                                <br>50%</p>
                  <p id=""wtp"" style=""text-align:center; margin-top: 0px; margin-bottom: 0px; font-size: 40px"";>מוכנים לשלם: <span id=""c_p_y""></span></p>",6,evaluation,9,2,"4C,17B",50,4,6,,,,,,,,,,,,
,,,,,html-keyboard-response,66,609116,0.0-17.0-2.16,718622d5-fb0c-4fe9-adf5-366d10b39301,null,"<p style=""text-align: center;"">+</p>",null,fixation,,,,,,,,,,,,,,,,,,
,,,,,html-slider-response,67,610126,0.0-17.0-0.17,718622d5-fb0c-4fe9-adf5-366d10b39301,1000,"
                  <p style=""text-align: center;"">₪18
                                                <br>25%</p>
                  <p id=""wtp"" style=""text-align:center; margin-top: 0px; margin-bottom: 0px; font-size: 40px"";>&ensp;</p>",-,viewing,0,9,"14A,23A",,,,,,,,,,,,,,,
,,,,,html-slider-response,68,614129,0.0-17.0-1.17,718622d5-fb0c-4fe9-adf5-366d10b39301,null,"
                  <p style=""text-align: center;"">₪18
                                                <br>25%</p>
                  <p id=""wtp"" style=""text-align:center; margin-top: 0px; margin-bottom: 0px; font-size: 40px"";>מוכנים לשלם: <span id=""c_p_y""></span></p>",null,evaluation,8,9,"14A,23A",25,18,13,,,,,,,,,,,,
,,,,,html-keyboard-response,69,615550,0.0-17.0-2.17,718622d5-fb0c-4fe9-adf5-366d10b39301,null,"<p style=""text-align: center;"">+</p>",null,fixation,,,,,,,,,,,,,,,,,,
,,,,,html-slider-response,70,616567,0.0-17.0-0.18,718622d5-fb0c-4fe9-adf5-366d10b39301,1000,"
                  <p style=""text-align: center;"">₪43
                                                <br>60%</p>
                  <p id=""wtp"" style=""text-align:center; margin-top: 0px; margin-bottom: 0px; font-size: 40px"";>&ensp;</p>",-,viewing,0,17,"2A,7A,9A,15B",,,,,,,,,,,,,,,
,,,,,html-slider-response,71,620580,0.0-17.0-1.18,718622d5-fb0c-4fe9-adf5-366d10b39301,null,"
                  <p style=""text-align: center;"">₪43
                                                <br>60%</p>
                  <p id=""wtp"" style=""text-align:center; margin-top: 0px; margin-bottom: 0px; font-size: 40px"";>מוכנים לשלם: <span id=""c_p_y""></span></p>",null,evaluation,19,17,"2A,7A,9A,15B",60,43,10,,,,,,,,,,,,
,,,,,html-keyboard-response,72,621742,0.0-17.0-2.18,718622d5-fb0c-4fe9-adf5-366d10b39301,null,"<p style=""text-align: center;"">+</p>",null,fixation,,,,,,,,,,,,,,,,,,
,,,,,html-slider-response,73,622756,0.0-17.0-0.19,718622d5-fb0c-4fe9-adf5-366d10b39301,1000,"
                  <p style=""text-align: center;"">₪79
                                                <br>40%</p>
                  <p id=""wtp"" style=""text-align:center; margin-top: 0px; margin-bottom: 0px; font-size: 40px"";>&ensp;</p>",-,viewing,0,30,9B,,,,,,,,,,,,,,,
,,,,,html-slider-response,74,626761,0.0-17.0-1.19,718622d5-fb0c-4fe9-adf5-366d10b39301,null,"
                  <p style=""text-align: center;"">₪79
                                                <br>40%</p>
                  <p id=""wtp"" style=""text-align:center; margin-top: 0px; margin-bottom: 0px; font-size: 40px"";>מוכנים לשלם: <span id=""c_p_y""></span></p>",null,evaluation,69,30,9B,40,79,20,,,,,,,,,,,,
,,,,,html-keyboard-response,75,627409,0.0-17.0-2.19,718622d5-fb0c-4fe9-adf5-366d10b39301,null,"<p style=""text-align: center;"">+</p>",null,fixation,,,,,,,,,,,,,,,,,,
,,,,,html-slider-response,76,628428,0.0-17.0-0.20,718622d5-fb0c-4fe9-adf5-366d10b39301,1000,"
                  <p style=""text-align: center;"">₪71
                                                <br>45%</p>
                  <p id=""wtp"" style=""text-align:center; margin-top: 0px; margin-bottom: 0px; font-size: 40px"";>&ensp;</p>",-,viewing,0,26,"2B,16A",,,,,,,,,,,,,,,
,,,,,html-slider-response,77,631840,0.0-17.0-1.20,718622d5-fb0c-4fe9-adf5-366d10b39301,3411,"
                  <p style=""text-align: center;"">₪71
                                                <br>45%</p>
                  <p id=""wtp"" style=""text-align:center; margin-top: 0px; margin-bottom: 0px; font-size: 40px"";>מוכנים לשלם: <span id=""c_p_y""></span></p>",30,evaluation,25,26,"2B,16A",45,71,30,,,,,,,,,,,,
,,,,,html-keyboard-response,78,632391,0.0-17.0-2.20,718622d5-fb0c-4fe9-adf5-366d10b39301,null,"<p style=""text-align: center;"">+</p>",null,fixation,,,,,,,,,,,,,,,,,,
,,,,,html-slider-response,79,633404,0.0-17.0-0.21,718622d5-fb0c-4fe9-adf5-366d10b39301,1000,"
                  <p style=""text-align: center;"">₪71
                                                <br>55%</p>
                  <p id=""wtp"" style=""text-align:center; margin-top: 0px; margin-bottom: 0px; font-size: 40px"";>&ensp;</p>",-,viewing,0,27,"5B,18A",,,,,,,,,,,,,,,
,,,,,html-slider-response,80,637419,0.0-17.0-1.21,718622d5-fb0c-4fe9-adf5-366d10b39301,null,"
                  <p style=""text-align: center;"">₪71
                                                <br>55%</p>
                  <p id=""wtp"" style=""text-align:center; margin-top: 0px; margin-bottom: 0px; font-size: 40px"";>מוכנים לשלם: <span id=""c_p_y""></span></p>",null,evaluation,47,27,"5B,18A",55,71,29,,,,,,,,,,,,
,,,,,html-keyboard-response,81,638877,0.0-17.0-2.21,718622d5-fb0c-4fe9-adf5-366d10b39301,null,"<p style=""text-align: center;"">+</p>",null,fixation,,,,,,,,,,,,,,,,,,
,,,,,html-slider-response,82,639880,0.0-17.0-0.22,718622d5-fb0c-4fe9-adf5-366d10b39301,1000,"
                  <p style=""text-align: center;"">₪71
                                                <br>75%</p>
                  <p id=""wtp"" style=""text-align:center; margin-top: 0px; margin-bottom: 0px; font-size: 40px"";>&ensp;</p>",-,viewing,0,28,8B,,,,,,,,,,,,,,,
,,,,,html-slider-response,83,643512,0.0-17.0-1.22,718622d5-fb0c-4fe9-adf5-366d10b39301,3631,"
                  <p style=""text-align: center;"">₪71
                                                <br>75%</p>
                  <p id=""wtp"" style=""text-align:center; margin-top: 0px; margin-bottom: 0px; font-size: 40px"";>מוכנים לשלם: <span id=""c_p_y""></span></p>",30,evaluation,55,28,8B,75,71,30,,,,,,,,,,,,
,,,,,html-keyboard-response,84,644252,0.0-17.0-2.22,718622d5-fb0c-4fe9-adf5-366d10b39301,null,"<p style=""text-align: center;"">+</p>",null,fixation,,,,,,,,,,,,,,,,,,
,,,,,html-slider-response,85,645265,0.0-17.0-0.23,718622d5-fb0c-4fe9-adf5-366d10b39301,1000,"
                  <p style=""text-align: center;"">₪11
                                                <br>25%</p>
                  <p id=""wtp"" style=""text-align:center; margin-top: 0px; margin-bottom: 0px; font-size: 40px"";>&ensp;</p>",-,viewing,0,5,"12A,27B,28B,30B",,,,,,,,,,,,,,,
,,,,,html-slider-response,86,649184,0.0-17.0-1.23,718622d5-fb0c-4fe9-adf5-366d10b39301,3918,"
                  <p style=""text-align: center;"">₪11
                                                <br>25%</p>
                  <p id=""wtp"" style=""text-align:center; margin-top: 0px; margin-bottom: 0px; font-size: 40px"";>מוכנים לשלם: <span id=""c_p_y""></span></p>",4,evaluation,15,5,"12A,27B,28B,30B",25,11,4,,,,,,,,,,,,
,,,,,html-keyboard-response,87,650046,0.0-17.0-2.23,718622d5-fb0c-4fe9-adf5-366d10b39301,null,"<p style=""text-align: center;"">+</p>",null,fixation,,,,,,,,,,,,,,,,,,
,,,,,html-slider-response,88,651055,0.0-17.0-0.24,718622d5-fb0c-4fe9-adf5-366d10b39301,1000,"
                  <p style=""text-align: center;"">₪11
                                                <br>45%</p>
                  <p id=""wtp"" style=""text-align:center; margin-top: 0px; margin-bottom: 0px; font-size: 40px"";>&ensp;</p>",-,viewing,0,6,"14B,21C,25C",,,,,,,,,,,,,,,
,,,,,html-slider-response,89,655058,0.0-17.0-1.24,718622d5-fb0c-4fe9-adf5-366d10b39301,null,"
                  <p style=""text-align: center;"">₪11
                                                <br>45%</p>
                  <p id=""wtp"" style=""text-align:center; margin-top: 0px; margin-bottom: 0px; font-size: 40px"";>מוכנים לשלם: <span id=""c_p_y""></span></p>",null,evaluation,80,6,"14B,21C,25C",45,11,7,,,,,,,,,,,,
,,,,,html-keyboard-response,90,655834,0.0-17.0-2.24,718622d5-fb0c-4fe9-adf5-366d10b39301,null,"<p style=""text-align: center;"">+</p>",null,fixation,,,,,,,,,,,,,,,,,,
,,,,,html-slider-response,91,656837,0.0-17.0-0.25,718622d5-fb0c-4fe9-adf5-366d10b39301,1000,"
                  <p style=""text-align: center;"">₪36
                                                <br>30%</p>
                  <p id=""wtp"" style=""text-align:center; margin-top: 0px; margin-bottom: 0px; font-size: 40px"";>&ensp;</p>",-,viewing,0,11,"3C,20A,22A",,,,,,,,,,,,,,,
,,,,,html-slider-response,92,659832,0.0-17.0-1.25,718622d5-fb0c-4fe9-adf5-366d10b39301,2994,"
                  <p style=""text-align: center;"">₪36
                                                <br>30%</p>
                  <p id=""wtp"" style=""text-align:center; margin-top: 0px; margin-bottom: 0px; font-size: 40px"";>מוכנים לשלם: <span id=""c_p_y""></span></p>",5,evaluation,43,11,"3C,20A,22A",30,36,5,,,,,,,,,,,,
,,,,,html-keyboard-response,93,660558,0.0-17.0-2.25,718622d5-fb0c-4fe9-adf5-366d10b39301,null,"<p style=""text-align: center;"">+</p>",null,fixation,,,,,,,,,,,,,,,,,,
,,,,,html-slider-response,94,661571,0.0-17.0-0.26,718622d5-fb0c-4fe9-adf5-366d10b39301,1000,"
                  <p style=""text-align: center;"">₪61
                                                <br>45%</p>
                  <p id=""wtp"" style=""text-align:center; margin-top: 0px; margin-bottom: 0px; font-size: 40px"";>&ensp;</p>",-,viewing,0,22,"10A,11A",,,,,,,,,,,,,,,
,,,,,html-slider-response,95,665224,0.0-17.0-1.26,718622d5-fb0c-4fe9-adf5-366d10b39301,3651,"
                  <p style=""text-align: center;"">₪61
                                                <br>45%</p>
                  <p id=""wtp"" style=""text-align:center; margin-top: 0px; margin-bottom: 0px; font-size: 40px"";>מוכנים לשלם: <span id=""c_p_y""></span></p>",20,evaluation,25,22,"10A,11A",45,61,20,,,,,,,,,,,,
,,,,,html-keyboard-response,96,666006,0.0-17.0-2.26,718622d5-fb0c-4fe9-adf5-366d10b39301,null,"<p style=""text-align: center;"">+</p>",null,fixation,,,,,,,,,,,,,,,,,,
,,,,,html-slider-response,97,667024,0.0-17.0-0.27,718622d5-fb0c-4fe9-adf5-366d10b39301,1000,"
                  <p style=""text-align: center;"">₪4
                                                <br>25%</p>
                  <p id=""wtp"" style=""text-align:center; margin-top: 0px; margin-bottom: 0px; font-size: 40px"";>&ensp;</p>",-,viewing,0,1,"6C,29B,30C",,,,,,,,,,,,,,,
,,,,,html-slider-response,98,669304,0.0-17.0-1.27,718622d5-fb0c-4fe9-adf5-366d10b39301,2279,"
                  <p style=""text-align: center;"">₪4
                                                <br>25%</p>
                  <p id=""wtp"" style=""text-align:center; margin-top: 0px; margin-bottom: 0px; font-size: 40px"";>מוכנים לשלם: <span id=""c_p_y""></span></p>",2,evaluation,40,1,"6C,29B,30C",25,4,2,,,,,,,,,,,,
,,,,,html-keyboard-response,99,670010,0.0-17.0-2.27,718622d5-fb0c-4fe9-adf5-366d10b39301,null,"<p style=""text-align: center;"">+</p>",null,fixation,,,,,,,,,,,,,,,,,,
,,,,,html-slider-response,100,671027,0.0-17.0-0.28,718622d5-fb0c-4fe9-adf5-366d10b39301,1000,"
                  <p style=""text-align: center;"">₪64
                                                <br>25%</p>
                  <p id=""wtp"" style=""text-align:center; margin-top: 0px; margin-bottom: 0px; font-size: 40px"";>&ensp;</p>",-,viewing,0,24,"6A,21A",,,,,,,,,,,,,,,
,,,,,html-slider-response,101,675043,0.0-17.0-1.28,718622d5-fb0c-4fe9-adf5-366d10b39301,null,"
                  <p style=""text-align: center;"">₪64
                                                <br>25%</p>
                  <p id=""wtp"" style=""text-align:center; margin-top: 0px; margin-bottom: 0px; font-size: 40px"";>מוכנים לשלם: <span id=""c_p_y""></span></p>",null,evaluation,53,24,"6A,21A",25,64,15,,,,,,,,,,,,
,,,,,html-keyboard-response,102,675724,0.0-17.0-2.28,718622d5-fb0c-4fe9-adf5-366d10b39301,null,"<p style=""text-align: center;"">+</p>",null,fixation,,,,,,,,,,,,,,,,,,
,,,,,html-slider-response,103,676740,0.0-17.0-0.29,718622d5-fb0c-4fe9-adf5-366d10b39301,1000,"
                  <p style=""text-align: center;"">₪36
                                                <br>75%</p>
                  <p id=""wtp"" style=""text-align:center; margin-top: 0px; margin-bottom: 0px; font-size: 40px"";>&ensp;</p>",-,viewing,0,14,"4B,5A,13B,16B",,,,,,,,,,,,,,,
,,,,,html-slider-response,104,680696,0.0-17.0-1.29,718622d5-fb0c-4fe9-adf5-366d10b39301,3956,"
                  <p style=""text-align: center;"">₪36
                                                <br>75%</p>
                  <p id=""wtp"" style=""text-align:center; margin-top: 0px; margin-bottom: 0px; font-size: 40px"";>מוכנים לשלם: <span id=""c_p_y""></span></p>",30,evaluation,51,14,"4B,5A,13B,16B",75,36,30,,,,,,,,,,,,
,,,,,html-keyboard-response,105,681631,0.0-17.0-2.29,718622d5-fb0c-4fe9-adf5-366d10b39301,null,"<p style=""text-align: center;"">+</p>",null,fixation,,,,,,,,,,,,,,,,,,
,,,,,html-slider-response,106,682642,0.0-17.0-0.30,718622d5-fb0c-4fe9-adf5-366d10b39301,1000,"
                  <p style=""text-align: center;"">₪58
                                                <br>30%</p>
                  <p id=""wtp"" style=""text-align:center; margin-top: 0px; margin-bottom: 0px; font-size: 40px"";>&ensp;</p>",-,viewing,0,19,"13C,30A",,,,,,,,,,,,,,,
,,,,,html-slider-response,107,686644,0.0-17.0-1.30,718622d5-fb0c-4fe9-adf5-366d10b39301,null,"
                  <p style=""text-align: center;"">₪58
                                                <br>30%</p>
                  <p id=""wtp"" style=""text-align:center; margin-top: 0px; margin-bottom: 0px; font-size: 40px"";>מוכנים לשלם: <span id=""c_p_y""></span></p>",null,evaluation,79,19,"13C,30A",30,58,7,,,,,,,,,,,,
,,,,,html-keyboard-response,108,687169,0.0-17.0-2.30,718622d5-fb0c-4fe9-adf5-366d10b39301,null,"<p style=""text-align: center;"">+</p>",null,fixation,,,,,,,,,,,,,,,,,,
,,,,,html-keyboard-response,109,688176,0.0-18.0,718622d5-fb0c-4fe9-adf5-366d10b39301,null,"<p style=""text-align: center;"">+</p>",null,fixation,,,,,,,,,,,,,,,,,,
,,,,,html-keyboard-response,110,689880,0.0-19.0,718622d5-fb0c-4fe9-adf5-366d10b39301,null,"<p>הפסקה.
          <br>לחצו כדי להמשיך.</p>",1,scan_wait,,,,,,,,,,,,,,,,,,
,,,,,html-keyboard-response,111,690885,0.0-20.0,718622d5-fb0c-4fe9-adf5-366d10b39301,null,"<p style=""text-align: center;"">+</p>",null,fixation,,,,,,,,,,,,,,,,,,
,,,,,html-slider-response,112,691890,0.0-21.0-0.0,718622d5-fb0c-4fe9-adf5-366d10b39301,1000,"
                  <p style=""text-align: center;"">₪64
                                                <br>25%</p>
                  <p id=""wtp"" style=""text-align:center; margin-top: 0px; margin-bottom: 0px; font-size: 40px"";>&ensp;</p>",-,viewing,0,24,"6A,21A",,,,,,,,,,,,,,,
,,,,,html-slider-response,113,695496,0.0-21.0-1.0,718622d5-fb0c-4fe9-adf5-366d10b39301,3604,"
                  <p style=""text-align: center;"">₪64
                                                <br>25%</p>
                  <p id=""wtp"" style=""text-align:center; margin-top: 0px; margin-bottom: 0px; font-size: 40px"";>מוכנים לשלם: <span id=""c_p_y""></span></p>",10,evaluation,7,24,"6A,21A",25,64,10,,,,,,,,,,,,
,,,,,html-keyboard-response,114,696341,0.0-21.0-2.0,718622d5-fb0c-4fe9-adf5-366d10b39301,null,"<p style=""text-align: center;"">+</p>",null,fixation,,,,,,,,,,,,,,,,,,
,,,,,html-slider-response,115,697344,0.0-21.0-0.1,718622d5-fb0c-4fe9-adf5-366d10b39301,1000,"
                  <p style=""text-align: center;"">₪18
                                                <br>50%</p>
                  <p id=""wtp"" style=""text-align:center; margin-top: 0px; margin-bottom: 0px; font-size: 40px"";>&ensp;</p>",-,viewing,0,10,"2C,16C,22B,28A",,,,,,,,,,,,,,,
,,,,,html-slider-response,116,698768,0.0-21.0-1.1,718622d5-fb0c-4fe9-adf5-366d10b39301,1423,"
                  <p style=""text-align: center;"">₪18
                                                <br>50%</p>
                  <p id=""wtp"" style=""text-align:center; margin-top: 0px; margin-bottom: 0px; font-size: 40px"";>מוכנים לשלם: <span id=""c_p_y""></span></p>",0,evaluation,58,10,"2C,16C,22B,28A",50,18,0,,,,,,,,,,,,
,,,,,html-keyboard-response,117,699845,0.0-21.0-2.1,718622d5-fb0c-4fe9-adf5-366d10b39301,null,"<p style=""text-align: center;"">+</p>",null,fixation,,,,,,,,,,,,,,,,,,
,,,,,html-slider-response,118,700857,0.0-21.0-0.2,718622d5-fb0c-4fe9-adf5-366d10b39301,1000,"
                  <p style=""text-align: center;"">₪64
                                                <br>50%</p>
                  <p id=""wtp"" style=""text-align:center; margin-top: 0px; margin-bottom: 0px; font-size: 40px"";>&ensp;</p>",-,viewing,0,25,"1B,3B,4A",,,,,,,,,,,,,,,
,,,,,html-slider-response,119,704864,0.0-21.0-1.2,718622d5-fb0c-4fe9-adf5-366d10b39301,null,"
                  <p style=""text-align: center;"">₪64
                                                <br>50%</p>
                  <p id=""wtp"" style=""text-align:center; margin-top: 0px; margin-bottom: 0px; font-size: 40px"";>מוכנים לשלם: <span id=""c_p_y""></span></p>",null,evaluation,46,25,"1B,3B,4A",50,64,11,,,,,,,,,,,,
,,,,,html-keyboard-response,120,706222,0.0-21.0-2.2,718622d5-fb0c-4fe9-adf5-366d10b39301,null,"<p style=""text-align: center;"">+</p>",null,fixation,,,,,,,,,,,,,,,,,,
,,,,,html-slider-response,121,707224,0.0-21.0-0.3,718622d5-fb0c-4fe9-adf5-366d10b39301,1000,"
                  <p style=""text-align: center;"">₪61
                                                <br>55%</p>
                  <p id=""wtp"" style=""text-align:center; margin-top: 0px; margin-bottom: 0px; font-size: 40px"";>&ensp;</p>",-,viewing,0,23,"7B,26B",,,,,,,,,,,,,,,
,,,,,html-slider-response,122,711237,0.0-21.0-1.3,718622d5-fb0c-4fe9-adf5-366d10b39301,null,"
                  <p style=""text-align: center;"">₪61
                                                <br>55%</p>
                  <p id=""wtp"" style=""text-align:center; margin-top: 0px; margin-bottom: 0px; font-size: 40px"";>מוכנים לשלם: <span id=""c_p_y""></span></p>",null,evaluation,30,23,"7B,26B",55,61,20,,,,,,,,,,,,
,,,,,html-keyboard-response,123,712120,0.0-21.0-2.3,718622d5-fb0c-4fe9-adf5-366d10b39301,null,"<p style=""text-align: center;"">+</p>",null,fixation,,,,,,,,,,,,,,,,,,
,,,,,html-slider-response,124,713136,0.0-21.0-0.4,718622d5-fb0c-4fe9-adf5-366d10b39301,1000,"
                  <p style=""text-align: center;"">₪11
                                                <br>25%</p>
                  <p id=""wtp"" style=""text-align:center; margin-top: 0px; margin-bottom: 0px; font-size: 40px"";>&ensp;</p>",-,viewing,0,5,"12A,27B,28B,30B",,,,,,,,,,,,,,,
,,,,,html-slider-response,125,714584,0.0-21.0-1.4,718622d5-fb0c-4fe9-adf5-366d10b39301,1447,"
                  <p style=""text-align: center;"">₪11
                                                <br>25%</p>
                  <p id=""wtp"" style=""text-align:center; margin-top: 0px; margin-bottom: 0px; font-size: 40px"";>מוכנים לשלם: <span id=""c_p_y""></span></p>",0,evaluation,78,5,"12A,27B,28B,30B",25,11,0,,,,,,,,,,,,
,,,,,html-keyboard-response,126,715725,0.0-21.0-2.4,718622d5-fb0c-4fe9-adf5-366d10b39301,null,"<p style=""text-align: center;"">+</p>",null,fixation,,,,,,,,,,,,,,,,,,
,,,,,html-slider-response,127,716727,0.0-21.0-0.5,718622d5-fb0c-4fe9-adf5-366d10b39301,1000,"
                  <p style=""text-align: center;"">₪43
                                                <br>75%</p>
                  <p id=""wtp"" style=""text-align:center; margin-top: 0px; margin-bottom: 0px; font-size: 40px"";>&ensp;</p>",-,viewing,0,18,"11B,19B,24A,26A",,,,,,,,,,,,,,,
,,,,,html-slider-response,128,720328,0.0-21.0-1.5,718622d5-fb0c-4fe9-adf5-366d10b39301,3599,"
                  <p style=""text-align: center;"">₪43
                                                <br>75%</p>
                  <p id=""wtp"" style=""text-align:center; margin-top: 0px; margin-bottom: 0px; font-size: 40px"";>מוכנים לשלם: <span id=""c_p_y""></span></p>",10,evaluation,51,18,"11B,19B,24A,26A",75,43,10,,,,,,,,,,,,
,,,,,html-keyboard-response,129,721825,0.0-21.0-2.5,718622d5-fb0c-4fe9-adf5-366d10b39301,null,"<p style=""text-align: center;"">+</p>",null,fixation,,,,,,,,,,,,,,,,,,
,,,,,html-slider-response,130,722832,0.0-21.0-0.6,718622d5-fb0c-4fe9-adf5-366d10b39301,1000,"
                  <p style=""text-align: center;"">₪43
                                                <br>60%</p>
                  <p id=""wtp"" style=""text-align:center; margin-top: 0px; margin-bottom: 0px; font-size: 40px"";>&ensp;</p>",-,viewing,0,17,"2A,7A,9A,15B",,,,,,,,,,,,,,,
,,,,,html-slider-response,131,725808,0.0-21.0-1.6,718622d5-fb0c-4fe9-adf5-366d10b39301,2974,"
                  <p style=""text-align: center;"">₪43
                                                <br>60%</p>
                  <p id=""wtp"" style=""text-align:center; margin-top: 0px; margin-bottom: 0px; font-size: 40px"";>מוכנים לשלם: <span id=""c_p_y""></span></p>",10,evaluation,24,17,"2A,7A,9A,15B",60,43,10,,,,,,,,,,,,
,,,,,html-keyboard-response,132,726621,0.0-21.0-2.6,718622d5-fb0c-4fe9-adf5-366d10b39301,null,"<p style=""text-align: center;"">+</p>",null,fixation,,,,,,,,,,,,,,,,,,
,,,,,html-slider-response,133,727636,0.0-21.0-0.7,718622d5-fb0c-4fe9-adf5-366d10b39301,1000,"
                  <p style=""text-align: center;"">₪71
                                                <br>75%</p>
                  <p id=""wtp"" style=""text-align:center; margin-top: 0px; margin-bottom: 0px; font-size: 40px"";>&ensp;</p>",-,viewing,0,28,8B,,,,,,,,,,,,,,,
,,,,,html-slider-response,134,731650,0.0-21.0-1.7,718622d5-fb0c-4fe9-adf5-366d10b39301,null,"
                  <p style=""text-align: center;"">₪71
                                                <br>75%</p>
                  <p id=""wtp"" style=""text-align:center; margin-top: 0px; margin-bottom: 0px; font-size: 40px"";>מוכנים לשלם: <span id=""c_p_y""></span></p>",null,evaluation,61,28,8B,75,71,20,,,,,,,,,,,,
,,,,,html-keyboard-response,135,732355,0.0-21.0-2.7,718622d5-fb0c-4fe9-adf5-366d10b39301,null,"<p style=""text-align: center;"">+</p>",null,fixation,,,,,,,,,,,,,,,,,,
,,,,,html-slider-response,136,733364,0.0-21.0-0.8,718622d5-fb0c-4fe9-adf5-366d10b39301,1000,"
                  <p style=""text-align: center;"">₪61
                                                <br>45%</p>
                  <p id=""wtp"" style=""text-align:center; margin-top: 0px; margin-bottom: 0px; font-size: 40px"";>&ensp;</p>",-,viewing,0,22,"10A,11A",,,,,,,,,,,,,,,
,,,,,html-slider-response,137,737380,0.0-21.0-1.8,718622d5-fb0c-4fe9-adf5-366d10b39301,null,"
                  <p style=""text-align: center;"">₪61
                                                <br>45%</p>
                  <p id=""wtp"" style=""text-align:center; margin-top: 0px; margin-bottom: 0px; font-size: 40px"";>מוכנים לשלם: <span id=""c_p_y""></span></p>",null,evaluation,60,22,"10A,11A",45,61,20,,,,,,,,,,,,
,,,,,html-keyboard-response,138,738252,0.0-21.0-2.8,718622d5-fb0c-4fe9-adf5-366d10b39301,null,"<p style=""text-align: center;"">+</p>",null,fixation,,,,,,,,,,,,,,,,,,
,,,,,html-slider-response,139,739255,0.0-21.0-0.9,718622d5-fb0c-4fe9-adf5-366d10b39301,1000,"
                  <p style=""text-align: center;"">₪36
                                                <br>75%</p>
                  <p id=""wtp"" style=""text-align:center; margin-top: 0px; margin-bottom: 0px; font-size: 40px"";>&ensp;</p>",-,viewing,0,14,"4B,5A,13B,16B",,,,,,,,,,,,,,,
,,,,,html-slider-response,140,743267,0.0-21.0-1.9,718622d5-fb0c-4fe9-adf5-366d10b39301,null,"
                  <p style=""text-align: center;"">₪36
                                                <br>75%</p>
                  <p id=""wtp"" style=""text-align:center; margin-top: 0px; margin-bottom: 0px; font-size: 40px"";>מוכנים לשלם: <span id=""c_p_y""></span></p>",null,evaluation,56,14,"4B,5A,13B,16B",75,36,14,,,,,,,,,,,,
,,,,,html-keyboard-response,141,744303,0.0-21.0-2.9,718622d5-fb0c-4fe9-adf5-366d10b39301,null,"<p style=""text-align: center;"">+</p>",null,fixation,,,,,,,,,,,,,,,,,,
,,,,,html-slider-response,142,745310,0.0-21.0-0.10,718622d5-fb0c-4fe9-adf5-366d10b39301,1000,"
                  <p style=""text-align: center;"">₪11
                                                <br>20%</p>
                  <p id=""wtp"" style=""text-align:center; margin-top: 0px; margin-bottom: 0px; font-size: 40px"";>&ensp;</p>",-,viewing,0,4,"12C,17C,23C,28C",,,,,,,,,,,,,,,
,,,,,html-slider-response,143,747680,0.0-21.0-1.10,718622d5-fb0c-4fe9-adf5-366d10b39301,2369,"
                  <p style=""text-align: center;"">₪11
                                                <br>20%</p>
                  <p id=""wtp"" style=""text-align:center; margin-top: 0px; margin-bottom: 0px; font-size: 40px"";>מוכנים לשלם: <span id=""c_p_y""></span></p>",5,evaluation,35,4,"12C,17C,23C,28C",20,11,5,,,,,,,,,,,,
,,,,,html-keyboard-response,144,748697,0.0-21.0-2.10,718622d5-fb0c-4fe9-adf5-366d10b39301,null,"<p style=""text-align: center;"">+</p>",null,fixation,,,,,,,,,,,,,,,,,,
,,,,,html-slider-response,145,749703,0.0-21.0-0.11,718622d5-fb0c-4fe9-adf5-366d10b39301,1000,"
                  <p style=""text-align: center;"">₪4
                                                <br>75%</p>
                  <p id=""wtp"" style=""text-align:center; margin-top: 0px; margin-bottom: 0px; font-size: 40px"";>&ensp;</p>",-,viewing,0,3,"12B,20B,23B,27C,29C",,,,,,,,,,,,,,,
,,,,,html-slider-response,146,750799,0.0-21.0-1.11,718622d5-fb0c-4fe9-adf5-366d10b39301,1096,"
                  <p style=""text-align: center;"">₪4
                                                <br>75%</p>
                  <p id=""wtp"" style=""text-align:center; margin-top: 0px; margin-bottom: 0px; font-size: 40px"";>מוכנים לשלם: <span id=""c_p_y""></span></p>",0,evaluation,19,3,"12B,20B,23B,27C,29C",75,4,0,,,,,,,,,,,,
,,,,,html-keyboard-response,147,751586,0.0-21.0-2.11,718622d5-fb0c-4fe9-adf5-366d10b39301,null,"<p style=""text-align: center;"">+</p>",null,fixation,,,,,,,,,,,,,,,,,,
,,,,,html-slider-response,148,752596,0.0-21.0-0.12,718622d5-fb0c-4fe9-adf5-366d10b39301,1000,"
                  <p style=""text-align: center;"">₪11
                                                <br>75%</p>
                  <p id=""wtp"" style=""text-align:center; margin-top: 0px; margin-bottom: 0px; font-size: 40px"";>&ensp;</p>",-,viewing,0,7,"6B,18B,22C,24C,29A",,,,,,,,,,,,,,,
,,,,,html-slider-response,149,754615,0.0-21.0-1.12,718622d5-fb0c-4fe9-adf5-366d10b39301,2018,"
                  <p style=""text-align: center;"">₪11
                                                <br>75%</p>
                  <p id=""wtp"" style=""text-align:center; margin-top: 0px; margin-bottom: 0px; font-size: 40px"";>מוכנים לשלם: <span id=""c_p_y""></span></p>",0,evaluation,1,7,"6B,18B,22C,24C,29A",75,11,0,,,,,,,,,,,,
,,,,,html-keyboard-response,150,755245,0.0-21.0-2.12,718622d5-fb0c-4fe9-adf5-366d10b39301,null,"<p style=""text-align: center;"">+</p>",null,fixation,,,,,,,,,,,,,,,,,,
,,,,,html-slider-response,151,756255,0.0-21.0-0.13,718622d5-fb0c-4fe9-adf5-366d10b39301,1000,"
                  <p style=""text-align: center;"">₪71
                                                <br>45%</p>
                  <p id=""wtp"" style=""text-align:center; margin-top: 0px; margin-bottom: 0px; font-size: 40px"";>&ensp;</p>",-,viewing,0,26,"2B,16A",,,,,,,,,,,,,,,
,,,,,html-slider-response,152,759448,0.0-21.0-1.13,718622d5-fb0c-4fe9-adf5-366d10b39301,3191,"
                  <p style=""text-align: center;"">₪71
                                                <br>45%</p>
                  <p id=""wtp"" style=""text-align:center; margin-top: 0px; margin-bottom: 0px; font-size: 40px"";>מוכנים לשלם: <span id=""c_p_y""></span></p>",20,evaluation,8,26,"2B,16A",45,71,20,,,,,,,,,,,,
,,,,,html-keyboard-response,153,760904,0.0-21.0-2.13,718622d5-fb0c-4fe9-adf5-366d10b39301,null,"<p style=""text-align: center;"">+</p>",null,fixation,,,,,,,,,,,,,,,,,,
,,,,,html-slider-response,154,761910,0.0-21.0-0.14,718622d5-fb0c-4fe9-adf5-366d10b39301,1000,"
                  <p style=""text-align: center;"">₪79
                                                <br>40%</p>
                  <p id=""wtp"" style=""text-align:center; margin-top: 0px; margin-bottom: 0px; font-size: 40px"";>&ensp;</p>",-,viewing,0,30,9B,,,,,,,,,,,,,,,
,,,,,html-slider-response,155,764512,0.0-21.0-1.14,718622d5-fb0c-4fe9-adf5-366d10b39301,2601,"
                  <p style=""text-align: center;"">₪79
                                                <br>40%</p>
                  <p id=""wtp"" style=""text-align:center; margin-top: 0px; margin-bottom: 0px; font-size: 40px"";>מוכנים לשלם: <span id=""c_p_y""></span></p>",20,evaluation,0,30,9B,40,79,20,,,,,,,,,,,,
,,,,,html-keyboard-response,156,765799,0.0-21.0-2.14,718622d5-fb0c-4fe9-adf5-366d10b39301,null,"<p style=""text-align: center;"">+</p>",null,fixation,,,,,,,,,,,,,,,,,,
,,,,,html-slider-response,157,766814,0.0-21.0-0.15,718622d5-fb0c-4fe9-adf5-366d10b39301,1000,"
                  <p style=""text-align: center;"">₪4
                                                <br>25%</p>
                  <p id=""wtp"" style=""text-align:center; margin-top: 0px; margin-bottom: 0px; font-size: 40px"";>&ensp;</p>",-,viewing,0,1,"6C,29B,30C",,,,,,,,,,,,,,,
,,,,,html-slider-response,158,768656,0.0-21.0-1.15,718622d5-fb0c-4fe9-adf5-366d10b39301,1841,"
                  <p style=""text-align: center;"">₪4
                                                <br>25%</p>
                  <p id=""wtp"" style=""text-align:center; margin-top: 0px; margin-bottom: 0px; font-size: 40px"";>מוכנים לשלם: <span id=""c_p_y""></span></p>",0,evaluation,33,1,"6C,29B,30C",25,4,0,,,,,,,,,,,,
,,,,,html-keyboard-response,159,770054,0.0-21.0-2.15,718622d5-fb0c-4fe9-adf5-366d10b39301,null,"<p style=""text-align: center;"">+</p>",null,fixation,,,,,,,,,,,,,,,,,,
,,,,,html-slider-response,160,771057,0.0-21.0-0.16,718622d5-fb0c-4fe9-adf5-366d10b39301,1000,"
                  <p style=""text-align: center;"">₪36
                                                <br>30%</p>
                  <p id=""wtp"" style=""text-align:center; margin-top: 0px; margin-bottom: 0px; font-size: 40px"";>&ensp;</p>",-,viewing,0,11,"3C,20A,22A",,,,,,,,,,,,,,,
,,,,,html-slider-response,161,773239,0.0-21.0-1.16,718622d5-fb0c-4fe9-adf5-366d10b39301,2181,"
                  <p style=""text-align: center;"">₪36
                                                <br>30%</p>
                  <p id=""wtp"" style=""text-align:center; margin-top: 0px; margin-bottom: 0px; font-size: 40px"";>מוכנים לשלם: <span id=""c_p_y""></span></p>",0,evaluation,38,11,"3C,20A,22A",30,36,0,,,,,,,,,,,,
,,,,,html-keyboard-response,162,774602,0.0-21.0-2.16,718622d5-fb0c-4fe9-adf5-366d10b39301,null,"<p style=""text-align: center;"">+</p>",null,fixation,,,,,,,,,,,,,,,,,,
,,,,,html-slider-response,163,775609,0.0-21.0-0.17,718622d5-fb0c-4fe9-adf5-366d10b39301,1000,"
                  <p style=""text-align: center;"">₪36
                                                <br>60%</p>
                  <p id=""wtp"" style=""text-align:center; margin-top: 0px; margin-bottom: 0px; font-size: 40px"";>&ensp;</p>",-,viewing,0,12,"1C,7C,15C",,,,,,,,,,,,,,,
,,,,,html-slider-response,164,776920,0.0-21.0-1.17,718622d5-fb0c-4fe9-adf5-366d10b39301,1310,"
                  <p style=""text-align: center;"">₪36
                                                <br>60%</p>
                  <p id=""wtp"" style=""text-align:center; margin-top: 0px; margin-bottom: 0px; font-size: 40px"";>מוכנים לשלם: <span id=""c_p_y""></span></p>",0,evaluation,37,12,"1C,7C,15C",60,36,0,,,,,,,,,,,,
,,,,,html-keyboard-response,165,778266,0.0-21.0-2.17,718622d5-fb0c-4fe9-adf5-366d10b39301,null,"<p style=""text-align: center;"">+</p>",null,fixation,,,,,,,,,,,,,,,,,,
,,,,,html-slider-response,166,779269,0.0-21.0-0.18,718622d5-fb0c-4fe9-adf5-366d10b39301,1000,"
                  <p style=""text-align: center;"">₪39
                                                <br>60%</p>
                  <p id=""wtp"" style=""text-align:center; margin-top: 0px; margin-bottom: 0px; font-size: 40px"";>&ensp;</p>",-,viewing,0,15,"9C,25B",,,,,,,,,,,,,,,
,,,,,html-slider-response,167,782551,0.0-21.0-1.18,718622d5-fb0c-4fe9-adf5-366d10b39301,3281,"
                  <p style=""text-align: center;"">₪39
                                                <br>60%</p>
                  <p id=""wtp"" style=""text-align:center; margin-top: 0px; margin-bottom: 0px; font-size: 40px"";>מוכנים לשלם: <span id=""c_p_y""></span></p>",0,evaluation,74,15,"9C,25B",60,39,0,,,,,,,,,,,,
,,,,,html-keyboard-response,168,784021,0.0-21.0-2.18,718622d5-fb0c-4fe9-adf5-366d10b39301,null,"<p style=""text-align: center;"">+</p>",null,fixation,,,,,,,,,,,,,,,,,,
,,,,,html-slider-response,169,785024,0.0-21.0-0.19,718622d5-fb0c-4fe9-adf5-366d10b39301,1000,"
                  <p style=""text-align: center;"">₪16
                                                <br>20%</p>
                  <p id=""wtp"" style=""text-align:center; margin-top: 0px; margin-bottom: 0px; font-size: 40px"";>&ensp;</p>",-,viewing,0,8,"14C,17A,20C,27A",,,,,,,,,,,,,,,
,,,,,html-slider-response,170,788119,0.0-21.0-1.19,718622d5-fb0c-4fe9-adf5-366d10b39301,3094,"
                  <p style=""text-align: center;"">₪16
                                                <br>20%</p>
                  <p id=""wtp"" style=""text-align:center; margin-top: 0px; margin-bottom: 0px; font-size: 40px"";>מוכנים לשלם: <span id=""c_p_y""></span></p>",0,evaluation,31,8,"14C,17A,20C,27A",20,16,0,,,,,,,,,,,,
,,,,,html-keyboard-response,171,789255,0.0-21.0-2.19,718622d5-fb0c-4fe9-adf5-366d10b39301,null,"<p style=""text-align: center;"">+</p>",null,fixation,,,,,,,,,,,,,,,,,,
,,,,,html-slider-response,172,790258,0.0-21.0-0.20,718622d5-fb0c-4fe9-adf5-366d10b39301,1000,"
                  <p style=""text-align: center;"">₪79
                                                <br>65%</p>
                  <p id=""wtp"" style=""text-align:center; margin-top: 0px; margin-bottom: 0px; font-size: 40px"";>&ensp;</p>",-,viewing,0,31,8A,,,,,,,,,,,,,,,
,,,,,html-slider-response,173,793120,0.0-21.0-1.20,718622d5-fb0c-4fe9-adf5-366d10b39301,2860,"
                  <p style=""text-align: center;"">₪79
                                                <br>65%</p>
                  <p id=""wtp"" style=""text-align:center; margin-top: 0px; margin-bottom: 0px; font-size: 40px"";>מוכנים לשלם: <span id=""c_p_y""></span></p>",30,evaluation,69,31,8A,65,79,30,,,,,,,,,,,,
,,,,,html-keyboard-response,174,794127,0.0-21.0-2.20,718622d5-fb0c-4fe9-adf5-366d10b39301,null,"<p style=""text-align: center;"">+</p>",null,fixation,,,,,,,,,,,,,,,,,,
,,,,,html-slider-response,175,795134,0.0-21.0-0.21,718622d5-fb0c-4fe9-adf5-366d10b39301,1000,"
                  <p style=""text-align: center;"">₪39
                                                <br>65%</p>
                  <p id=""wtp"" style=""text-align:center; margin-top: 0px; margin-bottom: 0px; font-size: 40px"";>&ensp;</p>",-,viewing,0,16,"1A,15A,26C",,,,,,,,,,,,,,,
,,,,,html-slider-response,176,798744,0.0-21.0-1.21,718622d5-fb0c-4fe9-adf5-366d10b39301,3608,"
                  <p style=""text-align: center;"">₪39
                                                <br>65%</p>
                  <p id=""wtp"" style=""text-align:center; margin-top: 0px; margin-bottom: 0px; font-size: 40px"";>מוכנים לשלם: <span id=""c_p_y""></span></p>",20,evaluation,33,16,"1A,15A,26C",65,39,20,,,,,,,,,,,,
,,,,,html-keyboard-response,177,799947,0.0-21.0-2.21,718622d5-fb0c-4fe9-adf5-366d10b39301,null,"<p style=""text-align: center;"">+</p>",null,fixation,,,,,,,,,,,,,,,,,,
,,,,,html-slider-response,178,800950,0.0-21.0-0.22,718622d5-fb0c-4fe9-adf5-366d10b39301,1000,"
                  <p style=""text-align: center;"">₪58
                                                <br>40%</p>
                  <p id=""wtp"" style=""text-align:center; margin-top: 0px; margin-bottom: 0px; font-size: 40px"";>&ensp;</p>",-,viewing,0,20,"10C,13A,19C,21B",,,,,,,,,,,,,,,
,,,,,html-slider-response,179,804208,0.0-21.0-1.22,718622d5-fb0c-4fe9-adf5-366d10b39301,3256,"
                  <p style=""text-align: center;"">₪58
                                                <br>40%</p>
                  <p id=""wtp"" style=""text-align:center; margin-top: 0px; margin-bottom: 0px; font-size: 40px"";>מוכנים לשלם: <span id=""c_p_y""></span></p>",20,evaluation,24,20,"10C,13A,19C,21B",40,58,20,,,,,,,,,,,,
,,,,,html-keyboard-response,180,805646,0.0-21.0-2.22,718622d5-fb0c-4fe9-adf5-366d10b39301,null,"<p style=""text-align: center;"">+</p>",null,fixation,,,,,,,,,,,,,,,,,,
,,,,,html-slider-response,181,806663,0.0-21.0-0.23,718622d5-fb0c-4fe9-adf5-366d10b39301,1000,"
                  <p style=""text-align: center;"">₪71
                                                <br>55%</p>
                  <p id=""wtp"" style=""text-align:center; margin-top: 0px; margin-bottom: 0px; font-size: 40px"";>&ensp;</p>",-,viewing,0,27,"5B,18A",,,,,,,,,,,,,,,
,,,,,html-slider-response,182,809224,0.0-21.0-1.23,718622d5-fb0c-4fe9-adf5-366d10b39301,2560,"
                  <p style=""text-align: center;"">₪71
                                                <br>55%</p>
                  <p id=""wtp"" style=""text-align:center; margin-top: 0px; margin-bottom: 0px; font-size: 40px"";>מוכנים לשלם: <span id=""c_p_y""></span></p>",20,evaluation,17,27,"5B,18A",55,71,20,,,,,,,,,,,,
,,,,,html-keyboard-response,183,810224,0.0-21.0-2.23,718622d5-fb0c-4fe9-adf5-366d10b39301,null,"<p style=""text-align: center;"">+</p>",null,fixation,,,,,,,,,,,,,,,,,,
,,,,,html-slider-response,184,811240,0.0-21.0-0.24,718622d5-fb0c-4fe9-adf5-366d10b39301,1000,"
                  <p style=""text-align: center;"">₪4
                                                <br>50%</p>
                  <p id=""wtp"" style=""text-align:center; margin-top: 0px; margin-bottom: 0px; font-size: 40px"";>&ensp;</p>",-,viewing,0,2,"4C,17B",,,,,,,,,,,,,,,
,,,,,html-slider-response,185,812352,0.0-21.0-1.24,718622d5-fb0c-4fe9-adf5-366d10b39301,1111,"
                  <p style=""text-align: center;"">₪4
                                                <br>50%</p>
                  <p id=""wtp"" style=""text-align:center; margin-top: 0px; margin-bottom: 0px; font-size: 40px"";>מוכנים לשלם: <span id=""c_p_y""></span></p>",0,evaluation,72,2,"4C,17B",50,4,0,,,,,,,,,,,,
,,,,,html-keyboard-response,186,813344,0.0-21.0-2.24,718622d5-fb0c-4fe9-adf5-366d10b39301,null,"<p style=""text-align: center;"">+</p>",null,fixation,,,,,,,,,,,,,,,,,,
,,,,,html-slider-response,187,814351,0.0-21.0-0.25,718622d5-fb0c-4fe9-adf5-366d10b39301,1000,"
                  <p style=""text-align: center;"">₪11
                                                <br>45%</p>
                  <p id=""wtp"" style=""text-align:center; margin-top: 0px; margin-bottom: 0px; font-size: 40px"";>&ensp;</p>",-,viewing,0,6,"14B,21C,25C",,,,,,,,,,,,,,,
,,,,,html-slider-response,188,816008,0.0-21.0-1.25,718622d5-fb0c-4fe9-adf5-366d10b39301,1656,"
                  <p style=""text-align: center;"">₪11
                                                <br>45%</p>
                  <p id=""wtp"" style=""text-align:center; margin-top: 0px; margin-bottom: 0px; font-size: 40px"";>מוכנים לשלם: <span id=""c_p_y""></span></p>",0,evaluation,69,6,"14B,21C,25C",45,11,0,,,,,,,,,,,,
,,,,,html-keyboard-response,189,817094,0.0-21.0-2.25,718622d5-fb0c-4fe9-adf5-366d10b39301,null,"<p style=""text-align: center;"">+</p>",null,fixation,,,,,,,,,,,,,,,,,,
,,,,,html-slider-response,190,818096,0.0-21.0-0.26,718622d5-fb0c-4fe9-adf5-366d10b39301,1000,"
                  <p style=""text-align: center;"">₪36
                                                <br>70%</p>
                  <p id=""wtp"" style=""text-align:center; margin-top: 0px; margin-bottom: 0px; font-size: 40px"";>&ensp;</p>",-,viewing,0,13,"3A,5C,10B",,,,,,,,,,,,,,,
,,,,,html-slider-response,191,822113,0.0-21.0-1.26,718622d5-fb0c-4fe9-adf5-366d10b39301,null,"
                  <p style=""text-align: center;"">₪36
                                                <br>70%</p>
                  <p id=""wtp"" style=""text-align:center; margin-top: 0px; margin-bottom: 0px; font-size: 40px"";>מוכנים לשלם: <span id=""c_p_y""></span></p>",null,evaluation,66,13,"3A,5C,10B",70,36,6,,,,,,,,,,,,
,,,,,html-keyboard-response,192,822675,0.0-21.0-2.26,718622d5-fb0c-4fe9-adf5-366d10b39301,null,"<p style=""text-align: center;"">+</p>",null,fixation,,,,,,,,,,,,,,,,,,
,,,,,html-slider-response,193,823683,0.0-21.0-0.27,718622d5-fb0c-4fe9-adf5-366d10b39301,1000,"
                  <p style=""text-align: center;"">₪76
                                                <br>65%</p>
                  <p id=""wtp"" style=""text-align:center; margin-top: 0px; margin-bottom: 0px; font-size: 40px"";>&ensp;</p>",-,viewing,0,29,"8C,19A,24B",,,,,,,,,,,,,,,
,,,,,html-slider-response,194,826184,0.0-21.0-1.27,718622d5-fb0c-4fe9-adf5-366d10b39301,2500,"
                  <p style=""text-align: center;"">₪76
                                                <br>65%</p>
                  <p id=""wtp"" style=""text-align:center; margin-top: 0px; margin-bottom: 0px; font-size: 40px"";>מוכנים לשלם: <span id=""c_p_y""></span></p>",20,evaluation,14,29,"8C,19A,24B",65,76,20,,,,,,,,,,,,
,,,,,html-keyboard-response,195,827089,0.0-21.0-2.27,718622d5-fb0c-4fe9-adf5-366d10b39301,null,"<p style=""text-align: center;"">+</p>",null,fixation,,,,,,,,,,,,,,,,,,
,,,,,html-slider-response,196,828093,0.0-21.0-0.28,718622d5-fb0c-4fe9-adf5-366d10b39301,1000,"
                  <p style=""text-align: center;"">₪18
                                                <br>25%</p>
                  <p id=""wtp"" style=""text-align:center; margin-top: 0px; margin-bottom: 0px; font-size: 40px"";>&ensp;</p>",-,viewing,0,9,"14A,23A",,,,,,,,,,,,,,,
,,,,,html-slider-response,197,830664,0.0-21.0-1.28,718622d5-fb0c-4fe9-adf5-366d10b39301,2570,"
                  <p style=""text-align: center;"">₪18
                                                <br>25%</p>
                  <p id=""wtp"" style=""text-align:center; margin-top: 0px; margin-bottom: 0px; font-size: 40px"";>מוכנים לשלם: <span id=""c_p_y""></span></p>",0,evaluation,24,9,"14A,23A",25,18,0,,,,,,,,,,,,
,,,,,html-keyboard-response,198,831370,0.0-21.0-2.28,718622d5-fb0c-4fe9-adf5-366d10b39301,null,"<p style=""text-align: center;"">+</p>",null,fixation,,,,,,,,,,,,,,,,,,
,,,,,html-slider-response,199,832385,0.0-21.0-0.29,718622d5-fb0c-4fe9-adf5-366d10b39301,1000,"
                  <p style=""text-align: center;"">₪58
                                                <br>30%</p>
                  <p id=""wtp"" style=""text-align:center; margin-top: 0px; margin-bottom: 0px; font-size: 40px"";>&ensp;</p>",-,viewing,0,19,"13C,30A",,,,,,,,,,,,,,,
,,,,,html-slider-response,200,835552,0.0-21.0-1.29,718622d5-fb0c-4fe9-adf5-366d10b39301,3166,"
                  <p style=""text-align: center;"">₪58
                                                <br>30%</p>
                  <p id=""wtp"" style=""text-align:center; margin-top: 0px; margin-bottom: 0px; font-size: 40px"";>מוכנים לשלם: <span id=""c_p_y""></span></p>",12,evaluation,78,19,"13C,30A",30,58,12,,,,,,,,,,,,
,,,,,html-keyboard-response,201,836917,0.0-21.0-2.29,718622d5-fb0c-4fe9-adf5-366d10b39301,null,"<p style=""text-align: center;"">+</p>",null,fixation,,,,,,,,,,,,,,,,,,
,,,,,html-slider-response,202,837920,0.0-21.0-0.30,718622d5-fb0c-4fe9-adf5-366d10b39301,1000,"
                  <p style=""text-align: center;"">₪58
                                                <br>45%</p>
                  <p id=""wtp"" style=""text-align:center; margin-top: 0px; margin-bottom: 0px; font-size: 40px"";>&ensp;</p>",-,viewing,0,21,"11C,18C,25A",,,,,,,,,,,,,,,
,,,,,html-slider-response,203,840672,0.0-21.0-1.30,718622d5-fb0c-4fe9-adf5-366d10b39301,2750,"
                  <p style=""text-align: center;"">₪58
                                                <br>45%</p>
                  <p id=""wtp"" style=""text-align:center; margin-top: 0px; margin-bottom: 0px; font-size: 40px"";>מוכנים לשלם: <span id=""c_p_y""></span></p>",20,evaluation,40,21,"11C,18C,25A",45,58,20,,,,,,,,,,,,
,,,,,html-keyboard-response,204,841342,0.0-21.0-2.30,718622d5-fb0c-4fe9-adf5-366d10b39301,null,"<p style=""text-align: center;"">+</p>",null,fixation,,,,,,,,,,,,,,,,,,
,,,,,html-keyboard-response,205,842355,0.0-22.0,718622d5-fb0c-4fe9-adf5-366d10b39301,null,"<p style=""text-align: center;"">+</p>",null,fixation,,,,,,,,,,,,,,,,,,
,,,,,html-keyboard-response,206,843544,0.0-23.0,718622d5-fb0c-4fe9-adf5-366d10b39301,null,"<p>הפסקה.
          <br>לחצו כדי להמשיך.</p>",1,scan_wait,,,,,,,,,,,,,,,,,,
,,,,,html-keyboard-response,207,844560,0.0-24.0,718622d5-fb0c-4fe9-adf5-366d10b39301,null,"<p style=""text-align: center;"">+</p>",null,fixation,,,,,,,,,,,,,,,,,,
,,,,,html-slider-response,208,845564,0.0-25.0-0.0,718622d5-fb0c-4fe9-adf5-366d10b39301,1000,"
                  <p style=""text-align: center;"">₪36
                                                <br>75%</p>
                  <p id=""wtp"" style=""text-align:center; margin-top: 0px; margin-bottom: 0px; font-size: 40px"";>&ensp;</p>",-,viewing,0,14,"4B,5A,13B,16B",,,,,,,,,,,,,,,
,,,,,html-slider-response,209,849376,0.0-25.0-1.0,718622d5-fb0c-4fe9-adf5-366d10b39301,3811,"
                  <p style=""text-align: center;"">₪36
                                                <br>75%</p>
                  <p id=""wtp"" style=""text-align:center; margin-top: 0px; margin-bottom: 0px; font-size: 40px"";>מוכנים לשלם: <span id=""c_p_y""></span></p>",10,evaluation,19,14,"4B,5A,13B,16B",75,36,10,,,,,,,,,,,,
,,,,,html-keyboard-response,210,849970,0.0-25.0-2.0,718622d5-fb0c-4fe9-adf5-366d10b39301,null,"<p style=""text-align: center;"">+</p>",null,fixation,,,,,,,,,,,,,,,,,,
,,,,,html-slider-response,211,850974,0.0-25.0-0.1,718622d5-fb0c-4fe9-adf5-366d10b39301,1000,"
                  <p style=""text-align: center;"">₪36
                                                <br>70%</p>
                  <p id=""wtp"" style=""text-align:center; margin-top: 0px; margin-bottom: 0px; font-size: 40px"";>&ensp;</p>",-,viewing,0,13,"3A,5C,10B",,,,,,,,,,,,,,,
,,,,,html-slider-response,212,852408,0.0-25.0-1.1,718622d5-fb0c-4fe9-adf5-366d10b39301,1432,"
                  <p style=""text-align: center;"">₪36
                                                <br>70%</p>
                  <p id=""wtp"" style=""text-align:center; margin-top: 0px; margin-bottom: 0px; font-size: 40px"";>מוכנים לשלם: <span id=""c_p_y""></span></p>",10,evaluation,5,13,"3A,5C,10B",70,36,10,,,,,,,,,,,,
,,,,,html-keyboard-response,213,853145,0.0-25.0-2.1,718622d5-fb0c-4fe9-adf5-366d10b39301,null,"<p style=""text-align: center;"">+</p>",null,fixation,,,,,,,,,,,,,,,,,,
,,,,,html-slider-response,214,854147,0.0-25.0-0.2,718622d5-fb0c-4fe9-adf5-366d10b39301,1000,"
                  <p style=""text-align: center;"">₪64
                                                <br>25%</p>
                  <p id=""wtp"" style=""text-align:center; margin-top: 0px; margin-bottom: 0px; font-size: 40px"";>&ensp;</p>",-,viewing,0,24,"6A,21A",,,,,,,,,,,,,,,
,,,,,html-slider-response,215,858149,0.0-25.0-1.2,718622d5-fb0c-4fe9-adf5-366d10b39301,null,"
                  <p style=""text-align: center;"">₪64
                                                <br>25%</p>
                  <p id=""wtp"" style=""text-align:center; margin-top: 0px; margin-bottom: 0px; font-size: 40px"";>מוכנים לשלם: <span id=""c_p_y""></span></p>",null,evaluation,38,24,"6A,21A",25,64,10,,,,,,,,,,,,
,,,,,html-keyboard-response,216,858797,0.0-25.0-2.2,718622d5-fb0c-4fe9-adf5-366d10b39301,null,"<p style=""text-align: center;"">+</p>",null,fixation,,,,,,,,,,,,,,,,,,
,,,,,html-slider-response,217,859811,0.0-25.0-0.3,718622d5-fb0c-4fe9-adf5-366d10b39301,1000,"
                  <p style=""text-align: center;"">₪79
                                                <br>65%</p>
                  <p id=""wtp"" style=""text-align:center; margin-top: 0px; margin-bottom: 0px; font-size: 40px"";>&ensp;</p>",-,viewing,0,31,8A,,,,,,,,,,,,,,,
,,,,,html-slider-response,218,862336,0.0-25.0-1.3,718622d5-fb0c-4fe9-adf5-366d10b39301,2524,"
                  <p style=""text-align: center;"">₪79
                                                <br>65%</p>
                  <p id=""wtp"" style=""text-align:center; margin-top: 0px; margin-bottom: 0px; font-size: 40px"";>מוכנים לשלם: <span id=""c_p_y""></span></p>",20,evaluation,30,31,8A,65,79,20,,,,,,,,,,,,
,,,,,html-keyboard-response,219,863409,0.0-25.0-2.3,718622d5-fb0c-4fe9-adf5-366d10b39301,null,"<p style=""text-align: center;"">+</p>",null,fixation,,,,,,,,,,,,,,,,,,
,,,,,html-slider-response,220,864426,0.0-25.0-0.4,718622d5-fb0c-4fe9-adf5-366d10b39301,1000,"
                  <p style=""text-align: center;"">₪36
                                                <br>30%</p>
                  <p id=""wtp"" style=""text-align:center; margin-top: 0px; margin-bottom: 0px; font-size: 40px"";>&ensp;</p>",-,viewing,0,11,"3C,20A,22A",,,,,,,,,,,,,,,
,,,,,html-slider-response,221,868428,0.0-25.0-1.4,718622d5-fb0c-4fe9-adf5-366d10b39301,null,"
                  <p style=""text-align: center;"">₪36
                                                <br>30%</p>
                  <p id=""wtp"" style=""text-align:center; margin-top: 0px; margin-bottom: 0px; font-size: 40px"";>מוכנים לשלם: <span id=""c_p_y""></span></p>",null,evaluation,41,11,"3C,20A,22A",30,36,11,,,,,,,,,,,,
,,,,,html-keyboard-response,222,869095,0.0-25.0-2.4,718622d5-fb0c-4fe9-adf5-366d10b39301,null,"<p style=""text-align: center;"">+</p>",null,fixation,,,,,,,,,,,,,,,,,,
,,,,,html-slider-response,223,870110,0.0-25.0-0.5,718622d5-fb0c-4fe9-adf5-366d10b39301,1000,"
                  <p style=""text-align: center;"">₪71
                                                <br>75%</p>
                  <p id=""wtp"" style=""text-align:center; margin-top: 0px; margin-bottom: 0px; font-size: 40px"";>&ensp;</p>",-,viewing,0,28,8B,,,,,,,,,,,,,,,
,,,,,html-slider-response,224,874116,0.0-25.0-1.5,718622d5-fb0c-4fe9-adf5-366d10b39301,null,"
                  <p style=""text-align: center;"">₪71
                                                <br>75%</p>
                  <p id=""wtp"" style=""text-align:center; margin-top: 0px; margin-bottom: 0px; font-size: 40px"";>מוכנים לשלם: <span id=""c_p_y""></span></p>",null,evaluation,7,28,8B,75,71,31,,,,,,,,,,,,
,,,,,html-keyboard-response,225,875604,0.0-25.0-2.5,718622d5-fb0c-4fe9-adf5-366d10b39301,null,"<p style=""text-align: center;"">+</p>",null,fixation,,,,,,,,,,,,,,,,,,
,,,,,html-slider-response,226,876619,0.0-25.0-0.6,718622d5-fb0c-4fe9-adf5-366d10b39301,1000,"
                  <p style=""text-align: center;"">₪18
                                                <br>25%</p>
                  <p id=""wtp"" style=""text-align:center; margin-top: 0px; margin-bottom: 0px; font-size: 40px"";>&ensp;</p>",-,viewing,0,9,"14A,23A",,,,,,,,,,,,,,,
,,,,,html-slider-response,227,877208,0.0-25.0-1.6,718622d5-fb0c-4fe9-adf5-366d10b39301,588,"
                  <p style=""text-align: center;"">₪18
                                                <br>25%</p>
                  <p id=""wtp"" style=""text-align:center; margin-top: 0px; margin-bottom: 0px; font-size: 40px"";>מוכנים לשלם: <span id=""c_p_y""></span></p>",17,evaluation,21,9,"14A,23A",25,18,17,,,,,,,,,,,,
,,,,,html-keyboard-response,228,877769,0.0-25.0-2.6,718622d5-fb0c-4fe9-adf5-366d10b39301,null,"<p style=""text-align: center;"">+</p>",null,fixation,,,,,,,,,,,,,,,,,,
,,,,,html-slider-response,229,878779,0.0-25.0-0.7,718622d5-fb0c-4fe9-adf5-366d10b39301,1000,"
                  <p style=""text-align: center;"">₪11
                                                <br>20%</p>
                  <p id=""wtp"" style=""text-align:center; margin-top: 0px; margin-bottom: 0px; font-size: 40px"";>&ensp;</p>",-,viewing,0,4,"12C,17C,23C,28C",,,,,,,,,,,,,,,
,,,,,html-slider-response,230,880176,0.0-25.0-1.7,718622d5-fb0c-4fe9-adf5-366d10b39301,1395,"
                  <p style=""text-align: center;"">₪11
                                                <br>20%</p>
                  <p id=""wtp"" style=""text-align:center; margin-top: 0px; margin-bottom: 0px; font-size: 40px"";>מוכנים לשלם: <span id=""c_p_y""></span></p>",0,evaluation,5,4,"12C,17C,23C,28C",20,11,0,,,,,,,,,,,,
,,,,,html-keyboard-response,231,880754,0.0-25.0-2.7,718622d5-fb0c-4fe9-adf5-366d10b39301,null,"<p style=""text-align: center;"">+</p>",null,fixation,,,,,,,,,,,,,,,,,,
,,,,,html-slider-response,232,881766,0.0-25.0-0.8,718622d5-fb0c-4fe9-adf5-366d10b39301,1000,"
                  <p style=""text-align: center;"">₪61
                                                <br>55%</p>
                  <p id=""wtp"" style=""text-align:center; margin-top: 0px; margin-bottom: 0px; font-size: 40px"";>&ensp;</p>",-,viewing,0,23,"7B,26B",,,,,,,,,,,,,,,
,,,,,html-slider-response,233,885768,0.0-25.0-1.8,718622d5-fb0c-4fe9-adf5-366d10b39301,null,"
                  <p style=""text-align: center;"">₪61
                                                <br>55%</p>
                  <p id=""wtp"" style=""text-align:center; margin-top: 0px; margin-bottom: 0px; font-size: 40px"";>מוכנים לשלם: <span id=""c_p_y""></span></p>",null,evaluation,8,23,"7B,26B",55,61,15,,,,,,,,,,,,
,,,,,html-keyboard-response,234,887196,0.0-25.0-2.8,718622d5-fb0c-4fe9-adf5-366d10b39301,null,"<p style=""text-align: center;"">+</p>",null,fixation,,,,,,,,,,,,,,,,,,
,,,,,html-slider-response,235,888204,0.0-25.0-0.9,718622d5-fb0c-4fe9-adf5-366d10b39301,1000,"
                  <p style=""text-align: center;"">₪39
                                                <br>65%</p>
                  <p id=""wtp"" style=""text-align:center; margin-top: 0px; margin-bottom: 0px; font-size: 40px"";>&ensp;</p>",-,viewing,0,16,"1A,15A,26C",,,,,,,,,,,,,,,
,,,,,html-slider-response,236,889952,0.0-25.0-1.9,718622d5-fb0c-4fe9-adf5-366d10b39301,1747,"
                  <p style=""text-align: center;"">₪39
                                                <br>65%</p>
                  <p id=""wtp"" style=""text-align:center; margin-top: 0px; margin-bottom: 0px; font-size: 40px"";>מוכנים לשלם: <span id=""c_p_y""></span></p>",10,evaluation,12,16,"1A,15A,26C",65,39,10,,,,,,,,,,,,
,,,,,html-keyboard-response,237,890481,0.0-25.0-2.9,718622d5-fb0c-4fe9-adf5-366d10b39301,null,"<p style=""text-align: center;"">+</p>",null,fixation,,,,,,,,,,,,,,,,,,
,,,,,html-slider-response,238,891497,0.0-25.0-0.10,718622d5-fb0c-4fe9-adf5-366d10b39301,1000,"
                  <p style=""text-align: center;"">₪79
                                                <br>40%</p>
                  <p id=""wtp"" style=""text-align:center; margin-top: 0px; margin-bottom: 0px; font-size: 40px"";>&ensp;</p>",-,viewing,0,30,9B,,,,,,,,,,,,,,,
,,,,,html-slider-response,239,894232,0.0-25.0-1.10,718622d5-fb0c-4fe9-adf5-366d10b39301,2734,"
                  <p style=""text-align: center;"">₪79
                                                <br>40%</p>
                  <p id=""wtp"" style=""text-align:center; margin-top: 0px; margin-bottom: 0px; font-size: 40px"";>מוכנים לשלם: <span id=""c_p_y""></span></p>",10,evaluation,44,30,9B,40,79,10,,,,,,,,,,,,
,,,,,html-keyboard-response,240,895421,0.0-25.0-2.10,718622d5-fb0c-4fe9-adf5-366d10b39301,null,"<p style=""text-align: center;"">+</p>",null,fixation,,,,,,,,,,,,,,,,,,
,,,,,html-slider-response,241,896424,0.0-25.0-0.11,718622d5-fb0c-4fe9-adf5-366d10b39301,1000,"
                  <p style=""text-align: center;"">₪71
                                                <br>45%</p>
                  <p id=""wtp"" style=""text-align:center; margin-top: 0px; margin-bottom: 0px; font-size: 40px"";>&ensp;</p>",-,viewing,0,26,"2B,16A",,,,,,,,,,,,,,,
,,,,,html-slider-response,242,898936,0.0-25.0-1.11,718622d5-fb0c-4fe9-adf5-366d10b39301,2511,"
                  <p style=""text-align: center;"">₪71
                                                <br>45%</p>
                  <p id=""wtp"" style=""text-align:center; margin-top: 0px; margin-bottom: 0px; font-size: 40px"";>מוכנים לשלם: <span id=""c_p_y""></span></p>",10,evaluation,33,26,"2B,16A",45,71,10,,,,,,,,,,,,
,,,,,html-keyboard-response,243,900393,0.0-25.0-2.11,718622d5-fb0c-4fe9-adf5-366d10b39301,null,"<p style=""text-align: center;"">+</p>",null,fixation,,,,,,,,,,,,,,,,,,
,,,,,html-slider-response,244,901409,0.0-25.0-0.12,718622d5-fb0c-4fe9-adf5-366d10b39301,1000,"
                  <p style=""text-align: center;"">₪39
                                                <br>60%</p>
                  <p id=""wtp"" style=""text-align:center; margin-top: 0px; margin-bottom: 0px; font-size: 40px"";>&ensp;</p>",-,viewing,0,15,"9C,25B",,,,,,,,,,,,,,,
,,,,,html-slider-response,245,903392,0.0-25.0-1.12,718622d5-fb0c-4fe9-adf5-366d10b39301,1982,"
                  <p style=""text-align: center;"">₪39
                                                <br>60%</p>
                  <p id=""wtp"" style=""text-align:center; margin-top: 0px; margin-bottom: 0px; font-size: 40px"";>מוכנים לשלם: <span id=""c_p_y""></span></p>",5,evaluation,49,15,"9C,25B",60,39,5,,,,,,,,,,,,
,,,,,html-keyboard-response,246,904354,0.0-25.0-2.12,718622d5-fb0c-4fe9-adf5-366d10b39301,null,"<p style=""text-align: center;"">+</p>",null,fixation,,,,,,,,,,,,,,,,,,
,,,,,html-slider-response,247,905363,0.0-25.0-0.13,718622d5-fb0c-4fe9-adf5-366d10b39301,1000,"
                  <p style=""text-align: center;"">₪18
                                                <br>50%</p>
                  <p id=""wtp"" style=""text-align:center; margin-top: 0px; margin-bottom: 0px; font-size: 40px"";>&ensp;</p>",-,viewing,0,10,"2C,16C,22B,28A",,,,,,,,,,,,,,,
,,,,,html-slider-response,248,909379,0.0-25.0-1.13,718622d5-fb0c-4fe9-adf5-366d10b39301,null,"
                  <p style=""text-align: center;"">₪18
                                                <br>50%</p>
                  <p id=""wtp"" style=""text-align:center; margin-top: 0px; margin-bottom: 0px; font-size: 40px"";>מוכנים לשלם: <span id=""c_p_y""></span></p>",null,evaluation,49,10,"2C,16C,22B,28A",50,18,10,,,,,,,,,,,,
,,,,,html-keyboard-response,249,910117,0.0-25.0-2.13,718622d5-fb0c-4fe9-adf5-366d10b39301,null,"<p style=""text-align: center;"">+</p>",null,fixation,,,,,,,,,,,,,,,,,,
,,,,,html-slider-response,250,911120,0.0-25.0-0.14,718622d5-fb0c-4fe9-adf5-366d10b39301,1000,"
                  <p style=""text-align: center;"">₪43
                                                <br>60%</p>
                  <p id=""wtp"" style=""text-align:center; margin-top: 0px; margin-bottom: 0px; font-size: 40px"";>&ensp;</p>",-,viewing,0,17,"2A,7A,9A,15B",,,,,,,,,,,,,,,
,,,,,html-slider-response,251,914145,0.0-25.0-1.14,718622d5-fb0c-4fe9-adf5-366d10b39301,3023,"
                  <p style=""text-align: center;"">₪43
                                                <br>60%</p>
                  <p id=""wtp"" style=""text-align:center; margin-top: 0px; margin-bottom: 0px; font-size: 40px"";>מוכנים לשלם: <span id=""c_p_y""></span></p>",7,evaluation,61,17,"2A,7A,9A,15B",60,43,7,,,,,,,,,,,,
,,,,,html-keyboard-response,252,915606,0.0-25.0-2.14,718622d5-fb0c-4fe9-adf5-366d10b39301,null,"<p style=""text-align: center;"">+</p>",null,fixation,,,,,,,,,,,,,,,,,,
,,,,,html-slider-response,253,916618,0.0-25.0-0.15,718622d5-fb0c-4fe9-adf5-366d10b39301,1000,"
                  <p style=""text-align: center;"">₪58
                                                <br>45%</p>
                  <p id=""wtp"" style=""text-align:center; margin-top: 0px; margin-bottom: 0px; font-size: 40px"";>&ensp;</p>",-,viewing,0,21,"11C,18C,25A",,,,,,,,,,,,,,,
,,,,,html-slider-response,254,918480,0.0-25.0-1.15,718622d5-fb0c-4fe9-adf5-366d10b39301,1861,"
                  <p style=""text-align: center;"">₪58
                                                <br>45%</p>
                  <p id=""wtp"" style=""text-align:center; margin-top: 0px; margin-bottom: 0px; font-size: 40px"";>מוכנים לשלם: <span id=""c_p_y""></span></p>",12,evaluation,25,21,"11C,18C,25A",45,58,12,,,,,,,,,,,,
,,,,,html-keyboard-response,255,919773,0.0-25.0-2.15,718622d5-fb0c-4fe9-adf5-366d10b39301,null,"<p style=""text-align: center;"">+</p>",null,fixation,,,,,,,,,,,,,,,,,,
,,,,,html-slider-response,256,920789,0.0-25.0-0.16,718622d5-fb0c-4fe9-adf5-366d10b39301,1000,"
                  <p style=""text-align: center;"">₪11
                                                <br>45%</p>
                  <p id=""wtp"" style=""text-align:center; margin-top: 0px; margin-bottom: 0px; font-size: 40px"";>&ensp;</p>",-,viewing,0,6,"14B,21C,25C",,,,,,,,,,,,,,,
,,,,,html-slider-response,257,922080,0.0-25.0-1.16,718622d5-fb0c-4fe9-adf5-366d10b39301,1290,"
                  <p style=""text-align: center;"">₪11
                                                <br>45%</p>
                  <p id=""wtp"" style=""text-align:center; margin-top: 0px; margin-bottom: 0px; font-size: 40px"";>מוכנים לשלם: <span id=""c_p_y""></span></p>",9,evaluation,11,6,"14B,21C,25C",45,11,9,,,,,,,,,,,,
,,,,,html-keyboard-response,258,922824,0.0-25.0-2.16,718622d5-fb0c-4fe9-adf5-366d10b39301,null,"<p style=""text-align: center;"">+</p>",null,fixation,,,,,,,,,,,,,,,,,,
,,,,,html-slider-response,259,923841,0.0-25.0-0.17,718622d5-fb0c-4fe9-adf5-366d10b39301,1000,"
                  <p style=""text-align: center;"">₪43
                                                <br>75%</p>
                  <p id=""wtp"" style=""text-align:center; margin-top: 0px; margin-bottom: 0px; font-size: 40px"";>&ensp;</p>",-,viewing,0,18,"11B,19B,24A,26A",,,,,,,,,,,,,,,
,,,,,html-slider-response,260,926288,0.0-25.0-1.17,718622d5-fb0c-4fe9-adf5-366d10b39301,2447,"
                  <p style=""text-align: center;"">₪43
                                                <br>75%</p>
                  <p id=""wtp"" style=""text-align:center; margin-top: 0px; margin-bottom: 0px; font-size: 40px"";>מוכנים לשלם: <span id=""c_p_y""></span></p>",0,evaluation,26,18,"11B,19B,24A,26A",75,43,0,,,,,,,,,,,,
,,,,,html-keyboard-response,261,927306,0.0-25.0-2.17,718622d5-fb0c-4fe9-adf5-366d10b39301,null,"<p style=""text-align: center;"">+</p>",null,fixation,,,,,,,,,,,,,,,,,,
,,,,,html-slider-response,262,928324,0.0-25.0-0.18,718622d5-fb0c-4fe9-adf5-366d10b39301,1000,"
                  <p style=""text-align: center;"">₪16
                                                <br>20%</p>
                  <p id=""wtp"" style=""text-align:center; margin-top: 0px; margin-bottom: 0px; font-size: 40px"";>&ensp;</p>",-,viewing,0,8,"14C,17A,20C,27A",,,,,,,,,,,,,,,
,,,,,html-slider-response,263,929336,0.0-25.0-1.18,718622d5-fb0c-4fe9-adf5-366d10b39301,1011,"
                  <p style=""text-align: center;"">₪16
                                                <br>20%</p>
                  <p id=""wtp"" style=""text-align:center; margin-top: 0px; margin-bottom: 0px; font-size: 40px"";>מוכנים לשלם: <span id=""c_p_y""></span></p>",0,evaluation,74,8,"14C,17A,20C,27A",20,16,0,,,,,,,,,,,,
,,,,,html-keyboard-response,264,930451,0.0-25.0-2.18,718622d5-fb0c-4fe9-adf5-366d10b39301,null,"<p style=""text-align: center;"">+</p>",null,fixation,,,,,,,,,,,,,,,,,,
,,,,,html-slider-response,265,931456,0.0-25.0-0.19,718622d5-fb0c-4fe9-adf5-366d10b39301,1000,"
                  <p style=""text-align: center;"">₪76
                                                <br>65%</p>
                  <p id=""wtp"" style=""text-align:center; margin-top: 0px; margin-bottom: 0px; font-size: 40px"";>&ensp;</p>",-,viewing,0,29,"8C,19A,24B",,,,,,,,,,,,,,,
,,,,,html-slider-response,266,935466,0.0-25.0-1.19,718622d5-fb0c-4fe9-adf5-366d10b39301,null,"
                  <p style=""text-align: center;"">₪76
                                                <br>65%</p>
                  <p id=""wtp"" style=""text-align:center; margin-top: 0px; margin-bottom: 0px; font-size: 40px"";>מוכנים לשלם: <span id=""c_p_y""></span></p>",null,evaluation,56,29,"8C,19A,24B",65,76,21,,,,,,,,,,,,
,,,,,html-keyboard-response,267,936496,0.0-25.0-2.19,718622d5-fb0c-4fe9-adf5-366d10b39301,null,"<p style=""text-align: center;"">+</p>",null,fixation,,,,,,,,,,,,,,,,,,
,,,,,html-slider-response,268,937506,0.0-25.0-0.20,718622d5-fb0c-4fe9-adf5-366d10b39301,1000,"
                  <p style=""text-align: center;"">₪61
                                                <br>45%</p>
                  <p id=""wtp"" style=""text-align:center; margin-top: 0px; margin-bottom: 0px; font-size: 40px"";>&ensp;</p>",-,viewing,0,22,"10A,11A",,,,,,,,,,,,,,,
,,,,,html-slider-response,269,940617,0.0-25.0-1.20,718622d5-fb0c-4fe9-adf5-366d10b39301,3109,"
                  <p style=""text-align: center;"">₪61
                                                <br>45%</p>
                  <p id=""wtp"" style=""text-align:center; margin-top: 0px; margin-bottom: 0px; font-size: 40px"";>מוכנים לשלם: <span id=""c_p_y""></span></p>",19,evaluation,27,22,"10A,11A",45,61,20,,,,,,,,,,,,
,,,,,html-keyboard-response,270,941481,0.0-25.0-2.20,718622d5-fb0c-4fe9-adf5-366d10b39301,null,"<p style=""text-align: center;"">+</p>",null,fixation,,,,,,,,,,,,,,,,,,
,,,,,html-slider-response,271,942489,0.0-25.0-0.21,718622d5-fb0c-4fe9-adf5-366d10b39301,1000,"
                  <p style=""text-align: center;"">₪71
                                                <br>55%</p>
                  <p id=""wtp"" style=""text-align:center; margin-top: 0px; margin-bottom: 0px; font-size: 40px"";>&ensp;</p>",-,viewing,0,27,"5B,18A",,,,,,,,,,,,,,,
,,,,,html-slider-response,272,944457,0.0-25.0-1.21,718622d5-fb0c-4fe9-adf5-366d10b39301,1966,"
                  <p style=""text-align: center;"">₪71
                                                <br>55%</p>
                  <p id=""wtp"" style=""text-align:center; margin-top: 0px; margin-bottom: 0px; font-size: 40px"";>מוכנים לשלם: <span id=""c_p_y""></span></p>",14,evaluation,69,27,"5B,18A",55,71,15,,,,,,,,,,,,
,,,,,html-keyboard-response,273,945627,0.0-25.0-2.21,718622d5-fb0c-4fe9-adf5-366d10b39301,null,"<p style=""text-align: center;"">+</p>",null,fixation,,,,,,,,,,,,,,,,,,
,,,,,html-slider-response,274,946629,0.0-25.0-0.22,718622d5-fb0c-4fe9-adf5-366d10b39301,1000,"
                  <p style=""text-align: center;"">₪4
                                                <br>75%</p>
                  <p id=""wtp"" style=""text-align:center; margin-top: 0px; margin-bottom: 0px; font-size: 40px"";>&ensp;</p>",-,viewing,0,3,"12B,20B,23B,27C,29C",,,,,,,,,,,,,,,
,,,,,html-slider-response,275,947672,0.0-25.0-1.22,718622d5-fb0c-4fe9-adf5-366d10b39301,1042,"
                  <p style=""text-align: center;"">₪4
                                                <br>75%</p>
                  <p id=""wtp"" style=""text-align:center; margin-top: 0px; margin-bottom: 0px; font-size: 40px"";>מוכנים לשלם: <span id=""c_p_y""></span></p>",0,evaluation,20,3,"12B,20B,23B,27C,29C",75,4,0,,,,,,,,,,,,
,,,,,html-keyboard-response,276,948356,0.0-25.0-2.22,718622d5-fb0c-4fe9-adf5-366d10b39301,null,"<p style=""text-align: center;"">+</p>",null,fixation,,,,,,,,,,,,,,,,,,
,,,,,html-slider-response,277,949358,0.0-25.0-0.23,718622d5-fb0c-4fe9-adf5-366d10b39301,1000,"
                  <p style=""text-align: center;"">₪58
                                                <br>40%</p>
                  <p id=""wtp"" style=""text-align:center; margin-top: 0px; margin-bottom: 0px; font-size: 40px"";>&ensp;</p>",-,viewing,0,20,"10C,13A,19C,21B",,,,,,,,,,,,,,,
,,,,,html-slider-response,278,952064,0.0-25.0-1.23,718622d5-fb0c-4fe9-adf5-366d10b39301,2705,"
                  <p style=""text-align: center;"">₪58
                                                <br>40%</p>
                  <p id=""wtp"" style=""text-align:center; margin-top: 0px; margin-bottom: 0px; font-size: 40px"";>מוכנים לשלם: <span id=""c_p_y""></span></p>",19,evaluation,55,20,"10C,13A,19C,21B",40,58,19,,,,,,,,,,,,
,,,,,html-keyboard-response,279,953042,0.0-25.0-2.23,718622d5-fb0c-4fe9-adf5-366d10b39301,null,"<p style=""text-align: center;"">+</p>",null,fixation,,,,,,,,,,,,,,,,,,
,,,,,html-slider-response,280,954059,0.0-25.0-0.24,718622d5-fb0c-4fe9-adf5-366d10b39301,1000,"
                  <p style=""text-align: center;"">₪36
                                                <br>60%</p>
                  <p id=""wtp"" style=""text-align:center; margin-top: 0px; margin-bottom: 0px; font-size: 40px"";>&ensp;</p>",-,viewing,0,12,"1C,7C,15C",,,,,,,,,,,,,,,
,,,,,html-slider-response,281,956216,0.0-25.0-1.24,718622d5-fb0c-4fe9-adf5-366d10b39301,2156,"
                  <p style=""text-align: center;"">₪36
                                                <br>60%</p>
                  <p id=""wtp"" style=""text-align:center; margin-top: 0px; margin-bottom: 0px; font-size: 40px"";>מוכנים לשלם: <span id=""c_p_y""></span></p>",9,evaluation,55,12,"1C,7C,15C",60,36,9,,,,,,,,,,,,
,,,,,html-keyboard-response,282,957519,0.0-25.0-2.24,718622d5-fb0c-4fe9-adf5-366d10b39301,null,"<p style=""text-align: center;"">+</p>",null,fixation,,,,,,,,,,,,,,,,,,
,,,,,html-slider-response,283,958531,0.0-25.0-0.25,718622d5-fb0c-4fe9-adf5-366d10b39301,1000,"
                  <p style=""text-align: center;"">₪4
                                                <br>50%</p>
                  <p id=""wtp"" style=""text-align:center; margin-top: 0px; margin-bottom: 0px; font-size: 40px"";>&ensp;</p>",-,viewing,0,2,"4C,17B",,,,,,,,,,,,,,,
,,,,,html-slider-response,284,959552,0.0-25.0-1.25,718622d5-fb0c-4fe9-adf5-366d10b39301,1020,"
                  <p style=""text-align: center;"">₪4
                                                <br>50%</p>
                  <p id=""wtp"" style=""text-align:center; margin-top: 0px; margin-bottom: 0px; font-size: 40px"";>מוכנים לשלם: <span id=""c_p_y""></span></p>",0,evaluation,66,2,"4C,17B",50,4,0,,,,,,,,,,,,
,,,,,html-keyboard-response,285,960253,0.0-25.0-2.25,718622d5-fb0c-4fe9-adf5-366d10b39301,null,"<p style=""text-align: center;"">+</p>",null,fixation,,,,,,,,,,,,,,,,,,
,,,,,html-slider-response,286,961258,0.0-25.0-0.26,718622d5-fb0c-4fe9-adf5-366d10b39301,1000,"
                  <p style=""text-align: center;"">₪11
                                                <br>25%</p>
                  <p id=""wtp"" style=""text-align:center; margin-top: 0px; margin-bottom: 0px; font-size: 40px"";>&ensp;</p>",-,viewing,0,5,"12A,27B,28B,30B",,,,,,,,,,,,,,,
,,,,,html-slider-response,287,962296,0.0-25.0-1.26,718622d5-fb0c-4fe9-adf5-366d10b39301,1038,"
                  <p style=""text-align: center;"">₪11
                                                <br>25%</p>
                  <p id=""wtp"" style=""text-align:center; margin-top: 0px; margin-bottom: 0px; font-size: 40px"";>מוכנים לשלם: <span id=""c_p_y""></span></p>",0,evaluation,24,5,"12A,27B,28B,30B",25,11,0,,,,,,,,,,,,
,,,,,html-keyboard-response,288,963557,0.0-25.0-2.26,718622d5-fb0c-4fe9-adf5-366d10b39301,null,"<p style=""text-align: center;"">+</p>",null,fixation,,,,,,,,,,,,,,,,,,
,,,,,html-slider-response,289,964571,0.0-25.0-0.27,718622d5-fb0c-4fe9-adf5-366d10b39301,1000,"
                  <p style=""text-align: center;"">₪64
                                                <br>50%</p>
                  <p id=""wtp"" style=""text-align:center; margin-top: 0px; margin-bottom: 0px; font-size: 40px"";>&ensp;</p>",-,viewing,0,25,"1B,3B,4A",,,,,,,,,,,,,,,
,,,,,html-slider-response,290,968574,0.0-25.0-1.27,718622d5-fb0c-4fe9-adf5-366d10b39301,null,"
                  <p style=""text-align: center;"">₪64
                                                <br>50%</p>
                  <p id=""wtp"" style=""text-align:center; margin-top: 0px; margin-bottom: 0px; font-size: 40px"";>מוכנים לשלם: <span id=""c_p_y""></span></p>",null,evaluation,50,25,"1B,3B,4A",50,64,24,,,,,,,,,,,,
,,,,,html-keyboard-response,291,969309,0.0-25.0-2.27,718622d5-fb0c-4fe9-adf5-366d10b39301,null,"<p style=""text-align: center;"">+</p>",null,fixation,,,,,,,,,,,,,,,,,,
,,,,,html-slider-response,292,970322,0.0-25.0-0.28,718622d5-fb0c-4fe9-adf5-366d10b39301,1000,"
                  <p style=""text-align: center;"">₪4
                                                <br>25%</p>
                  <p id=""wtp"" style=""text-align:center; margin-top: 0px; margin-bottom: 0px; font-size: 40px"";>&ensp;</p>",-,viewing,0,1,"6C,29B,30C",,,,,,,,,,,,,,,
,,,,,html-slider-response,293,971784,0.0-25.0-1.28,718622d5-fb0c-4fe9-adf5-366d10b39301,1461,"
                  <p style=""text-align: center;"">₪4
                                                <br>25%</p>
                  <p id=""wtp"" style=""text-align:center; margin-top: 0px; margin-bottom: 0px; font-size: 40px"";>מוכנים לשלם: <span id=""c_p_y""></span></p>",0,evaluation,10,1,"6C,29B,30C",25,4,0,,,,,,,,,,,,
,,,,,html-keyboard-response,294,972650,0.0-25.0-2.28,718622d5-fb0c-4fe9-adf5-366d10b39301,null,"<p style=""text-align: center;"">+</p>",null,fixation,,,,,,,,,,,,,,,,,,
,,,,,html-slider-response,295,973665,0.0-25.0-0.29,718622d5-fb0c-4fe9-adf5-366d10b39301,1000,"
                  <p style=""text-align: center;"">₪58
                                                <br>30%</p>
                  <p id=""wtp"" style=""text-align:center; margin-top: 0px; margin-bottom: 0px; font-size: 40px"";>&ensp;</p>",-,viewing,0,19,"13C,30A",,,,,,,,,,,,,,,
,,,,,html-slider-response,296,976513,0.0-25.0-1.29,718622d5-fb0c-4fe9-adf5-366d10b39301,2846,"
                  <p style=""text-align: center;"">₪58
                                                <br>30%</p>
                  <p id=""wtp"" style=""text-align:center; margin-top: 0px; margin-bottom: 0px; font-size: 40px"";>מוכנים לשלם: <span id=""c_p_y""></span></p>",3,evaluation,39,19,"13C,30A",30,58,4,,,,,,,,,,,,
,,,,,html-keyboard-response,297,977786,0.0-25.0-2.29,718622d5-fb0c-4fe9-adf5-366d10b39301,null,"<p style=""text-align: center;"">+</p>",null,fixation,,,,,,,,,,,,,,,,,,
,,,,,html-slider-response,298,978802,0.0-25.0-0.30,718622d5-fb0c-4fe9-adf5-366d10b39301,1000,"
                  <p style=""text-align: center;"">₪11
                                                <br>75%</p>
                  <p id=""wtp"" style=""text-align:center; margin-top: 0px; margin-bottom: 0px; font-size: 40px"";>&ensp;</p>",-,viewing,0,7,"6B,18B,22C,24C,29A",,,,,,,,,,,,,,,
,,,,,html-slider-response,299,979704,0.0-25.0-1.30,718622d5-fb0c-4fe9-adf5-366d10b39301,902,"
                  <p style=""text-align: center;"">₪11
                                                <br>75%</p>
                  <p id=""wtp"" style=""text-align:center; margin-top: 0px; margin-bottom: 0px; font-size: 40px"";>מוכנים לשלם: <span id=""c_p_y""></span></p>",0,evaluation,34,7,"6B,18B,22C,24C,29A",75,11,0,,,,,,,,,,,,
,,,,,html-keyboard-response,300,981210,0.0-25.0-2.30,718622d5-fb0c-4fe9-adf5-366d10b39301,null,"<p style=""text-align: center;"">+</p>",null,fixation,,,,,,,,,,,,,,,,,,
,,,,,html-keyboard-response,301,982211,0.0-26.0,718622d5-fb0c-4fe9-adf5-366d10b39301,null,"<p style=""text-align: center;"">+</p>",null,fixation,,,,,,,,,,,,,,,,,,
,,,,,html-keyboard-response,302,982913,0.0-27.0,718622d5-fb0c-4fe9-adf5-366d10b39301,null,,null,delay,,,,,,,,,,,,,,,,,,
,,,,,html-keyboard-response,303,985596,0.0-28.0,718622d5-fb0c-4fe9-adf5-366d10b39301,2682,"
        <h1>יפה מאוד! סיימתם את חלק 1!</h1>
        <p>מיד נעבור לחלק 2.</p>
        <p>לחצו רווח במקלדת כדי להמשיך.</p>", ,instructions,,,,,,,,,,,,,,,,,,
,,,,,html-keyboard-response,304,991161,0.0-29.0,718622d5-fb0c-4fe9-adf5-366d10b39301,5508,"
          <h1>חלק 2</h1>
          <p>ברוכים הבאים לחלק 2 של הניסוי.
          <br>בחלק זה יוצגו בפניכם שלוש הגרלות.
          <br>אתם מתבקשים לבחור את ההגרלה שתרצו להשתתף בה.
          <br>שימו לב! בסוף הניסוי נבחר שלב אחד באקראי ונממש את ההגרלה שבחרתם בו. כלומר, הבחירה שלכם יכולה להפוך לכסף אמיתי.
          <br><br>לחצו רווח כדי להמשיך.</p>", ,,,,,,,,,,,,,,,,,,,
,,,,,html-keyboard-response,305,1004049,0.0-30.0,718622d5-fb0c-4fe9-adf5-366d10b39301,12183,"
          <p>בואו נתחיל בדוגמה:
          <br>לפניכם שלוש הגרלות.
          <br>לחצו 'A' אם אתם מעדיפים את ההגרלה השמאלית
          <br>לחצו 'S' אם אתם מעדיפים את ההגרלה האמצעית
          <br>לחצו 'D' אם אתם מעדיפים את ההגרלה הימנית
          <p class=""lotteries"">
            <span><img src='img/A.png', width=""30""></span>
            <span><img src='img/S.png', width=""30""></span>
            <span><img src='img/D.png', width=""30""></span>
          </p>
          <p class=""lotteries"">
            <span>₪39</span>
            <span>₪46</span>
            <span>₪54</span>
          </p>
          <p class=""lotteries"">
            <span>65%</span>
            <span>40%</span>
            <span>35%</span>
          </p>",a,example,,,,,,,,,,,,,,,,,,
,,,,,html-keyboard-response,306,1009561,0.0-31.0,718622d5-fb0c-4fe9-adf5-366d10b39301,4805,"<p>עבודה טובה!
                  <br>בחרתם את ההגרלה השמאלית.  
                  <br>בואו ננסה דוגמה נוספת:
                  <p class=""lotteries"">
                    <span><img src='img/A.png', width=""30""></span>
                    <span><img src='img/S.png', width=""30""></span>
                    <span><img src='img/D.png', width=""30""></span>
