"success","timeout","failed_images","failed_audio","failed_video","trial_type","trial_index","time_elapsed","internal_node_id","subject_id","rt","stimulus","response","part","slider_start","ID","set_ID","prob","amount","last_location","actual_choice","actual_EV","binary_id","trinary_id","catch","A_key","D_key","choice_prob","choice_amount","potential_prize_prob","potential_prize_amount","won_prize","total_prize","remaining_budget","accuracy"
"true","false","[]","[]","[]","preload","0","14","0.0-0.0","afbc429c-ea6f-444e-b924-866a4df3f8d4","","","","","","","","","","","","","","","","","","","","","","","","",""
"","","","","","html-keyboard-response","1","9867","0.0-1.0","afbc429c-ea6f-444e-b924-866a4df3f8d4","null","
          <h1>שלום וברוכים הבאים!</h1>
          <p>לפניכם ניסוי בקבלת החלטות עם שני חלקים.
          <br><br>לחצו על העכבר כדי להמשיך.</p>","0","example","","","","","","","","","","","","","","","","","","","","",""
"","","","","","html-keyboard-response","2","19922","0.0-2.0","afbc429c-ea6f-444e-b924-866a4df3f8d4","null","
        <h1>חלק 1</h1>
        <p>בקרוב יוצגו בפניכם הגרלות.
        <br>עליכם לבחור את המחיר המירבי שתהיו מוכנים לשלם כדי להשתתף בהגרלה שתוצג.
        <br>יש לכם תקציב של ₪80 לכל הגרלה. 
        <br>נסו להעריך כל הגרלה בנפרד ולחשוב כמה היא שווה עבורכם, ₪80 זמינים לכל הגרלה בנפרד.
        <br><br>לחצו על העכבר כדי להמשיך.</p>","1","instructions","","","","","","","","","","","","","","","","","","","","",""
"","","","","","html-keyboard-response","3","34314","0.0-3.0","afbc429c-ea6f-444e-b924-866a4df3f8d4","null","
        <p>בסוף הניסוי, המחשב יבחר את אחת ההגרלות ויקבע מחיר לכרטיס עבורה. 
        <br>במידה והמחיר שבחרתם נמוך מהמחיר שנבחר על ידי המחשב, לא תשתתפו בהגרלה ותשארו עם מלוא התקציב.
        <br>במידה והמחיר שבחרתם גבוה מהמחיר שנבחר על ידי המחשב, תשלמו את המחיר שנקבע ותשתתפו בהגרלה.
        <br><br>לחצו על העכבר כדי להמשיך.</p>","1","instructions","","","","","","","","","","","","","","","","","","","","",""
"","","","","","html-slider-response","4","50843","0.0-4.0","afbc429c-ea6f-444e-b924-866a4df3f8d4","16424","
        <p style=""font-size: 42px;"">נתחיל עם דוגמא: 
        <br>ההגרלה מטה מציעה 65% סיכוי לזכות ב-₪40 
        <br>&emsp;&emsp;&emsp;&emsp;&emsp;&emsp;&emsp;&emsp;&ensp;35% סיכוי לזכות ב-₪0.
        <br><br>מה המחיר המירבי שתהיו מוכנים לשלם על כרטיס להגרלה זו בין 0 ל-₪80?
        <br>הזיזו את העכבר על פני המלבן ולחצו כדי לבצע בחירה.</p>
        
        <p style=""text-align: center;"">₪40<br>65%</p>

        <p id=""wtp"" style=""text-align:center; margin-top: 0px; margin-bottom: 0px; font-size: 40px"";>מוכנים לשלם: <span id=""c_p_y""></span></p>","20","example","32","","","","","","","","","","","","","","","","","","","",""
"","","","","","html-keyboard-response","5","58330","0.0-5.0","afbc429c-ea6f-444e-b924-866a4df3f8d4","null","<p>יפה מאוד!
                <br> בחרתם שתהיו מוכנים לשלם ₪20 כדי להשתתף בהגרלה:
                <br><p style=""text-align: center;"">₪40<br>65%</p>
                <p>נשמע נכון?
                <br>נניח שהגרלה זו נבחרה בסוף הניסוי.
                <br>כעת המחשב יקבע מחיר עבורה באקראי.
                <br>לחצו על העכבר להמשך.</p>","1","example","","","","","","","","","","","","","","","","","","","","",""
"","","","","","html-keyboard-response","6","66402","0.0-6.0","afbc429c-ea6f-444e-b924-866a4df3f8d4","null","<p>המחשב קבע מחיר: ₪75
                <br>ואתם בחרתם לשלם לכל היותר: ₪20
                <br><br>מכיוון שהמחיר שבחרתם נמוך מהמחיר שנקבע, לא תתשתתפו בהגרלה.
                <br>במקרה כזה, בסוף הניסוי תקבלו את כל התקציב ההתחלתי של ₪80.
                <br><br>לחצו על העכבר להמשך.</p>","1","example","","","","","","","","","","","","","","","","","","","","",""
"","","","","","html-slider-response","7","81739","0.0-7.0","afbc429c-ea6f-444e-b924-866a4df3f8d4","15080","<p style=""font-size: 42px;"">הנה עוד דוגמא:
                <br>ההגרלה מטה מציעה 35% סיכוי לזכות ב-₪18 
                <br>&emsp;&emsp;&emsp;&emsp;&emsp;&emsp;&emsp;&emsp;&ensp;65% סיכוי לזכות ב-₪0.</p>
        
                <p style=""text-align: center;"">₪18<br>35%</p>
                <p id=""wtp"" style=""text-align:center; margin-top: 0px; margin-bottom: 0px; font-size: 40px"";>מוכנים לשלם: <span id=""c_p_y""></span></p>","9","example","24","","","","","","","","","","","","","","","","","","","",""
"","","","","","html-keyboard-response","8","86570","0.0-8.0","afbc429c-ea6f-444e-b924-866a4df3f8d4","null","<p>הייתם מוכנים לשלם  ₪9 כדי להשתתף בהגרלה:
                <p style=""text-align: center;"">₪18<br>35%</p>
                <p>כעת נניח שהמחשב בחר את ההגרלה הזו בסוף הניסוי, וקבע עבורה מחיר.
                <br><br>לחצו על העכבר כדי להמשיך.</p>","1","instructions","","","","","","","","","","","","","","","","","","","","",""
"","","","","","html-keyboard-response","9","97354","0.0-9.0","afbc429c-ea6f-444e-b924-866a4df3f8d4","null","<p>המחשב קבע מחיר להגרלה: ₪4<br>ואתם בחרתם לשלם לכל היותר: ₪9
                <br><br>כעת המחיר שנקבע נמוך מזה שבחרתם, אז תשלמו את המחיר שקבע המחשב (₪4) ותשתתפו בהגרלה.
                <br>במקרה כזה, תסיימו את הניסוי עם תקציב של ₪76 ועם סיכוי לזכות ב-₪18 נוספים מההגרלה.
                <br>כלומר, תוכלו לקבל ₪76 אם לא תזכו בהגרלה, או ₪94 אם תזכו בהגרלה.
                <br><br>לחצו על העכבר להמשך.</p>","1","example","","","","","","","","","","","","","","","","","","","","",""
"","","","","","html-keyboard-response","10","106322","0.0-10.0","afbc429c-ea6f-444e-b924-866a4df3f8d4","null","<p>במהלך הניסוי, קודם תראו את ההגרלה ורק לאחר מכן תוכלו לבחור.
                <p>כמו כן, יהיו לכם מספר שניות מוגבל להגיב.
                <p>בואו ננסה זאת עם ההגרלה הקודמת.
                <br>לחצו על העכבר כדי להמשיך.</p>","1","instructions","","","","","","","","","","","","","","","","","","","","",""
"","","","","","html-slider-response","11","107576","0.0-11.0","afbc429c-ea6f-444e-b924-866a4df3f8d4","1000","
                    <p style=""text-align: center;"">₪18<br>35%</p>
                    <p id=""wtp"" style=""text-align:center; margin-top: 0px; margin-bottom: 0px; font-size: 40px"";>&ensp;</p>","69","instructions","0","","","","","","","","","","","","","","","","","","","",""
"","","","","","html-slider-response","12","110211","0.0-12.0","afbc429c-ea6f-444e-b924-866a4df3f8d4","2376","
                    <p style=""text-align: center;"">₪18<br>35%</p>
                    <p id=""wtp"" style=""text-align:center; margin-top: 0px; margin-bottom: 0px; font-size: 40px"";>מוכנים לשלם: <span id=""c_p_y""></span></p>","8","instructions","39","","","","","","","","","","","","","","","","","","","",""
"","","","","","html-keyboard-response","13","113170","0.0-13.0","afbc429c-ea6f-444e-b924-866a4df3f8d4","null","<p>יפה. הפעם בחרתם לשלם לכל היותר ₪8.
                <br><br>לחצו על העכבר כדי להמשיך.</p>","1","instructions","","","","","","","","","","","","","","","","","","","","",""
"","","","","","html-keyboard-response","14","118098","0.0-15.0","afbc429c-ea6f-444e-b924-866a4df3f8d4","null","<p>כעת נתחיל את הניסוי.
                <br><br>אתם תראו הגרלות ותתבקשו לבחור כמה תהיו מוכנים לשלם כדי להשתתף בהן.
                <br>יש לכם תקציב של ₪80 עבור כל הגרלה.
                <br>בסוף הניסוי הגרלה אחת תבחר באקראי ותשוחק.
                <br><br>לחצו על העכבר כדי להתחיל את הניסוי.</p>","1","instructions","","","","","","","","","","","","","","","","","","","","",""
"","","","","","html-keyboard-response","15","119371","0.0-16.0","afbc429c-ea6f-444e-b924-866a4df3f8d4","null","<p style=""text-align: center;"">+</p>","null","fixation","","","","","","","","","","","","","","","","","","","","",""
"","","","","","html-slider-response","16","120375","0.0-17.0-0.0","afbc429c-ea6f-444e-b924-866a4df3f8d4","1000","
                  <p style=""text-align: center;"">₪61
                                                <br>55%</p>
                  <p id=""wtp"" style=""text-align:center; margin-top: 0px; margin-bottom: 0px; font-size: 40px"";>&ensp;</p>","-","viewing","0","23","7B,26B","","","","","","","","","","","","","","","","","",""
"","","","","","html-slider-response","17","123179","0.0-17.0-1.0","afbc429c-ea6f-444e-b924-866a4df3f8d4","2802","
                  <p style=""text-align: center;"">₪61
                                                <br>55%</p>
                  <p id=""wtp"" style=""text-align:center; margin-top: 0px; margin-bottom: 0px; font-size: 40px"";>מוכנים לשלם: <span id=""c_p_y""></span></p>","30","evaluation","7","23","7B,26B","55","61","30","","","","","","","","","","","","","","",""
"","","","","","html-keyboard-response","18","123925","0.0-17.0-2.0","afbc429c-ea6f-444e-b924-866a4df3f8d4","null","<p style=""text-align: center;"">+</p>","null","fixation","","","","","","","","","","","","","","","","","","","","",""
"","","","","","html-slider-response","19","124933","0.0-17.0-0.1","afbc429c-ea6f-444e-b924-866a4df3f8d4","1000","
                  <p style=""text-align: center;"">₪64
                                                <br>50%</p>
                  <p id=""wtp"" style=""text-align:center; margin-top: 0px; margin-bottom: 0px; font-size: 40px"";>&ensp;</p>","-","viewing","0","25","1B,3B,4A","","","","","","","","","","","","","","","","","",""
"","","","","","html-slider-response","20","128948","0.0-17.0-1.1","afbc429c-ea6f-444e-b924-866a4df3f8d4","null","
                  <p style=""text-align: center;"">₪64
                                                <br>50%</p>
                  <p id=""wtp"" style=""text-align:center; margin-top: 0px; margin-bottom: 0px; font-size: 40px"";>מוכנים לשלם: <span id=""c_p_y""></span></p>","null","evaluation","29","25","1B,3B,4A","50","64","37","","","","","","","","","","","","","","",""
"","","","","","html-keyboard-response","21","130263","0.0-17.0-2.1","afbc429c-ea6f-444e-b924-866a4df3f8d4","null","<p style=""text-align: center;"">+</p>","null","fixation","","","","","","","","","","","","","","","","","","","","",""
"","","","","","html-slider-response","22","131265","0.0-17.0-0.2","afbc429c-ea6f-444e-b924-866a4df3f8d4","1000","
                  <p style=""text-align: center;"">₪79
                                                <br>65%</p>
                  <p id=""wtp"" style=""text-align:center; margin-top: 0px; margin-bottom: 0px; font-size: 40px"";>&ensp;</p>","-","viewing","0","31","8A","","","","","","","","","","","","","","","","","",""
"","","","","","html-slider-response","23","134066","0.0-17.0-1.2","afbc429c-ea6f-444e-b924-866a4df3f8d4","2800","
                  <p style=""text-align: center;"">₪79
                                                <br>65%</p>
                  <p id=""wtp"" style=""text-align:center; margin-top: 0px; margin-bottom: 0px; font-size: 40px"";>מוכנים לשלם: <span id=""c_p_y""></span></p>","48","evaluation","41","31","8A","65","79","48","","","","","","","","","","","","","","",""
"","","","","","html-keyboard-response","24","134644","0.0-17.0-2.2","afbc429c-ea6f-444e-b924-866a4df3f8d4","null","<p style=""text-align: center;"">+</p>","null","fixation","","","","","","","","","","","","","","","","","","","","",""
"","","","","","html-slider-response","25","135653","0.0-17.0-0.3","afbc429c-ea6f-444e-b924-866a4df3f8d4","1000","
                  <p style=""text-align: center;"">₪71
                                                <br>55%</p>
                  <p id=""wtp"" style=""text-align:center; margin-top: 0px; margin-bottom: 0px; font-size: 40px"";>&ensp;</p>","-","viewing","0","27","5B,18A","","","","","","","","","","","","","","","","","",""
"","","","","","html-slider-response","26","137691","0.0-17.0-1.3","afbc429c-ea6f-444e-b924-866a4df3f8d4","2036","
                  <p style=""text-align: center;"">₪71
                                                <br>55%</p>
                  <p id=""wtp"" style=""text-align:center; margin-top: 0px; margin-bottom: 0px; font-size: 40px"";>מוכנים לשלם: <span id=""c_p_y""></span></p>","47","evaluation","0","27","5B,18A","55","71","47","","","","","","","","","","","","","","",""
"","","","","","html-keyboard-response","27","138608","0.0-17.0-2.3","afbc429c-ea6f-444e-b924-866a4df3f8d4","null","<p style=""text-align: center;"">+</p>","null","fixation","","","","","","","","","","","","","","","","","","","","",""
"","","","","","html-slider-response","28","139610","0.0-17.0-0.4","afbc429c-ea6f-444e-b924-866a4df3f8d4","1000","
                  <p style=""text-align: center;"">₪76
                                                <br>65%</p>
                  <p id=""wtp"" style=""text-align:center; margin-top: 0px; margin-bottom: 0px; font-size: 40px"";>&ensp;</p>","-","viewing","0","29","8C,19A,24B","","","","","","","","","","","","","","","","","",""
"","","","","","html-slider-response","29","143466","0.0-17.0-1.4","afbc429c-ea6f-444e-b924-866a4df3f8d4","3855","
                  <p style=""text-align: center;"">₪76
                                                <br>65%</p>
                  <p id=""wtp"" style=""text-align:center; margin-top: 0px; margin-bottom: 0px; font-size: 40px"";>מוכנים לשלם: <span id=""c_p_y""></span></p>","45","evaluation","69","29","8C,19A,24B","65","76","45","","","","","","","","","","","","","","",""
"","","","","","html-keyboard-response","30","144112","0.0-17.0-2.4","afbc429c-ea6f-444e-b924-866a4df3f8d4","null","<p style=""text-align: center;"">+</p>","null","fixation","","","","","","","","","","","","","","","","","","","","",""
"","","","","","html-slider-response","31","145116","0.0-17.0-0.5","afbc429c-ea6f-444e-b924-866a4df3f8d4","1000","
                  <p style=""text-align: center;"">₪11
                                                <br>20%</p>
                  <p id=""wtp"" style=""text-align:center; margin-top: 0px; margin-bottom: 0px; font-size: 40px"";>&ensp;</p>","-","viewing","0","4","12C,17C,23C,28C","","","","","","","","","","","","","","","","","",""
"","","","","","html-slider-response","32","148978","0.0-17.0-1.5","afbc429c-ea6f-444e-b924-866a4df3f8d4","3861","
                  <p style=""text-align: center;"">₪11
                                                <br>20%</p>
                  <p id=""wtp"" style=""text-align:center; margin-top: 0px; margin-bottom: 0px; font-size: 40px"";>מוכנים לשלם: <span id=""c_p_y""></span></p>","6","evaluation","77","4","12C,17C,23C,28C","20","11","6","","","","","","","","","","","","","","",""
"","","","","","html-keyboard-response","33","150433","0.0-17.0-2.5","afbc429c-ea6f-444e-b924-866a4df3f8d4","null","<p style=""text-align: center;"">+</p>","null","fixation","","","","","","","","","","","","","","","","","","","","",""
"","","","","","html-slider-response","34","151449","0.0-17.0-0.6","afbc429c-ea6f-444e-b924-866a4df3f8d4","1000","
                  <p style=""text-align: center;"">₪58
                                                <br>30%</p>
                  <p id=""wtp"" style=""text-align:center; margin-top: 0px; margin-bottom: 0px; font-size: 40px"";>&ensp;</p>","-","viewing","0","19","13C,30A","","","","","","","","","","","","","","","","","",""
"","","","","","html-slider-response","35","155195","0.0-17.0-1.6","afbc429c-ea6f-444e-b924-866a4df3f8d4","3744","
                  <p style=""text-align: center;"">₪58
                                                <br>30%</p>
                  <p id=""wtp"" style=""text-align:center; margin-top: 0px; margin-bottom: 0px; font-size: 40px"";>מוכנים לשלם: <span id=""c_p_y""></span></p>","18","evaluation","59","19","13C,30A","30","58","18","","","","","","","","","","","","","","",""
"","","","","","html-keyboard-response","36","156218","0.0-17.0-2.6","afbc429c-ea6f-444e-b924-866a4df3f8d4","null","<p style=""text-align: center;"">+</p>","null","fixation","","","","","","","","","","","","","","","","","","","","",""
"","","","","","html-slider-response","37","157221","0.0-17.0-0.7","afbc429c-ea6f-444e-b924-866a4df3f8d4","1000","
                  <p style=""text-align: center;"">₪18
                                                <br>50%</p>
                  <p id=""wtp"" style=""text-align:center; margin-top: 0px; margin-bottom: 0px; font-size: 40px"";>&ensp;</p>","-","viewing","0","10","2C,16C,22B,28A","","","","","","","","","","","","","","","","","",""
"","","","","","html-slider-response","38","161222","0.0-17.0-1.7","afbc429c-ea6f-444e-b924-866a4df3f8d4","null","
                  <p style=""text-align: center;"">₪18
                                                <br>50%</p>
                  <p id=""wtp"" style=""text-align:center; margin-top: 0px; margin-bottom: 0px; font-size: 40px"";>מוכנים לשלם: <span id=""c_p_y""></span></p>","null","evaluation","37","10","2C,16C,22B,28A","50","18","8","","","","","","","","","","","","","","",""
"","","","","","html-keyboard-response","39","161919","0.0-17.0-2.7","afbc429c-ea6f-444e-b924-866a4df3f8d4","null","<p style=""text-align: center;"">+</p>","null","fixation","","","","","","","","","","","","","","","","","","","","",""
"","","","","","html-slider-response","40","162928","0.0-17.0-0.8","afbc429c-ea6f-444e-b924-866a4df3f8d4","1000","
                  <p style=""text-align: center;"">₪11
                                                <br>25%</p>
                  <p id=""wtp"" style=""text-align:center; margin-top: 0px; margin-bottom: 0px; font-size: 40px"";>&ensp;</p>","-","viewing","0","5","12A,27B,28B,30B","","","","","","","","","","","","","","","","","",""
"","","","","","html-slider-response","41","166570","0.0-17.0-1.8","afbc429c-ea6f-444e-b924-866a4df3f8d4","3641","
                  <p style=""text-align: center;"">₪11
                                                <br>25%</p>
                  <p id=""wtp"" style=""text-align:center; margin-top: 0px; margin-bottom: 0px; font-size: 40px"";>מוכנים לשלם: <span id=""c_p_y""></span></p>","4","evaluation","26","5","12A,27B,28B,30B","25","11","4","","","","","","","","","","","","","","",""
"","","","","","html-keyboard-response","42","167563","0.0-17.0-2.8","afbc429c-ea6f-444e-b924-866a4df3f8d4","null","<p style=""text-align: center;"">+</p>","null","fixation","","","","","","","","","","","","","","","","","","","","",""
"","","","","","html-slider-response","43","168572","0.0-17.0-0.9","afbc429c-ea6f-444e-b924-866a4df3f8d4","1000","
                  <p style=""text-align: center;"">₪16
                                                <br>20%</p>
                  <p id=""wtp"" style=""text-align:center; margin-top: 0px; margin-bottom: 0px; font-size: 40px"";>&ensp;</p>","-","viewing","0","8","14C,17A,20C,27A","","","","","","","","","","","","","","","","","",""
"","","","","","html-slider-response","44","172050","0.0-17.0-1.9","afbc429c-ea6f-444e-b924-866a4df3f8d4","3477","
                  <p style=""text-align: center;"">₪16
                                                <br>20%</p>
                  <p id=""wtp"" style=""text-align:center; margin-top: 0px; margin-bottom: 0px; font-size: 40px"";>מוכנים לשלם: <span id=""c_p_y""></span></p>","5","evaluation","45","8","14C,17A,20C,27A","20","16","5","","","","","","","","","","","","","","",""
"","","","","","html-keyboard-response","45","172888","0.0-17.0-2.9","afbc429c-ea6f-444e-b924-866a4df3f8d4","null","<p style=""text-align: center;"">+</p>","null","fixation","","","","","","","","","","","","","","","","","","","","",""
"","","","","","html-slider-response","46","173897","0.0-17.0-0.10","afbc429c-ea6f-444e-b924-866a4df3f8d4","1000","
                  <p style=""text-align: center;"">₪64
                                                <br>25%</p>
                  <p id=""wtp"" style=""text-align:center; margin-top: 0px; margin-bottom: 0px; font-size: 40px"";>&ensp;</p>","-","viewing","0","24","6A,21A","","","","","","","","","","","","","","","","","",""
"","","","","","html-slider-response","47","177810","0.0-17.0-1.10","afbc429c-ea6f-444e-b924-866a4df3f8d4","3912","
                  <p style=""text-align: center;"">₪64
                                                <br>25%</p>
                  <p id=""wtp"" style=""text-align:center; margin-top: 0px; margin-bottom: 0px; font-size: 40px"";>מוכנים לשלם: <span id=""c_p_y""></span></p>","14","evaluation","53","24","6A,21A","25","64","15","","","","","","","","","","","","","","",""
"","","","","","html-keyboard-response","48","178701","0.0-17.0-2.10","afbc429c-ea6f-444e-b924-866a4df3f8d4","null","<p style=""text-align: center;"">+</p>","null","fixation","","","","","","","","","","","","","","","","","","","","",""
"","","","","","html-slider-response","49","179712","0.0-17.0-0.11","afbc429c-ea6f-444e-b924-866a4df3f8d4","1000","
                  <p style=""text-align: center;"">₪39
                                                <br>65%</p>
                  <p id=""wtp"" style=""text-align:center; margin-top: 0px; margin-bottom: 0px; font-size: 40px"";>&ensp;</p>","-","viewing","0","16","1A,15A,26C","","","","","","","","","","","","","","","","","",""
"","","","","","html-slider-response","50","182523","0.0-17.0-1.11","afbc429c-ea6f-444e-b924-866a4df3f8d4","2809","
                  <p style=""text-align: center;"">₪39
                                                <br>65%</p>
                  <p id=""wtp"" style=""text-align:center; margin-top: 0px; margin-bottom: 0px; font-size: 40px"";>מוכנים לשלם: <span id=""c_p_y""></span></p>","14","evaluation","49","16","1A,15A,26C","65","39","15","","","","","","","","","","","","","","",""
"","","","","","html-keyboard-response","51","183099","0.0-17.0-2.11","afbc429c-ea6f-444e-b924-866a4df3f8d4","null","<p style=""text-align: center;"">+</p>","null","fixation","","","","","","","","","","","","","","","","","","","","",""
"","","","","","html-slider-response","52","184102","0.0-17.0-0.12","afbc429c-ea6f-444e-b924-866a4df3f8d4","1000","
                  <p style=""text-align: center;"">₪4
                                                <br>75%</p>
                  <p id=""wtp"" style=""text-align:center; margin-top: 0px; margin-bottom: 0px; font-size: 40px"";>&ensp;</p>","-","viewing","0","3","12B,20B,23B,27C,29C","","","","","","","","","","","","","","","","","",""
"","","","","","html-slider-response","53","186626","0.0-17.0-1.12","afbc429c-ea6f-444e-b924-866a4df3f8d4","2523","
                  <p style=""text-align: center;"">₪4
                                                <br>75%</p>
                  <p id=""wtp"" style=""text-align:center; margin-top: 0px; margin-bottom: 0px; font-size: 40px"";>מוכנים לשלם: <span id=""c_p_y""></span></p>","2","evaluation","59","3","12B,20B,23B,27C,29C","75","4","2","","","","","","","","","","","","","","",""
"","","","","","html-keyboard-response","54","187796","0.0-17.0-2.12","afbc429c-ea6f-444e-b924-866a4df3f8d4","null","<p style=""text-align: center;"">+</p>","null","fixation","","","","","","","","","","","","","","","","","","","","",""
"","","","","","html-slider-response","55","188799","0.0-17.0-0.13","afbc429c-ea6f-444e-b924-866a4df3f8d4","1000","
                  <p style=""text-align: center;"">₪43
                                                <br>75%</p>
                  <p id=""wtp"" style=""text-align:center; margin-top: 0px; margin-bottom: 0px; font-size: 40px"";>&ensp;</p>","-","viewing","0","18","11B,19B,24A,26A","","","","","","","","","","","","","","","","","",""
"","","","","","html-slider-response","56","191979","0.0-17.0-1.13","afbc429c-ea6f-444e-b924-866a4df3f8d4","3178","
                  <p style=""text-align: center;"">₪43
                                                <br>75%</p>
                  <p id=""wtp"" style=""text-align:center; margin-top: 0px; margin-bottom: 0px; font-size: 40px"";>מוכנים לשלם: <span id=""c_p_y""></span></p>","20","evaluation","22","18","11B,19B,24A,26A","75","43","20","","","","","","","","","","","","","","",""
"","","","","","html-keyboard-response","57","193172","0.0-17.0-2.13","afbc429c-ea6f-444e-b924-866a4df3f8d4","null","<p style=""text-align: center;"">+</p>","null","fixation","","","","","","","","","","","","","","","","","","","","",""
"","","","","","html-slider-response","58","194190","0.0-17.0-0.14","afbc429c-ea6f-444e-b924-866a4df3f8d4","1000","
                  <p style=""text-align: center;"">₪58
                                                <br>45%</p>
                  <p id=""wtp"" style=""text-align:center; margin-top: 0px; margin-bottom: 0px; font-size: 40px"";>&ensp;</p>","-","viewing","0","21","11C,18C,25A","","","","","","","","","","","","","","","","","",""
"","","","","","html-slider-response","59","196571","0.0-17.0-1.14","afbc429c-ea6f-444e-b924-866a4df3f8d4","2380","
                  <p style=""text-align: center;"">₪58
                                                <br>45%</p>
                  <p id=""wtp"" style=""text-align:center; margin-top: 0px; margin-bottom: 0px; font-size: 40px"";>מוכנים לשלם: <span id=""c_p_y""></span></p>","20","evaluation","52","21","11C,18C,25A","45","58","20","","","","","","","","","","","","","","",""
"","","","","","html-keyboard-response","60","197308","0.0-17.0-2.14","afbc429c-ea6f-444e-b924-866a4df3f8d4","null","<p style=""text-align: center;"">+</p>","null","fixation","","","","","","","","","","","","","","","","","","","","",""
"","","","","","html-slider-response","61","198323","0.0-17.0-0.15","afbc429c-ea6f-444e-b924-866a4df3f8d4","1000","
                  <p style=""text-align: center;"">₪11
                                                <br>45%</p>
                  <p id=""wtp"" style=""text-align:center; margin-top: 0px; margin-bottom: 0px; font-size: 40px"";>&ensp;</p>","-","viewing","0","6","14B,21C,25C","","","","","","","","","","","","","","","","","",""
"","","","","","html-slider-response","62","200043","0.0-17.0-1.15","afbc429c-ea6f-444e-b924-866a4df3f8d4","1719","
                  <p style=""text-align: center;"">₪11
                                                <br>45%</p>
                  <p id=""wtp"" style=""text-align:center; margin-top: 0px; margin-bottom: 0px; font-size: 40px"";>מוכנים לשלם: <span id=""c_p_y""></span></p>","4","evaluation","16","6","14B,21C,25C","45","11","4","","","","","","","","","","","","","","",""
"","","","","","html-keyboard-response","63","200734","0.0-17.0-2.15","afbc429c-ea6f-444e-b924-866a4df3f8d4","null","<p style=""text-align: center;"">+</p>","null","fixation","","","","","","","","","","","","","","","","","","","","",""
"","","","","","html-slider-response","64","201750","0.0-17.0-0.16","afbc429c-ea6f-444e-b924-866a4df3f8d4","1000","
                  <p style=""text-align: center;"">₪4
                                                <br>50%</p>
                  <p id=""wtp"" style=""text-align:center; margin-top: 0px; margin-bottom: 0px; font-size: 40px"";>&ensp;</p>","-","viewing","0","2","4C,17B","","","","","","","","","","","","","","","","","",""
"","","","","","html-slider-response","65","203411","0.0-17.0-1.16","afbc429c-ea6f-444e-b924-866a4df3f8d4","1659","
                  <p style=""text-align: center;"">₪4
                                                <br>50%</p>
                  <p id=""wtp"" style=""text-align:center; margin-top: 0px; margin-bottom: 0px; font-size: 40px"";>מוכנים לשלם: <span id=""c_p_y""></span></p>","1","evaluation","12","2","4C,17B","50","4","1","","","","","","","","","","","","","","",""
"","","","","","html-keyboard-response","66","204355","0.0-17.0-2.16","afbc429c-ea6f-444e-b924-866a4df3f8d4","null","<p style=""text-align: center;"">+</p>","null","fixation","","","","","","","","","","","","","","","","","","","","",""
"","","","","","html-slider-response","67","205357","0.0-17.0-0.17","afbc429c-ea6f-444e-b924-866a4df3f8d4","1000","
                  <p style=""text-align: center;"">₪79
                                                <br>40%</p>
                  <p id=""wtp"" style=""text-align:center; margin-top: 0px; margin-bottom: 0px; font-size: 40px"";>&ensp;</p>","-","viewing","0","30","9B","","","","","","","","","","","","","","","","","",""
"","","","","","html-slider-response","68","209360","0.0-17.0-1.17","afbc429c-ea6f-444e-b924-866a4df3f8d4","null","
                  <p style=""text-align: center;"">₪79
                                                <br>40%</p>
                  <p id=""wtp"" style=""text-align:center; margin-top: 0px; margin-bottom: 0px; font-size: 40px"";>מוכנים לשלם: <span id=""c_p_y""></span></p>","null","evaluation","39","30","9B","40","79","29","","","","","","","","","","","","","","",""
"","","","","","html-keyboard-response","69","210171","0.0-17.0-2.17","afbc429c-ea6f-444e-b924-866a4df3f8d4","null","<p style=""text-align: center;"">+</p>","null","fixation","","","","","","","","","","","","","","","","","","","","",""
"","","","","","html-slider-response","70","211181","0.0-17.0-0.18","afbc429c-ea6f-444e-b924-866a4df3f8d4","1000","
                  <p style=""text-align: center;"">₪39
                                                <br>60%</p>
                  <p id=""wtp"" style=""text-align:center; margin-top: 0px; margin-bottom: 0px; font-size: 40px"";>&ensp;</p>","-","viewing","0","15","9C,25B","","","","","","","","","","","","","","","","","",""
"","","","","","html-slider-response","71","213195","0.0-17.0-1.18","afbc429c-ea6f-444e-b924-866a4df3f8d4","2013","
                  <p style=""text-align: center;"">₪39
                                                <br>60%</p>
                  <p id=""wtp"" style=""text-align:center; margin-top: 0px; margin-bottom: 0px; font-size: 40px"";>מוכנים לשלם: <span id=""c_p_y""></span></p>","15","evaluation","38","15","9C,25B","60","39","15","","","","","","","","","","","","","","",""
"","","","","","html-keyboard-response","72","213792","0.0-17.0-2.18","afbc429c-ea6f-444e-b924-866a4df3f8d4","null","<p style=""text-align: center;"">+</p>","null","fixation","","","","","","","","","","","","","","","","","","","","",""
"","","","","","html-slider-response","73","214802","0.0-17.0-0.19","afbc429c-ea6f-444e-b924-866a4df3f8d4","1000","
                  <p style=""text-align: center;"">₪11
                                                <br>75%</p>
                  <p id=""wtp"" style=""text-align:center; margin-top: 0px; margin-bottom: 0px; font-size: 40px"";>&ensp;</p>","-","viewing","0","7","6B,18B,22C,24C,29A","","","","","","","","","","","","","","","","","",""
"","","","","","html-slider-response","74","216667","0.0-17.0-1.19","afbc429c-ea6f-444e-b924-866a4df3f8d4","1864","
                  <p style=""text-align: center;"">₪11
                                                <br>75%</p>
                  <p id=""wtp"" style=""text-align:center; margin-top: 0px; margin-bottom: 0px; font-size: 40px"";>מוכנים לשלם: <span id=""c_p_y""></span></p>","1","evaluation","37","7","6B,18B,22C,24C,29A","75","11","1","","","","","","","","","","","","","","",""
"","","","","","html-keyboard-response","75","217297","0.0-17.0-2.19","afbc429c-ea6f-444e-b924-866a4df3f8d4","null","<p style=""text-align: center;"">+</p>","null","fixation","","","","","","","","","","","","","","","","","","","","",""
"","","","","","html-slider-response","76","218306","0.0-17.0-0.20","afbc429c-ea6f-444e-b924-866a4df3f8d4","1000","
                  <p style=""text-align: center;"">₪4
                                                <br>25%</p>
                  <p id=""wtp"" style=""text-align:center; margin-top: 0px; margin-bottom: 0px; font-size: 40px"";>&ensp;</p>","-","viewing","0","1","6C,29B,30C","","","","","","","","","","","","","","","","","",""
"","","","","","html-slider-response","77","222315","0.0-17.0-1.20","afbc429c-ea6f-444e-b924-866a4df3f8d4","null","
                  <p style=""text-align: center;"">₪4
                                                <br>25%</p>
                  <p id=""wtp"" style=""text-align:center; margin-top: 0px; margin-bottom: 0px; font-size: 40px"";>מוכנים לשלם: <span id=""c_p_y""></span></p>","null","evaluation","43","1","6C,29B,30C","25","4","1","","","","","","","","","","","","","","",""
"","","","","","html-keyboard-response","78","223150","0.0-17.0-2.20","afbc429c-ea6f-444e-b924-866a4df3f8d4","null","<p style=""text-align: center;"">+</p>","null","fixation","","","","","","","","","","","","","","","","","","","","",""
"","","","","","html-slider-response","79","224163","0.0-17.0-0.21","afbc429c-ea6f-444e-b924-866a4df3f8d4","1000","
                  <p style=""text-align: center;"">₪58
                                                <br>40%</p>
                  <p id=""wtp"" style=""text-align:center; margin-top: 0px; margin-bottom: 0px; font-size: 40px"";>&ensp;</p>","-","viewing","0","20","10C,13A,19C,21B","","","","","","","","","","","","","","","","","",""
"","","","","","html-slider-response","80","227635","0.0-17.0-1.21","afbc429c-ea6f-444e-b924-866a4df3f8d4","3471","
                  <p style=""text-align: center;"">₪58
                                                <br>40%</p>
                  <p id=""wtp"" style=""text-align:center; margin-top: 0px; margin-bottom: 0px; font-size: 40px"";>מוכנים לשלם: <span id=""c_p_y""></span></p>","11","evaluation","59","20","10C,13A,19C,21B","40","58","11","","","","","","","","","","","","","","",""
"","","","","","html-keyboard-response","81","228952","0.0-17.0-2.21","afbc429c-ea6f-444e-b924-866a4df3f8d4","null","<p style=""text-align: center;"">+</p>","null","fixation","","","","","","","","","","","","","","","","","","","","",""
"","","","","","html-slider-response","82","229962","0.0-17.0-0.22","afbc429c-ea6f-444e-b924-866a4df3f8d4","1000","
                  <p style=""text-align: center;"">₪61
                                                <br>45%</p>
                  <p id=""wtp"" style=""text-align:center; margin-top: 0px; margin-bottom: 0px; font-size: 40px"";>&ensp;</p>","-","viewing","0","22","10A,11A","","","","","","","","","","","","","","","","","",""
"","","","","","html-slider-response","83","231579","0.0-17.0-1.22","afbc429c-ea6f-444e-b924-866a4df3f8d4","1617","
                  <p style=""text-align: center;"">₪61
                                                <br>45%</p>
                  <p id=""wtp"" style=""text-align:center; margin-top: 0px; margin-bottom: 0px; font-size: 40px"";>מוכנים לשלם: <span id=""c_p_y""></span></p>","20","evaluation","70","22","10A,11A","45","61","20","","","","","","","","","","","","","","",""
"","","","","","html-keyboard-response","84","232237","0.0-17.0-2.22","afbc429c-ea6f-444e-b924-866a4df3f8d4","null","<p style=""text-align: center;"">+</p>","null","fixation","","","","","","","","","","","","","","","","","","","","",""
"","","","","","html-slider-response","85","233240","0.0-17.0-0.23","afbc429c-ea6f-444e-b924-866a4df3f8d4","1000","
                  <p style=""text-align: center;"">₪71
                                                <br>75%</p>
                  <p id=""wtp"" style=""text-align:center; margin-top: 0px; margin-bottom: 0px; font-size: 40px"";>&ensp;</p>","-","viewing","0","28","8B","","","","","","","","","","","","","","","","","",""
"","","","","","html-slider-response","86","237027","0.0-17.0-1.23","afbc429c-ea6f-444e-b924-866a4df3f8d4","3786","
                  <p style=""text-align: center;"">₪71
                                                <br>75%</p>
                  <p id=""wtp"" style=""text-align:center; margin-top: 0px; margin-bottom: 0px; font-size: 40px"";>מוכנים לשלם: <span id=""c_p_y""></span></p>","15","evaluation","12","28","8B","75","71","15","","","","","","","","","","","","","","",""
"","","","","","html-keyboard-response","87","238054","0.0-17.0-2.23","afbc429c-ea6f-444e-b924-866a4df3f8d4","null","<p style=""text-align: center;"">+</p>","null","fixation","","","","","","","","","","","","","","","","","","","","",""
"","","","","","html-slider-response","88","239065","0.0-17.0-0.24","afbc429c-ea6f-444e-b924-866a4df3f8d4","1000","
                  <p style=""text-align: center;"">₪18
                                                <br>25%</p>
                  <p id=""wtp"" style=""text-align:center; margin-top: 0px; margin-bottom: 0px; font-size: 40px"";>&ensp;</p>","-","viewing","0","9","14A,23A","","","","","","","","","","","","","","","","","",""
"","","","","","html-slider-response","89","240683","0.0-17.0-1.24","afbc429c-ea6f-444e-b924-866a4df3f8d4","1616","
                  <p style=""text-align: center;"">₪18
                                                <br>25%</p>
                  <p id=""wtp"" style=""text-align:center; margin-top: 0px; margin-bottom: 0px; font-size: 40px"";>מוכנים לשלם: <span id=""c_p_y""></span></p>","6","evaluation","13","9","14A,23A","25","18","6","","","","","","","","","","","","","","",""
"","","","","","html-keyboard-response","90","241467","0.0-17.0-2.24","afbc429c-ea6f-444e-b924-866a4df3f8d4","null","<p style=""text-align: center;"">+</p>","null","fixation","","","","","","","","","","","","","","","","","","","","",""
"","","","","","html-slider-response","91","242480","0.0-17.0-0.25","afbc429c-ea6f-444e-b924-866a4df3f8d4","1000","
                  <p style=""text-align: center;"">₪43
                                                <br>60%</p>
                  <p id=""wtp"" style=""text-align:center; margin-top: 0px; margin-bottom: 0px; font-size: 40px"";>&ensp;</p>","-","viewing","0","17","2A,7A,9A,15B","","","","","","","","","","","","","","","","","",""
"","","","","","html-slider-response","92","244691","0.0-17.0-1.25","afbc429c-ea6f-444e-b924-866a4df3f8d4","2209","
                  <p style=""text-align: center;"">₪43
                                                <br>60%</p>
                  <p id=""wtp"" style=""text-align:center; margin-top: 0px; margin-bottom: 0px; font-size: 40px"";>מוכנים לשלם: <span id=""c_p_y""></span></p>","20","evaluation","65","17","2A,7A,9A,15B","60","43","20","","","","","","","","","","","","","","",""
"","","","","","html-keyboard-response","93","245280","0.0-17.0-2.25","afbc429c-ea6f-444e-b924-866a4df3f8d4","null","<p style=""text-align: center;"">+</p>","null","fixation","","","","","","","","","","","","","","","","","","","","",""
"","","","","","html-slider-response","94","246285","0.0-17.0-0.26","afbc429c-ea6f-444e-b924-866a4df3f8d4","1000","
                  <p style=""text-align: center;"">₪36
                                                <br>30%</p>
                  <p id=""wtp"" style=""text-align:center; margin-top: 0px; margin-bottom: 0px; font-size: 40px"";>&ensp;</p>","-","viewing","0","11","3C,20A,22A","","","","","","","","","","","","","","","","","",""
"","","","","","html-slider-response","95","248347","0.0-17.0-1.26","afbc429c-ea6f-444e-b924-866a4df3f8d4","2061","
                  <p style=""text-align: center;"">₪36
                                                <br>30%</p>
                  <p id=""wtp"" style=""text-align:center; margin-top: 0px; margin-bottom: 0px; font-size: 40px"";>מוכנים לשלם: <span id=""c_p_y""></span></p>","12","evaluation","49","11","3C,20A,22A","30","36","12","","","","","","","","","","","","","","",""
"","","","","","html-keyboard-response","96","249551","0.0-17.0-2.26","afbc429c-ea6f-444e-b924-866a4df3f8d4","null","<p style=""text-align: center;"">+</p>","null","fixation","","","","","","","","","","","","","","","","","","","","",""
"","","","","","html-slider-response","97","250565","0.0-17.0-0.27","afbc429c-ea6f-444e-b924-866a4df3f8d4","1000","
                  <p style=""text-align: center;"">₪71
                                                <br>45%</p>
                  <p id=""wtp"" style=""text-align:center; margin-top: 0px; margin-bottom: 0px; font-size: 40px"";>&ensp;</p>","-","viewing","0","26","2B,16A","","","","","","","","","","","","","","","","","",""
"","","","","","html-slider-response","98","253907","0.0-17.0-1.27","afbc429c-ea6f-444e-b924-866a4df3f8d4","3341","
                  <p style=""text-align: center;"">₪71
                                                <br>45%</p>
                  <p id=""wtp"" style=""text-align:center; margin-top: 0px; margin-bottom: 0px; font-size: 40px"";>מוכנים לשלם: <span id=""c_p_y""></span></p>","15","evaluation","73","26","2B,16A","45","71","15","","","","","","","","","","","","","","",""
"","","","","","html-keyboard-response","99","254917","0.0-17.0-2.27","afbc429c-ea6f-444e-b924-866a4df3f8d4","null","<p style=""text-align: center;"">+</p>","null","fixation","","","","","","","","","","","","","","","","","","","","",""
"","","","","","html-slider-response","100","255923","0.0-17.0-0.28","afbc429c-ea6f-444e-b924-866a4df3f8d4","1000","
                  <p style=""text-align: center;"">₪36
                                                <br>75%</p>
                  <p id=""wtp"" style=""text-align:center; margin-top: 0px; margin-bottom: 0px; font-size: 40px"";>&ensp;</p>","-","viewing","0","14","4B,5A,13B,16B","","","","","","","","","","","","","","","","","",""
"","","","","","html-slider-response","101","257819","0.0-17.0-1.28","afbc429c-ea6f-444e-b924-866a4df3f8d4","1895","
                  <p style=""text-align: center;"">₪36
                                                <br>75%</p>
                  <p id=""wtp"" style=""text-align:center; margin-top: 0px; margin-bottom: 0px; font-size: 40px"";>מוכנים לשלם: <span id=""c_p_y""></span></p>","10","evaluation","42","14","4B,5A,13B,16B","75","36","10","","","","","","","","","","","","","","",""
"","","","","","html-keyboard-response","102","259051","0.0-17.0-2.28","afbc429c-ea6f-444e-b924-866a4df3f8d4","null","<p style=""text-align: center;"">+</p>","null","fixation","","","","","","","","","","","","","","","","","","","","",""
"","","","","","html-slider-response","103","260065","0.0-17.0-0.29","afbc429c-ea6f-444e-b924-866a4df3f8d4","1000","
                  <p style=""text-align: center;"">₪36
                                                <br>70%</p>
                  <p id=""wtp"" style=""text-align:center; margin-top: 0px; margin-bottom: 0px; font-size: 40px"";>&ensp;</p>","-","viewing","0","13","3A,5C,10B","","","","","","","","","","","","","","","","","",""
"","","","","","html-slider-response","104","261635","0.0-17.0-1.29","afbc429c-ea6f-444e-b924-866a4df3f8d4","1570","
                  <p style=""text-align: center;"">₪36
                                                <br>70%</p>
                  <p id=""wtp"" style=""text-align:center; margin-top: 0px; margin-bottom: 0px; font-size: 40px"";>מוכנים לשלם: <span id=""c_p_y""></span></p>","10","evaluation","47","13","3A,5C,10B","70","36","10","","","","","","","","","","","","","","",""
"","","","","","html-keyboard-response","105","262169","0.0-17.0-2.29","afbc429c-ea6f-444e-b924-866a4df3f8d4","null","<p style=""text-align: center;"">+</p>","null","fixation","","","","","","","","","","","","","","","","","","","","",""
"","","","","","html-slider-response","106","263177","0.0-17.0-0.30","afbc429c-ea6f-444e-b924-866a4df3f8d4","1000","
                  <p style=""text-align: center;"">₪36
                                                <br>60%</p>
                  <p id=""wtp"" style=""text-align:center; margin-top: 0px; margin-bottom: 0px; font-size: 40px"";>&ensp;</p>","-","viewing","0","12","1C,7C,15C","","","","","","","","","","","","","","","","","",""
"","","","","","html-slider-response","107","264323","0.0-17.0-1.30","afbc429c-ea6f-444e-b924-866a4df3f8d4","1145","
                  <p style=""text-align: center;"">₪36
                                                <br>60%</p>
                  <p id=""wtp"" style=""text-align:center; margin-top: 0px; margin-bottom: 0px; font-size: 40px"";>מוכנים לשלם: <span id=""c_p_y""></span></p>","8","evaluation","45","12","1C,7C,15C","60","36","8","","","","","","","","","","","","","","",""
"","","","","","html-keyboard-response","108","264990","0.0-17.0-2.30","afbc429c-ea6f-444e-b924-866a4df3f8d4","null","<p style=""text-align: center;"">+</p>","null","fixation","","","","","","","","","","","","","","","","","","","","",""
"","","","","","html-keyboard-response","109","265993","0.0-18.0","afbc429c-ea6f-444e-b924-866a4df3f8d4","null","<p style=""text-align: center;"">+</p>","null","fixation","","","","","","","","","","","","","","","","","","","","",""
"","","","","","html-keyboard-response","110","267539","0.0-19.0","afbc429c-ea6f-444e-b924-866a4df3f8d4","null","<p>הפסקה.
          <br>לחצו כדי להמשיך.</p>","1","scan_wait","","","","","","","","","","","","","","","","","","","","",""
"","","","","","html-keyboard-response","111","268542","0.0-20.0","afbc429c-ea6f-444e-b924-866a4df3f8d4","null","<p style=""text-align: center;"">+</p>","null","fixation","","","","","","","","","","","","","","","","","","","","",""
"","","","","","html-slider-response","112","269544","0.0-21.0-0.0","afbc429c-ea6f-444e-b924-866a4df3f8d4","1000","
                  <p style=""text-align: center;"">₪11
                                                <br>75%</p>
                  <p id=""wtp"" style=""text-align:center; margin-top: 0px; margin-bottom: 0px; font-size: 40px"";>&ensp;</p>","-","viewing","0","7","6B,18B,22C,24C,29A","","","","","","","","","","","","","","","","","",""
"","","","","","html-slider-response","113","270579","0.0-21.0-1.0","afbc429c-ea6f-444e-b924-866a4df3f8d4","1033","
                  <p style=""text-align: center;"">₪11
                                                <br>75%</p>
                  <p id=""wtp"" style=""text-align:center; margin-top: 0px; margin-bottom: 0px; font-size: 40px"";>מוכנים לשלם: <span id=""c_p_y""></span></p>","4","evaluation","69","7","6B,18B,22C,24C,29A","75","11","5","","","","","","","","","","","","","","",""
"","","","","","html-keyboard-response","114","271720","0.0-21.0-2.0","afbc429c-ea6f-444e-b924-866a4df3f8d4","null","<p style=""text-align: center;"">+</p>","null","fixation","","","","","","","","","","","","","","","","","","","","",""
"","","","","","html-slider-response","115","272729","0.0-21.0-0.1","afbc429c-ea6f-444e-b924-866a4df3f8d4","1000","
                  <p style=""text-align: center;"">₪4
                                                <br>75%</p>
                  <p id=""wtp"" style=""text-align:center; margin-top: 0px; margin-bottom: 0px; font-size: 40px"";>&ensp;</p>","-","viewing","0","3","12B,20B,23B,27C,29C","","","","","","","","","","","","","","","","","",""
"","","","","","html-slider-response","116","273979","0.0-21.0-1.1","afbc429c-ea6f-444e-b924-866a4df3f8d4","1249","
                  <p style=""text-align: center;"">₪4
                                                <br>75%</p>
                  <p id=""wtp"" style=""text-align:center; margin-top: 0px; margin-bottom: 0px; font-size: 40px"";>מוכנים לשלם: <span id=""c_p_y""></span></p>","1","evaluation","15","3","12B,20B,23B,27C,29C","75","4","1","","","","","","","","","","","","","","",""
"","","","","","html-keyboard-response","117","274851","0.0-21.0-2.1","afbc429c-ea6f-444e-b924-866a4df3f8d4","null","<p style=""text-align: center;"">+</p>","null","fixation","","","","","","","","","","","","","","","","","","","","",""
"","","","","","html-slider-response","118","275860","0.0-21.0-0.2","afbc429c-ea6f-444e-b924-866a4df3f8d4","1000","
                  <p style=""text-align: center;"">₪4
                                                <br>25%</p>
                  <p id=""wtp"" style=""text-align:center; margin-top: 0px; margin-bottom: 0px; font-size: 40px"";>&ensp;</p>","-","viewing","0","1","6C,29B,30C","","","","","","","","","","","","","","","","","",""
"","","","","","html-slider-response","119","279179","0.0-21.0-1.2","afbc429c-ea6f-444e-b924-866a4df3f8d4","3317","
                  <p style=""text-align: center;"">₪4
                                                <br>25%</p>
                  <p id=""wtp"" style=""text-align:center; margin-top: 0px; margin-bottom: 0px; font-size: 40px"";>מוכנים לשלם: <span id=""c_p_y""></span></p>","0","evaluation","56","1","6C,29B,30C","25","4","1","","","","","","","","","","","","","","",""
"","","","","","html-keyboard-response","120","280613","0.0-21.0-2.2","afbc429c-ea6f-444e-b924-866a4df3f8d4","null","<p style=""text-align: center;"">+</p>","null","fixation","","","","","","","","","","","","","","","","","","","","",""
"","","","","","html-slider-response","121","281616","0.0-21.0-0.3","afbc429c-ea6f-444e-b924-866a4df3f8d4","1000","
                  <p style=""text-align: center;"">₪18
                                                <br>50%</p>
                  <p id=""wtp"" style=""text-align:center; margin-top: 0px; margin-bottom: 0px; font-size: 40px"";>&ensp;</p>","-","viewing","0","10","2C,16C,22B,28A","","","","","","","","","","","","","","","","","",""
"","","","","","html-slider-response","122","285618","0.0-21.0-1.3","afbc429c-ea6f-444e-b924-866a4df3f8d4","null","
                  <p style=""text-align: center;"">₪18
                                                <br>50%</p>
                  <p id=""wtp"" style=""text-align:center; margin-top: 0px; margin-bottom: 0px; font-size: 40px"";>מוכנים לשלם: <span id=""c_p_y""></span></p>","null","evaluation","46","10","2C,16C,22B,28A","50","18","8","","","","","","","","","","","","","","",""
"","","","","","html-keyboard-response","123","286658","0.0-21.0-2.3","afbc429c-ea6f-444e-b924-866a4df3f8d4","null","<p style=""text-align: center;"">+</p>","null","fixation","","","","","","","","","","","","","","","","","","","","",""
"","","","","","html-slider-response","124","287664","0.0-21.0-0.4","afbc429c-ea6f-444e-b924-866a4df3f8d4","1000","
                  <p style=""text-align: center;"">₪36
                                                <br>70%</p>
                  <p id=""wtp"" style=""text-align:center; margin-top: 0px; margin-bottom: 0px; font-size: 40px"";>&ensp;</p>","-","viewing","0","13","3A,5C,10B","","","","","","","","","","","","","","","","","",""
"","","","","","html-slider-response","125","290611","0.0-21.0-1.4","afbc429c-ea6f-444e-b924-866a4df3f8d4","2946","
                  <p style=""text-align: center;"">₪36
                                                <br>70%</p>
                  <p id=""wtp"" style=""text-align:center; margin-top: 0px; margin-bottom: 0px; font-size: 40px"";>מוכנים לשלם: <span id=""c_p_y""></span></p>","11","evaluation","19","13","3A,5C,10B","70","36","11","","","","","","","","","","","","","","",""
"","","","","","html-keyboard-response","126","291248","0.0-21.0-2.4","afbc429c-ea6f-444e-b924-866a4df3f8d4","null","<p style=""text-align: center;"">+</p>","null","fixation","","","","","","","","","","","","","","","","","","","","",""
"","","","","","html-slider-response","127","292250","0.0-21.0-0.5","afbc429c-ea6f-444e-b924-866a4df3f8d4","1000","
                  <p style=""text-align: center;"">₪58
                                                <br>30%</p>
                  <p id=""wtp"" style=""text-align:center; margin-top: 0px; margin-bottom: 0px; font-size: 40px"";>&ensp;</p>","-","viewing","0","19","13C,30A","","","","","","","","","","","","","","","","","",""
"","","","","","html-slider-response","128","294747","0.0-21.0-1.5","afbc429c-ea6f-444e-b924-866a4df3f8d4","2495","
                  <p style=""text-align: center;"">₪58
                                                <br>30%</p>
                  <p id=""wtp"" style=""text-align:center; margin-top: 0px; margin-bottom: 0px; font-size: 40px"";>מוכנים לשלם: <span id=""c_p_y""></span></p>","9","evaluation","56","19","13C,30A","30","58","9","","","","","","","","","","","","","","",""
"","","","","","html-keyboard-response","129","295353","0.0-21.0-2.5","afbc429c-ea6f-444e-b924-866a4df3f8d4","null","<p style=""text-align: center;"">+</p>","null","fixation","","","","","","","","","","","","","","","","","","","","",""
"","","","","","html-slider-response","130","296366","0.0-21.0-0.6","afbc429c-ea6f-444e-b924-866a4df3f8d4","1000","
                  <p style=""text-align: center;"">₪64
                                                <br>50%</p>
                  <p id=""wtp"" style=""text-align:center; margin-top: 0px; margin-bottom: 0px; font-size: 40px"";>&ensp;</p>","-","viewing","0","25","1B,3B,4A","","","","","","","","","","","","","","","","","",""
"","","","","","html-slider-response","131","298707","0.0-21.0-1.6","afbc429c-ea6f-444e-b924-866a4df3f8d4","2340","
                  <p style=""text-align: center;"">₪64
                                                <br>50%</p>
                  <p id=""wtp"" style=""text-align:center; margin-top: 0px; margin-bottom: 0px; font-size: 40px"";>מוכנים לשלם: <span id=""c_p_y""></span></p>","15","evaluation","14","25","1B,3B,4A","50","64","15","","","","","","","","","","","","","","",""
"","","","","","html-keyboard-response","132","300023","0.0-21.0-2.6","afbc429c-ea6f-444e-b924-866a4df3f8d4","null","<p style=""text-align: center;"">+</p>","null","fixation","","","","","","","","","","","","","","","","","","","","",""
"","","","","","html-slider-response","133","301040","0.0-21.0-0.7","afbc429c-ea6f-444e-b924-866a4df3f8d4","1000","
                  <p style=""text-align: center;"">₪76
                                                <br>65%</p>
                  <p id=""wtp"" style=""text-align:center; margin-top: 0px; margin-bottom: 0px; font-size: 40px"";>&ensp;</p>","-","viewing","0","29","8C,19A,24B","","","","","","","","","","","","","","","","","",""
"","","","","","html-slider-response","134","303419","0.0-21.0-1.7","afbc429c-ea6f-444e-b924-866a4df3f8d4","2377","
                  <p style=""text-align: center;"">₪76
                                                <br>65%</p>
                  <p id=""wtp"" style=""text-align:center; margin-top: 0px; margin-bottom: 0px; font-size: 40px"";>מוכנים לשלם: <span id=""c_p_y""></span></p>","20","evaluation","74","29","8C,19A,24B","65","76","20","","","","","","","","","","","","","","",""
"","","","","","html-keyboard-response","135","304574","0.0-21.0-2.7","afbc429c-ea6f-444e-b924-866a4df3f8d4","null","<p style=""text-align: center;"">+</p>","null","fixation","","","","","","","","","","","","","","","","","","","","",""
"","","","","","html-slider-response","136","305585","0.0-21.0-0.8","afbc429c-ea6f-444e-b924-866a4df3f8d4","1000","
                  <p style=""text-align: center;"">₪36
                                                <br>75%</p>
                  <p id=""wtp"" style=""text-align:center; margin-top: 0px; margin-bottom: 0px; font-size: 40px"";>&ensp;</p>","-","viewing","0","14","4B,5A,13B,16B","","","","","","","","","","","","","","","","","",""
"","","","","","html-slider-response","137","308131","0.0-21.0-1.8","afbc429c-ea6f-444e-b924-866a4df3f8d4","2545","
                  <p style=""text-align: center;"">₪36
                                                <br>75%</p>
                  <p id=""wtp"" style=""text-align:center; margin-top: 0px; margin-bottom: 0px; font-size: 40px"";>מוכנים לשלם: <span id=""c_p_y""></span></p>","15","evaluation","79","14","4B,5A,13B,16B","75","36","15","","","","","","","","","","","","","","",""
"","","","","","html-keyboard-response","138","309314","0.0-21.0-2.8","afbc429c-ea6f-444e-b924-866a4df3f8d4","null","<p style=""text-align: center;"">+</p>","null","fixation","","","","","","","","","","","","","","","","","","","","",""
"","","","","","html-slider-response","139","310327","0.0-21.0-0.9","afbc429c-ea6f-444e-b924-866a4df3f8d4","1000","
                  <p style=""text-align: center;"">₪58
                                                <br>45%</p>
                  <p id=""wtp"" style=""text-align:center; margin-top: 0px; margin-bottom: 0px; font-size: 40px"";>&ensp;</p>","-","viewing","0","21","11C,18C,25A","","","","","","","","","","","","","","","","","",""
"","","","","","html-slider-response","140","313291","0.0-21.0-1.9","afbc429c-ea6f-444e-b924-866a4df3f8d4","2963","
                  <p style=""text-align: center;"">₪58
                                                <br>45%</p>
                  <p id=""wtp"" style=""text-align:center; margin-top: 0px; margin-bottom: 0px; font-size: 40px"";>מוכנים לשלם: <span id=""c_p_y""></span></p>","12","evaluation","38","21","11C,18C,25A","45","58","12","","","","","","","","","","","","","","",""
"","","","","","html-keyboard-response","141","314451","0.0-21.0-2.9","afbc429c-ea6f-444e-b924-866a4df3f8d4","null","<p style=""text-align: center;"">+</p>","null","fixation","","","","","","","","","","","","","","","","","","","","",""
"","","","","","html-slider-response","142","315464","0.0-21.0-0.10","afbc429c-ea6f-444e-b924-866a4df3f8d4","1000","
                  <p style=""text-align: center;"">₪71
                                                <br>55%</p>
                  <p id=""wtp"" style=""text-align:center; margin-top: 0px; margin-bottom: 0px; font-size: 40px"";>&ensp;</p>","-","viewing","0","27","5B,18A","","","","","","","","","","","","","","","","","",""
"","","","","","html-slider-response","143","317907","0.0-21.0-1.10","afbc429c-ea6f-444e-b924-866a4df3f8d4","2441","
                  <p style=""text-align: center;"">₪71
                                                <br>55%</p>
                  <p id=""wtp"" style=""text-align:center; margin-top: 0px; margin-bottom: 0px; font-size: 40px"";>מוכנים לשלם: <span id=""c_p_y""></span></p>","14","evaluation","2","27","5B,18A","55","71","15","","","","","","","","","","","","","","",""
"","","","","","html-keyboard-response","144","318653","0.0-21.0-2.10","afbc429c-ea6f-444e-b924-866a4df3f8d4","null","<p style=""text-align: center;"">+</p>","null","fixation","","","","","","","","","","","","","","","","","","","","",""
"","","","","","html-slider-response","145","319666","0.0-21.0-0.11","afbc429c-ea6f-444e-b924-866a4df3f8d4","1000","
                  <p style=""text-align: center;"">₪43
                                                <br>60%</p>
                  <p id=""wtp"" style=""text-align:center; margin-top: 0px; margin-bottom: 0px; font-size: 40px"";>&ensp;</p>","-","viewing","0","17","2A,7A,9A,15B","","","","","","","","","","","","","","","","","",""
"","","","","","html-slider-response","146","321403","0.0-21.0-1.11","afbc429c-ea6f-444e-b924-866a4df3f8d4","1736","
                  <p style=""text-align: center;"">₪43
                                                <br>60%</p>
                  <p id=""wtp"" style=""text-align:center; margin-top: 0px; margin-bottom: 0px; font-size: 40px"";>מוכנים לשלם: <span id=""c_p_y""></span></p>","15","evaluation","48","17","2A,7A,9A,15B","60","43","15","","","","","","","","","","","","","","",""
"","","","","","html-keyboard-response","147","322237","0.0-21.0-2.11","afbc429c-ea6f-444e-b924-866a4df3f8d4","null","<p style=""text-align: center;"">+</p>","null","fixation","","","","","","","","","","","","","","","","","","","","",""
"","","","","","html-slider-response","148","323252","0.0-21.0-0.12","afbc429c-ea6f-444e-b924-866a4df3f8d4","1000","
                  <p style=""text-align: center;"">₪39
                                                <br>65%</p>
                  <p id=""wtp"" style=""text-align:center; margin-top: 0px; margin-bottom: 0px; font-size: 40px"";>&ensp;</p>","-","viewing","0","16","1A,15A,26C","","","","","","","","","","","","","","","","","",""
"","","","","","html-slider-response","149","326083","0.0-21.0-1.12","afbc429c-ea6f-444e-b924-866a4df3f8d4","2830","
                  <p style=""text-align: center;"">₪39
                                                <br>65%</p>
                  <p id=""wtp"" style=""text-align:center; margin-top: 0px; margin-bottom: 0px; font-size: 40px"";>מוכנים לשלם: <span id=""c_p_y""></span></p>","15","evaluation","59","16","1A,15A,26C","65","39","15","","","","","","","","","","","","","","",""
"","","","","","html-keyboard-response","150","327480","0.0-21.0-2.12","afbc429c-ea6f-444e-b924-866a4df3f8d4","null","<p style=""text-align: center;"">+</p>","null","fixation","","","","","","","","","","","","","","","","","","","","",""
"","","","","","html-slider-response","151","328485","0.0-21.0-0.13","afbc429c-ea6f-444e-b924-866a4df3f8d4","1000","
                  <p style=""text-align: center;"">₪71
                                                <br>45%</p>
                  <p id=""wtp"" style=""text-align:center; margin-top: 0px; margin-bottom: 0px; font-size: 40px"";>&ensp;</p>","-","viewing","0","26","2B,16A","","","","","","","","","","","","","","","","","",""
"","","","","","html-slider-response","152","330915","0.0-21.0-1.13","afbc429c-ea6f-444e-b924-866a4df3f8d4","2428","
                  <p style=""text-align: center;"">₪71
                                                <br>45%</p>
                  <p id=""wtp"" style=""text-align:center; margin-top: 0px; margin-bottom: 0px; font-size: 40px"";>מוכנים לשלם: <span id=""c_p_y""></span></p>","25","evaluation","34","26","2B,16A","45","71","25","","","","","","","","","","","","","","",""
"","","","","","html-keyboard-response","153","331726","0.0-21.0-2.13","afbc429c-ea6f-444e-b924-866a4df3f8d4","null","<p style=""text-align: center;"">+</p>","null","fixation","","","","","","","","","","","","","","","","","","","","",""
"","","","","","html-slider-response","154","332729","0.0-21.0-0.14","afbc429c-ea6f-444e-b924-866a4df3f8d4","1000","
                  <p style=""text-align: center;"">₪79
                                                <br>40%</p>
                  <p id=""wtp"" style=""text-align:center; margin-top: 0px; margin-bottom: 0px; font-size: 40px"";>&ensp;</p>","-","viewing","0","30","9B","","","","","","","","","","","","","","","","","",""
"","","","","","html-slider-response","155","335931","0.0-21.0-1.14","afbc429c-ea6f-444e-b924-866a4df3f8d4","3201","
                  <p style=""text-align: center;"">₪79
                                                <br>40%</p>
                  <p id=""wtp"" style=""text-align:center; margin-top: 0px; margin-bottom: 0px; font-size: 40px"";>מוכנים לשלם: <span id=""c_p_y""></span></p>","20","evaluation","8","30","9B","40","79","20","","","","","","","","","","","","","","",""
"","","","","","html-keyboard-response","156","337245","0.0-21.0-2.14","afbc429c-ea6f-444e-b924-866a4df3f8d4","null","<p style=""text-align: center;"">+</p>","null","fixation","","","","","","","","","","","","","","","","","","","","",""
"","","","","","html-slider-response","157","338259","0.0-21.0-0.15","afbc429c-ea6f-444e-b924-866a4df3f8d4","1000","
                  <p style=""text-align: center;"">₪36
                                                <br>60%</p>
                  <p id=""wtp"" style=""text-align:center; margin-top: 0px; margin-bottom: 0px; font-size: 40px"";>&ensp;</p>","-","viewing","0","12","1C,7C,15C","","","","","","","","","","","","","","","","","",""
"","","","","","html-slider-response","158","340715","0.0-21.0-1.15","afbc429c-ea6f-444e-b924-866a4df3f8d4","2455","
                  <p style=""text-align: center;"">₪36
                                                <br>60%</p>
                  <p id=""wtp"" style=""text-align:center; margin-top: 0px; margin-bottom: 0px; font-size: 40px"";>מוכנים לשלם: <span id=""c_p_y""></span></p>","12","evaluation","46","12","1C,7C,15C","60","36","12","","","","","","","","","","","","","","",""
"","","","","","html-keyboard-response","159","341777","0.0-21.0-2.15","afbc429c-ea6f-444e-b924-866a4df3f8d4","null","<p style=""text-align: center;"">+</p>","null","fixation","","","","","","","","","","","","","","","","","","","","",""
"","","","","","html-slider-response","160","342780","0.0-21.0-0.16","afbc429c-ea6f-444e-b924-866a4df3f8d4","1000","
                  <p style=""text-align: center;"">₪43
                                                <br>75%</p>
                  <p id=""wtp"" style=""text-align:center; margin-top: 0px; margin-bottom: 0px; font-size: 40px"";>&ensp;</p>","-","viewing","0","18","11B,19B,24A,26A","","","","","","","","","","","","","","","","","",""
"","","","","","html-slider-response","161","345131","0.0-21.0-1.16","afbc429c-ea6f-444e-b924-866a4df3f8d4","2349","
                  <p style=""text-align: center;"">₪43
                                                <br>75%</p>
                  <p id=""wtp"" style=""text-align:center; margin-top: 0px; margin-bottom: 0px; font-size: 40px"";>מוכנים לשלם: <span id=""c_p_y""></span></p>","15","evaluation","5","18","11B,19B,24A,26A","75","43","15","","","","","","","","","","","","","","",""
"","","","","","html-keyboard-response","162","345756","0.0-21.0-2.16","afbc429c-ea6f-444e-b924-866a4df3f8d4","null","<p style=""text-align: center;"">+</p>","null","fixation","","","","","","","","","","","","","","","","","","","","",""
"","","","","","html-slider-response","163","346761","0.0-21.0-0.17","afbc429c-ea6f-444e-b924-866a4df3f8d4","1000","
                  <p style=""text-align: center;"">₪11
                                                <br>20%</p>
                  <p id=""wtp"" style=""text-align:center; margin-top: 0px; margin-bottom: 0px; font-size: 40px"";>&ensp;</p>","-","viewing","0","4","12C,17C,23C,28C","","","","","","","","","","","","","","","","","",""
"","","","","","html-slider-response","164","348283","0.0-21.0-1.17","afbc429c-ea6f-444e-b924-866a4df3f8d4","1521","
                  <p style=""text-align: center;"">₪11
                                                <br>20%</p>
                  <p id=""wtp"" style=""text-align:center; margin-top: 0px; margin-bottom: 0px; font-size: 40px"";>מוכנים לשלם: <span id=""c_p_y""></span></p>","1","evaluation","52","4","12C,17C,23C,28C","20","11","1","","","","","","","","","","","","","","",""
"","","","","","html-keyboard-response","165","349747","0.0-21.0-2.17","afbc429c-ea6f-444e-b924-866a4df3f8d4","null","<p style=""text-align: center;"">+</p>","null","fixation","","","","","","","","","","","","","","","","","","","","",""
"","","","","","html-slider-response","166","350750","0.0-21.0-0.18","afbc429c-ea6f-444e-b924-866a4df3f8d4","1000","
                  <p style=""text-align: center;"">₪36
                                                <br>30%</p>
                  <p id=""wtp"" style=""text-align:center; margin-top: 0px; margin-bottom: 0px; font-size: 40px"";>&ensp;</p>","-","viewing","0","11","3C,20A,22A","","","","","","","","","","","","","","","","","",""
"","","","","","html-slider-response","167","352619","0.0-21.0-1.18","afbc429c-ea6f-444e-b924-866a4df3f8d4","1868","
                  <p style=""text-align: center;"">₪36
                                                <br>30%</p>
                  <p id=""wtp"" style=""text-align:center; margin-top: 0px; margin-bottom: 0px; font-size: 40px"";>מוכנים לשלם: <span id=""c_p_y""></span></p>","6","evaluation","14","11","3C,20A,22A","30","36","6","","","","","","","","","","","","","","",""
"","","","","","html-keyboard-response","168","353574","0.0-21.0-2.18","afbc429c-ea6f-444e-b924-866a4df3f8d4","null","<p style=""text-align: center;"">+</p>","null","fixation","","","","","","","","","","","","","","","","","","","","",""
"","","","","","html-slider-response","169","354583","0.0-21.0-0.19","afbc429c-ea6f-444e-b924-866a4df3f8d4","1000","
                  <p style=""text-align: center;"">₪4
                                                <br>50%</p>
                  <p id=""wtp"" style=""text-align:center; margin-top: 0px; margin-bottom: 0px; font-size: 40px"";>&ensp;</p>","-","viewing","0","2","4C,17B","","","","","","","","","","","","","","","","","",""
"","","","","","html-slider-response","170","357355","0.0-21.0-1.19","afbc429c-ea6f-444e-b924-866a4df3f8d4","2771","
                  <p style=""text-align: center;"">₪4
                                                <br>50%</p>
                  <p id=""wtp"" style=""text-align:center; margin-top: 0px; margin-bottom: 0px; font-size: 40px"";>מוכנים לשלם: <span id=""c_p_y""></span></p>","1","evaluation","69","2","4C,17B","50","4","1","","","","","","","","","","","","","","",""
"","","","","","html-keyboard-response","171","358695","0.0-21.0-2.19","afbc429c-ea6f-444e-b924-866a4df3f8d4","null","<p style=""text-align: center;"">+</p>","null","fixation","","","","","","","","","","","","","","","","","","","","",""
"","","","","","html-slider-response","172","359712","0.0-21.0-0.20","afbc429c-ea6f-444e-b924-866a4df3f8d4","1000","
                  <p style=""text-align: center;"">₪79
                                                <br>65%</p>
                  <p id=""wtp"" style=""text-align:center; margin-top: 0px; margin-bottom: 0px; font-size: 40px"";>&ensp;</p>","-","viewing","0","31","8A","","","","","","","","","","","","","","","","","",""
"","","","","","html-slider-response","173","362411","0.0-21.0-1.20","afbc429c-ea6f-444e-b924-866a4df3f8d4","2698","
                  <p style=""text-align: center;"">₪79
                                                <br>65%</p>
                  <p id=""wtp"" style=""text-align:center; margin-top: 0px; margin-bottom: 0px; font-size: 40px"";>מוכנים לשלם: <span id=""c_p_y""></span></p>","19","evaluation","40","31","8A","65","79","19","","","","","","","","","","","","","","",""
"","","","","","html-keyboard-response","174","363404","0.0-21.0-2.20","afbc429c-ea6f-444e-b924-866a4df3f8d4","null","<p style=""text-align: center;"">+</p>","null","fixation","","","","","","","","","","","","","","","","","","","","",""
"","","","","","html-slider-response","175","364414","0.0-21.0-0.21","afbc429c-ea6f-444e-b924-866a4df3f8d4","1000","
                  <p style=""text-align: center;"">₪58
                                                <br>40%</p>
                  <p id=""wtp"" style=""text-align:center; margin-top: 0px; margin-bottom: 0px; font-size: 40px"";>&ensp;</p>","-","viewing","0","20","10C,13A,19C,21B","","","","","","","","","","","","","","","","","",""
"","","","","","html-slider-response","176","368003","0.0-21.0-1.21","afbc429c-ea6f-444e-b924-866a4df3f8d4","3589","
                  <p style=""text-align: center;"">₪58
                                                <br>40%</p>
                  <p id=""wtp"" style=""text-align:center; margin-top: 0px; margin-bottom: 0px; font-size: 40px"";>מוכנים לשלם: <span id=""c_p_y""></span></p>","12","evaluation","10","20","10C,13A,19C,21B","40","58","12","","","","","","","","","","","","","","",""
"","","","","","html-keyboard-response","177","368948","0.0-21.0-2.21","afbc429c-ea6f-444e-b924-866a4df3f8d4","null","<p style=""text-align: center;"">+</p>","null","fixation","","","","","","","","","","","","","","","","","","","","",""
"","","","","","html-slider-response","178","369950","0.0-21.0-0.22","afbc429c-ea6f-444e-b924-866a4df3f8d4","1000","
                  <p style=""text-align: center;"">₪61
                                                <br>45%</p>
                  <p id=""wtp"" style=""text-align:center; margin-top: 0px; margin-bottom: 0px; font-size: 40px"";>&ensp;</p>","-","viewing","0","22","10A,11A","","","","","","","","","","","","","","","","","",""
"","","","","","html-slider-response","179","372563","0.0-21.0-1.22","afbc429c-ea6f-444e-b924-866a4df3f8d4","2612","
                  <p style=""text-align: center;"">₪61
                                                <br>45%</p>
                  <p id=""wtp"" style=""text-align:center; margin-top: 0px; margin-bottom: 0px; font-size: 40px"";>מוכנים לשלם: <span id=""c_p_y""></span></p>","19","evaluation","12","22","10A,11A","45","61","20","","","","","","","","","","","","","","",""
"","","","","","html-keyboard-response","180","373550","0.0-21.0-2.22","afbc429c-ea6f-444e-b924-866a4df3f8d4","null","<p style=""text-align: center;"">+</p>","null","fixation","","","","","","","","","","","","","","","","","","","","",""
"","","","","","html-slider-response","181","374558","0.0-21.0-0.23","afbc429c-ea6f-444e-b924-866a4df3f8d4","1000","
                  <p style=""text-align: center;"">₪61
                                                <br>55%</p>
                  <p id=""wtp"" style=""text-align:center; margin-top: 0px; margin-bottom: 0px; font-size: 40px"";>&ensp;</p>","-","viewing","0","23","7B,26B","","","","","","","","","","","","","","","","","",""
"","","","","","html-slider-response","182","376587","0.0-21.0-1.23","afbc429c-ea6f-444e-b924-866a4df3f8d4","2029","
                  <p style=""text-align: center;"">₪61
                                                <br>55%</p>
                  <p id=""wtp"" style=""text-align:center; margin-top: 0px; margin-bottom: 0px; font-size: 40px"";>מוכנים לשלם: <span id=""c_p_y""></span></p>","20","evaluation","35","23","7B,26B","55","61","20","","","","","","","","","","","","","","",""
"","","","","","html-keyboard-response","183","377403","0.0-21.0-2.23","afbc429c-ea6f-444e-b924-866a4df3f8d4","null","<p style=""text-align: center;"">+</p>","null","fixation","","","","","","","","","","","","","","","","","","","","",""
"","","","","","html-slider-response","184","378406","0.0-21.0-0.24","afbc429c-ea6f-444e-b924-866a4df3f8d4","1000","
                  <p style=""text-align: center;"">₪16
                                                <br>20%</p>
                  <p id=""wtp"" style=""text-align:center; margin-top: 0px; margin-bottom: 0px; font-size: 40px"";>&ensp;</p>","-","viewing","0","8","14C,17A,20C,27A","","","","","","","","","","","","","","","","","",""
"","","","","","html-slider-response","185","379611","0.0-21.0-1.24","afbc429c-ea6f-444e-b924-866a4df3f8d4","1204","
                  <p style=""text-align: center;"">₪16
                                                <br>20%</p>
                  <p id=""wtp"" style=""text-align:center; margin-top: 0px; margin-bottom: 0px; font-size: 40px"";>מוכנים לשלם: <span id=""c_p_y""></span></p>","2","evaluation","4","8","14C,17A,20C,27A","20","16","2","","","","","","","","","","","","","","",""
"","","","","","html-keyboard-response","186","380142","0.0-21.0-2.24","afbc429c-ea6f-444e-b924-866a4df3f8d4","null","<p style=""text-align: center;"">+</p>","null","fixation","","","","","","","","","","","","","","","","","","","","",""
"","","","","","html-slider-response","187","381146","0.0-21.0-0.25","afbc429c-ea6f-444e-b924-866a4df3f8d4","1000","
                  <p style=""text-align: center;"">₪39
                                                <br>60%</p>
                  <p id=""wtp"" style=""text-align:center; margin-top: 0px; margin-bottom: 0px; font-size: 40px"";>&ensp;</p>","-","viewing","0","15","9C,25B","","","","","","","","","","","","","","","","","",""
"","","","","","html-slider-response","188","383171","0.0-21.0-1.25","afbc429c-ea6f-444e-b924-866a4df3f8d4","2024","
                  <p style=""text-align: center;"">₪39
                                                <br>60%</p>
                  <p id=""wtp"" style=""text-align:center; margin-top: 0px; margin-bottom: 0px; font-size: 40px"";>מוכנים לשלם: <span id=""c_p_y""></span></p>","10","evaluation","78","15","9C,25B","60","39","10","","","","","","","","","","","","","","",""
"","","","","","html-keyboard-response","189","383998","0.0-21.0-2.25","afbc429c-ea6f-444e-b924-866a4df3f8d4","null","<p style=""text-align: center;"">+</p>","null","fixation","","","","","","","","","","","","","","","","","","","","",""
"","","","","","html-slider-response","190","385015","0.0-21.0-0.26","afbc429c-ea6f-444e-b924-866a4df3f8d4","1000","
                  <p style=""text-align: center;"">₪11
                                                <br>45%</p>
                  <p id=""wtp"" style=""text-align:center; margin-top: 0px; margin-bottom: 0px; font-size: 40px"";>&ensp;</p>","-","viewing","0","6","14B,21C,25C","","","","","","","","","","","","","","","","","",""
"","","","","","html-slider-response","191","386331","0.0-21.0-1.26","afbc429c-ea6f-444e-b924-866a4df3f8d4","1315","
                  <p style=""text-align: center;"">₪11
                                                <br>45%</p>
                  <p id=""wtp"" style=""text-align:center; margin-top: 0px; margin-bottom: 0px; font-size: 40px"";>מוכנים לשלם: <span id=""c_p_y""></span></p>","2","evaluation","68","6","14B,21C,25C","45","11","3","","","","","","","","","","","","","","",""
"","","","","","html-keyboard-response","192","387275","0.0-21.0-2.26","afbc429c-ea6f-444e-b924-866a4df3f8d4","null","<p style=""text-align: center;"">+</p>","null","fixation","","","","","","","","","","","","","","","","","","","","",""
"","","","","","html-slider-response","193","388290","0.0-21.0-0.27","afbc429c-ea6f-444e-b924-866a4df3f8d4","1000","
                  <p style=""text-align: center;"">₪71
                                                <br>75%</p>
                  <p id=""wtp"" style=""text-align:center; margin-top: 0px; margin-bottom: 0px; font-size: 40px"";>&ensp;</p>","-","viewing","0","28","8B","","","","","","","","","","","","","","","","","",""
"","","","","","html-slider-response","194","391283","0.0-21.0-1.27","afbc429c-ea6f-444e-b924-866a4df3f8d4","2991","
                  <p style=""text-align: center;"">₪71
                                                <br>75%</p>
                  <p id=""wtp"" style=""text-align:center; margin-top: 0px; margin-bottom: 0px; font-size: 40px"";>מוכנים לשלם: <span id=""c_p_y""></span></p>","30","evaluation","37","28","8B","75","71","30","","","","","","","","","","","","","","",""
"","","","","","html-keyboard-response","195","392738","0.0-21.0-2.27","afbc429c-ea6f-444e-b924-866a4df3f8d4","null","<p style=""text-align: center;"">+</p>","null","fixation","","","","","","","","","","","","","","","","","","","","",""
"","","","","","html-slider-response","196","393740","0.0-21.0-0.28","afbc429c-ea6f-444e-b924-866a4df3f8d4","1000","
                  <p style=""text-align: center;"">₪11
                                                <br>25%</p>
                  <p id=""wtp"" style=""text-align:center; margin-top: 0px; margin-bottom: 0px; font-size: 40px"";>&ensp;</p>","-","viewing","0","5","12A,27B,28B,30B","","","","","","","","","","","","","","","","","",""
"","","","","","html-slider-response","197","395051","0.0-21.0-1.28","afbc429c-ea6f-444e-b924-866a4df3f8d4","1310","
                  <p style=""text-align: center;"">₪11
                                                <br>25%</p>
                  <p id=""wtp"" style=""text-align:center; margin-top: 0px; margin-bottom: 0px; font-size: 40px"";>מוכנים לשלם: <span id=""c_p_y""></span></p>","1","evaluation","61","5","12A,27B,28B,30B","25","11","1","","","","","","","","","","","","","","",""
"","","","","","html-keyboard-response","198","396409","0.0-21.0-2.28","afbc429c-ea6f-444e-b924-866a4df3f8d4","null","<p style=""text-align: center;"">+</p>","null","fixation","","","","","","","","","","","","","","","","","","","","",""
"","","","","","html-slider-response","199","397413","0.0-21.0-0.29","afbc429c-ea6f-444e-b924-866a4df3f8d4","1000","
                  <p style=""text-align: center;"">₪64
                                                <br>25%</p>
                  <p id=""wtp"" style=""text-align:center; margin-top: 0px; margin-bottom: 0px; font-size: 40px"";>&ensp;</p>","-","viewing","0","24","6A,21A","","","","","","","","","","","","","","","","","",""
"","","","","","html-slider-response","200","398651","0.0-21.0-1.29","afbc429c-ea6f-444e-b924-866a4df3f8d4","1238","
                  <p style=""text-align: center;"">₪64
                                                <br>25%</p>
                  <p id=""wtp"" style=""text-align:center; margin-top: 0px; margin-bottom: 0px; font-size: 40px"";>מוכנים לשלם: <span id=""c_p_y""></span></p>","8","evaluation","68","24","6A,21A","25","64","8","","","","","","","","","","","","","","",""
"","","","","","html-keyboard-response","201","400006","0.0-21.0-2.29","afbc429c-ea6f-444e-b924-866a4df3f8d4","null","<p style=""text-align: center;"">+</p>","null","fixation","","","","","","","","","","","","","","","","","","","","",""
"","","","","","html-slider-response","202","401023","0.0-21.0-0.30","afbc429c-ea6f-444e-b924-866a4df3f8d4","1000","
                  <p style=""text-align: center;"">₪18
                                                <br>25%</p>
                  <p id=""wtp"" style=""text-align:center; margin-top: 0px; margin-bottom: 0px; font-size: 40px"";>&ensp;</p>","-","viewing","0","9","14A,23A","","","","","","","","","","","","","","","","","",""
"","","","","","html-slider-response","203","405025","0.0-21.0-1.30","afbc429c-ea6f-444e-b924-866a4df3f8d4","null","
                  <p style=""text-align: center;"">₪18
                                                <br>25%</p>
                  <p id=""wtp"" style=""text-align:center; margin-top: 0px; margin-bottom: 0px; font-size: 40px"";>מוכנים לשלם: <span id=""c_p_y""></span></p>","null","evaluation","13","9","14A,23A","25","18","6","","","","","","","","","","","","","","",""
"","","","","","html-keyboard-response","204","405586","0.0-21.0-2.30","afbc429c-ea6f-444e-b924-866a4df3f8d4","null","<p style=""text-align: center;"">+</p>","null","fixation","","","","","","","","","","","","","","","","","","","","",""
"","","","","","html-keyboard-response","205","406588","0.0-22.0","afbc429c-ea6f-444e-b924-866a4df3f8d4","null","<p style=""text-align: center;"">+</p>","null","fixation","","","","","","","","","","","","","","","","","","","","",""
"","","","","","html-keyboard-response","206","407459","0.0-23.0","afbc429c-ea6f-444e-b924-866a4df3f8d4","null","<p>הפסקה.
          <br>לחצו כדי להמשיך.</p>","1","scan_wait","","","","","","","","","","","","","","","","","","","","",""
"","","","","","html-keyboard-response","207","408471","0.0-24.0","afbc429c-ea6f-444e-b924-866a4df3f8d4","null","<p style=""text-align: center;"">+</p>","null","fixation","","","","","","","","","","","","","","","","","","","","",""
"","","","","","html-slider-response","208","409475","0.0-25.0-0.0","afbc429c-ea6f-444e-b924-866a4df3f8d4","1000","
                  <p style=""text-align: center;"">₪43
                                                <br>75%</p>
                  <p id=""wtp"" style=""text-align:center; margin-top: 0px; margin-bottom: 0px; font-size: 40px"";>&ensp;</p>","-","viewing","0","18","11B,19B,24A,26A","","","","","","","","","","","","","","","","","",""
"","","","","","html-slider-response","209","411387","0.0-25.0-1.0","afbc429c-ea6f-444e-b924-866a4df3f8d4","1911","
                  <p style=""text-align: center;"">₪43
                                                <br>75%</p>
                  <p id=""wtp"" style=""text-align:center; margin-top: 0px; margin-bottom: 0px; font-size: 40px"";>מוכנים לשלם: <span id=""c_p_y""></span></p>","17","evaluation","8","18","11B,19B,24A,26A","75","43","17","","","","","","","","","","","","","","",""
"","","","","","html-keyboard-response","210","411931","0.0-25.0-2.0","afbc429c-ea6f-444e-b924-866a4df3f8d4","null","<p style=""text-align: center;"">+</p>","null","fixation","","","","","","","","","","","","","","","","","","","","",""
"","","","","","html-slider-response","211","412941","0.0-25.0-0.1","afbc429c-ea6f-444e-b924-866a4df3f8d4","1000","
                  <p style=""text-align: center;"">₪76
                                                <br>65%</p>
                  <p id=""wtp"" style=""text-align:center; margin-top: 0px; margin-bottom: 0px; font-size: 40px"";>&ensp;</p>","-","viewing","0","29","8C,19A,24B","","","","","","","","","","","","","","","","","",""
"","","","","","html-slider-response","212","414731","0.0-25.0-1.1","afbc429c-ea6f-444e-b924-866a4df3f8d4","1789","
                  <p style=""text-align: center;"">₪76
                                                <br>65%</p>
                  <p id=""wtp"" style=""text-align:center; margin-top: 0px; margin-bottom: 0px; font-size: 40px"";>מוכנים לשלם: <span id=""c_p_y""></span></p>","33","evaluation","22","29","8C,19A,24B","65","76","33","","","","","","","","","","","","","","",""
"","","","","","html-keyboard-response","213","415339","0.0-25.0-2.1","afbc429c-ea6f-444e-b924-866a4df3f8d4","null","<p style=""text-align: center;"">+</p>","null","fixation","","","","","","","","","","","","","","","","","","","","",""
"","","","","","html-slider-response","214","416342","0.0-25.0-0.2","afbc429c-ea6f-444e-b924-866a4df3f8d4","1000","
                  <p style=""text-align: center;"">₪64
                                                <br>25%</p>
                  <p id=""wtp"" style=""text-align:center; margin-top: 0px; margin-bottom: 0px; font-size: 40px"";>&ensp;</p>","-","viewing","0","24","6A,21A","","","","","","","","","","","","","","","","","",""
"","","","","","html-slider-response","215","419371","0.0-25.0-1.2","afbc429c-ea6f-444e-b924-866a4df3f8d4","3028","
                  <p style=""text-align: center;"">₪64
                                                <br>25%</p>
                  <p id=""wtp"" style=""text-align:center; margin-top: 0px; margin-bottom: 0px; font-size: 40px"";>מוכנים לשלם: <span id=""c_p_y""></span></p>","20","evaluation","0","24","6A,21A","25","64","20","","","","","","","","","","","","","","",""
"","","","","","html-keyboard-response","216","420750","0.0-25.0-2.2","afbc429c-ea6f-444e-b924-866a4df3f8d4","null","<p style=""text-align: center;"">+</p>","null","fixation","","","","","","","","","","","","","","","","","","","","",""
"","","","","","html-slider-response","217","421757","0.0-25.0-0.3","afbc429c-ea6f-444e-b924-866a4df3f8d4","1000","
                  <p style=""text-align: center;"">₪71
                                                <br>45%</p>
                  <p id=""wtp"" style=""text-align:center; margin-top: 0px; margin-bottom: 0px; font-size: 40px"";>&ensp;</p>","-","viewing","0","26","2B,16A","","","","","","","","","","","","","","","","","",""
"","","","","","html-slider-response","218","424587","0.0-25.0-1.3","afbc429c-ea6f-444e-b924-866a4df3f8d4","2829","
                  <p style=""text-align: center;"">₪71
                                                <br>45%</p>
                  <p id=""wtp"" style=""text-align:center; margin-top: 0px; margin-bottom: 0px; font-size: 40px"";>מוכנים לשלם: <span id=""c_p_y""></span></p>","31","evaluation","20","26","2B,16A","45","71","31","","","","","","","","","","","","","","",""
"","","","","","html-keyboard-response","219","425939","0.0-25.0-2.3","afbc429c-ea6f-444e-b924-866a4df3f8d4","null","<p style=""text-align: center;"">+</p>","null","fixation","","","","","","","","","","","","","","","","","","","","",""
"","","","","","html-slider-response","220","426942","0.0-25.0-0.4","afbc429c-ea6f-444e-b924-866a4df3f8d4","1000","
                  <p style=""text-align: center;"">₪11
                                                <br>75%</p>
                  <p id=""wtp"" style=""text-align:center; margin-top: 0px; margin-bottom: 0px; font-size: 40px"";>&ensp;</p>","-","viewing","0","7","6B,18B,22C,24C,29A","","","","","","","","","","","","","","","","","",""
"","","","","","html-slider-response","221","427627","0.0-25.0-1.4","afbc429c-ea6f-444e-b924-866a4df3f8d4","683","
                  <p style=""text-align: center;"">₪11
                                                <br>75%</p>
                  <p id=""wtp"" style=""text-align:center; margin-top: 0px; margin-bottom: 0px; font-size: 40px"";>מוכנים לשלם: <span id=""c_p_y""></span></p>","1","evaluation","53","7","6B,18B,22C,24C,29A","75","11","2","","","","","","","","","","","","","","",""
"","","","","","html-keyboard-response","222","428321","0.0-25.0-2.4","afbc429c-ea6f-444e-b924-866a4df3f8d4","null","<p style=""text-align: center;"">+</p>","null","fixation","","","","","","","","","","","","","","","","","","","","",""
"","","","","","html-slider-response","223","429323","0.0-25.0-0.5","afbc429c-ea6f-444e-b924-866a4df3f8d4","1000","
                  <p style=""text-align: center;"">₪61
                                                <br>45%</p>
                  <p id=""wtp"" style=""text-align:center; margin-top: 0px; margin-bottom: 0px; font-size: 40px"";>&ensp;</p>","-","viewing","0","22","10A,11A","","","","","","","","","","","","","","","","","",""
"","","","","","html-slider-response","224","431867","0.0-25.0-1.5","afbc429c-ea6f-444e-b924-866a4df3f8d4","2543","
                  <p style=""text-align: center;"">₪61
                                                <br>45%</p>
                  <p id=""wtp"" style=""text-align:center; margin-top: 0px; margin-bottom: 0px; font-size: 40px"";>מוכנים לשלם: <span id=""c_p_y""></span></p>","30","evaluation","79","22","10A,11A","45","61","30","","","","","","","","","","","","","","",""
"","","","","","html-keyboard-response","225","432561","0.0-25.0-2.5","afbc429c-ea6f-444e-b924-866a4df3f8d4","null","<p style=""text-align: center;"">+</p>","null","fixation","","","","","","","","","","","","","","","","","","","","",""
"","","","","","html-slider-response","226","433563","0.0-25.0-0.6","afbc429c-ea6f-444e-b924-866a4df3f8d4","1000","
                  <p style=""text-align: center;"">₪36
                                                <br>60%</p>
                  <p id=""wtp"" style=""text-align:center; margin-top: 0px; margin-bottom: 0px; font-size: 40px"";>&ensp;</p>","-","viewing","0","12","1C,7C,15C","","","","","","","","","","","","","","","","","",""
"","","","","","html-slider-response","227","435795","0.0-25.0-1.6","afbc429c-ea6f-444e-b924-866a4df3f8d4","2231","
                  <p style=""text-align: center;"">₪36
                                                <br>60%</p>
                  <p id=""wtp"" style=""text-align:center; margin-top: 0px; margin-bottom: 0px; font-size: 40px"";>מוכנים לשלם: <span id=""c_p_y""></span></p>","12","evaluation","67","12","1C,7C,15C","60","36","13","","","","","","","","","","","","","","",""
"","","","","","html-keyboard-response","228","436928","0.0-25.0-2.6","afbc429c-ea6f-444e-b924-866a4df3f8d4","null","<p style=""text-align: center;"">+</p>","null","fixation","","","","","","","","","","","","","","","","","","","","",""
"","","","","","html-slider-response","229","437944","0.0-25.0-0.7","afbc429c-ea6f-444e-b924-866a4df3f8d4","1000","
                  <p style=""text-align: center;"">₪58
                                                <br>45%</p>
                  <p id=""wtp"" style=""text-align:center; margin-top: 0px; margin-bottom: 0px; font-size: 40px"";>&ensp;</p>","-","viewing","0","21","11C,18C,25A","","","","","","","","","","","","","","","","","",""
"","","","","","html-slider-response","230","440339","0.0-25.0-1.7","afbc429c-ea6f-444e-b924-866a4df3f8d4","2394","
                  <p style=""text-align: center;"">₪58
                                                <br>45%</p>
                  <p id=""wtp"" style=""text-align:center; margin-top: 0px; margin-bottom: 0px; font-size: 40px"";>מוכנים לשלם: <span id=""c_p_y""></span></p>","17","evaluation","30","21","11C,18C,25A","45","58","17","","","","","","","","","","","","","","",""
"","","","","","html-keyboard-response","231","441456","0.0-25.0-2.7","afbc429c-ea6f-444e-b924-866a4df3f8d4","null","<p style=""text-align: center;"">+</p>","null","fixation","","","","","","","","","","","","","","","","","","","","",""
"","","","","","html-slider-response","232","442459","0.0-25.0-0.8","afbc429c-ea6f-444e-b924-866a4df3f8d4","1000","
                  <p style=""text-align: center;"">₪71
                                                <br>55%</p>
                  <p id=""wtp"" style=""text-align:center; margin-top: 0px; margin-bottom: 0px; font-size: 40px"";>&ensp;</p>","-","viewing","0","27","5B,18A","","","","","","","","","","","","","","","","","",""
"","","","","","html-slider-response","233","443779","0.0-25.0-1.8","afbc429c-ea6f-444e-b924-866a4df3f8d4","1319","
                  <p style=""text-align: center;"">₪71
                                                <br>55%</p>
                  <p id=""wtp"" style=""text-align:center; margin-top: 0px; margin-bottom: 0px; font-size: 40px"";>מוכנים לשלם: <span id=""c_p_y""></span></p>","20","evaluation","15","27","5B,18A","55","71","20","","","","","","","","","","","","","","",""
"","","","","","html-keyboard-response","234","444671","0.0-25.0-2.8","afbc429c-ea6f-444e-b924-866a4df3f8d4","null","<p style=""text-align: center;"">+</p>","null","fixation","","","","","","","","","","","","","","","","","","","","",""
"","","","","","html-slider-response","235","445687","0.0-25.0-0.9","afbc429c-ea6f-444e-b924-866a4df3f8d4","1000","
                  <p style=""text-align: center;"">₪43
                                                <br>60%</p>
                  <p id=""wtp"" style=""text-align:center; margin-top: 0px; margin-bottom: 0px; font-size: 40px"";>&ensp;</p>","-","viewing","0","17","2A,7A,9A,15B","","","","","","","","","","","","","","","","","",""
"","","","","","html-slider-response","236","447491","0.0-25.0-1.9","afbc429c-ea6f-444e-b924-866a4df3f8d4","1803","
                  <p style=""text-align: center;"">₪43
                                                <br>60%</p>
                  <p id=""wtp"" style=""text-align:center; margin-top: 0px; margin-bottom: 0px; font-size: 40px"";>מוכנים לשלם: <span id=""c_p_y""></span></p>","15","evaluation","3","17","2A,7A,9A,15B","60","43","15","","","","","","","","","","","","","","",""
"","","","","","html-keyboard-response","237","448616","0.0-25.0-2.9","afbc429c-ea6f-444e-b924-866a4df3f8d4","null","<p style=""text-align: center;"">+</p>","null","fixation","","","","","","","","","","","","","","","","","","","","",""
"","","","","","html-slider-response","238","449622","0.0-25.0-0.10","afbc429c-ea6f-444e-b924-866a4df3f8d4","1000","
                  <p style=""text-align: center;"">₪39
                                                <br>60%</p>
                  <p id=""wtp"" style=""text-align:center; margin-top: 0px; margin-bottom: 0px; font-size: 40px"";>&ensp;</p>","-","viewing","0","15","9C,25B","","","","","","","","","","","","","","","","","",""
"","","","","","html-slider-response","239","451003","0.0-25.0-1.10","afbc429c-ea6f-444e-b924-866a4df3f8d4","1380","
                  <p style=""text-align: center;"">₪39
                                                <br>60%</p>
                  <p id=""wtp"" style=""text-align:center; margin-top: 0px; margin-bottom: 0px; font-size: 40px"";>מוכנים לשלם: <span id=""c_p_y""></span></p>","13","evaluation","16","15","9C,25B","60","39","13","","","","","","","","","","","","","","",""
"","","","","","html-keyboard-response","240","452461","0.0-25.0-2.10","afbc429c-ea6f-444e-b924-866a4df3f8d4","null","<p style=""text-align: center;"">+</p>","null","fixation","","","","","","","","","","","","","","","","","","","","",""
"","","","","","html-slider-response","241","453478","0.0-25.0-0.11","afbc429c-ea6f-444e-b924-866a4df3f8d4","1000","
                  <p style=""text-align: center;"">₪36
                                                <br>70%</p>
                  <p id=""wtp"" style=""text-align:center; margin-top: 0px; margin-bottom: 0px; font-size: 40px"";>&ensp;</p>","-","viewing","0","13","3A,5C,10B","","","","","","","","","","","","","","","","","",""
"","","","","","html-slider-response","242","455659","0.0-25.0-1.11","afbc429c-ea6f-444e-b924-866a4df3f8d4","2180","
                  <p style=""text-align: center;"">₪36
                                                <br>70%</p>
                  <p id=""wtp"" style=""text-align:center; margin-top: 0px; margin-bottom: 0px; font-size: 40px"";>מוכנים לשלם: <span id=""c_p_y""></span></p>","17","evaluation","0","13","3A,5C,10B","70","36","17","","","","","","","","","","","","","","",""
"","","","","","html-keyboard-response","243","456512","0.0-25.0-2.11","afbc429c-ea6f-444e-b924-866a4df3f8d4","null","<p style=""text-align: center;"">+</p>","null","fixation","","","","","","","","","","","","","","","","","","","","",""
"","","","","","html-slider-response","244","457517","0.0-25.0-0.12","afbc429c-ea6f-444e-b924-866a4df3f8d4","1000","
                  <p style=""text-align: center;"">₪58
                                                <br>30%</p>
                  <p id=""wtp"" style=""text-align:center; margin-top: 0px; margin-bottom: 0px; font-size: 40px"";>&ensp;</p>","-","viewing","0","19","13C,30A","","","","","","","","","","","","","","","","","",""
"","","","","","html-slider-response","245","460499","0.0-25.0-1.12","afbc429c-ea6f-444e-b924-866a4df3f8d4","2981","
                  <p style=""text-align: center;"">₪58
                                                <br>30%</p>
                  <p id=""wtp"" style=""text-align:center; margin-top: 0px; margin-bottom: 0px; font-size: 40px"";>מוכנים לשלם: <span id=""c_p_y""></span></p>","8","evaluation","64","19","13C,30A","30","58","8","","","","","","","","","","","","","","",""
"","","","","","html-keyboard-response","246","461918","0.0-25.0-2.12","afbc429c-ea6f-444e-b924-866a4df3f8d4","null","<p style=""text-align: center;"">+</p>","null","fixation","","","","","","","","","","","","","","","","","","","","",""
"","","","","","html-slider-response","247","462933","0.0-25.0-0.13","afbc429c-ea6f-444e-b924-866a4df3f8d4","1000","
                  <p style=""text-align: center;"">₪79
                                                <br>40%</p>
                  <p id=""wtp"" style=""text-align:center; margin-top: 0px; margin-bottom: 0px; font-size: 40px"";>&ensp;</p>","-","viewing","0","30","9B","","","","","","","","","","","","","","","","","",""
"","","","","","html-slider-response","248","466948","0.0-25.0-1.13","afbc429c-ea6f-444e-b924-866a4df3f8d4","null","
                  <p style=""text-align: center;"">₪79
                                                <br>40%</p>
                  <p id=""wtp"" style=""text-align:center; margin-top: 0px; margin-bottom: 0px; font-size: 40px"";>מוכנים לשלם: <span id=""c_p_y""></span></p>","null","evaluation","36","30","9B","40","79","19","","","","","","","","","","","","","","",""
"","","","","","html-keyboard-response","249","468117","0.0-25.0-2.13","afbc429c-ea6f-444e-b924-866a4df3f8d4","null","<p style=""text-align: center;"">+</p>","null","fixation","","","","","","","","","","","","","","","","","","","","",""
"","","","","","html-slider-response","250","469119","0.0-25.0-0.14","afbc429c-ea6f-444e-b924-866a4df3f8d4","1000","
                  <p style=""text-align: center;"">₪4
                                                <br>25%</p>
                  <p id=""wtp"" style=""text-align:center; margin-top: 0px; margin-bottom: 0px; font-size: 40px"";>&ensp;</p>","-","viewing","0","1","6C,29B,30C","","","","","","","","","","","","","","","","","",""
"","","","","","html-slider-response","251","470243","0.0-25.0-1.14","afbc429c-ea6f-444e-b924-866a4df3f8d4","1122","
                  <p style=""text-align: center;"">₪4
                                                <br>25%</p>
                  <p id=""wtp"" style=""text-align:center; margin-top: 0px; margin-bottom: 0px; font-size: 40px"";>מוכנים לשלם: <span id=""c_p_y""></span></p>","1","evaluation","77","1","6C,29B,30C","25","4","1","","","","","","","","","","","","","","",""
"","","","","","html-keyboard-response","252","471168","0.0-25.0-2.14","afbc429c-ea6f-444e-b924-866a4df3f8d4","null","<p style=""text-align: center;"">+</p>","null","fixation","","","","","","","","","","","","","","","","","","","","",""
"","","","","","html-slider-response","253","472185","0.0-25.0-0.15","afbc429c-ea6f-444e-b924-866a4df3f8d4","1000","
