"success","timeout","failed_images","failed_audio","failed_video","trial_type","trial_index","time_elapsed","internal_node_id","subject_id","rt","stimulus","response","part","slider_start","ID","set_ID","prob","amount","last_location","actual_choice","actual_EV","binary_id","trinary_id","catch","A_key","D_key","choice_prob","choice_amount","chosen_part","potential_prize_prob","potential_prize_amount","won_prize","total_prize","prize_cost","remaining_budget","accuracy"
"true","false","[]","[]","[]","preload","0","72","0.0-0.0","9b7d72d7-d6e7-4718-8e0b-95ee0fd6cc3f","","","","","","","","","","","","","","","","","","","","","","","","","","",""
"","","","","","html-keyboard-response","1","525046","0.0-1.0","9b7d72d7-d6e7-4718-8e0b-95ee0fd6cc3f","null","
          <h1>שלום וברוכים הבאים!</h1>
          <p>לפניכם ניסוי בקבלת החלטות עם שני חלקים.
          <br><br>לחצו על העכבר כדי להמשיך.</p>","0","example","","","","","","","","","","","","","","","","","","","","","","",""
"","","","","","html-keyboard-response","2","1155050","0.0-2.0","9b7d72d7-d6e7-4718-8e0b-95ee0fd6cc3f","null","
        <h1>חלק 1</h1>
        <p>בקרוב יוצגו בפניכם הגרלות.
        <br>עליכם לבחור את המחיר המירבי שתהיו מוכנים לשלם כדי להשתתף בהגרלה שתוצג.
        <br>יש לכם תקציב של ₪80 לכל הגרלה. 
        <br>נסו להעריך כל הגרלה בנפרד ולחשוב כמה היא שווה עבורכם, ₪80 זמינים לכל הגרלה בנפרד.
        <br><br>לחצו על העכבר כדי להמשיך.</p>","1","instructions","","","","","","","","","","","","","","","","","","","","","","",""
"","","","","","html-keyboard-response","3","1156667","0.0-3.0","9b7d72d7-d6e7-4718-8e0b-95ee0fd6cc3f","null","
        <p>בסוף הניסוי, המחשב יבחר את אחת ההגרלות ויקבע מחיר לכרטיס עבורה. 
        <br>במידה והמחיר שבחרתם נמוך מהמחיר שנבחר על ידי המחשב, לא תשתתפו בהגרלה ותשארו עם מלוא התקציב.
        <br>במידה והמחיר שבחרתם גבוה מהמחיר שנבחר על ידי המחשב, תשלמו את המחיר שנקבע ותשתתפו בהגרלה.
        <br><br>לחצו על העכבר כדי להמשיך.</p>","1","instructions","","","","","","","","","","","","","","","","","","","","","","",""
"","","","","","html-slider-response","4","1165242","0.0-4.0","9b7d72d7-d6e7-4718-8e0b-95ee0fd6cc3f","8456","
        <p style=""font-size: 42px;"">נתחיל עם דוגמא: 
        <br>ההגרלה מטה מציעה 65% סיכוי לזכות ב-₪40 
        <br>&emsp;&emsp;&emsp;&emsp;&emsp;&emsp;&emsp;&emsp;&ensp;35% סיכוי לזכות ב-₪0.
        <br><br>מה המחיר המירבי שתהיו מוכנים לשלם על כרטיס להגרלה זו בין 0 ל-₪80?
        <br>הזיזו את העכבר על פני המלבן ולחצו כדי לבצע בחירה.</p>
        
        <p style=""text-align: center;"">₪40<br>65%</p>

        <p id=""wtp"" style=""text-align:center; margin-top: 0px; margin-bottom: 0px; font-size: 40px"";>מוכנים לשלם: <span id=""c_p_y""></span></p>","2","example","80","","","","","","","","","","","","","","","","","","","","","",""
"","","","","","html-keyboard-response","5","1171162","0.0-5.0","9b7d72d7-d6e7-4718-8e0b-95ee0fd6cc3f","null","<p>יפה מאוד!
                <br> בחרתם שתהיו מוכנים לשלם ₪2 כדי להשתתף בהגרלה:
                <br><p style=""text-align: center;"">₪40<br>65%</p>
                <p>נשמע נכון?
                <br>נניח שהגרלה זו נבחרה בסוף הניסוי.
                <br>כעת המחשב יקבע מחיר עבורה באקראי.
                <br>לחצו על העכבר להמשך.</p>","1","example","","","","","","","","","","","","","","","","","","","","","","",""
"","","","","","html-keyboard-response","6","1175258","0.0-6.0","9b7d72d7-d6e7-4718-8e0b-95ee0fd6cc3f","null","<p>המחשב קבע מחיר: ₪38
                <br>ואתם בחרתם לשלם לכל היותר: ₪2
                <br><br>מכיוון שהמחיר שבחרתם נמוך מהמחיר שנקבע, לא תתשתתפו בהגרלה.
                <br>במקרה כזה, בסוף הניסוי תקבלו את כל התקציב ההתחלתי של ₪80.
                <br><br>לחצו על העכבר להמשך.</p>","1","example","","","","","","","","","","","","","","","","","","","","","","",""
"","","","","","html-slider-response","7","1179674","0.0-7.0","9b7d72d7-d6e7-4718-8e0b-95ee0fd6cc3f","4164","<p style=""font-size: 42px;"">הנה עוד דוגמא:
                <br>ההגרלה מטה מציעה 35% סיכוי לזכות ב-₪18 
                <br>&emsp;&emsp;&emsp;&emsp;&emsp;&emsp;&emsp;&emsp;&ensp;65% סיכוי לזכות ב-₪0.</p>
        
                <p style=""text-align: center;"">₪18<br>35%</p>
                <p id=""wtp"" style=""text-align:center; margin-top: 0px; margin-bottom: 0px; font-size: 40px"";>מוכנים לשלם: <span id=""c_p_y""></span></p>","2","example","62","","","","","","","","","","","","","","","","","","","","","",""
"","","","","","html-keyboard-response","8","1189178","0.0-8.0","9b7d72d7-d6e7-4718-8e0b-95ee0fd6cc3f","null","<p>הייתם מוכנים לשלם  ₪2 כדי להשתתף בהגרלה:
                <p style=""text-align: center;"">₪18<br>35%</p>
                <p>כעת נניח שהמחשב בחר את ההגרלה הזו בסוף הניסוי, וקבע עבורה מחיר.
                <br><br>לחצו על העכבר כדי להמשיך.</p>","1","instructions","","","","","","","","","","","","","","","","","","","","","","",""
"","","","","","html-keyboard-response","9","1196298","0.0-9.0","9b7d72d7-d6e7-4718-8e0b-95ee0fd6cc3f","null","<p>המחשב קבע מחיר להגרלה: ₪1<br>ואתם בחרתם לשלם לכל היותר: ₪2
                <br><br>כעת המחיר שנקבע נמוך מזה שבחרתם, אז תשלמו את המחיר שקבע המחשב (₪1) ותשתתפו בהגרלה.
                <br>במקרה כזה, תסיימו את הניסוי עם תקציב של ₪79 ועם סיכוי לזכות ב-₪18 נוספים מההגרלה.
                <br>כלומר, תוכלו לקבל ₪79 אם לא תזכו בהגרלה, או ₪97 אם תזכו בהגרלה.
                <br><br>לחצו על העכבר להמשך.</p>","1","example","","","","","","","","","","","","","","","","","","","","","","",""
"","","","","","html-keyboard-response","10","1199428","0.0-10.0","9b7d72d7-d6e7-4718-8e0b-95ee0fd6cc3f","null","<p>במהלך הניסוי, קודם תראו את ההגרלה ורק לאחר מכן תוכלו לבחור.
                <p>כמו כן, יהיו לכם מספר שניות מוגבל להגיב.
                <p>בואו ננסה זאת עם ההגרלה הקודמת.
                <br>לחצו על העכבר כדי להמשיך.</p>","1","instructions","","","","","","","","","","","","","","","","","","","","","","",""
"","","","","","html-slider-response","11","1200699","0.0-11.0","9b7d72d7-d6e7-4718-8e0b-95ee0fd6cc3f","1000","
                    <p style=""text-align: center;"">₪18<br>35%</p>
                    <p id=""wtp"" style=""text-align:center; margin-top: 0px; margin-bottom: 0px; font-size: 40px"";>&ensp;</p>","43","instructions","0","","","","","","","","","","","","","","","","","","","","","",""
"","","","","","html-slider-response","12","1203204","0.0-12.0","9b7d72d7-d6e7-4718-8e0b-95ee0fd6cc3f","2252","
                    <p style=""text-align: center;"">₪18<br>35%</p>
                    <p id=""wtp"" style=""text-align:center; margin-top: 0px; margin-bottom: 0px; font-size: 40px"";>מוכנים לשלם: <span id=""c_p_y""></span></p>","1","instructions","34","","","","","","","","","","","","","","","","","","","","","",""
"","","","","","html-keyboard-response","13","1206372","0.0-13.0","9b7d72d7-d6e7-4718-8e0b-95ee0fd6cc3f","null","<p>יפה. הפעם בחרתם לשלם לכל היותר ₪1.
                <br><br>לחצו על העכבר כדי להמשיך.</p>","1","instructions","","","","","","","","","","","","","","","","","","","","","","",""
"","","","","","html-keyboard-response","14","1211980","0.0-15.0","9b7d72d7-d6e7-4718-8e0b-95ee0fd6cc3f","null","<p>כעת נתחיל את הניסוי.
                <br><br>אתם תראו הגרלות ותתבקשו לבחור כמה תהיו מוכנים לשלם כדי להשתתף בהן.
                <br>יש לכם תקציב של ₪80 עבור כל הגרלה.
                <br>בסוף הניסוי הגרלה אחת תבחר באקראי ותשוחק.
                <br><br>לחצו על העכבר כדי להתחיל את הניסוי.</p>","1","instructions","","","","","","","","","","","","","","","","","","","","","","",""
"","","","","","html-keyboard-response","15","1213236","0.0-16.0","9b7d72d7-d6e7-4718-8e0b-95ee0fd6cc3f","null","<p style=""text-align: center;"">+</p>","null","fixation","","","","","","","","","","","","","","","","","","","","","","",""
"","","","","","html-slider-response","16","1214248","0.0-17.0-0.0","9b7d72d7-d6e7-4718-8e0b-95ee0fd6cc3f","1000","
                  <p style=""text-align: center;"">₪64
                                                <br>50%</p>
                  <p id=""wtp"" style=""text-align:center; margin-top: 0px; margin-bottom: 0px; font-size: 40px"";>&ensp;</p>","-","viewing","0","25","1B,3B,4A","","","","","","","","","","","","","","","","","","","",""
"","","","","","html-slider-response","17","1215300","0.0-17.0-1.0","9b7d72d7-d6e7-4718-8e0b-95ee0fd6cc3f","1050","
                  <p style=""text-align: center;"">₪64
                                                <br>50%</p>
                  <p id=""wtp"" style=""text-align:center; margin-top: 0px; margin-bottom: 0px; font-size: 40px"";>מוכנים לשלם: <span id=""c_p_y""></span></p>","4","evaluation","41","25","1B,3B,4A","50","64","4","","","","","","","","","","","","","","","","",""
"","","","","","html-keyboard-response","18","1216535","0.0-17.0-2.0","9b7d72d7-d6e7-4718-8e0b-95ee0fd6cc3f","null","<p style=""text-align: center;"">+</p>","null","fixation","","","","","","","","","","","","","","","","","","","","","","",""
"","","","","","html-slider-response","19","1217550","0.0-17.0-0.1","9b7d72d7-d6e7-4718-8e0b-95ee0fd6cc3f","1000","
                  <p style=""text-align: center;"">₪71
                                                <br>55%</p>
                  <p id=""wtp"" style=""text-align:center; margin-top: 0px; margin-bottom: 0px; font-size: 40px"";>&ensp;</p>","-","viewing","0","27","5B,18A","","","","","","","","","","","","","","","","","","","",""
"","","","","","html-slider-response","20","1218908","0.0-17.0-1.1","9b7d72d7-d6e7-4718-8e0b-95ee0fd6cc3f","1357","
                  <p style=""text-align: center;"">₪71
                                                <br>55%</p>
                  <p id=""wtp"" style=""text-align:center; margin-top: 0px; margin-bottom: 0px; font-size: 40px"";>מוכנים לשלם: <span id=""c_p_y""></span></p>","8","evaluation","71","27","5B,18A","55","71","9","","","","","","","","","","","","","","","","",""
"","","","","","html-keyboard-response","21","1219842","0.0-17.0-2.1","9b7d72d7-d6e7-4718-8e0b-95ee0fd6cc3f","null","<p style=""text-align: center;"">+</p>","null","fixation","","","","","","","","","","","","","","","","","","","","","","",""
"","","","","","html-slider-response","22","1220852","0.0-17.0-0.2","9b7d72d7-d6e7-4718-8e0b-95ee0fd6cc3f","1000","
                  <p style=""text-align: center;"">₪39
                                                <br>65%</p>
                  <p id=""wtp"" style=""text-align:center; margin-top: 0px; margin-bottom: 0px; font-size: 40px"";>&ensp;</p>","-","viewing","0","16","1A,15A,26C","","","","","","","","","","","","","","","","","","","",""
"","","","","","html-slider-response","23","1221804","0.0-17.0-1.2","9b7d72d7-d6e7-4718-8e0b-95ee0fd6cc3f","950","
                  <p style=""text-align: center;"">₪39
                                                <br>65%</p>
                  <p id=""wtp"" style=""text-align:center; margin-top: 0px; margin-bottom: 0px; font-size: 40px"";>מוכנים לשלם: <span id=""c_p_y""></span></p>","5","evaluation","4","16","1A,15A,26C","65","39","6","","","","","","","","","","","","","","","","",""
"","","","","","html-keyboard-response","24","1222358","0.0-17.0-2.2","9b7d72d7-d6e7-4718-8e0b-95ee0fd6cc3f","null","<p style=""text-align: center;"">+</p>","null","fixation","","","","","","","","","","","","","","","","","","","","","","",""
"","","","","","html-slider-response","25","1223363","0.0-17.0-0.3","9b7d72d7-d6e7-4718-8e0b-95ee0fd6cc3f","1000","
                  <p style=""text-align: center;"">₪11
                                                <br>45%</p>
                  <p id=""wtp"" style=""text-align:center; margin-top: 0px; margin-bottom: 0px; font-size: 40px"";>&ensp;</p>","-","viewing","0","6","14B,21C,25C","","","","","","","","","","","","","","","","","","","",""
"","","","","","html-slider-response","26","1224564","0.0-17.0-1.3","9b7d72d7-d6e7-4718-8e0b-95ee0fd6cc3f","1200","
                  <p style=""text-align: center;"">₪11
                                                <br>45%</p>
                  <p id=""wtp"" style=""text-align:center; margin-top: 0px; margin-bottom: 0px; font-size: 40px"";>מוכנים לשלם: <span id=""c_p_y""></span></p>","4","evaluation","12","6","14B,21C,25C","45","11","4","","","","","","","","","","","","","","","","",""
"","","","","","html-keyboard-response","27","1225322","0.0-17.0-2.3","9b7d72d7-d6e7-4718-8e0b-95ee0fd6cc3f","null","<p style=""text-align: center;"">+</p>","null","fixation","","","","","","","","","","","","","","","","","","","","","","",""
"","","","","","html-slider-response","28","1226327","0.0-17.0-0.4","9b7d72d7-d6e7-4718-8e0b-95ee0fd6cc3f","1000","
                  <p style=""text-align: center;"">₪58
                                                <br>40%</p>
                  <p id=""wtp"" style=""text-align:center; margin-top: 0px; margin-bottom: 0px; font-size: 40px"";>&ensp;</p>","-","viewing","0","20","10C,13A,19C,21B","","","","","","","","","","","","","","","","","","","",""
"","","","","","html-slider-response","29","1229196","0.0-17.0-1.4","9b7d72d7-d6e7-4718-8e0b-95ee0fd6cc3f","2867","
                  <p style=""text-align: center;"">₪58
                                                <br>40%</p>
                  <p id=""wtp"" style=""text-align:center; margin-top: 0px; margin-bottom: 0px; font-size: 40px"";>מוכנים לשלם: <span id=""c_p_y""></span></p>","3","evaluation","6","20","10C,13A,19C,21B","40","58","3","","","","","","","","","","","","","","","","",""
"","","","","","html-keyboard-response","30","1230196","0.0-17.0-2.4","9b7d72d7-d6e7-4718-8e0b-95ee0fd6cc3f","null","<p style=""text-align: center;"">+</p>","null","fixation","","","","","","","","","","","","","","","","","","","","","","",""
"","","","","","html-slider-response","31","1231204","0.0-17.0-0.5","9b7d72d7-d6e7-4718-8e0b-95ee0fd6cc3f","1000","
                  <p style=""text-align: center;"">₪16
                                                <br>20%</p>
                  <p id=""wtp"" style=""text-align:center; margin-top: 0px; margin-bottom: 0px; font-size: 40px"";>&ensp;</p>","-","viewing","0","8","14C,17A,20C,27A","","","","","","","","","","","","","","","","","","","",""
"","","","","","html-slider-response","32","1232892","0.0-17.0-1.5","9b7d72d7-d6e7-4718-8e0b-95ee0fd6cc3f","1687","
                  <p style=""text-align: center;"">₪16
                                                <br>20%</p>
                  <p id=""wtp"" style=""text-align:center; margin-top: 0px; margin-bottom: 0px; font-size: 40px"";>מוכנים לשלם: <span id=""c_p_y""></span></p>","3","evaluation","52","8","14C,17A,20C,27A","20","16","3","","","","","","","","","","","","","","","","",""
"","","","","","html-keyboard-response","33","1234014","0.0-17.0-2.5","9b7d72d7-d6e7-4718-8e0b-95ee0fd6cc3f","null","<p style=""text-align: center;"">+</p>","null","fixation","","","","","","","","","","","","","","","","","","","","","","",""
"","","","","","html-slider-response","34","1235017","0.0-17.0-0.6","9b7d72d7-d6e7-4718-8e0b-95ee0fd6cc3f","1000","
                  <p style=""text-align: center;"">₪39
                                                <br>60%</p>
                  <p id=""wtp"" style=""text-align:center; margin-top: 0px; margin-bottom: 0px; font-size: 40px"";>&ensp;</p>","-","viewing","0","15","9C,25B","","","","","","","","","","","","","","","","","","","",""
"","","","","","html-slider-response","35","1237060","0.0-17.0-1.6","9b7d72d7-d6e7-4718-8e0b-95ee0fd6cc3f","2042","
                  <p style=""text-align: center;"">₪39
                                                <br>60%</p>
                  <p id=""wtp"" style=""text-align:center; margin-top: 0px; margin-bottom: 0px; font-size: 40px"";>מוכנים לשלם: <span id=""c_p_y""></span></p>","6","evaluation","23","15","9C,25B","60","39","6","","","","","","","","","","","","","","","","",""
"","","","","","html-keyboard-response","36","1238559","0.0-17.0-2.6","9b7d72d7-d6e7-4718-8e0b-95ee0fd6cc3f","null","<p style=""text-align: center;"">+</p>","null","fixation","","","","","","","","","","","","","","","","","","","","","","",""
"","","","","","html-slider-response","37","1239570","0.0-17.0-0.7","9b7d72d7-d6e7-4718-8e0b-95ee0fd6cc3f","1000","
                  <p style=""text-align: center;"">₪71
                                                <br>45%</p>
                  <p id=""wtp"" style=""text-align:center; margin-top: 0px; margin-bottom: 0px; font-size: 40px"";>&ensp;</p>","-","viewing","0","26","2B,16A","","","","","","","","","","","","","","","","","","","",""
"","","","","","html-slider-response","38","1241956","0.0-17.0-1.7","9b7d72d7-d6e7-4718-8e0b-95ee0fd6cc3f","2385","
                  <p style=""text-align: center;"">₪71
                                                <br>45%</p>
                  <p id=""wtp"" style=""text-align:center; margin-top: 0px; margin-bottom: 0px; font-size: 40px"";>מוכנים לשלם: <span id=""c_p_y""></span></p>","2","evaluation","46","26","2B,16A","45","71","2","","","","","","","","","","","","","","","","",""
"","","","","","html-keyboard-response","39","1243372","0.0-17.0-2.7","9b7d72d7-d6e7-4718-8e0b-95ee0fd6cc3f","null","<p style=""text-align: center;"">+</p>","null","fixation","","","","","","","","","","","","","","","","","","","","","","",""
"","","","","","html-slider-response","40","1244388","0.0-17.0-0.8","9b7d72d7-d6e7-4718-8e0b-95ee0fd6cc3f","1000","
                  <p style=""text-align: center;"">₪36
                                                <br>60%</p>
                  <p id=""wtp"" style=""text-align:center; margin-top: 0px; margin-bottom: 0px; font-size: 40px"";>&ensp;</p>","-","viewing","0","12","1C,7C,15C","","","","","","","","","","","","","","","","","","","",""
"","","","","","html-slider-response","41","1246836","0.0-17.0-1.8","9b7d72d7-d6e7-4718-8e0b-95ee0fd6cc3f","2446","
                  <p style=""text-align: center;"">₪36
                                                <br>60%</p>
                  <p id=""wtp"" style=""text-align:center; margin-top: 0px; margin-bottom: 0px; font-size: 40px"";>מוכנים לשלם: <span id=""c_p_y""></span></p>","2","evaluation","56","12","1C,7C,15C","60","36","3","","","","","","","","","","","","","","","","",""
"","","","","","html-keyboard-response","42","1247831","0.0-17.0-2.8","9b7d72d7-d6e7-4718-8e0b-95ee0fd6cc3f","null","<p style=""text-align: center;"">+</p>","null","fixation","","","","","","","","","","","","","","","","","","","","","","",""
"","","","","","html-slider-response","43","1248837","0.0-17.0-0.9","9b7d72d7-d6e7-4718-8e0b-95ee0fd6cc3f","1000","
                  <p style=""text-align: center;"">₪11
                                                <br>25%</p>
                  <p id=""wtp"" style=""text-align:center; margin-top: 0px; margin-bottom: 0px; font-size: 40px"";>&ensp;</p>","-","viewing","0","5","12A,27B,28B,30B","","","","","","","","","","","","","","","","","","","",""
"","","","","","html-slider-response","44","1250124","0.0-17.0-1.9","9b7d72d7-d6e7-4718-8e0b-95ee0fd6cc3f","1286","
                  <p style=""text-align: center;"">₪11
                                                <br>25%</p>
                  <p id=""wtp"" style=""text-align:center; margin-top: 0px; margin-bottom: 0px; font-size: 40px"";>מוכנים לשלם: <span id=""c_p_y""></span></p>","2","evaluation","17","5","12A,27B,28B,30B","25","11","3","","","","","","","","","","","","","","","","",""
"","","","","","html-keyboard-response","45","1250930","0.0-17.0-2.9","9b7d72d7-d6e7-4718-8e0b-95ee0fd6cc3f","null","<p style=""text-align: center;"">+</p>","null","fixation","","","","","","","","","","","","","","","","","","","","","","",""
"","","","","","html-slider-response","46","1251932","0.0-17.0-0.10","9b7d72d7-d6e7-4718-8e0b-95ee0fd6cc3f","1000","
                  <p style=""text-align: center;"">₪11
                                                <br>75%</p>
                  <p id=""wtp"" style=""text-align:center; margin-top: 0px; margin-bottom: 0px; font-size: 40px"";>&ensp;</p>","-","viewing","0","7","6B,18B,22C,24C,29A","","","","","","","","","","","","","","","","","","","",""
"","","","","","html-slider-response","47","1253180","0.0-17.0-1.10","9b7d72d7-d6e7-4718-8e0b-95ee0fd6cc3f","1246","
                  <p style=""text-align: center;"">₪11
                                                <br>75%</p>
                  <p id=""wtp"" style=""text-align:center; margin-top: 0px; margin-bottom: 0px; font-size: 40px"";>מוכנים לשלם: <span id=""c_p_y""></span></p>","4","evaluation","6","7","6B,18B,22C,24C,29A","75","11","4","","","","","","","","","","","","","","","","",""
"","","","","","html-keyboard-response","48","1253810","0.0-17.0-2.10","9b7d72d7-d6e7-4718-8e0b-95ee0fd6cc3f","null","<p style=""text-align: center;"">+</p>","null","fixation","","","","","","","","","","","","","","","","","","","","","","",""
"","","","","","html-slider-response","49","1254813","0.0-17.0-0.11","9b7d72d7-d6e7-4718-8e0b-95ee0fd6cc3f","1000","
                  <p style=""text-align: center;"">₪43
                                                <br>60%</p>
                  <p id=""wtp"" style=""text-align:center; margin-top: 0px; margin-bottom: 0px; font-size: 40px"";>&ensp;</p>","-","viewing","0","17","2A,7A,9A,15B","","","","","","","","","","","","","","","","","","","",""
"","","","","","html-slider-response","50","1256868","0.0-17.0-1.11","9b7d72d7-d6e7-4718-8e0b-95ee0fd6cc3f","2055","
                  <p style=""text-align: center;"">₪43
                                                <br>60%</p>
                  <p id=""wtp"" style=""text-align:center; margin-top: 0px; margin-bottom: 0px; font-size: 40px"";>מוכנים לשלם: <span id=""c_p_y""></span></p>","3","evaluation","23","17","2A,7A,9A,15B","60","43","4","","","","","","","","","","","","","","","","",""
"","","","","","html-keyboard-response","51","1257547","0.0-17.0-2.11","9b7d72d7-d6e7-4718-8e0b-95ee0fd6cc3f","null","<p style=""text-align: center;"">+</p>","null","fixation","","","","","","","","","","","","","","","","","","","","","","",""
"","","","","","html-slider-response","52","1258556","0.0-17.0-0.12","9b7d72d7-d6e7-4718-8e0b-95ee0fd6cc3f","1000","
                  <p style=""text-align: center;"">₪36
                                                <br>70%</p>
                  <p id=""wtp"" style=""text-align:center; margin-top: 0px; margin-bottom: 0px; font-size: 40px"";>&ensp;</p>","-","viewing","0","13","3A,5C,10B","","","","","","","","","","","","","","","","","","","",""
"","","","","","html-slider-response","53","1260102","0.0-17.0-1.12","9b7d72d7-d6e7-4718-8e0b-95ee0fd6cc3f","1558","
                  <p style=""text-align: center;"">₪36
                                                <br>70%</p>
                  <p id=""wtp"" style=""text-align:center; margin-top: 0px; margin-bottom: 0px; font-size: 40px"";>מוכנים לשלם: <span id=""c_p_y""></span></p>","3","evaluation","62","13","3A,5C,10B","70","36","3","","","","","","","","","","","","","","","","",""
"","","","","","html-keyboard-response","54","1260833","0.0-17.0-2.12","9b7d72d7-d6e7-4718-8e0b-95ee0fd6cc3f","null","<p style=""text-align: center;"">+</p>","null","fixation","","","","","","","","","","","","","","","","","","","","","","",""
"","","","","","html-slider-response","55","1261841","0.0-17.0-0.13","9b7d72d7-d6e7-4718-8e0b-95ee0fd6cc3f","1000","
                  <p style=""text-align: center;"">₪71
                                                <br>75%</p>
                  <p id=""wtp"" style=""text-align:center; margin-top: 0px; margin-bottom: 0px; font-size: 40px"";>&ensp;</p>","-","viewing","0","28","8B","","","","","","","","","","","","","","","","","","","",""
"","","","","","html-slider-response","56","1263830","0.0-17.0-1.13","9b7d72d7-d6e7-4718-8e0b-95ee0fd6cc3f","1987","
                  <p style=""text-align: center;"">₪71
                                                <br>75%</p>
                  <p id=""wtp"" style=""text-align:center; margin-top: 0px; margin-bottom: 0px; font-size: 40px"";>מוכנים לשלם: <span id=""c_p_y""></span></p>","6","evaluation","61","28","8B","75","71","7","","","","","","","","","","","","","","","","",""
"","","","","","html-keyboard-response","57","1265109","0.0-17.0-2.13","9b7d72d7-d6e7-4718-8e0b-95ee0fd6cc3f","null","<p style=""text-align: center;"">+</p>","null","fixation","","","","","","","","","","","","","","","","","","","","","","",""
"","","","","","html-slider-response","58","1266116","0.0-17.0-0.14","9b7d72d7-d6e7-4718-8e0b-95ee0fd6cc3f","1000","
                  <p style=""text-align: center;"">₪58
                                                <br>30%</p>
                  <p id=""wtp"" style=""text-align:center; margin-top: 0px; margin-bottom: 0px; font-size: 40px"";>&ensp;</p>","-","viewing","0","19","13C,30A","","","","","","","","","","","","","","","","","","","",""
"","","","","","html-slider-response","59","1267622","0.0-17.0-1.14","9b7d72d7-d6e7-4718-8e0b-95ee0fd6cc3f","1504","
                  <p style=""text-align: center;"">₪58
                                                <br>30%</p>
                  <p id=""wtp"" style=""text-align:center; margin-top: 0px; margin-bottom: 0px; font-size: 40px"";>מוכנים לשלם: <span id=""c_p_y""></span></p>","1","evaluation","20","19","13C,30A","30","58","2","","","","","","","","","","","","","","","","",""
"","","","","","html-keyboard-response","60","1268699","0.0-17.0-2.14","9b7d72d7-d6e7-4718-8e0b-95ee0fd6cc3f","null","<p style=""text-align: center;"">+</p>","null","fixation","","","","","","","","","","","","","","","","","","","","","","",""
"","","","","","html-slider-response","61","1269708","0.0-17.0-0.15","9b7d72d7-d6e7-4718-8e0b-95ee0fd6cc3f","1000","
                  <p style=""text-align: center;"">₪36
                                                <br>30%</p>
                  <p id=""wtp"" style=""text-align:center; margin-top: 0px; margin-bottom: 0px; font-size: 40px"";>&ensp;</p>","-","viewing","0","11","3C,20A,22A","","","","","","","","","","","","","","","","","","","",""
"","","","","","html-slider-response","62","1270758","0.0-17.0-1.15","9b7d72d7-d6e7-4718-8e0b-95ee0fd6cc3f","1048","
                  <p style=""text-align: center;"">₪36
                                                <br>30%</p>
                  <p id=""wtp"" style=""text-align:center; margin-top: 0px; margin-bottom: 0px; font-size: 40px"";>מוכנים לשלם: <span id=""c_p_y""></span></p>","3","evaluation","26","11","3C,20A,22A","30","36","3","","","","","","","","","","","","","","","","",""
"","","","","","html-keyboard-response","63","1271415","0.0-17.0-2.15","9b7d72d7-d6e7-4718-8e0b-95ee0fd6cc3f","null","<p style=""text-align: center;"">+</p>","null","fixation","","","","","","","","","","","","","","","","","","","","","","",""
"","","","","","html-slider-response","64","1272422","0.0-17.0-0.16","9b7d72d7-d6e7-4718-8e0b-95ee0fd6cc3f","1000","
                  <p style=""text-align: center;"">₪43
                                                <br>75%</p>
                  <p id=""wtp"" style=""text-align:center; margin-top: 0px; margin-bottom: 0px; font-size: 40px"";>&ensp;</p>","-","viewing","0","18","11B,19B,24A,26A","","","","","","","","","","","","","","","","","","","",""
"","","","","","html-slider-response","65","1272926","0.0-17.0-1.16","9b7d72d7-d6e7-4718-8e0b-95ee0fd6cc3f","504","
                  <p style=""text-align: center;"">₪43
                                                <br>75%</p>
                  <p id=""wtp"" style=""text-align:center; margin-top: 0px; margin-bottom: 0px; font-size: 40px"";>מוכנים לשלם: <span id=""c_p_y""></span></p>","11","evaluation","1","18","11B,19B,24A,26A","75","43","12","","","","","","","","","","","","","","","","",""
"","","","","","html-keyboard-response","66","1274338","0.0-17.0-2.16","9b7d72d7-d6e7-4718-8e0b-95ee0fd6cc3f","null","<p style=""text-align: center;"">+</p>","null","fixation","","","","","","","","","","","","","","","","","","","","","","",""
"","","","","","html-slider-response","67","1275350","0.0-17.0-0.17","9b7d72d7-d6e7-4718-8e0b-95ee0fd6cc3f","1000","
                  <p style=""text-align: center;"">₪18
                                                <br>50%</p>
                  <p id=""wtp"" style=""text-align:center; margin-top: 0px; margin-bottom: 0px; font-size: 40px"";>&ensp;</p>","-","viewing","0","10","2C,16C,22B,28A","","","","","","","","","","","","","","","","","","","",""
"","","","","","html-slider-response","68","1277406","0.0-17.0-1.17","9b7d72d7-d6e7-4718-8e0b-95ee0fd6cc3f","2054","
                  <p style=""text-align: center;"">₪18
                                                <br>50%</p>
                  <p id=""wtp"" style=""text-align:center; margin-top: 0px; margin-bottom: 0px; font-size: 40px"";>מוכנים לשלם: <span id=""c_p_y""></span></p>","0","evaluation","13","10","2C,16C,22B,28A","50","18","1","","","","","","","","","","","","","","","","",""
"","","","","","html-keyboard-response","69","1278887","0.0-17.0-2.17","9b7d72d7-d6e7-4718-8e0b-95ee0fd6cc3f","null","<p style=""text-align: center;"">+</p>","null","fixation","","","","","","","","","","","","","","","","","","","","","","",""
"","","","","","html-slider-response","70","1279899","0.0-17.0-0.18","9b7d72d7-d6e7-4718-8e0b-95ee0fd6cc3f","1000","
                  <p style=""text-align: center;"">₪79
                                                <br>40%</p>
                  <p id=""wtp"" style=""text-align:center; margin-top: 0px; margin-bottom: 0px; font-size: 40px"";>&ensp;</p>","-","viewing","0","30","9B","","","","","","","","","","","","","","","","","","","",""
"","","","","","html-slider-response","71","1281494","0.0-17.0-1.18","9b7d72d7-d6e7-4718-8e0b-95ee0fd6cc3f","1594","
                  <p style=""text-align: center;"">₪79
                                                <br>40%</p>
                  <p id=""wtp"" style=""text-align:center; margin-top: 0px; margin-bottom: 0px; font-size: 40px"";>מוכנים לשלם: <span id=""c_p_y""></span></p>","4","evaluation","58","30","9B","40","79","4","","","","","","","","","","","","","","","","",""
"","","","","","html-keyboard-response","72","1282882","0.0-17.0-2.18","9b7d72d7-d6e7-4718-8e0b-95ee0fd6cc3f","null","<p style=""text-align: center;"">+</p>","null","fixation","","","","","","","","","","","","","","","","","","","","","","",""
"","","","","","html-slider-response","73","1283889","0.0-17.0-0.19","9b7d72d7-d6e7-4718-8e0b-95ee0fd6cc3f","1000","
                  <p style=""text-align: center;"">₪18
                                                <br>25%</p>
                  <p id=""wtp"" style=""text-align:center; margin-top: 0px; margin-bottom: 0px; font-size: 40px"";>&ensp;</p>","-","viewing","0","9","14A,23A","","","","","","","","","","","","","","","","","","","",""
"","","","","","html-slider-response","74","1285454","0.0-17.0-1.19","9b7d72d7-d6e7-4718-8e0b-95ee0fd6cc3f","1563","
                  <p style=""text-align: center;"">₪18
                                                <br>25%</p>
                  <p id=""wtp"" style=""text-align:center; margin-top: 0px; margin-bottom: 0px; font-size: 40px"";>מוכנים לשלם: <span id=""c_p_y""></span></p>","0","evaluation","51","9","14A,23A","25","18","0","","","","","","","","","","","","","","","","",""
"","","","","","html-keyboard-response","75","1286526","0.0-17.0-2.19","9b7d72d7-d6e7-4718-8e0b-95ee0fd6cc3f","null","<p style=""text-align: center;"">+</p>","null","fixation","","","","","","","","","","","","","","","","","","","","","","",""
"","","","","","html-slider-response","76","1287534","0.0-17.0-0.20","9b7d72d7-d6e7-4718-8e0b-95ee0fd6cc3f","1000","
                  <p style=""text-align: center;"">₪79
                                                <br>65%</p>
                  <p id=""wtp"" style=""text-align:center; margin-top: 0px; margin-bottom: 0px; font-size: 40px"";>&ensp;</p>","-","viewing","0","31","8A","","","","","","","","","","","","","","","","","","","",""
"","","","","","html-slider-response","77","1289630","0.0-17.0-1.20","9b7d72d7-d6e7-4718-8e0b-95ee0fd6cc3f","2096","
                  <p style=""text-align: center;"">₪79
                                                <br>65%</p>
                  <p id=""wtp"" style=""text-align:center; margin-top: 0px; margin-bottom: 0px; font-size: 40px"";>מוכנים לשלם: <span id=""c_p_y""></span></p>","8","evaluation","54","31","8A","65","79","9","","","","","","","","","","","","","","","","",""
"","","","","","html-keyboard-response","78","1290633","0.0-17.0-2.20","9b7d72d7-d6e7-4718-8e0b-95ee0fd6cc3f","null","<p style=""text-align: center;"">+</p>","null","fixation","","","","","","","","","","","","","","","","","","","","","","",""
"","","","","","html-slider-response","79","1291638","0.0-17.0-0.21","9b7d72d7-d6e7-4718-8e0b-95ee0fd6cc3f","1000","
                  <p style=""text-align: center;"">₪61
                                                <br>45%</p>
                  <p id=""wtp"" style=""text-align:center; margin-top: 0px; margin-bottom: 0px; font-size: 40px"";>&ensp;</p>","-","viewing","0","22","10A,11A","","","","","","","","","","","","","","","","","","","",""
"","","","","","html-slider-response","80","1293894","0.0-17.0-1.21","9b7d72d7-d6e7-4718-8e0b-95ee0fd6cc3f","2254","
                  <p style=""text-align: center;"">₪61
                                                <br>45%</p>
                  <p id=""wtp"" style=""text-align:center; margin-top: 0px; margin-bottom: 0px; font-size: 40px"";>מוכנים לשלם: <span id=""c_p_y""></span></p>","3","evaluation","41","22","10A,11A","45","61","4","","","","","","","","","","","","","","","","",""
"","","","","","html-keyboard-response","81","1295025","0.0-17.0-2.21","9b7d72d7-d6e7-4718-8e0b-95ee0fd6cc3f","null","<p style=""text-align: center;"">+</p>","null","fixation","","","","","","","","","","","","","","","","","","","","","","",""
"","","","","","html-slider-response","82","1296028","0.0-17.0-0.22","9b7d72d7-d6e7-4718-8e0b-95ee0fd6cc3f","1000","
                  <p style=""text-align: center;"">₪4
                                                <br>25%</p>
                  <p id=""wtp"" style=""text-align:center; margin-top: 0px; margin-bottom: 0px; font-size: 40px"";>&ensp;</p>","-","viewing","0","1","6C,29B,30C","","","","","","","","","","","","","","","","","","","",""
"","","","","","html-slider-response","83","1296958","0.0-17.0-1.22","9b7d72d7-d6e7-4718-8e0b-95ee0fd6cc3f","929","
                  <p style=""text-align: center;"">₪4
                                                <br>25%</p>
                  <p id=""wtp"" style=""text-align:center; margin-top: 0px; margin-bottom: 0px; font-size: 40px"";>מוכנים לשלם: <span id=""c_p_y""></span></p>","0","evaluation","43","1","6C,29B,30C","25","4","0","","","","","","","","","","","","","","","","",""
"","","","","","html-keyboard-response","84","1297744","0.0-17.0-2.22","9b7d72d7-d6e7-4718-8e0b-95ee0fd6cc3f","null","<p style=""text-align: center;"">+</p>","null","fixation","","","","","","","","","","","","","","","","","","","","","","",""
"","","","","","html-slider-response","85","1298746","0.0-17.0-0.23","9b7d72d7-d6e7-4718-8e0b-95ee0fd6cc3f","1000","
                  <p style=""text-align: center;"">₪4
                                                <br>75%</p>
                  <p id=""wtp"" style=""text-align:center; margin-top: 0px; margin-bottom: 0px; font-size: 40px"";>&ensp;</p>","-","viewing","0","3","12B,20B,23B,27C,29C","","","","","","","","","","","","","","","","","","","",""
"","","","","","html-slider-response","86","1299350","0.0-17.0-1.23","9b7d72d7-d6e7-4718-8e0b-95ee0fd6cc3f","602","
                  <p style=""text-align: center;"">₪4
                                                <br>75%</p>
                  <p id=""wtp"" style=""text-align:center; margin-top: 0px; margin-bottom: 0px; font-size: 40px"";>מוכנים לשלם: <span id=""c_p_y""></span></p>","0","evaluation","70","3","12B,20B,23B,27C,29C","75","4","0","","","","","","","","","","","","","","","","",""
"","","","","","html-keyboard-response","87","1300383","0.0-17.0-2.23","9b7d72d7-d6e7-4718-8e0b-95ee0fd6cc3f","null","<p style=""text-align: center;"">+</p>","null","fixation","","","","","","","","","","","","","","","","","","","","","","",""
"","","","","","html-slider-response","88","1301385","0.0-17.0-0.24","9b7d72d7-d6e7-4718-8e0b-95ee0fd6cc3f","1000","
                  <p style=""text-align: center;"">₪4
                                                <br>50%</p>
                  <p id=""wtp"" style=""text-align:center; margin-top: 0px; margin-bottom: 0px; font-size: 40px"";>&ensp;</p>","-","viewing","0","2","4C,17B","","","","","","","","","","","","","","","","","","","",""
"","","","","","html-slider-response","89","1301894","0.0-17.0-1.24","9b7d72d7-d6e7-4718-8e0b-95ee0fd6cc3f","507","
                  <p style=""text-align: center;"">₪4
                                                <br>50%</p>
                  <p id=""wtp"" style=""text-align:center; margin-top: 0px; margin-bottom: 0px; font-size: 40px"";>מוכנים לשלם: <span id=""c_p_y""></span></p>","0","evaluation","14","2","4C,17B","50","4","0","","","","","","","","","","","","","","","","",""
"","","","","","html-keyboard-response","90","1303361","0.0-17.0-2.24","9b7d72d7-d6e7-4718-8e0b-95ee0fd6cc3f","null","<p style=""text-align: center;"">+</p>","null","fixation","","","","","","","","","","","","","","","","","","","","","","",""
"","","","","","html-slider-response","91","1304362","0.0-17.0-0.25","9b7d72d7-d6e7-4718-8e0b-95ee0fd6cc3f","1000","
                  <p style=""text-align: center;"">₪64
                                                <br>25%</p>
                  <p id=""wtp"" style=""text-align:center; margin-top: 0px; margin-bottom: 0px; font-size: 40px"";>&ensp;</p>","-","viewing","0","24","6A,21A","","","","","","","","","","","","","","","","","","","",""
"","","","","","html-slider-response","92","1306078","0.0-17.0-1.25","9b7d72d7-d6e7-4718-8e0b-95ee0fd6cc3f","1714","
                  <p style=""text-align: center;"">₪64
                                                <br>25%</p>
                  <p id=""wtp"" style=""text-align:center; margin-top: 0px; margin-bottom: 0px; font-size: 40px"";>מוכנים לשלם: <span id=""c_p_y""></span></p>","3","evaluation","36","24","6A,21A","25","64","3","","","","","","","","","","","","","","","","",""
"","","","","","html-keyboard-response","93","1306697","0.0-17.0-2.25","9b7d72d7-d6e7-4718-8e0b-95ee0fd6cc3f","null","<p style=""text-align: center;"">+</p>","null","fixation","","","","","","","","","","","","","","","","","","","","","","",""
"","","","","","html-slider-response","94","1307708","0.0-17.0-0.26","9b7d72d7-d6e7-4718-8e0b-95ee0fd6cc3f","1000","
                  <p style=""text-align: center;"">₪61
                                                <br>55%</p>
                  <p id=""wtp"" style=""text-align:center; margin-top: 0px; margin-bottom: 0px; font-size: 40px"";>&ensp;</p>","-","viewing","0","23","7B,26B","","","","","","","","","","","","","","","","","","","",""
"","","","","","html-slider-response","95","1309174","0.0-17.0-1.26","9b7d72d7-d6e7-4718-8e0b-95ee0fd6cc3f","1465","
                  <p style=""text-align: center;"">₪61
                                                <br>55%</p>
                  <p id=""wtp"" style=""text-align:center; margin-top: 0px; margin-bottom: 0px; font-size: 40px"";>מוכנים לשלם: <span id=""c_p_y""></span></p>","6","evaluation","34","23","7B,26B","55","61","6","","","","","","","","","","","","","","","","",""
"","","","","","html-keyboard-response","96","1309926","0.0-17.0-2.26","9b7d72d7-d6e7-4718-8e0b-95ee0fd6cc3f","null","<p style=""text-align: center;"">+</p>","null","fixation","","","","","","","","","","","","","","","","","","","","","","",""
"","","","","","html-slider-response","97","1310928","0.0-17.0-0.27","9b7d72d7-d6e7-4718-8e0b-95ee0fd6cc3f","1000","
                  <p style=""text-align: center;"">₪58
                                                <br>45%</p>
                  <p id=""wtp"" style=""text-align:center; margin-top: 0px; margin-bottom: 0px; font-size: 40px"";>&ensp;</p>","-","viewing","0","21","11C,18C,25A","","","","","","","","","","","","","","","","","","","",""
"","","","","","html-slider-response","98","1312366","0.0-17.0-1.27","9b7d72d7-d6e7-4718-8e0b-95ee0fd6cc3f","1437","
                  <p style=""text-align: center;"">₪58
                                                <br>45%</p>
                  <p id=""wtp"" style=""text-align:center; margin-top: 0px; margin-bottom: 0px; font-size: 40px"";>מוכנים לשלם: <span id=""c_p_y""></span></p>","2","evaluation","26","21","11C,18C,25A","45","58","2","","","","","","","","","","","","","","","","",""
"","","","","","html-keyboard-response","99","1313660","0.0-17.0-2.27","9b7d72d7-d6e7-4718-8e0b-95ee0fd6cc3f","null","<p style=""text-align: center;"">+</p>","null","fixation","","","","","","","","","","","","","","","","","","","","","","",""
"","","","","","html-slider-response","100","1314666","0.0-17.0-0.28","9b7d72d7-d6e7-4718-8e0b-95ee0fd6cc3f","1000","
                  <p style=""text-align: center;"">₪76
                                                <br>65%</p>
                  <p id=""wtp"" style=""text-align:center; margin-top: 0px; margin-bottom: 0px; font-size: 40px"";>&ensp;</p>","-","viewing","0","29","8C,19A,24B","","","","","","","","","","","","","","","","","","","",""
"","","","","","html-slider-response","101","1315766","0.0-17.0-1.28","9b7d72d7-d6e7-4718-8e0b-95ee0fd6cc3f","1098","
                  <p style=""text-align: center;"">₪76
                                                <br>65%</p>
                  <p id=""wtp"" style=""text-align:center; margin-top: 0px; margin-bottom: 0px; font-size: 40px"";>מוכנים לשלם: <span id=""c_p_y""></span></p>","9","evaluation","54","29","8C,19A,24B","65","76","9","","","","","","","","","","","","","","","","",""
"","","","","","html-keyboard-response","102","1316551","0.0-17.0-2.28","9b7d72d7-d6e7-4718-8e0b-95ee0fd6cc3f","null","<p style=""text-align: center;"">+</p>","null","fixation","","","","","","","","","","","","","","","","","","","","","","",""
"","","","","","html-slider-response","103","1317559","0.0-17.0-0.29","9b7d72d7-d6e7-4718-8e0b-95ee0fd6cc3f","1000","
                  <p style=""text-align: center;"">₪11
                                                <br>20%</p>
                  <p id=""wtp"" style=""text-align:center; margin-top: 0px; margin-bottom: 0px; font-size: 40px"";>&ensp;</p>","-","viewing","0","4","12C,17C,23C,28C","","","","","","","","","","","","","","","","","","","",""
"","","","","","html-slider-response","104","1321153","0.0-17.0-1.29","9b7d72d7-d6e7-4718-8e0b-95ee0fd6cc3f","3606","
                  <p style=""text-align: center;"">₪11
                                                <br>20%</p>
                  <p id=""wtp"" style=""text-align:center; margin-top: 0px; margin-bottom: 0px; font-size: 40px"";>מוכנים לשלם: <span id=""c_p_y""></span></p>","0","evaluation","57","4","12C,17C,23C,28C","20","11","0","","","","","","","","","","","","","","","","",""
"","","","","","html-keyboard-response","105","1322043","0.0-17.0-2.29","9b7d72d7-d6e7-4718-8e0b-95ee0fd6cc3f","null","<p style=""text-align: center;"">+</p>","null","fixation","","","","","","","","","","","","","","","","","","","","","","",""
"","","","","","html-slider-response","106","1323046","0.0-17.0-0.30","9b7d72d7-d6e7-4718-8e0b-95ee0fd6cc3f","1000","
                  <p style=""text-align: center;"">₪36
                                                <br>75%</p>
                  <p id=""wtp"" style=""text-align:center; margin-top: 0px; margin-bottom: 0px; font-size: 40px"";>&ensp;</p>","-","viewing","0","14","4B,5A,13B,16B","","","","","","","","","","","","","","","","","","","",""
"","","","","","html-slider-response","107","1324265","0.0-17.0-1.30","9b7d72d7-d6e7-4718-8e0b-95ee0fd6cc3f","1218","
                  <p style=""text-align: center;"">₪36
                                                <br>75%</p>
                  <p id=""wtp"" style=""text-align:center; margin-top: 0px; margin-bottom: 0px; font-size: 40px"";>מוכנים לשלם: <span id=""c_p_y""></span></p>","2","evaluation","32","14","4B,5A,13B,16B","75","36","3","","","","","","","","","","","","","","","","",""
"","","","","","html-keyboard-response","108","1324997","0.0-17.0-2.30","9b7d72d7-d6e7-4718-8e0b-95ee0fd6cc3f","null","<p style=""text-align: center;"">+</p>","null","fixation","","","","","","","","","","","","","","","","","","","","","","",""
"","","","","","html-keyboard-response","109","1326008","0.0-18.0","9b7d72d7-d6e7-4718-8e0b-95ee0fd6cc3f","null","<p style=""text-align: center;"">+</p>","null","fixation","","","","","","","","","","","","","","","","","","","","","","",""
"","","","","","html-keyboard-response","110","1327473","0.0-19.0","9b7d72d7-d6e7-4718-8e0b-95ee0fd6cc3f","null","<p>הפסקה.
          <br>לחצו כדי להמשיך.</p>","1","scan_wait","","","","","","","","","","","","","","","","","","","","","","",""
"","","","","","html-keyboard-response","111","1328488","0.0-20.0","9b7d72d7-d6e7-4718-8e0b-95ee0fd6cc3f","null","<p style=""text-align: center;"">+</p>","null","fixation","","","","","","","","","","","","","","","","","","","","","","",""
"","","","","","html-slider-response","112","1329490","0.0-21.0-0.0","9b7d72d7-d6e7-4718-8e0b-95ee0fd6cc3f","1000","
                  <p style=""text-align: center;"">₪18
                                                <br>50%</p>
                  <p id=""wtp"" style=""text-align:center; margin-top: 0px; margin-bottom: 0px; font-size: 40px"";>&ensp;</p>","-","viewing","0","10","2C,16C,22B,28A","","","","","","","","","","","","","","","","","","","",""
"","","","","","html-slider-response","113","1330609","0.0-21.0-1.0","9b7d72d7-d6e7-4718-8e0b-95ee0fd6cc3f","1118","
                  <p style=""text-align: center;"">₪18
                                                <br>50%</p>
                  <p id=""wtp"" style=""text-align:center; margin-top: 0px; margin-bottom: 0px; font-size: 40px"";>מוכנים לשלם: <span id=""c_p_y""></span></p>","2","evaluation","77","10","2C,16C,22B,28A","50","18","2","","","","","","","","","","","","","","","","",""
"","","","","","html-keyboard-response","114","1331137","0.0-21.0-2.0","9b7d72d7-d6e7-4718-8e0b-95ee0fd6cc3f","null","<p style=""text-align: center;"">+</p>","null","fixation","","","","","","","","","","","","","","","","","","","","","","",""
"","","","","","html-slider-response","115","1332139","0.0-21.0-0.1","9b7d72d7-d6e7-4718-8e0b-95ee0fd6cc3f","1000","
                  <p style=""text-align: center;"">₪58
                                                <br>45%</p>
                  <p id=""wtp"" style=""text-align:center; margin-top: 0px; margin-bottom: 0px; font-size: 40px"";>&ensp;</p>","-","viewing","0","21","11C,18C,25A","","","","","","","","","","","","","","","","","","","",""
"","","","","","html-slider-response","116","1334345","0.0-21.0-1.1","9b7d72d7-d6e7-4718-8e0b-95ee0fd6cc3f","2204","
                  <p style=""text-align: center;"">₪58
                                                <br>45%</p>
                  <p id=""wtp"" style=""text-align:center; margin-top: 0px; margin-bottom: 0px; font-size: 40px"";>מוכנים לשלם: <span id=""c_p_y""></span></p>","1","evaluation","75","21","11C,18C,25A","45","58","1","","","","","","","","","","","","","","","","",""
"","","","","","html-keyboard-response","117","1335729","0.0-21.0-2.1","9b7d72d7-d6e7-4718-8e0b-95ee0fd6cc3f","null","<p style=""text-align: center;"">+</p>","null","fixation","","","","","","","","","","","","","","","","","","","","","","",""
"","","","","","html-slider-response","118","1336738","0.0-21.0-0.2","9b7d72d7-d6e7-4718-8e0b-95ee0fd6cc3f","1000","
                  <p style=""text-align: center;"">₪79
                                                <br>40%</p>
                  <p id=""wtp"" style=""text-align:center; margin-top: 0px; margin-bottom: 0px; font-size: 40px"";>&ensp;</p>","-","viewing","0","30","9B","","","","","","","","","","","","","","","","","","","",""
"","","","","","html-slider-response","119","1338193","0.0-21.0-1.2","9b7d72d7-d6e7-4718-8e0b-95ee0fd6cc3f","1454","
                  <p style=""text-align: center;"">₪79
                                                <br>40%</p>
                  <p id=""wtp"" style=""text-align:center; margin-top: 0px; margin-bottom: 0px; font-size: 40px"";>מוכנים לשלם: <span id=""c_p_y""></span></p>","5","evaluation","58","30","9B","40","79","5","","","","","","","","","","","","","","","","",""
"","","","","","html-keyboard-response","120","1339615","0.0-21.0-2.2","9b7d72d7-d6e7-4718-8e0b-95ee0fd6cc3f","null","<p style=""text-align: center;"">+</p>","null","fixation","","","","","","","","","","","","","","","","","","","","","","",""
"","","","","","html-slider-response","121","1340621","0.0-21.0-0.3","9b7d72d7-d6e7-4718-8e0b-95ee0fd6cc3f","1000","
                  <p style=""text-align: center;"">₪11
                                                <br>20%</p>
                  <p id=""wtp"" style=""text-align:center; margin-top: 0px; margin-bottom: 0px; font-size: 40px"";>&ensp;</p>","-","viewing","0","4","12C,17C,23C,28C","","","","","","","","","","","","","","","","","","","",""
"","","","","","html-slider-response","122","1342280","0.0-21.0-1.3","9b7d72d7-d6e7-4718-8e0b-95ee0fd6cc3f","1658","
                  <p style=""text-align: center;"">₪11
                                                <br>20%</p>
                  <p id=""wtp"" style=""text-align:center; margin-top: 0px; margin-bottom: 0px; font-size: 40px"";>מוכנים לשלם: <span id=""c_p_y""></span></p>","0","evaluation","72","4","12C,17C,23C,28C","20","11","0","","","","","","","","","","","","","","","","",""
"","","","","","html-keyboard-response","123","1343215","0.0-21.0-2.3","9b7d72d7-d6e7-4718-8e0b-95ee0fd6cc3f","null","<p style=""text-align: center;"">+</p>","null","fixation","","","","","","","","","","","","","","","","","","","","","","",""
"","","","","","html-slider-response","124","1344222","0.0-21.0-0.4","9b7d72d7-d6e7-4718-8e0b-95ee0fd6cc3f","1000","
                  <p style=""text-align: center;"">₪71
                                                <br>75%</p>
                  <p id=""wtp"" style=""text-align:center; margin-top: 0px; margin-bottom: 0px; font-size: 40px"";>&ensp;</p>","-","viewing","0","28","8B","","","","","","","","","","","","","","","","","","","",""
"","","","","","html-slider-response","125","1345800","0.0-21.0-1.4","9b7d72d7-d6e7-4718-8e0b-95ee0fd6cc3f","1577","
                  <p style=""text-align: center;"">₪71
                                                <br>75%</p>
                  <p id=""wtp"" style=""text-align:center; margin-top: 0px; margin-bottom: 0px; font-size: 40px"";>מוכנים לשלם: <span id=""c_p_y""></span></p>","8","evaluation","22","28","8B","75","71","8","","","","","","","","","","","","","","","","",""
"","","","","","html-keyboard-response","126","1346683","0.0-21.0-2.4","9b7d72d7-d6e7-4718-8e0b-95ee0fd6cc3f","null","<p style=""text-align: center;"">+</p>","null","fixation","","","","","","","","","","","","","","","","","","","","","","",""
"","","","","","html-slider-response","127","1347692","0.0-21.0-0.5","9b7d72d7-d6e7-4718-8e0b-95ee0fd6cc3f","1000","
                  <p style=""text-align: center;"">₪4
                                                <br>50%</p>
                  <p id=""wtp"" style=""text-align:center; margin-top: 0px; margin-bottom: 0px; font-size: 40px"";>&ensp;</p>","-","viewing","0","2","4C,17B","","","","","","","","","","","","","","","","","","","",""
"","","","","","html-slider-response","128","1348584","0.0-21.0-1.5","9b7d72d7-d6e7-4718-8e0b-95ee0fd6cc3f","892","
                  <p style=""text-align: center;"">₪4
                                                <br>50%</p>
                  <p id=""wtp"" style=""text-align:center; margin-top: 0px; margin-bottom: 0px; font-size: 40px"";>מוכנים לשלם: <span id=""c_p_y""></span></p>","0","evaluation","3","2","4C,17B","50","4","0","","","","","","","","","","","","","","","","",""
"","","","","","html-keyboard-response","129","1349403","0.0-21.0-2.5","9b7d72d7-d6e7-4718-8e0b-95ee0fd6cc3f","null","<p style=""text-align: center;"">+</p>","null","fixation","","","","","","","","","","","","","","","","","","","","","","",""
"","","","","","html-slider-response","130","1350415","0.0-21.0-0.6","9b7d72d7-d6e7-4718-8e0b-95ee0fd6cc3f","1000","
                  <p style=""text-align: center;"">₪4
                                                <br>25%</p>
                  <p id=""wtp"" style=""text-align:center; margin-top: 0px; margin-bottom: 0px; font-size: 40px"";>&ensp;</p>","-","viewing","0","1","6C,29B,30C","","","","","","","","","","","","","","","","","","","",""
"","","","","","html-slider-response","131","1351112","0.0-21.0-1.6","9b7d72d7-d6e7-4718-8e0b-95ee0fd6cc3f","697","
                  <p style=""text-align: center;"">₪4
                                                <br>25%</p>
                  <p id=""wtp"" style=""text-align:center; margin-top: 0px; margin-bottom: 0px; font-size: 40px"";>מוכנים לשלם: <span id=""c_p_y""></span></p>","0","evaluation","77","1","6C,29B,30C","25","4","0","","","","","","","","","","","","","","","","",""
"","","","","","html-keyboard-response","132","1352237","0.0-21.0-2.6","9b7d72d7-d6e7-4718-8e0b-95ee0fd6cc3f","null","<p style=""text-align: center;"">+</p>","null","fixation","","","","","","","","","","","","","","","","","","","","","","",""
"","","","","","html-slider-response","133","1353241","0.0-21.0-0.7","9b7d72d7-d6e7-4718-8e0b-95ee0fd6cc3f","1000","
                  <p style=""text-align: center;"">₪36
                                                <br>75%</p>
                  <p id=""wtp"" style=""text-align:center; margin-top: 0px; margin-bottom: 0px; font-size: 40px"";>&ensp;</p>","-","viewing","0","14","4B,5A,13B,16B","","","","","","","","","","","","","","","","","","","",""
"","","","","","html-slider-response","134","1354442","0.0-21.0-1.7","9b7d72d7-d6e7-4718-8e0b-95ee0fd6cc3f","1200","
                  <p style=""text-align: center;"">₪36
                                                <br>75%</p>
                  <p id=""wtp"" style=""text-align:center; margin-top: 0px; margin-bottom: 0px; font-size: 40px"";>מוכנים לשלם: <span id=""c_p_y""></span></p>","5","evaluation","65","14","4B,5A,13B,16B","75","36","5","","","","","","","","","","","","","","","","",""
"","","","","","html-keyboard-response","135","1355432","0.0-21.0-2.7","9b7d72d7-d6e7-4718-8e0b-95ee0fd6cc3f","null","<p style=""text-align: center;"">+</p>","null","fixation","","","","","","","","","","","","","","","","","","","","","","",""
"","","","","","html-slider-response","136","1356434","0.0-21.0-0.8","9b7d72d7-d6e7-4718-8e0b-95ee0fd6cc3f","1000","
                  <p style=""text-align: center;"">₪58
                                                <br>30%</p>
                  <p id=""wtp"" style=""text-align:center; margin-top: 0px; margin-bottom: 0px; font-size: 40px"";>&ensp;</p>","-","viewing","0","19","13C,30A","","","","","","","","","","","","","","","","","","","",""
"","","","","","html-slider-response","137","1357913","0.0-21.0-1.8","9b7d72d7-d6e7-4718-8e0b-95ee0fd6cc3f","1477","
                  <p style=""text-align: center;"">₪58
                                                <br>30%</p>
                  <p id=""wtp"" style=""text-align:center; margin-top: 0px; margin-bottom: 0px; font-size: 40px"";>מוכנים לשלם: <span id=""c_p_y""></span></p>","0","evaluation","15","19","13C,30A","30","58","1","","","","","","","","","","","","","","","","",""
"","","","","","html-keyboard-response","138","1358887","0.0-21.0-2.8","9b7d72d7-d6e7-4718-8e0b-95ee0fd6cc3f","null","<p style=""text-align: center;"">+</p>","null","fixation","","","","","","","","","","","","","","","","","","","","","","",""
"","","","","","html-slider-response","139","1359900","0.0-21.0-0.9","9b7d72d7-d6e7-4718-8e0b-95ee0fd6cc3f","1000","
                  <p style=""text-align: center;"">₪16
                                                <br>20%</p>
                  <p id=""wtp"" style=""text-align:center; margin-top: 0px; margin-bottom: 0px; font-size: 40px"";>&ensp;</p>","-","viewing","0","8","14C,17A,20C,27A","","","","","","","","","","","","","","","","","","","",""
"","","","","","html-slider-response","140","1361065","0.0-21.0-1.9","9b7d72d7-d6e7-4718-8e0b-95ee0fd6cc3f","1163","
                  <p style=""text-align: center;"">₪16
                                                <br>20%</p>
                  <p id=""wtp"" style=""text-align:center; margin-top: 0px; margin-bottom: 0px; font-size: 40px"";>מוכנים לשלם: <span id=""c_p_y""></span></p>","0","evaluation","55","8","14C,17A,20C,27A","20","16","0","","","","","","","","","","","","","","","","",""
"","","","","","html-keyboard-response","141","1361946","0.0-21.0-2.9","9b7d72d7-d6e7-4718-8e0b-95ee0fd6cc3f","null","<p style=""text-align: center;"">+</p>","null","fixation","","","","","","","","","","","","","","","","","","","","","","",""
"","","","","","html-slider-response","142","1362949","0.0-21.0-0.10","9b7d72d7-d6e7-4718-8e0b-95ee0fd6cc3f","1000","
                  <p style=""text-align: center;"">₪64
                                                <br>50%</p>
                  <p id=""wtp"" style=""text-align:center; margin-top: 0px; margin-bottom: 0px; font-size: 40px"";>&ensp;</p>","-","viewing","0","25","1B,3B,4A","","","","","","","","","","","","","","","","","","","",""
"","","","","","html-slider-response","143","1364121","0.0-21.0-1.10","9b7d72d7-d6e7-4718-8e0b-95ee0fd6cc3f","1171","
                  <p style=""text-align: center;"">₪64
                                                <br>50%</p>
                  <p id=""wtp"" style=""text-align:center; margin-top: 0px; margin-bottom: 0px; font-size: 40px"";>מוכנים לשלם: <span id=""c_p_y""></span></p>","8","evaluation","21","25","1B,3B,4A","50","64","8","","","","","","","","","","","","","","","","",""
"","","","","","html-keyboard-response","144","1364852","0.0-21.0-2.10","9b7d72d7-d6e7-4718-8e0b-95ee0fd6cc3f","null","<p style=""text-align: center;"">+</p>","null","fixation","","","","","","","","","","","","","","","","","","","","","","",""
"","","","","","html-slider-response","145","1365862","0.0-21.0-0.11","9b7d72d7-d6e7-4718-8e0b-95ee0fd6cc3f","1000","
                  <p style=""text-align: center;"">₪39
                                                <br>60%</p>
                  <p id=""wtp"" style=""text-align:center; margin-top: 0px; margin-bottom: 0px; font-size: 40px"";>&ensp;</p>","-","viewing","0","15","9C,25B","","","","","","","","","","","","","","","","","","","",""
"","","","","","html-slider-response","146","1367808","0.0-21.0-1.11","9b7d72d7-d6e7-4718-8e0b-95ee0fd6cc3f","1945","
                  <p style=""text-align: center;"">₪39
                                                <br>60%</p>
                  <p id=""wtp"" style=""text-align:center; margin-top: 0px; margin-bottom: 0px; font-size: 40px"";>מוכנים לשלם: <span id=""c_p_y""></span></p>","3","evaluation","59","15","9C,25B","60","39","4","","","","","","","","","","","","","","","","",""
"","","","","","html-keyboard-response","147","1368669","0.0-21.0-2.11","9b7d72d7-d6e7-4718-8e0b-95ee0fd6cc3f","null","<p style=""text-align: center;"">+</p>","null","fixation","","","","","","","","","","","","","","","","","","","","","","",""
"","","","","","html-slider-response","148","1369676","0.0-21.0-0.12","9b7d72d7-d6e7-4718-8e0b-95ee0fd6cc3f","1000","
                  <p style=""text-align: center;"">₪18
                                                <br>25%</p>
                  <p id=""wtp"" style=""text-align:center; margin-top: 0px; margin-bottom: 0px; font-size: 40px"";>&ensp;</p>","-","viewing","0","9","14A,23A","","","","","","","","","","","","","","","","","","","",""
"","","","","","html-slider-response","149","1370225","0.0-21.0-1.12","9b7d72d7-d6e7-4718-8e0b-95ee0fd6cc3f","547","
                  <p style=""text-align: center;"">₪18
                                                <br>25%</p>
                  <p id=""wtp"" style=""text-align:center; margin-top: 0px; margin-bottom: 0px; font-size: 40px"";>מוכנים לשלם: <span id=""c_p_y""></span></p>","0","evaluation","57","9","14A,23A","25","18","0","","","","","","","","","","","","","","","","",""
"","","","","","html-keyboard-response","150","1370837","0.0-21.0-2.12","9b7d72d7-d6e7-4718-8e0b-95ee0fd6cc3f","null","<p style=""text-align: center;"">+</p>","null","fixation","","","","","","","","","","","","","","","","","","","","","","",""
"","","","","","html-slider-response","151","1371845","0.0-21.0-0.13","9b7d72d7-d6e7-4718-8e0b-95ee0fd6cc3f","1000","
                  <p style=""text-align: center;"">₪11
                                                <br>25%</p>
                  <p id=""wtp"" style=""text-align:center; margin-top: 0px; margin-bottom: 0px; font-size: 40px"";>&ensp;</p>","-","viewing","0","5","12A,27B,28B,30B","","","","","","","","","","","","","","","","","","","",""
"","","","","","html-slider-response","152","1372369","0.0-21.0-1.13","9b7d72d7-d6e7-4718-8e0b-95ee0fd6cc3f","522","
                  <p style=""text-align: center;"">₪11
                                                <br>25%</p>
                  <p id=""wtp"" style=""text-align:center; margin-top: 0px; margin-bottom: 0px; font-size: 40px"";>מוכנים לשלם: <span id=""c_p_y""></span></p>","0","evaluation","15","5","12A,27B,28B,30B","25","11","0","","","","","","","","","","","","","","","","",""
"","","","","","html-keyboard-response","153","1373114","0.0-21.0-2.13","9b7d72d7-d6e7-4718-8e0b-95ee0fd6cc3f","null","<p style=""text-align: center;"">+</p>","null","fixation","","","","","","","","","","","","","","","","","","","","","","",""
"","","","","","html-slider-response","154","1374127","0.0-21.0-0.14","9b7d72d7-d6e7-4718-8e0b-95ee0fd6cc3f","1000","
                  <p style=""text-align: center;"">₪11
                                                <br>45%</p>
                  <p id=""wtp"" style=""text-align:center; margin-top: 0px; margin-bottom: 0px; font-size: 40px"";>&ensp;</p>","-","viewing","0","6","14B,21C,25C","","","","","","","","","","","","","","","","","","","",""
"","","","","","html-slider-response","155","1374673","0.0-21.0-1.14","9b7d72d7-d6e7-4718-8e0b-95ee0fd6cc3f","544","
                  <p style=""text-align: center;"">₪11
                                                <br>45%</p>
                  <p id=""wtp"" style=""text-align:center; margin-top: 0px; margin-bottom: 0px; font-size: 40px"";>מוכנים לשלם: <span id=""c_p_y""></span></p>","0","evaluation","69","6","14B,21C,25C","45","11","0","","","","","","","","","","","","","","","","",""
"","","","","","html-keyboard-response","156","1375506","0.0-21.0-2.14","9b7d72d7-d6e7-4718-8e0b-95ee0fd6cc3f","null","<p style=""text-align: center;"">+</p>","null","fixation","","","","","","","","","","","","","","","","","","","","","","",""
"","","","","","html-slider-response","157","1376516","0.0-21.0-0.15","9b7d72d7-d6e7-4718-8e0b-95ee0fd6cc3f","1000","
                  <p style=""text-align: center;"">₪71
                                                <br>45%</p>
                  <p id=""wtp"" style=""text-align:center; margin-top: 0px; margin-bottom: 0px; font-size: 40px"";>&ensp;</p>","-","viewing","0","26","2B,16A","","","","","","","","","","","","","","","","","","","",""
"","","","","","html-slider-response","158","1377529","0.0-21.0-1.15","9b7d72d7-d6e7-4718-8e0b-95ee0fd6cc3f","1011","
                  <p style=""text-align: center;"">₪71
                                                <br>45%</p>
                  <p id=""wtp"" style=""text-align:center; margin-top: 0px; margin-bottom: 0px; font-size: 40px"";>מוכנים לשלם: <span id=""c_p_y""></span></p>","8","evaluation","30","26","2B,16A","45","71","8","","","","","","","","","","","","","","","","",""
"","","","","","html-keyboard-response","159","1378311","0.0-21.0-2.15","9b7d72d7-d6e7-4718-8e0b-95ee0fd6cc3f","null","<p style=""text-align: center;"">+</p>","null","fixation","","","","","","","","","","","","","","","","","","","","","","",""
"","","","","","html-slider-response","160","1379312","0.0-21.0-0.16","9b7d72d7-d6e7-4718-8e0b-95ee0fd6cc3f","1000","
                  <p style=""text-align: center;"">₪61
                                                <br>45%</p>
                  <p id=""wtp"" style=""text-align:center; margin-top: 0px; margin-bottom: 0px; font-size: 40px"";>&ensp;</p>","-","viewing","0","22","10A,11A","","","","","","","","","","","","","","","","","","","",""
"","","","","","html-slider-response","161","1380491","0.0-21.0-1.16","9b7d72d7-d6e7-4718-8e0b-95ee0fd6cc3f","1192","
                  <p style=""text-align: center;"">₪61
                                                <br>45%</p>
                  <p id=""wtp"" style=""text-align:center; margin-top: 0px; margin-bottom: 0px; font-size: 40px"";>מוכנים לשלם: <span id=""c_p_y""></span></p>","7","evaluation","30","22","10A,11A","45","61","7","","","","","","","","","","","","","","","","",""
"","","","","","html-keyboard-response","162","1381820","0.0-21.0-2.16","9b7d72d7-d6e7-4718-8e0b-95ee0fd6cc3f","null","<p style=""text-align: center;"">+</p>","null","fixation","","","","","","","","","","","","","","","","","","","","","","",""
"","","","","","html-slider-response","163","1382825","0.0-21.0-0.17","9b7d72d7-d6e7-4718-8e0b-95ee0fd6cc3f","1000","
                  <p style=""text-align: center;"">₪76
                                                <br>65%</p>
                  <p id=""wtp"" style=""text-align:center; margin-top: 0px; margin-bottom: 0px; font-size: 40px"";>&ensp;</p>","-","viewing","0","29","8C,19A,24B","","","","","","","","","","","","","","","","","","","",""
"","","","","","html-slider-response","164","1383507","0.0-21.0-1.17","9b7d72d7-d6e7-4718-8e0b-95ee0fd6cc3f","681","
                  <p style=""text-align: center;"">₪76
                                                <br>65%</p>
                  <p id=""wtp"" style=""text-align:center; margin-top: 0px; margin-bottom: 0px; font-size: 40px"";>מוכנים לשלם: <span id=""c_p_y""></span></p>","11","evaluation","3","29","8C,19A,24B","65","76","11","","","","","","","","","","","","","","","","",""
"","","","","","html-keyboard-response","165","1384139","0.0-21.0-2.17","9b7d72d7-d6e7-4718-8e0b-95ee0fd6cc3f","null","<p style=""text-align: center;"">+</p>","null","fixation","","","","","","","","","","","","","","","","","","","","","","",""
"","","","","","html-slider-response","166","1385141","0.0-21.0-0.18","9b7d72d7-d6e7-4718-8e0b-95ee0fd6cc3f","1000","
                  <p style=""text-align: center;"">₪71
                                                <br>55%</p>
                  <p id=""wtp"" style=""text-align:center; margin-top: 0px; margin-bottom: 0px; font-size: 40px"";>&ensp;</p>","-","viewing","0","27","5B,18A","","","","","","","","","","","","","","","","","","","",""
"","","","","","html-slider-response","167","1386995","0.0-21.0-1.18","9b7d72d7-d6e7-4718-8e0b-95ee0fd6cc3f","1853","
                  <p style=""text-align: center;"">₪71
                                                <br>55%</p>
                  <p id=""wtp"" style=""text-align:center; margin-top: 0px; margin-bottom: 0px; font-size: 40px"";>מוכנים לשלם: <span id=""c_p_y""></span></p>","4","evaluation","24","27","5B,18A","55","71","4","","","","","","","","","","","","","","","","",""
"","","","","","html-keyboard-response","168","1388293","0.0-21.0-2.18","9b7d72d7-d6e7-4718-8e0b-95ee0fd6cc3f","null","<p style=""text-align: center;"">+</p>","null","fixation","","","","","","","","","","","","","","","","","","","","","","",""
"","","","","","html-slider-response","169","1389296","0.0-21.0-0.19","9b7d72d7-d6e7-4718-8e0b-95ee0fd6cc3f","1000","
                  <p style=""text-align: center;"">₪43
                                                <br>75%</p>
                  <p id=""wtp"" style=""text-align:center; margin-top: 0px; margin-bottom: 0px; font-size: 40px"";>&ensp;</p>","-","viewing","0","18","11B,19B,24A,26A","","","","","","","","","","","","","","","","","","","",""
"","","","","","html-slider-response","170","1391251","0.0-21.0-1.19","9b7d72d7-d6e7-4718-8e0b-95ee0fd6cc3f","1954","
                  <p style=""text-align: center;"">₪43
                                                <br>75%</p>
                  <p id=""wtp"" style=""text-align:center; margin-top: 0px; margin-bottom: 0px; font-size: 40px"";>מוכנים לשלם: <span id=""c_p_y""></span></p>","7","evaluation","7","18","11B,19B,24A,26A","75","43","7","","","","","","","","","","","","","","","","",""
"","","","","","html-keyboard-response","171","1392696","0.0-21.0-2.19","9b7d72d7-d6e7-4718-8e0b-95ee0fd6cc3f","null","<p style=""text-align: center;"">+</p>","null","fixation","","","","","","","","","","","","","","","","","","","","","","",""
"","","","","","html-slider-response","172","1393697","0.0-21.0-0.20","9b7d72d7-d6e7-4718-8e0b-95ee0fd6cc3f","1000","
                  <p style=""text-align: center;"">₪4
                                                <br>75%</p>
                  <p id=""wtp"" style=""text-align:center; margin-top: 0px; margin-bottom: 0px; font-size: 40px"";>&ensp;</p>","-","viewing","0","3","12B,20B,23B,27C,29C","","","","","","","","","","","","","","","","","","","",""
"","","","","","html-slider-response","173","1394019","0.0-21.0-1.20","9b7d72d7-d6e7-4718-8e0b-95ee0fd6cc3f","320","
                  <p style=""text-align: center;"">₪4
                                                <br>75%</p>
                  <p id=""wtp"" style=""text-align:center; margin-top: 0px; margin-bottom: 0px; font-size: 40px"";>מוכנים לשלם: <span id=""c_p_y""></span></p>","0","evaluation","40","3","12B,20B,23B,27C,29C","75","4","0","","","","","","","","","","","","","","","","",""
"","","","","","html-keyboard-response","174","1394946","0.0-21.0-2.20","9b7d72d7-d6e7-4718-8e0b-95ee0fd6cc3f","null","<p style=""text-align: center;"">+</p>","null","fixation","","","","","","","","","","","","","","","","","","","","","","",""
"","","","","","html-slider-response","175","1395952","0.0-21.0-0.21","9b7d72d7-d6e7-4718-8e0b-95ee0fd6cc3f","1000","
                  <p style=""text-align: center;"">₪39
                                                <br>65%</p>
                  <p id=""wtp"" style=""text-align:center; margin-top: 0px; margin-bottom: 0px; font-size: 40px"";>&ensp;</p>","-","viewing","0","16","1A,15A,26C","","","","","","","","","","","","","","","","","","","",""
"","","","","","html-slider-response","176","1397523","0.0-21.0-1.21","9b7d72d7-d6e7-4718-8e0b-95ee0fd6cc3f","1569","
                  <p style=""text-align: center;"">₪39
                                                <br>65%</p>
                  <p id=""wtp"" style=""text-align:center; margin-top: 0px; margin-bottom: 0px; font-size: 40px"";>מוכנים לשלם: <span id=""c_p_y""></span></p>","2","evaluation","11","16","1A,15A,26C","65","39","3","","","","","","","","","","","","","","","","",""
"","","","","","html-keyboard-response","177","1398404","0.0-21.0-2.21","9b7d72d7-d6e7-4718-8e0b-95ee0fd6cc3f","null","<p style=""text-align: center;"">+</p>","null","fixation","","","","","","","","","","","","","","","","","","","","","","",""
"","","","","","html-slider-response","178","1399412","0.0-21.0-0.22","9b7d72d7-d6e7-4718-8e0b-95ee0fd6cc3f","1000","
                  <p style=""text-align: center;"">₪43
                                                <br>60%</p>
                  <p id=""wtp"" style=""text-align:center; margin-top: 0px; margin-bottom: 0px; font-size: 40px"";>&ensp;</p>","-","viewing","0","17","2A,7A,9A,15B","","","","","","","","","","","","","","","","","","","",""
"","","","","","html-slider-response","179","1402027","0.0-21.0-1.22","9b7d72d7-d6e7-4718-8e0b-95ee0fd6cc3f","2614","
                  <p style=""text-align: center;"">₪43
                                                <br>60%</p>
                  <p id=""wtp"" style=""text-align:center; margin-top: 0px; margin-bottom: 0px; font-size: 40px"";>מוכנים לשלם: <span id=""c_p_y""></span></p>","2","evaluation","8","17","2A,7A,9A,15B","60","43","3","","","","","","","","","","","","","","","","",""
"","","","","","html-keyboard-response","180","1403360","0.0-21.0-2.22","9b7d72d7-d6e7-4718-8e0b-95ee0fd6cc3f","null","<p style=""text-align: center;"">+</p>","null","fixation","","","","","","","","","","","","","","","","","","","","","","",""
"","","","","","html-slider-response","181","1404376","0.0-21.0-0.23","9b7d72d7-d6e7-4718-8e0b-95ee0fd6cc3f","1000","
                  <p style=""text-align: center;"">₪36
                                                <br>30%</p>
                  <p id=""wtp"" style=""text-align:center; margin-top: 0px; margin-bottom: 0px; font-size: 40px"";>&ensp;</p>","-","viewing","0","11","3C,20A,22A","","","","","","","","","","","","","","","","","","","",""
"","","","","","html-slider-response","182","1405363","0.0-21.0-1.23","9b7d72d7-d6e7-4718-8e0b-95ee0fd6cc3f","986","
                  <p style=""text-align: center;"">₪36
                                                <br>30%</p>
                  <p id=""wtp"" style=""text-align:center; margin-top: 0px; margin-bottom: 0px; font-size: 40px"";>מוכנים לשלם: <span id=""c_p_y""></span></p>","0","evaluation","62","11","3C,20A,22A","30","36","0","","","","","","","","","","","","","","","","",""
"","","","","","html-keyboard-response","183","1406447","0.0-21.0-2.23","9b7d72d7-d6e7-4718-8e0b-95ee0fd6cc3f","null","<p style=""text-align: center;"">+</p>","null","fixation","","","","","","","","","","","","","","","","","","","","","","",""
"","","","","","html-slider-response","184","1407449","0.0-21.0-0.24","9b7d72d7-d6e7-4718-8e0b-95ee0fd6cc3f","1000","
                  <p style=""text-align: center;"">₪58
                                                <br>40%</p>
                  <p id=""wtp"" style=""text-align:center; margin-top: 0px; margin-bottom: 0px; font-size: 40px"";>&ensp;</p>","-","viewing","0","20","10C,13A,19C,21B","","","","","","","","","","","","","","","","","","","",""
"","","","","","html-slider-response","185","1410843","0.0-21.0-1.24","9b7d72d7-d6e7-4718-8e0b-95ee0fd6cc3f","3392","
                  <p style=""text-align: center;"">₪58
                                                <br>40%</p>
                  <p id=""wtp"" style=""text-align:center; margin-top: 0px; margin-bottom: 0px; font-size: 40px"";>מוכנים לשלם: <span id=""c_p_y""></span></p>","0","evaluation","40","20","10C,13A,19C,21B","40","58","0","","","","","","","","","","","","","","","","",""
"","","","","","html-keyboard-response","186","1412156","0.0-21.0-2.24","9b7d72d7-d6e7-4718-8e0b-95ee0fd6cc3f","null","<p style=""text-align: center;"">+</p>","null","fixation","","","","","","","","","","","","","","","","","","","","","","",""
"","","","","","html-slider-response","187","1413156","0.0-21.0-0.25","9b7d72d7-d6e7-4718-8e0b-95ee0fd6cc3f","1000","
                  <p style=""text-align: center;"">₪36
                                                <br>70%</p>
                  <p id=""wtp"" style=""text-align:center; margin-top: 0px; margin-bottom: 0px; font-size: 40px"";>&ensp;</p>","-","viewing","0","13","3A,5C,10B","","","","","","","","","","","","","","","","","","","",""
"","","","","","html-slider-response","188","1414515","0.0-21.0-1.25","9b7d72d7-d6e7-4718-8e0b-95ee0fd6cc3f","1357","
                  <p style=""text-align: center;"">₪36
                                                <br>70%</p>
                  <p id=""wtp"" style=""text-align:center; margin-top: 0px; margin-bottom: 0px; font-size: 40px"";>מוכנים לשלם: <span id=""c_p_y""></span></p>","2","evaluation","77","13","3A,5C,10B","70","36","3","","","","","","","","","","","","","","","","",""
"","","","","","html-keyboard-response","189","1415517","0.0-21.0-2.25","9b7d72d7-d6e7-4718-8e0b-95ee0fd6cc3f","null","<p style=""text-align: center;"">+</p>","null","fixation","","","","","","","","","","","","","","","","","","","","","","",""
"","","","","","html-slider-response","190","1416522","0.0-21.0-0.26","9b7d72d7-d6e7-4718-8e0b-95ee0fd6cc3f","1000","
                  <p style=""text-align: center;"">₪11
                                                <br>75%</p>
                  <p id=""wtp"" style=""text-align:center; margin-top: 0px; margin-bottom: 0px; font-size: 40px"";>&ensp;</p>","-","viewing","0","7","6B,18B,22C,24C,29A","","","","","","","","","","","","","","","","","","","",""
"","","","","","html-slider-response","191","1420251","0.0-21.0-1.26","9b7d72d7-d6e7-4718-8e0b-95ee0fd6cc3f","3728","
                  <p style=""text-align: center;"">₪11
                                                <br>75%</p>
                  <p id=""wtp"" style=""text-align:center; margin-top: 0px; margin-bottom: 0px; font-size: 40px"";>מוכנים לשלם: <span id=""c_p_y""></span></p>","1","evaluation","60","7","6B,18B,22C,24C,29A","75","11","2","","","","","","","","","","","","","","","","",""
"","","","","","html-keyboard-response","192","1421625","0.0-21.0-2.26","9b7d72d7-d6e7-4718-8e0b-95ee0fd6cc3f","null","<p style=""text-align: center;"">+</p>","null","fixation","","","","","","","","","","","","","","","","","","","","","","",""
"","","","","","html-slider-response","193","1422630","0.0-21.0-0.27","9b7d72d7-d6e7-4718-8e0b-95ee0fd6cc3f","1000","
                  <p style=""text-align: center;"">₪36
                                                <br>60%</p>
                  <p id=""wtp"" style=""text-align:center; margin-top: 0px; margin-bottom: 0px; font-size: 40px"";>&ensp;</p>","-","viewing","0","12","1C,7C,15C","","","","","","","","","","","","","","","","","","","",""
"","","","","","html-slider-response","194","1425483","0.0-21.0-1.27","9b7d72d7-d6e7-4718-8e0b-95ee0fd6cc3f","2852","
                  <p style=""text-align: center;"">₪36
                                                <br>60%</p>
                  <p id=""wtp"" style=""text-align:center; margin-top: 0px; margin-bottom: 0px; font-size: 40px"";>מוכנים לשלם: <span id=""c_p_y""></span></p>","2","evaluation","38","12","1C,7C,15C","60","36","2","","","","","","","","","","","","","","","","",""
"","","","","","html-keyboard-response","195","1426428","0.0-21.0-2.27","9b7d72d7-d6e7-4718-8e0b-95ee0fd6cc3f","null","<p style=""text-align: center;"">+</p>","null","fixation","","","","","","","","","","","","","","","","","","","","","","",""
"","","","","","html-slider-response","196","1427437","0.0-21.0-0.28","9b7d72d7-d6e7-4718-8e0b-95ee0fd6cc3f","1000","
                  <p style=""text-align: center;"">₪79
                                                <br>65%</p>
                  <p id=""wtp"" style=""text-align:center; margin-top: 0px; margin-bottom: 0px; font-size: 40px"";>&ensp;</p>","-","viewing","0","31","8A","","","","","","","","","","","","","","","","","","","",""
"","","","","","html-slider-response","197","1429211","0.0-21.0-1.28","9b7d72d7-d6e7-4718-8e0b-95ee0fd6cc3f","1773","
                  <p style=""text-align: center;"">₪79
                                                <br>65%</p>
                  <p id=""wtp"" style=""text-align:center; margin-top: 0px; margin-bottom: 0px; font-size: 40px"";>מוכנים לשלם: <span id=""c_p_y""></span></p>","8","evaluation","25","31","8A","65","79","8","","","","","","","","","","","","","","","","",""
"","","","","","html-keyboard-response","198","1430120","0.0-21.0-2.28","9b7d72d7-d6e7-4718-8e0b-95ee0fd6cc3f","null","<p style=""text-align: center;"">+</p>","null","fixation","","","","","","","","","","","","","","","","","","","","","","",""
"","","","","","html-slider-response","199","1431136","0.0-21.0-0.29","9b7d72d7-d6e7-4718-8e0b-95ee0fd6cc3f","1000","
                  <p style=""text-align: center;"">₪64
                                                <br>25%</p>
                  <p id=""wtp"" style=""text-align:center; margin-top: 0px; margin-bottom: 0px; font-size: 40px"";>&ensp;</p>","-","viewing","0","24","6A,21A","","","","","","","","","","","","","","","","","","","",""
"","","","","","html-slider-response","200","1433075","0.0-21.0-1.29","9b7d72d7-d6e7-4718-8e0b-95ee0fd6cc3f","1938","
                  <p style=""text-align: center;"">₪64
                                                <br>25%</p>
                  <p id=""wtp"" style=""text-align:center; margin-top: 0px; margin-bottom: 0px; font-size: 40px"";>מוכנים לשלם: <span id=""c_p_y""></span></p>","3","evaluation","26","24","6A,21A","25","64","3","","","","","","","","","","","","","","","","",""
"","","","","","html-keyboard-response","201","1434165","0.0-21.0-2.29","9b7d72d7-d6e7-4718-8e0b-95ee0fd6cc3f","null","<p style=""text-align: center;"">+</p>","null","fixation","","","","","","","","","","","","","","","","","","","","","","",""
"","","","","","html-slider-response","202","1435175","0.0-21.0-0.30","9b7d72d7-d6e7-4718-8e0b-95ee0fd6cc3f","1000","
                  <p style=""text-align: center;"">₪61
                                                <br>55%</p>
                  <p id=""wtp"" style=""text-align:center; margin-top: 0px; margin-bottom: 0px; font-size: 40px"";>&ensp;</p>","-","viewing","0","23","7B,26B","","","","","","","","","","","","","","","","","","","",""
"","","","","","html-slider-response","203","1437219","0.0-21.0-1.30","9b7d72d7-d6e7-4718-8e0b-95ee0fd6cc3f","2043","
                  <p style=""text-align: center;"">₪61
                                                <br>55%</p>
                  <p id=""wtp"" style=""text-align:center; margin-top: 0px; margin-bottom: 0px; font-size: 40px"";>מוכנים לשלם: <span id=""c_p_y""></span></p>","4","evaluation","27","23","7B,26B","55","61","4","","","","","","","","","","","","","","","","",""
"","","","","","html-keyboard-response","204","1438545","0.0-21.0-2.30","9b7d72d7-d6e7-4718-8e0b-95ee0fd6cc3f","null","<p style=""text-align: center;"">+</p>","null","fixation","","","","","","","","","","","","","","","","","","","","","","",""
"","","","","","html-keyboard-response","205","1439554","0.0-22.0","9b7d72d7-d6e7-4718-8e0b-95ee0fd6cc3f","null","<p style=""text-align: center;"">+</p>","null","fixation","","","","","","","","","","","","","","","","","","","","","","",""
"","","","","","html-keyboard-response","206","1440454","0.0-23.0","9b7d72d7-d6e7-4718-8e0b-95ee0fd6cc3f","null","<p>הפסקה.
          <br>לחצו כדי להמשיך.</p>","1","scan_wait","","","","","","","","","","","","","","","","","","","","","","",""
"","","","","","html-keyboard-response","207","1441463","0.0-24.0","9b7d72d7-d6e7-4718-8e0b-95ee0fd6cc3f","null","<p style=""text-align: center;"">+</p>","null","fixation","","","","","","","","","","","","","","","","","","","","","","",""
"","","","","","html-slider-response","208","1442472","0.0-25.0-0.0","9b7d72d7-d6e7-4718-8e0b-95ee0fd6cc3f","1000","
                  <p style=""text-align: center;"">₪71
                                                <br>75%</p>
                  <p id=""wtp"" style=""text-align:center; margin-top: 0px; margin-bottom: 0px; font-size: 40px"";>&ensp;</p>","-","viewing","0","28","8B","","","","","","","","","","","","","","","","","","","",""
"","","","","","html-slider-response","209","1444358","0.0-25.0-1.0","9b7d72d7-d6e7-4718-8e0b-95ee0fd6cc3f","1885","
                  <p style=""text-align: center;"">₪71
                                                <br>75%</p>
                  <p id=""wtp"" style=""text-align:center; margin-top: 0px; margin-bottom: 0px; font-size: 40px"";>מוכנים לשלם: <span id=""c_p_y""></span></p>","8","evaluation","25","28","8B","75","71","8","","","","","","","","","","","","","","","","",""
"","","","","","html-keyboard-response","210","1445167","0.0-25.0-2.0","9b7d72d7-d6e7-4718-8e0b-95ee0fd6cc3f","null","<p style=""text-align: center;"">+</p>","null","fixation","","","","","","","","","","","","","","","","","","","","","","",""
"","","","","","html-slider-response","211","1446171","0.0-25.0-0.1","9b7d72d7-d6e7-4718-8e0b-95ee0fd6cc3f","1000","
                  <p style=""text-align: center;"">₪39
                                                <br>60%</p>
                  <p id=""wtp"" style=""text-align:center; margin-top: 0px; margin-bottom: 0px; font-size: 40px"";>&ensp;</p>","-","viewing","0","15","9C,25B","","","","","","","","","","","","","","","","","","","",""
"","","","","","html-slider-response","212","1450142","0.0-25.0-1.1","9b7d72d7-d6e7-4718-8e0b-95ee0fd6cc3f","3970","
                  <p style=""text-align: center;"">₪39
                                                <br>60%</p>
                  <p id=""wtp"" style=""text-align:center; margin-top: 0px; margin-bottom: 0px; font-size: 40px"";>מוכנים לשלם: <span id=""c_p_y""></span></p>","4","evaluation","60","15","9C,25B","60","39","4","","","","","","","","","","","","","","","","",""
"","","","","","html-keyboard-response","213","1451534","0.0-25.0-2.1","9b7d72d7-d6e7-4718-8e0b-95ee0fd6cc3f","null","<p style=""text-align: center;"">+</p>","null","fixation","","","","","","","","","","","","","","","","","","","","","","",""
"","","","","","html-slider-response","214","1452535","0.0-25.0-0.2","9b7d72d7-d6e7-4718-8e0b-95ee0fd6cc3f","1000","
                  <p style=""text-align: center;"">₪11
                                                <br>45%</p>
                  <p id=""wtp"" style=""text-align:center; margin-top: 0px; margin-bottom: 0px; font-size: 40px"";>&ensp;</p>","-","viewing","0","6","14B,21C,25C","","","","","","","","","","","","","","","","","","","",""
"","","","","","html-slider-response","215","1456550","0.0-25.0-1.2","9b7d72d7-d6e7-4718-8e0b-95ee0fd6cc3f","null","
                  <p style=""text-align: center;"">₪11
                                                <br>45%</p>
                  <p id=""wtp"" style=""text-align:center; margin-top: 0px; margin-bottom: 0px; font-size: 40px"";>מוכנים לשלם: <span id=""c_p_y""></span></p>","null","evaluation","20","6","14B,21C,25C","45","11","0","","","","","","","","","","","","","","","","",""
"","","","","","html-keyboard-response","216","1457148","0.0-25.0-2.2","9b7d72d7-d6e7-4718-8e0b-95ee0fd6cc3f","null","<p style=""text-align: center;"">+</p>","null","fixation","","","","","","","","","","","","","","","","","","","","","","",""
"","","","","","html-slider-response","217","1458158","0.0-25.0-0.3","9b7d72d7-d6e7-4718-8e0b-95ee0fd6cc3f","1000","
                  <p style=""text-align: center;"">₪36
                                                <br>30%</p>
                  <p id=""wtp"" style=""text-align:center; margin-top: 0px; margin-bottom: 0px; font-size: 40px"";>&ensp;</p>","-","viewing","0","11","3C,20A,22A","","","","","","","","","","","","","","","","","","","",""
"","","","","","html-slider-response","218","1461222","0.0-25.0-1.3","9b7d72d7-d6e7-4718-8e0b-95ee0fd6cc3f","3064","
                  <p style=""text-align: center;"">₪36
                                                <br>30%</p>
                  <p id=""wtp"" style=""text-align:center; margin-top: 0px; margin-bottom: 0px; font-size: 40px"";>מוכנים לשלם: <span id=""c_p_y""></span></p>","1","evaluation","77","11","3C,20A,22A","30","36","1","","","","","","","","","","","","","","","","",""
"","","","","","html-keyboard-response","219","1462034","0.0-25.0-2.3","9b7d72d7-d6e7-4718-8e0b-95ee0fd6cc3f","null","<p style=""text-align: center;"">+</p>","null","fixation","","","","","","","","","","","","","","","","","","","","","","",""
"","","","","","html-slider-response","220","1463036","0.0-25.0-0.4","9b7d72d7-d6e7-4718-8e0b-95ee0fd6cc3f","1000","
                  <p style=""text-align: center;"">₪71
                                                <br>45%</p>
                  <p id=""wtp"" style=""text-align:center; margin-top: 0px; margin-bottom: 0px; font-size: 40px"";>&ensp;</p>","-","viewing","0","26","2B,16A","","","","","","","","","","","","","","","","","","","",""
"","","","","","html-slider-response","221","1465598","0.0-25.0-1.4","9b7d72d7-d6e7-4718-8e0b-95ee0fd6cc3f","2562","
                  <p style=""text-align: center;"">₪71
                                                <br>45%</p>
                  <p id=""wtp"" style=""text-align:center; margin-top: 0px; margin-bottom: 0px; font-size: 40px"";>מוכנים לשלם: <span id=""c_p_y""></span></p>","4","evaluation","21","26","2B,16A","45","71","4","","","","","","","","","","","","","","","","",""
"","","","","","html-keyboard-response","222","1466879","0.0-25.0-2.4","9b7d72d7-d6e7-4718-8e0b-95ee0fd6cc3f","null","<p style=""text-align: center;"">+</p>","null","fixation","","","","","","","","","","","","","","","","","","","","","","",""
"","","","","","html-slider-response","223","1467888","0.0-25.0-0.5","9b7d72d7-d6e7-4718-8e0b-95ee0fd6cc3f","1000","
                  <p style=""text-align: center;"">₪79
                                                <br>65%</p>
                  <p id=""wtp"" style=""text-align:center; margin-top: 0px; margin-bottom: 0px; font-size: 40px"";>&ensp;</p>","-","viewing","0","31","8A","","","","","","","","","","","","","","","","","","","",""
"","","","","","html-slider-response","224","1469934","0.0-25.0-1.5","9b7d72d7-d6e7-4718-8e0b-95ee0fd6cc3f","2046","
                  <p style=""text-align: center;"">₪79
                                                <br>65%</p>
                  <p id=""wtp"" style=""text-align:center; margin-top: 0px; margin-bottom: 0px; font-size: 40px"";>מוכנים לשלם: <span id=""c_p_y""></span></p>","8","evaluation","31","31","8A","65","79","8","","","","","","","","","","","","","","","","",""
"","","","","","html-keyboard-response","225","1470971","0.0-25.0-2.5","9b7d72d7-d6e7-4718-8e0b-95ee0fd6cc3f","null","<p style=""text-align: center;"">+</p>","null","fixation","","","","","","","","","","","","","","","","","","","","","","",""
"","","","","","html-slider-response","226","1471986","0.0-25.0-0.6","9b7d72d7-d6e7-4718-8e0b-95ee0fd6cc3f","1000","
                  <p style=""text-align: center;"">₪71
                                                <br>55%</p>
                  <p id=""wtp"" style=""text-align:center; margin-top: 0px; margin-bottom: 0px; font-size: 40px"";>&ensp;</p>","-","viewing","0","27","5B,18A","","","","","","","","","","","","","","","","","","","",""
"","","","","","html-slider-response","227","1475038","0.0-25.0-1.6","9b7d72d7-d6e7-4718-8e0b-95ee0fd6cc3f","3052","
                  <p style=""text-align: center;"">₪71
                                                <br>55%</p>
                  <p id=""wtp"" style=""text-align:center; margin-top: 0px; margin-bottom: 0px; font-size: 40px"";>מוכנים לשלם: <span id=""c_p_y""></span></p>","4","evaluation","39","27","5B,18A","55","71","4","","","","","","","","","","","","","","","","",""
"","","","","","html-keyboard-response","228","1476367","0.0-25.0-2.6","9b7d72d7-d6e7-4718-8e0b-95ee0fd6cc3f","null","<p style=""text-align: center;"">+</p>","null","fixation","","","","","","","","","","","","","","","","","","","","","","",""
"","","","","","html-slider-response","229","1477372","0.0-25.0-0.7","9b7d72d7-d6e7-4718-8e0b-95ee0fd6cc3f","1000","
                  <p style=""text-align: center;"">₪4
                                                <br>75%</p>
                  <p id=""wtp"" style=""text-align:center; margin-top: 0px; margin-bottom: 0px; font-size: 40px"";>&ensp;</p>","-","viewing","0","3","12B,20B,23B,27C,29C","","","","","","","","","","","","","","","","","","","",""
"","","","","","html-slider-response","230","1479262","0.0-25.0-1.7","9b7d72d7-d6e7-4718-8e0b-95ee0fd6cc3f","1889","
                  <p style=""text-align: center;"">₪4
                                                <br>75%</p>
                  <p id=""wtp"" style=""text-align:center; margin-top: 0px; margin-bottom: 0px; font-size: 40px"";>מוכנים לשלם: <span id=""c_p_y""></span></p>","0","evaluation","5","3","12B,20B,23B,27C,29C","75","4","0","","","","","","","","","","","","","","","","",""
"","","","","","html-keyboard-response","231","1480487","0.0-25.0-2.7","9b7d72d7-d6e7-4718-8e0b-95ee0fd6cc3f","null","<p style=""text-align: center;"">+</p>","null","fixation","","","","","","","","","","","","","","","","","","","","","","",""
"","","","","","html-slider-response","232","1481493","0.0-25.0-0.8","9b7d72d7-d6e7-4718-8e0b-95ee0fd6cc3f","1000","
                  <p style=""text-align: center;"">₪64
                                                <br>50%</p>
                  <p id=""wtp"" style=""text-align:center; margin-top: 0px; margin-bottom: 0px; font-size: 40px"";>&ensp;</p>","-","viewing","0","25","1B,3B,4A","","","","","","","","","","","","","","","","","","","",""
"","","","","","html-slider-response","233","1483630","0.0-25.0-1.8","9b7d72d7-d6e7-4718-8e0b-95ee0fd6cc3f","2137","
                  <p style=""text-align: center;"">₪64
                                                <br>50%</p>
                  <p id=""wtp"" style=""text-align:center; margin-top: 0px; margin-bottom: 0px; font-size: 40px"";>מוכנים לשלם: <span id=""c_p_y""></span></p>","3","evaluation","20","25","1B,3B,4A","50","64","4","","","","","","","","","","","","","","","","",""
"","","","","","html-keyboard-response","234","1484976","0.0-25.0-2.8","9b7d72d7-d6e7-4718-8e0b-95ee0fd6cc3f","null","<p style=""text-align: center;"">+</p>","null","fixation","","","","","","","","","","","","","","","","","","","","","","",""
"","","","","","html-slider-response","235","1485984","0.0-25.0-0.9","9b7d72d7-d6e7-4718-8e0b-95ee0fd6cc3f","1000","
                  <p style=""text-align: center;"">₪64
                                                <br>25%</p>
                  <p id=""wtp"" style=""text-align:center; margin-top: 0px; margin-bottom: 0px; font-size: 40px"";>&ensp;</p>","-","viewing","0","24","6A,21A","","","","","","","","","","","","","","","","","","","",""
"","","","","","html-slider-response","236","1488630","0.0-25.0-1.9","9b7d72d7-d6e7-4718-8e0b-95ee0fd6cc3f","2645","
                  <p style=""text-align: center;"">₪64
                                                <br>25%</p>
                  <p id=""wtp"" style=""text-align:center; margin-top: 0px; margin-bottom: 0px; font-size: 40px"";>מוכנים לשלם: <span id=""c_p_y""></span></p>","1","evaluation","51","24","6A,21A","25","64","1","","","","","","","","","","","","","","","","",""
"","","","","","html-keyboard-response","237","1489534","0.0-25.0-2.9","9b7d72d7-d6e7-4718-8e0b-95ee0fd6cc3f","null","<p style=""text-align: center;"">+</p>","null","fixation","","","","","","","","","","","","","","","","","","","","","","",""
"","","","","","html-slider-response","238","1490536","0.0-25.0-0.10","9b7d72d7-d6e7-4718-8e0b-95ee0fd6cc3f","1000","
                  <p style=""text-align: center;"">₪16
                                                <br>20%</p>
                  <p id=""wtp"" style=""text-align:center; margin-top: 0px; margin-bottom: 0px; font-size: 40px"";>&ensp;</p>","-","viewing","0","8","14C,17A,20C,27A","","","","","","","","","","","","","","","","","","","",""
"","","","","","html-slider-response","239","1492214","0.0-25.0-1.10","9b7d72d7-d6e7-4718-8e0b-95ee0fd6cc3f","1678","
                  <p style=""text-align: center;"">₪16
                                                <br>20%</p>
                  <p id=""wtp"" style=""text-align:center; margin-top: 0px; margin-bottom: 0px; font-size: 40px"";>מוכנים לשלם: <span id=""c_p_y""></span></p>","0","evaluation","54","8","14C,17A,20C,27A","20","16","0","","","","","","","","","","","","","","","","",""
"","","","","","html-keyboard-response","240","1492927","0.0-25.0-2.10","9b7d72d7-d6e7-4718-8e0b-95ee0fd6cc3f","null","<p style=""text-align: center;"">+</p>","null","fixation","","","","","","","","","","","","","","","","","","","","","","",""
"","","","","","html-slider-response","241","1493941","0.0-25.0-0.11","9b7d72d7-d6e7-4718-8e0b-95ee0fd6cc3f","1000","
                  <p style=""text-align: center;"">₪61
                                                <br>55%</p>
                  <p id=""wtp"" style=""text-align:center; margin-top: 0px; margin-bottom: 0px; font-size: 40px"";>&ensp;</p>","-","viewing","0","23","7B,26B","","","","","","","","","","","","","","","","","","","",""
"","","","","","html-slider-response","242","1495742","0.0-25.0-1.11","9b7d72d7-d6e7-4718-8e0b-95ee0fd6cc3f","1801","
                  <p style=""text-align: center;"">₪61
                                                <br>55%</p>
                  <p id=""wtp"" style=""text-align:center; margin-top: 0px; margin-bottom: 0px; font-size: 40px"";>מוכנים לשלם: <span id=""c_p_y""></span></p>","2","evaluation","31","23","7B,26B","55","61","2","","","","","","","","","","","","","","","","",""
"","","","","","html-keyboard-response","243","1496916","0.0-25.0-2.11","9b7d72d7-d6e7-4718-8e0b-95ee0fd6cc3f","null","<p style=""text-align: center;"">+</p>","null","fixation","","","","","","","","","","","","","","","","","","","","","","",""
"","","","","","html-slider-response","244","1497925","0.0-25.0-0.12","9b7d72d7-d6e7-4718-8e0b-95ee0fd6cc3f","1000","
                  <p style=""text-align: center;"">₪36
                                                <br>70%</p>
                  <p id=""wtp"" style=""text-align:center; margin-top: 0px; margin-bottom: 0px; font-size: 40px"";>&ensp;</p>","-","viewing","0","13","3A,5C,10B","","","","","","","","","","","","","","","","","","","",""
"","","","","","html-slider-response","245","1501913","0.0-25.0-1.12","9b7d72d7-d6e7-4718-8e0b-95ee0fd6cc3f","null","
                  <p style=""text-align: center;"">₪36
                                                <br>70%</p>
                  <p id=""wtp"" style=""text-align:center; margin-top: 0px; margin-bottom: 0px; font-size: 40px"";>מוכנים לשלם: <span id=""c_p_y""></span></p>","null","evaluation","79","13","3A,5C,10B","70","36","1","","","","","","","","","","","","","","","","",""
"","","","","","html-keyboard-response","246","1503147","0.0-25.0-2.12","9b7d72d7-d6e7-4718-8e0b-95ee0fd6cc3f","null","<p style=""text-align: center;"">+</p>","null","fixation","","","","","","","","","","","","","","","","","","","","","","",""
"","","","","","html-slider-response","247","1504152","0.0-25.0-0.13","9b7d72d7-d6e7-4718-8e0b-95ee0fd6cc3f","1000","
                  <p style=""text-align: center;"">₪39
                                                <br>65%</p>
                  <p id=""wtp"" style=""text-align:center; margin-top: 0px; margin-bottom: 0px; font-size: 40px"";>&ensp;</p>","-","viewing","0","16","1A,15A,26C","","","","","","","","","","","","","","","","","","","",""
"","","","","","html-slider-response","248","1505864","0.0-25.0-1.13","9b7d72d7-d6e7-4718-8e0b-95ee0fd6cc3f","1711","
                  <p style=""text-align: center;"">₪39
                                                <br>65%</p>
                  <p id=""wtp"" style=""text-align:center; margin-top: 0px; margin-bottom: 0px; font-size: 40px"";>מוכנים לשלם: <span id=""c_p_y""></span></p>","2","evaluation","30","16","1A,15A,26C","65","39","3","","","","","","","","","","","","","","","","",""
