"success","timeout","failed_images","failed_audio","failed_video","trial_type","trial_index","time_elapsed","internal_node_id","subject_id","rt","stimulus","response","part","slider_start","ID","set_ID","prob","amount","last_location","actual_choice","actual_EV","binary_id","trinary_id","catch","A_key","D_key","choice_prob","choice_amount","chosen_part","potential_prize_prob","potential_prize_amount","won_prize","total_prize","prize_cost","remaining_budget","accuracy"
"true","false","[]","[]","[]","preload","0","114","0.0-0.0","03cbde16-3b69-4c03-bac2-7359d2f67f94","","","","","","","","","","","","","","","","","","","","","","","","","","",""
"","","","","","html-keyboard-response","1","855769","0.0-1.0","03cbde16-3b69-4c03-bac2-7359d2f67f94","null","
          <h1>שלום וברוכים הבאים!</h1>
          <p>לפניכם ניסוי בקבלת החלטות עם שני חלקים.
          <br><br>לחצו על העכבר כדי להמשיך.</p>","0","example","","","","","","","","","","","","","","","","","","","","","","",""
"","","","","","html-keyboard-response","2","866544","0.0-2.0","03cbde16-3b69-4c03-bac2-7359d2f67f94","null","
        <h1>חלק 1</h1>
        <p>בקרוב יוצגו בפניכם הגרלות.
        <br>עליכם לבחור את המחיר המירבי שתהיו מוכנים לשלם כדי להשתתף בהגרלה שתוצג.
        <br>יש לכם תקציב של ₪80 לכל הגרלה. 
        <br>נסו להעריך כל הגרלה בנפרד ולחשוב כמה היא שווה עבורכם, ₪80 זמינים לכל הגרלה בנפרד.
        <br><br>לחצו על העכבר כדי להמשיך.</p>","1","instructions","","","","","","","","","","","","","","","","","","","","","","",""
"","","","","","html-keyboard-response","3","879464","0.0-3.0","03cbde16-3b69-4c03-bac2-7359d2f67f94","null","
        <p>בסוף הניסוי, המחשב יבחר את אחת ההגרלות ויקבע מחיר לכרטיס עבורה. 
        <br>במידה והמחיר שבחרתם נמוך מהמחיר שנבחר על ידי המחשב, לא תשתתפו בהגרלה ותשארו עם מלוא התקציב.
        <br>במידה והמחיר שבחרתם גבוה מהמחיר שנבחר על ידי המחשב, תשלמו את המחיר שנקבע ותשתתפו בהגרלה.
        <br><br>לחצו על העכבר כדי להמשיך.</p>","1","instructions","","","","","","","","","","","","","","","","","","","","","","",""
"","","","","","html-slider-response","4","887296","0.0-4.0","03cbde16-3b69-4c03-bac2-7359d2f67f94","7723","
        <p style=""font-size: 42px;"">נתחיל עם דוגמא: 
        <br>ההגרלה מטה מציעה 65% סיכוי לזכות ב-₪40 
        <br>&emsp;&emsp;&emsp;&emsp;&emsp;&emsp;&emsp;&emsp;&ensp;35% סיכוי לזכות ב-₪0.
        <br><br>מה המחיר המירבי שתהיו מוכנים לשלם על כרטיס להגרלה זו בין 0 ל-₪80?
        <br>הזיזו את העכבר על פני המלבן ולחצו כדי לבצע בחירה.</p>
        
        <p style=""text-align: center;"">₪40<br>65%</p>

        <p id=""wtp"" style=""text-align:center; margin-top: 0px; margin-bottom: 0px; font-size: 40px"";>מוכנים לשלם: <span id=""c_p_y""></span></p>","24","example","1","","","","","","","","","","","","","","","","","","","","","",""
"","","","","","html-keyboard-response","5","899688","0.0-5.0","03cbde16-3b69-4c03-bac2-7359d2f67f94","null","<p>יפה מאוד!
                <br> בחרתם שתהיו מוכנים לשלם ₪24 כדי להשתתף בהגרלה:
                <br><p style=""text-align: center;"">₪40<br>65%</p>
                <p>נשמע נכון?
                <br>נניח שהגרלה זו נבחרה בסוף הניסוי.
                <br>כעת המחשב יקבע מחיר עבורה באקראי.
                <br>לחצו על העכבר להמשך.</p>","1","example","","","","","","","","","","","","","","","","","","","","","","",""
"","","","","","html-keyboard-response","6","909000","0.0-6.0","03cbde16-3b69-4c03-bac2-7359d2f67f94","null","<p>המחשב קבע מחיר: ₪32
                <br>ואתם בחרתם לשלם לכל היותר: ₪24
                <br><br>מכיוון שהמחיר שבחרתם נמוך מהמחיר שנקבע, לא תתשתתפו בהגרלה.
                <br>במקרה כזה, בסוף הניסוי תקבלו את כל התקציב ההתחלתי של ₪80.
                <br><br>לחצו על העכבר להמשך.</p>","1","example","","","","","","","","","","","","","","","","","","","","","","",""
"","","","","","html-slider-response","7","924256","0.0-7.0","03cbde16-3b69-4c03-bac2-7359d2f67f94","14998","<p style=""font-size: 42px;"">הנה עוד דוגמא:
                <br>ההגרלה מטה מציעה 35% סיכוי לזכות ב-₪18 
                <br>&emsp;&emsp;&emsp;&emsp;&emsp;&emsp;&emsp;&emsp;&ensp;65% סיכוי לזכות ב-₪0.</p>
        
                <p style=""text-align: center;"">₪18<br>35%</p>
                <p id=""wtp"" style=""text-align:center; margin-top: 0px; margin-bottom: 0px; font-size: 40px"";>מוכנים לשלם: <span id=""c_p_y""></span></p>","6","example","26","","","","","","","","","","","","","","","","","","","","","",""
"","","","","","html-keyboard-response","8","928680","0.0-8.0","03cbde16-3b69-4c03-bac2-7359d2f67f94","null","<p>הייתם מוכנים לשלם  ₪6 כדי להשתתף בהגרלה:
                <p style=""text-align: center;"">₪18<br>35%</p>
                <p>כעת נניח שהמחשב בחר את ההגרלה הזו בסוף הניסוי, וקבע עבורה מחיר.
                <br><br>לחצו על העכבר כדי להמשיך.</p>","1","instructions","","","","","","","","","","","","","","","","","","","","","","",""
"","","","","","html-keyboard-response","9","939520","0.0-9.0","03cbde16-3b69-4c03-bac2-7359d2f67f94","null","<p>המחשב קבע מחיר להגרלה: ₪1<br>ואתם בחרתם לשלם לכל היותר: ₪6
                <br><br>כעת המחיר שנקבע נמוך מזה שבחרתם, אז תשלמו את המחיר שקבע המחשב (₪1) ותשתתפו בהגרלה.
                <br>במקרה כזה, תסיימו את הניסוי עם תקציב של ₪79 ועם סיכוי לזכות ב-₪18 נוספים מההגרלה.
                <br>כלומר, תוכלו לקבל ₪79 אם לא תזכו בהגרלה, או ₪97 אם תזכו בהגרלה.
                <br><br>לחצו על העכבר להמשך.</p>","1","example","","","","","","","","","","","","","","","","","","","","","","",""
"","","","","","html-keyboard-response","10","945408","0.0-10.0","03cbde16-3b69-4c03-bac2-7359d2f67f94","null","<p>במהלך הניסוי, קודם תראו את ההגרלה ורק לאחר מכן תוכלו לבחור.
                <p>כמו כן, יהיו לכם מספר שניות מוגבל להגיב.
                <p>בואו ננסה זאת עם ההגרלה הקודמת.
                <br>לחצו על העכבר כדי להמשיך.</p>","1","instructions","","","","","","","","","","","","","","","","","","","","","","",""
"","","","","","html-slider-response","11","946676","0.0-11.0","03cbde16-3b69-4c03-bac2-7359d2f67f94","1000","
                    <p style=""text-align: center;"">₪18<br>35%</p>
                    <p id=""wtp"" style=""text-align:center; margin-top: 0px; margin-bottom: 0px; font-size: 40px"";>&ensp;</p>","0","instructions","0","","","","","","","","","","","","","","","","","","","","","",""
"","","","","","html-slider-response","12","950312","0.0-12.0","03cbde16-3b69-4c03-bac2-7359d2f67f94","3382","
                    <p style=""text-align: center;"">₪18<br>35%</p>
                    <p id=""wtp"" style=""text-align:center; margin-top: 0px; margin-bottom: 0px; font-size: 40px"";>מוכנים לשלם: <span id=""c_p_y""></span></p>","9","instructions","57","","","","","","","","","","","","","","","","","","","","","",""
"","","","","","html-keyboard-response","13","953768","0.0-13.0","03cbde16-3b69-4c03-bac2-7359d2f67f94","null","<p>יפה. הפעם בחרתם לשלם לכל היותר ₪9.
                <br><br>לחצו על העכבר כדי להמשיך.</p>","1","instructions","","","","","","","","","","","","","","","","","","","","","","",""
"","","","","","html-keyboard-response","14","966160","0.0-15.0","03cbde16-3b69-4c03-bac2-7359d2f67f94","null","<p>כעת נתחיל את הניסוי.
                <br><br>אתם תראו הגרלות ותתבקשו לבחור כמה תהיו מוכנים לשלם כדי להשתתף בהן.
                <br>יש לכם תקציב של ₪80 עבור כל הגרלה.
                <br>בסוף הניסוי הגרלה אחת תבחר באקראי ותשוחק.
                <br><br>לחצו על העכבר כדי להתחיל את הניסוי.</p>","1","instructions","","","","","","","","","","","","","","","","","","","","","","",""
"","","","","","html-keyboard-response","15","967416","0.0-16.0","03cbde16-3b69-4c03-bac2-7359d2f67f94","null","<p style=""text-align: center;"">+</p>","null","fixation","","","","","","","","","","","","","","","","","","","","","","",""
"","","","","","html-slider-response","16","968431","0.0-17.0-0.0","03cbde16-3b69-4c03-bac2-7359d2f67f94","1000","
                  <p style=""text-align: center;"">₪61
                                                <br>45%</p>
                  <p id=""wtp"" style=""text-align:center; margin-top: 0px; margin-bottom: 0px; font-size: 40px"";>&ensp;</p>","-","viewing","0","22","10A,11A","","","","","","","","","","","","","","","","","","","",""
"","","","","","html-slider-response","17","971760","0.0-17.0-1.0","03cbde16-3b69-4c03-bac2-7359d2f67f94","3327","
                  <p style=""text-align: center;"">₪61
                                                <br>45%</p>
                  <p id=""wtp"" style=""text-align:center; margin-top: 0px; margin-bottom: 0px; font-size: 40px"";>מוכנים לשלם: <span id=""c_p_y""></span></p>","25","evaluation","21","22","10A,11A","45","61","25","","","","","","","","","","","","","","","","",""
"","","","","","html-keyboard-response","18","972608","0.0-17.0-2.0","03cbde16-3b69-4c03-bac2-7359d2f67f94","null","<p style=""text-align: center;"">+</p>","null","fixation","","","","","","","","","","","","","","","","","","","","","","",""
"","","","","","html-slider-response","19","973612","0.0-17.0-0.1","03cbde16-3b69-4c03-bac2-7359d2f67f94","1000","
                  <p style=""text-align: center;"">₪76
                                                <br>65%</p>
                  <p id=""wtp"" style=""text-align:center; margin-top: 0px; margin-bottom: 0px; font-size: 40px"";>&ensp;</p>","-","viewing","0","29","8C,19A,24B","","","","","","","","","","","","","","","","","","","",""
"","","","","","html-slider-response","20","977621","0.0-17.0-1.1","03cbde16-3b69-4c03-bac2-7359d2f67f94","null","
                  <p style=""text-align: center;"">₪76
                                                <br>65%</p>
                  <p id=""wtp"" style=""text-align:center; margin-top: 0px; margin-bottom: 0px; font-size: 40px"";>מוכנים לשלם: <span id=""c_p_y""></span></p>","null","evaluation","41","29","8C,19A,24B","65","76","19","","","","","","","","","","","","","","","","",""
"","","","","","html-keyboard-response","21","978422","0.0-17.0-2.1","03cbde16-3b69-4c03-bac2-7359d2f67f94","null","<p style=""text-align: center;"">+</p>","null","fixation","","","","","","","","","","","","","","","","","","","","","","",""
"","","","","","html-slider-response","22","979424","0.0-17.0-0.2","03cbde16-3b69-4c03-bac2-7359d2f67f94","1000","
                  <p style=""text-align: center;"">₪11
                                                <br>45%</p>
                  <p id=""wtp"" style=""text-align:center; margin-top: 0px; margin-bottom: 0px; font-size: 40px"";>&ensp;</p>","-","viewing","0","6","14B,21C,25C","","","","","","","","","","","","","","","","","","","",""
"","","","","","html-slider-response","23","981432","0.0-17.0-1.2","03cbde16-3b69-4c03-bac2-7359d2f67f94","2007","
                  <p style=""text-align: center;"">₪11
                                                <br>45%</p>
                  <p id=""wtp"" style=""text-align:center; margin-top: 0px; margin-bottom: 0px; font-size: 40px"";>מוכנים לשלם: <span id=""c_p_y""></span></p>","7","evaluation","55","6","14B,21C,25C","45","11","7","","","","","","","","","","","","","","","","",""
"","","","","","html-keyboard-response","24","982640","0.0-17.0-2.2","03cbde16-3b69-4c03-bac2-7359d2f67f94","null","<p style=""text-align: center;"">+</p>","null","fixation","","","","","","","","","","","","","","","","","","","","","","",""
"","","","","","html-slider-response","25","983647","0.0-17.0-0.3","03cbde16-3b69-4c03-bac2-7359d2f67f94","1000","
                  <p style=""text-align: center;"">₪11
                                                <br>75%</p>
                  <p id=""wtp"" style=""text-align:center; margin-top: 0px; margin-bottom: 0px; font-size: 40px"";>&ensp;</p>","-","viewing","0","7","6B,18B,22C,24C,29A","","","","","","","","","","","","","","","","","","","",""
"","","","","","html-slider-response","26","986888","0.0-17.0-1.3","03cbde16-3b69-4c03-bac2-7359d2f67f94","3239","
                  <p style=""text-align: center;"">₪11
                                                <br>75%</p>
                  <p id=""wtp"" style=""text-align:center; margin-top: 0px; margin-bottom: 0px; font-size: 40px"";>מוכנים לשלם: <span id=""c_p_y""></span></p>","1","evaluation","46","7","6B,18B,22C,24C,29A","75","11","1","","","","","","","","","","","","","","","","",""
"","","","","","html-keyboard-response","27","987394","0.0-17.0-2.3","03cbde16-3b69-4c03-bac2-7359d2f67f94","null","<p style=""text-align: center;"">+</p>","null","fixation","","","","","","","","","","","","","","","","","","","","","","",""
"","","","","","html-slider-response","28","988403","0.0-17.0-0.4","03cbde16-3b69-4c03-bac2-7359d2f67f94","1000","
                  <p style=""text-align: center;"">₪64
                                                <br>25%</p>
                  <p id=""wtp"" style=""text-align:center; margin-top: 0px; margin-bottom: 0px; font-size: 40px"";>&ensp;</p>","-","viewing","0","24","6A,21A","","","","","","","","","","","","","","","","","","","",""
"","","","","","html-slider-response","29","992418","0.0-17.0-1.4","03cbde16-3b69-4c03-bac2-7359d2f67f94","null","
                  <p style=""text-align: center;"">₪64
                                                <br>25%</p>
                  <p id=""wtp"" style=""text-align:center; margin-top: 0px; margin-bottom: 0px; font-size: 40px"";>מוכנים לשלם: <span id=""c_p_y""></span></p>","null","evaluation","70","24","6A,21A","25","64","20","","","","","","","","","","","","","","","","",""
"","","","","","html-keyboard-response","30","993454","0.0-17.0-2.4","03cbde16-3b69-4c03-bac2-7359d2f67f94","null","<p style=""text-align: center;"">+</p>","null","fixation","","","","","","","","","","","","","","","","","","","","","","",""
"","","","","","html-slider-response","31","994457","0.0-17.0-0.5","03cbde16-3b69-4c03-bac2-7359d2f67f94","1000","
                  <p style=""text-align: center;"">₪4
                                                <br>25%</p>
                  <p id=""wtp"" style=""text-align:center; margin-top: 0px; margin-bottom: 0px; font-size: 40px"";>&ensp;</p>","-","viewing","0","1","6C,29B,30C","","","","","","","","","","","","","","","","","","","",""
"","","","","","html-slider-response","32","995791","0.0-17.0-1.5","03cbde16-3b69-4c03-bac2-7359d2f67f94","1333","
                  <p style=""text-align: center;"">₪4
                                                <br>25%</p>
                  <p id=""wtp"" style=""text-align:center; margin-top: 0px; margin-bottom: 0px; font-size: 40px"";>מוכנים לשלם: <span id=""c_p_y""></span></p>","1","evaluation","13","1","6C,29B,30C","25","4","2","","","","","","","","","","","","","","","","",""
"","","","","","html-keyboard-response","33","997184","0.0-17.0-2.5","03cbde16-3b69-4c03-bac2-7359d2f67f94","null","<p style=""text-align: center;"">+</p>","null","fixation","","","","","","","","","","","","","","","","","","","","","","",""
"","","","","","html-slider-response","34","998194","0.0-17.0-0.6","03cbde16-3b69-4c03-bac2-7359d2f67f94","1000","
                  <p style=""text-align: center;"">₪36
                                                <br>30%</p>
                  <p id=""wtp"" style=""text-align:center; margin-top: 0px; margin-bottom: 0px; font-size: 40px"";>&ensp;</p>","-","viewing","0","11","3C,20A,22A","","","","","","","","","","","","","","","","","","","",""
"","","","","","html-slider-response","35","1000728","0.0-17.0-1.6","03cbde16-3b69-4c03-bac2-7359d2f67f94","2532","
                  <p style=""text-align: center;"">₪36
                                                <br>30%</p>
                  <p id=""wtp"" style=""text-align:center; margin-top: 0px; margin-bottom: 0px; font-size: 40px"";>מוכנים לשלם: <span id=""c_p_y""></span></p>","5","evaluation","30","11","3C,20A,22A","30","36","5","","","","","","","","","","","","","","","","",""
"","","","","","html-keyboard-response","36","1001893","0.0-17.0-2.6","03cbde16-3b69-4c03-bac2-7359d2f67f94","null","<p style=""text-align: center;"">+</p>","null","fixation","","","","","","","","","","","","","","","","","","","","","","",""
"","","","","","html-slider-response","37","1002898","0.0-17.0-0.7","03cbde16-3b69-4c03-bac2-7359d2f67f94","1000","
                  <p style=""text-align: center;"">₪58
                                                <br>45%</p>
                  <p id=""wtp"" style=""text-align:center; margin-top: 0px; margin-bottom: 0px; font-size: 40px"";>&ensp;</p>","-","viewing","0","21","11C,18C,25A","","","","","","","","","","","","","","","","","","","",""
"","","","","","html-slider-response","38","1006024","0.0-17.0-1.7","03cbde16-3b69-4c03-bac2-7359d2f67f94","3124","
                  <p style=""text-align: center;"">₪58
                                                <br>45%</p>
                  <p id=""wtp"" style=""text-align:center; margin-top: 0px; margin-bottom: 0px; font-size: 40px"";>מוכנים לשלם: <span id=""c_p_y""></span></p>","20","evaluation","8","21","11C,18C,25A","45","58","20","","","","","","","","","","","","","","","","",""
"","","","","","html-keyboard-response","39","1007520","0.0-17.0-2.7","03cbde16-3b69-4c03-bac2-7359d2f67f94","null","<p style=""text-align: center;"">+</p>","null","fixation","","","","","","","","","","","","","","","","","","","","","","",""
"","","","","","html-slider-response","40","1008522","0.0-17.0-0.8","03cbde16-3b69-4c03-bac2-7359d2f67f94","1000","
                  <p style=""text-align: center;"">₪61
                                                <br>55%</p>
                  <p id=""wtp"" style=""text-align:center; margin-top: 0px; margin-bottom: 0px; font-size: 40px"";>&ensp;</p>","-","viewing","0","23","7B,26B","","","","","","","","","","","","","","","","","","","",""
"","","","","","html-slider-response","41","1011672","0.0-17.0-1.8","03cbde16-3b69-4c03-bac2-7359d2f67f94","3149","
                  <p style=""text-align: center;"">₪61
                                                <br>55%</p>
                  <p id=""wtp"" style=""text-align:center; margin-top: 0px; margin-bottom: 0px; font-size: 40px"";>מוכנים לשלם: <span id=""c_p_y""></span></p>","16","evaluation","56","23","7B,26B","55","61","16","","","","","","","","","","","","","","","","",""
"","","","","","html-keyboard-response","42","1012414","0.0-17.0-2.8","03cbde16-3b69-4c03-bac2-7359d2f67f94","null","<p style=""text-align: center;"">+</p>","null","fixation","","","","","","","","","","","","","","","","","","","","","","",""
"","","","","","html-slider-response","43","1013426","0.0-17.0-0.9","03cbde16-3b69-4c03-bac2-7359d2f67f94","1000","
                  <p style=""text-align: center;"">₪64
                                                <br>50%</p>
                  <p id=""wtp"" style=""text-align:center; margin-top: 0px; margin-bottom: 0px; font-size: 40px"";>&ensp;</p>","-","viewing","0","25","1B,3B,4A","","","","","","","","","","","","","","","","","","","",""
"","","","","","html-slider-response","44","1017264","0.0-17.0-1.9","03cbde16-3b69-4c03-bac2-7359d2f67f94","3837","
                  <p style=""text-align: center;"">₪64
                                                <br>50%</p>
                  <p id=""wtp"" style=""text-align:center; margin-top: 0px; margin-bottom: 0px; font-size: 40px"";>מוכנים לשלם: <span id=""c_p_y""></span></p>","24","evaluation","61","25","1B,3B,4A","50","64","24","","","","","","","","","","","","","","","","",""
"","","","","","html-keyboard-response","45","1018175","0.0-17.0-2.9","03cbde16-3b69-4c03-bac2-7359d2f67f94","null","<p style=""text-align: center;"">+</p>","null","fixation","","","","","","","","","","","","","","","","","","","","","","",""
"","","","","","html-slider-response","46","1019182","0.0-17.0-0.10","03cbde16-3b69-4c03-bac2-7359d2f67f94","1000","
                  <p style=""text-align: center;"">₪58
                                                <br>30%</p>
                  <p id=""wtp"" style=""text-align:center; margin-top: 0px; margin-bottom: 0px; font-size: 40px"";>&ensp;</p>","-","viewing","0","19","13C,30A","","","","","","","","","","","","","","","","","","","",""
"","","","","","html-slider-response","47","1020879","0.0-17.0-1.10","03cbde16-3b69-4c03-bac2-7359d2f67f94","1696","
                  <p style=""text-align: center;"">₪58
                                                <br>30%</p>
                  <p id=""wtp"" style=""text-align:center; margin-top: 0px; margin-bottom: 0px; font-size: 40px"";>מוכנים לשלם: <span id=""c_p_y""></span></p>","2","evaluation","54","19","13C,30A","30","58","2","","","","","","","","","","","","","","","","",""
"","","","","","html-keyboard-response","48","1022300","0.0-17.0-2.10","03cbde16-3b69-4c03-bac2-7359d2f67f94","null","<p style=""text-align: center;"">+</p>","null","fixation","","","","","","","","","","","","","","","","","","","","","","",""
"","","","","","html-slider-response","49","1023303","0.0-17.0-0.11","03cbde16-3b69-4c03-bac2-7359d2f67f94","1000","
                  <p style=""text-align: center;"">₪18
                                                <br>25%</p>
                  <p id=""wtp"" style=""text-align:center; margin-top: 0px; margin-bottom: 0px; font-size: 40px"";>&ensp;</p>","-","viewing","0","9","14A,23A","","","","","","","","","","","","","","","","","","","",""
"","","","","","html-slider-response","50","1025200","0.0-17.0-1.11","03cbde16-3b69-4c03-bac2-7359d2f67f94","1895","
                  <p style=""text-align: center;"">₪18
                                                <br>25%</p>
                  <p id=""wtp"" style=""text-align:center; margin-top: 0px; margin-bottom: 0px; font-size: 40px"";>מוכנים לשלם: <span id=""c_p_y""></span></p>","9","evaluation","74","9","14A,23A","25","18","9","","","","","","","","","","","","","","","","",""
"","","","","","html-keyboard-response","51","1026643","0.0-17.0-2.11","03cbde16-3b69-4c03-bac2-7359d2f67f94","null","<p style=""text-align: center;"">+</p>","null","fixation","","","","","","","","","","","","","","","","","","","","","","",""
"","","","","","html-slider-response","52","1027656","0.0-17.0-0.12","03cbde16-3b69-4c03-bac2-7359d2f67f94","1000","
                  <p style=""text-align: center;"">₪79
                                                <br>40%</p>
                  <p id=""wtp"" style=""text-align:center; margin-top: 0px; margin-bottom: 0px; font-size: 40px"";>&ensp;</p>","-","viewing","0","30","9B","","","","","","","","","","","","","","","","","","","",""
"","","","","","html-slider-response","53","1030312","0.0-17.0-1.12","03cbde16-3b69-4c03-bac2-7359d2f67f94","2654","
                  <p style=""text-align: center;"">₪79
                                                <br>40%</p>
                  <p id=""wtp"" style=""text-align:center; margin-top: 0px; margin-bottom: 0px; font-size: 40px"";>מוכנים לשלם: <span id=""c_p_y""></span></p>","20","evaluation","74","30","9B","40","79","21","","","","","","","","","","","","","","","","",""
"","","","","","html-keyboard-response","54","1031227","0.0-17.0-2.12","03cbde16-3b69-4c03-bac2-7359d2f67f94","null","<p style=""text-align: center;"">+</p>","null","fixation","","","","","","","","","","","","","","","","","","","","","","",""
"","","","","","html-slider-response","55","1032244","0.0-17.0-0.13","03cbde16-3b69-4c03-bac2-7359d2f67f94","1000","
                  <p style=""text-align: center;"">₪36
                                                <br>75%</p>
                  <p id=""wtp"" style=""text-align:center; margin-top: 0px; margin-bottom: 0px; font-size: 40px"";>&ensp;</p>","-","viewing","0","14","4B,5A,13B,16B","","","","","","","","","","","","","","","","","","","",""
"","","","","","html-slider-response","56","1034872","0.0-17.0-1.13","03cbde16-3b69-4c03-bac2-7359d2f67f94","2627","
                  <p style=""text-align: center;"">₪36
                                                <br>75%</p>
                  <p id=""wtp"" style=""text-align:center; margin-top: 0px; margin-bottom: 0px; font-size: 40px"";>מוכנים לשלם: <span id=""c_p_y""></span></p>","7","evaluation","65","14","4B,5A,13B,16B","75","36","8","","","","","","","","","","","","","","","","",""
"","","","","","html-keyboard-response","57","1036060","0.0-17.0-2.13","03cbde16-3b69-4c03-bac2-7359d2f67f94","null","<p style=""text-align: center;"">+</p>","null","fixation","","","","","","","","","","","","","","","","","","","","","","",""
"","","","","","html-slider-response","58","1037062","0.0-17.0-0.14","03cbde16-3b69-4c03-bac2-7359d2f67f94","1000","
                  <p style=""text-align: center;"">₪71
                                                <br>45%</p>
                  <p id=""wtp"" style=""text-align:center; margin-top: 0px; margin-bottom: 0px; font-size: 40px"";>&ensp;</p>","-","viewing","0","26","2B,16A","","","","","","","","","","","","","","","","","","","",""
"","","","","","html-slider-response","59","1039344","0.0-17.0-1.14","03cbde16-3b69-4c03-bac2-7359d2f67f94","2282","
                  <p style=""text-align: center;"">₪71
                                                <br>45%</p>
                  <p id=""wtp"" style=""text-align:center; margin-top: 0px; margin-bottom: 0px; font-size: 40px"";>מוכנים לשלם: <span id=""c_p_y""></span></p>","13","evaluation","58","26","2B,16A","45","71","13","","","","","","","","","","","","","","","","",""
"","","","","","html-keyboard-response","60","1040767","0.0-17.0-2.14","03cbde16-3b69-4c03-bac2-7359d2f67f94","null","<p style=""text-align: center;"">+</p>","null","fixation","","","","","","","","","","","","","","","","","","","","","","",""
"","","","","","html-slider-response","61","1041769","0.0-17.0-0.15","03cbde16-3b69-4c03-bac2-7359d2f67f94","1000","
                  <p style=""text-align: center;"">₪39
                                                <br>65%</p>
                  <p id=""wtp"" style=""text-align:center; margin-top: 0px; margin-bottom: 0px; font-size: 40px"";>&ensp;</p>","-","viewing","0","16","1A,15A,26C","","","","","","","","","","","","","","","","","","","",""
"","","","","","html-slider-response","62","1043848","0.0-17.0-1.15","03cbde16-3b69-4c03-bac2-7359d2f67f94","2078","
                  <p style=""text-align: center;"">₪39
                                                <br>65%</p>
                  <p id=""wtp"" style=""text-align:center; margin-top: 0px; margin-bottom: 0px; font-size: 40px"";>מוכנים לשלם: <span id=""c_p_y""></span></p>","4","evaluation","65","16","1A,15A,26C","65","39","4","","","","","","","","","","","","","","","","",""
"","","","","","html-keyboard-response","63","1044496","0.0-17.0-2.15","03cbde16-3b69-4c03-bac2-7359d2f67f94","null","<p style=""text-align: center;"">+</p>","null","fixation","","","","","","","","","","","","","","","","","","","","","","",""
"","","","","","html-slider-response","64","1045498","0.0-17.0-0.16","03cbde16-3b69-4c03-bac2-7359d2f67f94","1000","
                  <p style=""text-align: center;"">₪11
                                                <br>20%</p>
                  <p id=""wtp"" style=""text-align:center; margin-top: 0px; margin-bottom: 0px; font-size: 40px"";>&ensp;</p>","-","viewing","0","4","12C,17C,23C,28C","","","","","","","","","","","","","","","","","","","",""
"","","","","","html-slider-response","65","1047096","0.0-17.0-1.16","03cbde16-3b69-4c03-bac2-7359d2f67f94","1597","
                  <p style=""text-align: center;"">₪11
                                                <br>20%</p>
                  <p id=""wtp"" style=""text-align:center; margin-top: 0px; margin-bottom: 0px; font-size: 40px"";>מוכנים לשלם: <span id=""c_p_y""></span></p>","0","evaluation","23","4","12C,17C,23C,28C","20","11","0","","","","","","","","","","","","","","","","",""
"","","","","","html-keyboard-response","66","1048147","0.0-17.0-2.16","03cbde16-3b69-4c03-bac2-7359d2f67f94","null","<p style=""text-align: center;"">+</p>","null","fixation","","","","","","","","","","","","","","","","","","","","","","",""
"","","","","","html-slider-response","67","1049155","0.0-17.0-0.17","03cbde16-3b69-4c03-bac2-7359d2f67f94","1000","
                  <p style=""text-align: center;"">₪39
                                                <br>60%</p>
                  <p id=""wtp"" style=""text-align:center; margin-top: 0px; margin-bottom: 0px; font-size: 40px"";>&ensp;</p>","-","viewing","0","15","9C,25B","","","","","","","","","","","","","","","","","","","",""
"","","","","","html-slider-response","68","1051600","0.0-17.0-1.17","03cbde16-3b69-4c03-bac2-7359d2f67f94","2444","
                  <p style=""text-align: center;"">₪39
                                                <br>60%</p>
                  <p id=""wtp"" style=""text-align:center; margin-top: 0px; margin-bottom: 0px; font-size: 40px"";>מוכנים לשלם: <span id=""c_p_y""></span></p>","19","evaluation","13","15","9C,25B","60","39","19","","","","","","","","","","","","","","","","",""
"","","","","","html-keyboard-response","69","1052743","0.0-17.0-2.17","03cbde16-3b69-4c03-bac2-7359d2f67f94","null","<p style=""text-align: center;"">+</p>","null","fixation","","","","","","","","","","","","","","","","","","","","","","",""
"","","","","","html-slider-response","70","1053748","0.0-17.0-0.18","03cbde16-3b69-4c03-bac2-7359d2f67f94","1000","
                  <p style=""text-align: center;"">₪71
                                                <br>55%</p>
                  <p id=""wtp"" style=""text-align:center; margin-top: 0px; margin-bottom: 0px; font-size: 40px"";>&ensp;</p>","-","viewing","0","27","5B,18A","","","","","","","","","","","","","","","","","","","",""
"","","","","","html-slider-response","71","1056432","0.0-17.0-1.18","03cbde16-3b69-4c03-bac2-7359d2f67f94","2682","
                  <p style=""text-align: center;"">₪71
                                                <br>55%</p>
                  <p id=""wtp"" style=""text-align:center; margin-top: 0px; margin-bottom: 0px; font-size: 40px"";>מוכנים לשלם: <span id=""c_p_y""></span></p>","40","evaluation","6","27","5B,18A","55","71","40","","","","","","","","","","","","","","","","",""
"","","","","","html-keyboard-response","72","1056991","0.0-17.0-2.18","03cbde16-3b69-4c03-bac2-7359d2f67f94","null","<p style=""text-align: center;"">+</p>","null","fixation","","","","","","","","","","","","","","","","","","","","","","",""
"","","","","","html-slider-response","73","1058003","0.0-17.0-0.19","03cbde16-3b69-4c03-bac2-7359d2f67f94","1000","
                  <p style=""text-align: center;"">₪43
                                                <br>75%</p>
                  <p id=""wtp"" style=""text-align:center; margin-top: 0px; margin-bottom: 0px; font-size: 40px"";>&ensp;</p>","-","viewing","0","18","11B,19B,24A,26A","","","","","","","","","","","","","","","","","","","",""
"","","","","","html-slider-response","74","1060592","0.0-17.0-1.19","03cbde16-3b69-4c03-bac2-7359d2f67f94","2587","
                  <p style=""text-align: center;"">₪43
                                                <br>75%</p>
                  <p id=""wtp"" style=""text-align:center; margin-top: 0px; margin-bottom: 0px; font-size: 40px"";>מוכנים לשלם: <span id=""c_p_y""></span></p>","38","evaluation","31","18","11B,19B,24A,26A","75","43","38","","","","","","","","","","","","","","","","",""
"","","","","","html-keyboard-response","75","1061592","0.0-17.0-2.19","03cbde16-3b69-4c03-bac2-7359d2f67f94","null","<p style=""text-align: center;"">+</p>","null","fixation","","","","","","","","","","","","","","","","","","","","","","",""
"","","","","","html-slider-response","76","1062608","0.0-17.0-0.20","03cbde16-3b69-4c03-bac2-7359d2f67f94","1000","
                  <p style=""text-align: center;"">₪43
                                                <br>60%</p>
                  <p id=""wtp"" style=""text-align:center; margin-top: 0px; margin-bottom: 0px; font-size: 40px"";>&ensp;</p>","-","viewing","0","17","2A,7A,9A,15B","","","","","","","","","","","","","","","","","","","",""
"","","","","","html-slider-response","77","1065064","0.0-17.0-1.20","03cbde16-3b69-4c03-bac2-7359d2f67f94","2454","
                  <p style=""text-align: center;"">₪43
                                                <br>60%</p>
                  <p id=""wtp"" style=""text-align:center; margin-top: 0px; margin-bottom: 0px; font-size: 40px"";>מוכנים לשלם: <span id=""c_p_y""></span></p>","30","evaluation","67","17","2A,7A,9A,15B","60","43","30","","","","","","","","","","","","","","","","",""
"","","","","","html-keyboard-response","78","1065863","0.0-17.0-2.20","03cbde16-3b69-4c03-bac2-7359d2f67f94","null","<p style=""text-align: center;"">+</p>","null","fixation","","","","","","","","","","","","","","","","","","","","","","",""
"","","","","","html-slider-response","79","1066879","0.0-17.0-0.21","03cbde16-3b69-4c03-bac2-7359d2f67f94","1000","
                  <p style=""text-align: center;"">₪16
                                                <br>20%</p>
                  <p id=""wtp"" style=""text-align:center; margin-top: 0px; margin-bottom: 0px; font-size: 40px"";>&ensp;</p>","-","viewing","0","8","14C,17A,20C,27A","","","","","","","","","","","","","","","","","","","",""
"","","","","","html-slider-response","80","1068567","0.0-17.0-1.21","03cbde16-3b69-4c03-bac2-7359d2f67f94","1687","
                  <p style=""text-align: center;"">₪16
                                                <br>20%</p>
                  <p id=""wtp"" style=""text-align:center; margin-top: 0px; margin-bottom: 0px; font-size: 40px"";>מוכנים לשלם: <span id=""c_p_y""></span></p>","11","evaluation","42","8","14C,17A,20C,27A","20","16","12","","","","","","","","","","","","","","","","",""
"","","","","","html-keyboard-response","81","1069517","0.0-17.0-2.21","03cbde16-3b69-4c03-bac2-7359d2f67f94","null","<p style=""text-align: center;"">+</p>","null","fixation","","","","","","","","","","","","","","","","","","","","","","",""
"","","","","","html-slider-response","82","1070533","0.0-17.0-0.22","03cbde16-3b69-4c03-bac2-7359d2f67f94","1000","
                  <p style=""text-align: center;"">₪18
                                                <br>50%</p>
                  <p id=""wtp"" style=""text-align:center; margin-top: 0px; margin-bottom: 0px; font-size: 40px"";>&ensp;</p>","-","viewing","0","10","2C,16C,22B,28A","","","","","","","","","","","","","","","","","","","",""
"","","","","","html-slider-response","83","1072960","0.0-17.0-1.22","03cbde16-3b69-4c03-bac2-7359d2f67f94","2426","
                  <p style=""text-align: center;"">₪18
                                                <br>50%</p>
                  <p id=""wtp"" style=""text-align:center; margin-top: 0px; margin-bottom: 0px; font-size: 40px"";>מוכנים לשלם: <span id=""c_p_y""></span></p>","13","evaluation","50","10","2C,16C,22B,28A","50","18","13","","","","","","","","","","","","","","","","",""
"","","","","","html-keyboard-response","84","1073752","0.0-17.0-2.22","03cbde16-3b69-4c03-bac2-7359d2f67f94","null","<p style=""text-align: center;"">+</p>","null","fixation","","","","","","","","","","","","","","","","","","","","","","",""
"","","","","","html-slider-response","85","1074755","0.0-17.0-0.23","03cbde16-3b69-4c03-bac2-7359d2f67f94","1000","
                  <p style=""text-align: center;"">₪79
                                                <br>65%</p>
                  <p id=""wtp"" style=""text-align:center; margin-top: 0px; margin-bottom: 0px; font-size: 40px"";>&ensp;</p>","-","viewing","0","31","8A","","","","","","","","","","","","","","","","","","","",""
"","","","","","html-slider-response","86","1076464","0.0-17.0-1.23","03cbde16-3b69-4c03-bac2-7359d2f67f94","1708","
                  <p style=""text-align: center;"">₪79
                                                <br>65%</p>
                  <p id=""wtp"" style=""text-align:center; margin-top: 0px; margin-bottom: 0px; font-size: 40px"";>מוכנים לשלם: <span id=""c_p_y""></span></p>","39","evaluation","60","31","8A","65","79","39","","","","","","","","","","","","","","","","",""
"","","","","","html-keyboard-response","87","1077683","0.0-17.0-2.23","03cbde16-3b69-4c03-bac2-7359d2f67f94","null","<p style=""text-align: center;"">+</p>","null","fixation","","","","","","","","","","","","","","","","","","","","","","",""
"","","","","","html-slider-response","88","1078691","0.0-17.0-0.24","03cbde16-3b69-4c03-bac2-7359d2f67f94","1000","
                  <p style=""text-align: center;"">₪71
                                                <br>75%</p>
                  <p id=""wtp"" style=""text-align:center; margin-top: 0px; margin-bottom: 0px; font-size: 40px"";>&ensp;</p>","-","viewing","0","28","8B","","","","","","","","","","","","","","","","","","","",""
"","","","","","html-slider-response","89","1080872","0.0-17.0-1.24","03cbde16-3b69-4c03-bac2-7359d2f67f94","2180","
                  <p style=""text-align: center;"">₪71
                                                <br>75%</p>
                  <p id=""wtp"" style=""text-align:center; margin-top: 0px; margin-bottom: 0px; font-size: 40px"";>מוכנים לשלם: <span id=""c_p_y""></span></p>","43","evaluation","49","28","8B","75","71","43","","","","","","","","","","","","","","","","",""
"","","","","","html-keyboard-response","90","1081594","0.0-17.0-2.24","03cbde16-3b69-4c03-bac2-7359d2f67f94","null","<p style=""text-align: center;"">+</p>","null","fixation","","","","","","","","","","","","","","","","","","","","","","",""
"","","","","","html-slider-response","91","1082596","0.0-17.0-0.25","03cbde16-3b69-4c03-bac2-7359d2f67f94","1000","
                  <p style=""text-align: center;"">₪58
                                                <br>40%</p>
                  <p id=""wtp"" style=""text-align:center; margin-top: 0px; margin-bottom: 0px; font-size: 40px"";>&ensp;</p>","-","viewing","0","20","10C,13A,19C,21B","","","","","","","","","","","","","","","","","","","",""
"","","","","","html-slider-response","92","1084593","0.0-17.0-1.25","03cbde16-3b69-4c03-bac2-7359d2f67f94","1996","
                  <p style=""text-align: center;"">₪58
                                                <br>40%</p>
                  <p id=""wtp"" style=""text-align:center; margin-top: 0px; margin-bottom: 0px; font-size: 40px"";>מוכנים לשלם: <span id=""c_p_y""></span></p>","15","evaluation","17","20","10C,13A,19C,21B","40","58","15","","","","","","","","","","","","","","","","",""
"","","","","","html-keyboard-response","93","1085183","0.0-17.0-2.25","03cbde16-3b69-4c03-bac2-7359d2f67f94","null","<p style=""text-align: center;"">+</p>","null","fixation","","","","","","","","","","","","","","","","","","","","","","",""
"","","","","","html-slider-response","94","1086198","0.0-17.0-0.26","03cbde16-3b69-4c03-bac2-7359d2f67f94","1000","
                  <p style=""text-align: center;"">₪4
                                                <br>75%</p>
                  <p id=""wtp"" style=""text-align:center; margin-top: 0px; margin-bottom: 0px; font-size: 40px"";>&ensp;</p>","-","viewing","0","3","12B,20B,23B,27C,29C","","","","","","","","","","","","","","","","","","","",""
"","","","","","html-slider-response","95","1088256","0.0-17.0-1.26","03cbde16-3b69-4c03-bac2-7359d2f67f94","2057","
                  <p style=""text-align: center;"">₪4
                                                <br>75%</p>
                  <p id=""wtp"" style=""text-align:center; margin-top: 0px; margin-bottom: 0px; font-size: 40px"";>מוכנים לשלם: <span id=""c_p_y""></span></p>","8","evaluation","13","3","12B,20B,23B,27C,29C","75","4","8","","","","","","","","","","","","","","","","",""
"","","","","","html-keyboard-response","96","1089299","0.0-17.0-2.26","03cbde16-3b69-4c03-bac2-7359d2f67f94","null","<p style=""text-align: center;"">+</p>","null","fixation","","","","","","","","","","","","","","","","","","","","","","",""
"","","","","","html-slider-response","97","1090303","0.0-17.0-0.27","03cbde16-3b69-4c03-bac2-7359d2f67f94","1000","
                  <p style=""text-align: center;"">₪36
                                                <br>70%</p>
                  <p id=""wtp"" style=""text-align:center; margin-top: 0px; margin-bottom: 0px; font-size: 40px"";>&ensp;</p>","-","viewing","0","13","3A,5C,10B","","","","","","","","","","","","","","","","","","","",""
"","","","","","html-slider-response","98","1092640","0.0-17.0-1.27","03cbde16-3b69-4c03-bac2-7359d2f67f94","2335","
                  <p style=""text-align: center;"">₪36
                                                <br>70%</p>
                  <p id=""wtp"" style=""text-align:center; margin-top: 0px; margin-bottom: 0px; font-size: 40px"";>מוכנים לשלם: <span id=""c_p_y""></span></p>","17","evaluation","72","13","3A,5C,10B","70","36","17","","","","","","","","","","","","","","","","",""
"","","","","","html-keyboard-response","99","1093437","0.0-17.0-2.27","03cbde16-3b69-4c03-bac2-7359d2f67f94","null","<p style=""text-align: center;"">+</p>","null","fixation","","","","","","","","","","","","","","","","","","","","","","",""
"","","","","","html-slider-response","100","1094441","0.0-17.0-0.28","03cbde16-3b69-4c03-bac2-7359d2f67f94","1000","
                  <p style=""text-align: center;"">₪11
                                                <br>25%</p>
                  <p id=""wtp"" style=""text-align:center; margin-top: 0px; margin-bottom: 0px; font-size: 40px"";>&ensp;</p>","-","viewing","0","5","12A,27B,28B,30B","","","","","","","","","","","","","","","","","","","",""
"","","","","","html-slider-response","101","1096504","0.0-17.0-1.28","03cbde16-3b69-4c03-bac2-7359d2f67f94","2062","
                  <p style=""text-align: center;"">₪11
                                                <br>25%</p>
                  <p id=""wtp"" style=""text-align:center; margin-top: 0px; margin-bottom: 0px; font-size: 40px"";>מוכנים לשלם: <span id=""c_p_y""></span></p>","5","evaluation","24","5","12A,27B,28B,30B","25","11","6","","","","","","","","","","","","","","","","",""
"","","","","","html-keyboard-response","102","1097980","0.0-17.0-2.28","03cbde16-3b69-4c03-bac2-7359d2f67f94","null","<p style=""text-align: center;"">+</p>","null","fixation","","","","","","","","","","","","","","","","","","","","","","",""
"","","","","","html-slider-response","103","1098993","0.0-17.0-0.29","03cbde16-3b69-4c03-bac2-7359d2f67f94","1000","
                  <p style=""text-align: center;"">₪4
                                                <br>50%</p>
                  <p id=""wtp"" style=""text-align:center; margin-top: 0px; margin-bottom: 0px; font-size: 40px"";>&ensp;</p>","-","viewing","0","2","4C,17B","","","","","","","","","","","","","","","","","","","",""
"","","","","","html-slider-response","104","1100520","0.0-17.0-1.29","03cbde16-3b69-4c03-bac2-7359d2f67f94","1525","
                  <p style=""text-align: center;"">₪4
                                                <br>50%</p>
                  <p id=""wtp"" style=""text-align:center; margin-top: 0px; margin-bottom: 0px; font-size: 40px"";>מוכנים לשלם: <span id=""c_p_y""></span></p>","2","evaluation","69","2","4C,17B","50","4","2","","","","","","","","","","","","","","","","",""
"","","","","","html-keyboard-response","105","1101159","0.0-17.0-2.29","03cbde16-3b69-4c03-bac2-7359d2f67f94","null","<p style=""text-align: center;"">+</p>","null","fixation","","","","","","","","","","","","","","","","","","","","","","",""
"","","","","","html-slider-response","106","1102167","0.0-17.0-0.30","03cbde16-3b69-4c03-bac2-7359d2f67f94","1000","
                  <p style=""text-align: center;"">₪36
                                                <br>60%</p>
                  <p id=""wtp"" style=""text-align:center; margin-top: 0px; margin-bottom: 0px; font-size: 40px"";>&ensp;</p>","-","viewing","0","12","1C,7C,15C","","","","","","","","","","","","","","","","","","","",""
"","","","","","html-slider-response","107","1104208","0.0-17.0-1.30","03cbde16-3b69-4c03-bac2-7359d2f67f94","2040","
                  <p style=""text-align: center;"">₪36
                                                <br>60%</p>
                  <p id=""wtp"" style=""text-align:center; margin-top: 0px; margin-bottom: 0px; font-size: 40px"";>מוכנים לשלם: <span id=""c_p_y""></span></p>","27","evaluation","49","12","1C,7C,15C","60","36","27","","","","","","","","","","","","","","","","",""
"","","","","","html-keyboard-response","108","1104814","0.0-17.0-2.30","03cbde16-3b69-4c03-bac2-7359d2f67f94","null","<p style=""text-align: center;"">+</p>","null","fixation","","","","","","","","","","","","","","","","","","","","","","",""
"","","","","","html-keyboard-response","109","1105820","0.0-18.0","03cbde16-3b69-4c03-bac2-7359d2f67f94","null","<p style=""text-align: center;"">+</p>","null","fixation","","","","","","","","","","","","","","","","","","","","","","",""
"","","","","","html-keyboard-response","110","1109223","0.0-19.0","03cbde16-3b69-4c03-bac2-7359d2f67f94","null","<p>הפסקה.
          <br>לחצו כדי להמשיך.</p>","1","scan_wait","","","","","","","","","","","","","","","","","","","","","","",""
"","","","","","html-keyboard-response","111","1110232","0.0-20.0","03cbde16-3b69-4c03-bac2-7359d2f67f94","null","<p style=""text-align: center;"">+</p>","null","fixation","","","","","","","","","","","","","","","","","","","","","","",""
"","","","","","html-slider-response","112","1111246","0.0-21.0-0.0","03cbde16-3b69-4c03-bac2-7359d2f67f94","1000","
                  <p style=""text-align: center;"">₪71
                                                <br>45%</p>
                  <p id=""wtp"" style=""text-align:center; margin-top: 0px; margin-bottom: 0px; font-size: 40px"";>&ensp;</p>","-","viewing","0","26","2B,16A","","","","","","","","","","","","","","","","","","","",""
"","","","","","html-slider-response","113","1113527","0.0-21.0-1.0","03cbde16-3b69-4c03-bac2-7359d2f67f94","2280","
                  <p style=""text-align: center;"">₪71
                                                <br>45%</p>
                  <p id=""wtp"" style=""text-align:center; margin-top: 0px; margin-bottom: 0px; font-size: 40px"";>מוכנים לשלם: <span id=""c_p_y""></span></p>","31","evaluation","71","26","2B,16A","45","71","31","","","","","","","","","","","","","","","","",""
"","","","","","html-keyboard-response","114","1114097","0.0-21.0-2.0","03cbde16-3b69-4c03-bac2-7359d2f67f94","null","<p style=""text-align: center;"">+</p>","null","fixation","","","","","","","","","","","","","","","","","","","","","","",""
"","","","","","html-slider-response","115","1115111","0.0-21.0-0.1","03cbde16-3b69-4c03-bac2-7359d2f67f94","1000","
                  <p style=""text-align: center;"">₪16
                                                <br>20%</p>
                  <p id=""wtp"" style=""text-align:center; margin-top: 0px; margin-bottom: 0px; font-size: 40px"";>&ensp;</p>","-","viewing","0","8","14C,17A,20C,27A","","","","","","","","","","","","","","","","","","","",""
"","","","","","html-slider-response","116","1117112","0.0-21.0-1.1","03cbde16-3b69-4c03-bac2-7359d2f67f94","2000","
                  <p style=""text-align: center;"">₪16
                                                <br>20%</p>
                  <p id=""wtp"" style=""text-align:center; margin-top: 0px; margin-bottom: 0px; font-size: 40px"";>מוכנים לשלם: <span id=""c_p_y""></span></p>","4","evaluation","62","8","14C,17A,20C,27A","20","16","5","","","","","","","","","","","","","","","","",""
"","","","","","html-keyboard-response","117","1118158","0.0-21.0-2.1","03cbde16-3b69-4c03-bac2-7359d2f67f94","null","<p style=""text-align: center;"">+</p>","null","fixation","","","","","","","","","","","","","","","","","","","","","","",""
"","","","","","html-slider-response","118","1119166","0.0-21.0-0.2","03cbde16-3b69-4c03-bac2-7359d2f67f94","1000","
                  <p style=""text-align: center;"">₪58
                                                <br>30%</p>
                  <p id=""wtp"" style=""text-align:center; margin-top: 0px; margin-bottom: 0px; font-size: 40px"";>&ensp;</p>","-","viewing","0","19","13C,30A","","","","","","","","","","","","","","","","","","","",""
"","","","","","html-slider-response","119","1121640","0.0-21.0-1.2","03cbde16-3b69-4c03-bac2-7359d2f67f94","2473","
                  <p style=""text-align: center;"">₪58
                                                <br>30%</p>
                  <p id=""wtp"" style=""text-align:center; margin-top: 0px; margin-bottom: 0px; font-size: 40px"";>מוכנים לשלם: <span id=""c_p_y""></span></p>","13","evaluation","67","19","13C,30A","30","58","13","","","","","","","","","","","","","","","","",""
"","","","","","html-keyboard-response","120","1122366","0.0-21.0-2.2","03cbde16-3b69-4c03-bac2-7359d2f67f94","null","<p style=""text-align: center;"">+</p>","null","fixation","","","","","","","","","","","","","","","","","","","","","","",""
"","","","","","html-slider-response","121","1123370","0.0-21.0-0.3","03cbde16-3b69-4c03-bac2-7359d2f67f94","1000","
                  <p style=""text-align: center;"">₪18
                                                <br>25%</p>
                  <p id=""wtp"" style=""text-align:center; margin-top: 0px; margin-bottom: 0px; font-size: 40px"";>&ensp;</p>","-","viewing","0","9","14A,23A","","","","","","","","","","","","","","","","","","","",""
"","","","","","html-slider-response","122","1125128","0.0-21.0-1.3","03cbde16-3b69-4c03-bac2-7359d2f67f94","1757","
                  <p style=""text-align: center;"">₪18
                                                <br>25%</p>
                  <p id=""wtp"" style=""text-align:center; margin-top: 0px; margin-bottom: 0px; font-size: 40px"";>מוכנים לשלם: <span id=""c_p_y""></span></p>","4","evaluation","64","9","14A,23A","25","18","5","","","","","","","","","","","","","","","","",""
"","","","","","html-keyboard-response","123","1126495","0.0-21.0-2.3","03cbde16-3b69-4c03-bac2-7359d2f67f94","null","<p style=""text-align: center;"">+</p>","null","fixation","","","","","","","","","","","","","","","","","","","","","","",""
"","","","","","html-slider-response","124","1127507","0.0-21.0-0.4","03cbde16-3b69-4c03-bac2-7359d2f67f94","1000","
                  <p style=""text-align: center;"">₪36
                                                <br>30%</p>
                  <p id=""wtp"" style=""text-align:center; margin-top: 0px; margin-bottom: 0px; font-size: 40px"";>&ensp;</p>","-","viewing","0","11","3C,20A,22A","","","","","","","","","","","","","","","","","","","",""
"","","","","","html-slider-response","125","1129736","0.0-21.0-1.4","03cbde16-3b69-4c03-bac2-7359d2f67f94","2228","
                  <p style=""text-align: center;"">₪36
                                                <br>30%</p>
                  <p id=""wtp"" style=""text-align:center; margin-top: 0px; margin-bottom: 0px; font-size: 40px"";>מוכנים לשלם: <span id=""c_p_y""></span></p>","20","evaluation","15","11","3C,20A,22A","30","36","20","","","","","","","","","","","","","","","","",""
"","","","","","html-keyboard-response","126","1131092","0.0-21.0-2.4","03cbde16-3b69-4c03-bac2-7359d2f67f94","null","<p style=""text-align: center;"">+</p>","null","fixation","","","","","","","","","","","","","","","","","","","","","","",""
"","","","","","html-slider-response","127","1132095","0.0-21.0-0.5","03cbde16-3b69-4c03-bac2-7359d2f67f94","1000","
                  <p style=""text-align: center;"">₪43
                                                <br>60%</p>
                  <p id=""wtp"" style=""text-align:center; margin-top: 0px; margin-bottom: 0px; font-size: 40px"";>&ensp;</p>","-","viewing","0","17","2A,7A,9A,15B","","","","","","","","","","","","","","","","","","","",""
"","","","","","html-slider-response","128","1134191","0.0-21.0-1.5","03cbde16-3b69-4c03-bac2-7359d2f67f94","2095","
                  <p style=""text-align: center;"">₪43
                                                <br>60%</p>
                  <p id=""wtp"" style=""text-align:center; margin-top: 0px; margin-bottom: 0px; font-size: 40px"";>מוכנים לשלם: <span id=""c_p_y""></span></p>","18","evaluation","34","17","2A,7A,9A,15B","60","43","18","","","","","","","","","","","","","","","","",""
"","","","","","html-keyboard-response","129","1135081","0.0-21.0-2.5","03cbde16-3b69-4c03-bac2-7359d2f67f94","null","<p style=""text-align: center;"">+</p>","null","fixation","","","","","","","","","","","","","","","","","","","","","","",""
"","","","","","html-slider-response","130","1136083","0.0-21.0-0.6","03cbde16-3b69-4c03-bac2-7359d2f67f94","1000","
                  <p style=""text-align: center;"">₪43
                                                <br>75%</p>
                  <p id=""wtp"" style=""text-align:center; margin-top: 0px; margin-bottom: 0px; font-size: 40px"";>&ensp;</p>","-","viewing","0","18","11B,19B,24A,26A","","","","","","","","","","","","","","","","","","","",""
"","","","","","html-slider-response","131","1138416","0.0-21.0-1.6","03cbde16-3b69-4c03-bac2-7359d2f67f94","2332","
                  <p style=""text-align: center;"">₪43
                                                <br>75%</p>
                  <p id=""wtp"" style=""text-align:center; margin-top: 0px; margin-bottom: 0px; font-size: 40px"";>מוכנים לשלם: <span id=""c_p_y""></span></p>","20","evaluation","49","18","11B,19B,24A,26A","75","43","20","","","","","","","","","","","","","","","","",""
"","","","","","html-keyboard-response","132","1138992","0.0-21.0-2.6","03cbde16-3b69-4c03-bac2-7359d2f67f94","null","<p style=""text-align: center;"">+</p>","null","fixation","","","","","","","","","","","","","","","","","","","","","","",""
"","","","","","html-slider-response","133","1140008","0.0-21.0-0.7","03cbde16-3b69-4c03-bac2-7359d2f67f94","1000","
                  <p style=""text-align: center;"">₪39
                                                <br>65%</p>
                  <p id=""wtp"" style=""text-align:center; margin-top: 0px; margin-bottom: 0px; font-size: 40px"";>&ensp;</p>","-","viewing","0","16","1A,15A,26C","","","","","","","","","","","","","","","","","","","",""
"","","","","","html-slider-response","134","1141304","0.0-21.0-1.7","03cbde16-3b69-4c03-bac2-7359d2f67f94","1295","
                  <p style=""text-align: center;"">₪39
                                                <br>65%</p>
                  <p id=""wtp"" style=""text-align:center; margin-top: 0px; margin-bottom: 0px; font-size: 40px"";>מוכנים לשלם: <span id=""c_p_y""></span></p>","13","evaluation","33","16","1A,15A,26C","65","39","13","","","","","","","","","","","","","","","","",""
"","","","","","html-keyboard-response","135","1142330","0.0-21.0-2.7","03cbde16-3b69-4c03-bac2-7359d2f67f94","null","<p style=""text-align: center;"">+</p>","null","fixation","","","","","","","","","","","","","","","","","","","","","","",""
"","","","","","html-slider-response","136","1143338","0.0-21.0-0.8","03cbde16-3b69-4c03-bac2-7359d2f67f94","1000","
                  <p style=""text-align: center;"">₪71
                                                <br>55%</p>
                  <p id=""wtp"" style=""text-align:center; margin-top: 0px; margin-bottom: 0px; font-size: 40px"";>&ensp;</p>","-","viewing","0","27","5B,18A","","","","","","","","","","","","","","","","","","","",""
"","","","","","html-slider-response","137","1145680","0.0-21.0-1.8","03cbde16-3b69-4c03-bac2-7359d2f67f94","2341","
                  <p style=""text-align: center;"">₪71
                                                <br>55%</p>
                  <p id=""wtp"" style=""text-align:center; margin-top: 0px; margin-bottom: 0px; font-size: 40px"";>מוכנים לשלם: <span id=""c_p_y""></span></p>","31","evaluation","68","27","5B,18A","55","71","31","","","","","","","","","","","","","","","","",""
"","","","","","html-keyboard-response","138","1146871","0.0-21.0-2.8","03cbde16-3b69-4c03-bac2-7359d2f67f94","null","<p style=""text-align: center;"">+</p>","null","fixation","","","","","","","","","","","","","","","","","","","","","","",""
"","","","","","html-slider-response","139","1147875","0.0-21.0-0.9","03cbde16-3b69-4c03-bac2-7359d2f67f94","1000","
                  <p style=""text-align: center;"">₪11
                                                <br>75%</p>
                  <p id=""wtp"" style=""text-align:center; margin-top: 0px; margin-bottom: 0px; font-size: 40px"";>&ensp;</p>","-","viewing","0","7","6B,18B,22C,24C,29A","","","","","","","","","","","","","","","","","","","",""
"","","","","","html-slider-response","140","1149232","0.0-21.0-1.9","03cbde16-3b69-4c03-bac2-7359d2f67f94","1356","
                  <p style=""text-align: center;"">₪11
                                                <br>75%</p>
                  <p id=""wtp"" style=""text-align:center; margin-top: 0px; margin-bottom: 0px; font-size: 40px"";>מוכנים לשלם: <span id=""c_p_y""></span></p>","5","evaluation","73","7","6B,18B,22C,24C,29A","75","11","5","","","","","","","","","","","","","","","","",""
"","","","","","html-keyboard-response","141","1150125","0.0-21.0-2.9","03cbde16-3b69-4c03-bac2-7359d2f67f94","null","<p style=""text-align: center;"">+</p>","null","fixation","","","","","","","","","","","","","","","","","","","","","","",""
"","","","","","html-slider-response","142","1151141","0.0-21.0-0.10","03cbde16-3b69-4c03-bac2-7359d2f67f94","1000","
                  <p style=""text-align: center;"">₪11
                                                <br>45%</p>
                  <p id=""wtp"" style=""text-align:center; margin-top: 0px; margin-bottom: 0px; font-size: 40px"";>&ensp;</p>","-","viewing","0","6","14B,21C,25C","","","","","","","","","","","","","","","","","","","",""
"","","","","","html-slider-response","143","1152511","0.0-21.0-1.10","03cbde16-3b69-4c03-bac2-7359d2f67f94","1370","
                  <p style=""text-align: center;"">₪11
                                                <br>45%</p>
                  <p id=""wtp"" style=""text-align:center; margin-top: 0px; margin-bottom: 0px; font-size: 40px"";>מוכנים לשלם: <span id=""c_p_y""></span></p>","2","evaluation","17","6","14B,21C,25C","45","11","3","","","","","","","","","","","","","","","","",""
"","","","","","html-keyboard-response","144","1153479","0.0-21.0-2.10","03cbde16-3b69-4c03-bac2-7359d2f67f94","null","<p style=""text-align: center;"">+</p>","null","fixation","","","","","","","","","","","","","","","","","","","","","","",""
"","","","","","html-slider-response","145","1154482","0.0-21.0-0.11","03cbde16-3b69-4c03-bac2-7359d2f67f94","1000","
                  <p style=""text-align: center;"">₪58
                                                <br>40%</p>
                  <p id=""wtp"" style=""text-align:center; margin-top: 0px; margin-bottom: 0px; font-size: 40px"";>&ensp;</p>","-","viewing","0","20","10C,13A,19C,21B","","","","","","","","","","","","","","","","","","","",""
"","","","","","html-slider-response","146","1156232","0.0-21.0-1.11","03cbde16-3b69-4c03-bac2-7359d2f67f94","1748","
                  <p style=""text-align: center;"">₪58
                                                <br>40%</p>
                  <p id=""wtp"" style=""text-align:center; margin-top: 0px; margin-bottom: 0px; font-size: 40px"";>מוכנים לשלם: <span id=""c_p_y""></span></p>","12","evaluation","62","20","10C,13A,19C,21B","40","58","12","","","","","","","","","","","","","","","","",""
"","","","","","html-keyboard-response","147","1156817","0.0-21.0-2.11","03cbde16-3b69-4c03-bac2-7359d2f67f94","null","<p style=""text-align: center;"">+</p>","null","fixation","","","","","","","","","","","","","","","","","","","","","","",""
"","","","","","html-slider-response","148","1157821","0.0-21.0-0.12","03cbde16-3b69-4c03-bac2-7359d2f67f94","1000","
                  <p style=""text-align: center;"">₪36
                                                <br>60%</p>
                  <p id=""wtp"" style=""text-align:center; margin-top: 0px; margin-bottom: 0px; font-size: 40px"";>&ensp;</p>","-","viewing","0","12","1C,7C,15C","","","","","","","","","","","","","","","","","","","",""
"","","","","","html-slider-response","149","1159664","0.0-21.0-1.12","03cbde16-3b69-4c03-bac2-7359d2f67f94","1842","
                  <p style=""text-align: center;"">₪36
                                                <br>60%</p>
                  <p id=""wtp"" style=""text-align:center; margin-top: 0px; margin-bottom: 0px; font-size: 40px"";>מוכנים לשלם: <span id=""c_p_y""></span></p>","19","evaluation","56","12","1C,7C,15C","60","36","19","","","","","","","","","","","","","","","","",""
"","","","","","html-keyboard-response","150","1160713","0.0-21.0-2.12","03cbde16-3b69-4c03-bac2-7359d2f67f94","null","<p style=""text-align: center;"">+</p>","null","fixation","","","","","","","","","","","","","","","","","","","","","","",""
"","","","","","html-slider-response","151","1161724","0.0-21.0-0.13","03cbde16-3b69-4c03-bac2-7359d2f67f94","1000","
                  <p style=""text-align: center;"">₪61
                                                <br>45%</p>
                  <p id=""wtp"" style=""text-align:center; margin-top: 0px; margin-bottom: 0px; font-size: 40px"";>&ensp;</p>","-","viewing","0","22","10A,11A","","","","","","","","","","","","","","","","","","","",""
"","","","","","html-slider-response","152","1162952","0.0-21.0-1.13","03cbde16-3b69-4c03-bac2-7359d2f67f94","1227","
                  <p style=""text-align: center;"">₪61
                                                <br>45%</p>
                  <p id=""wtp"" style=""text-align:center; margin-top: 0px; margin-bottom: 0px; font-size: 40px"";>מוכנים לשלם: <span id=""c_p_y""></span></p>","9","evaluation","13","22","10A,11A","45","61","10","","","","","","","","","","","","","","","","",""
"","","","","","html-keyboard-response","153","1164035","0.0-21.0-2.13","03cbde16-3b69-4c03-bac2-7359d2f67f94","null","<p style=""text-align: center;"">+</p>","null","fixation","","","","","","","","","","","","","","","","","","","","","","",""
"","","","","","html-slider-response","154","1165045","0.0-21.0-0.14","03cbde16-3b69-4c03-bac2-7359d2f67f94","1000","
                  <p style=""text-align: center;"">₪61
                                                <br>55%</p>
                  <p id=""wtp"" style=""text-align:center; margin-top: 0px; margin-bottom: 0px; font-size: 40px"";>&ensp;</p>","-","viewing","0","23","7B,26B","","","","","","","","","","","","","","","","","","","",""
"","","","","","html-slider-response","155","1166712","0.0-21.0-1.14","03cbde16-3b69-4c03-bac2-7359d2f67f94","1666","
                  <p style=""text-align: center;"">₪61
                                                <br>55%</p>
                  <p id=""wtp"" style=""text-align:center; margin-top: 0px; margin-bottom: 0px; font-size: 40px"";>מוכנים לשלם: <span id=""c_p_y""></span></p>","18","evaluation","4","23","7B,26B","55","61","18","","","","","","","","","","","","","","","","",""
"","","","","","html-keyboard-response","156","1167999","0.0-21.0-2.14","03cbde16-3b69-4c03-bac2-7359d2f67f94","null","<p style=""text-align: center;"">+</p>","null","fixation","","","","","","","","","","","","","","","","","","","","","","",""
"","","","","","html-slider-response","157","1169014","0.0-21.0-0.15","03cbde16-3b69-4c03-bac2-7359d2f67f94","1000","
                  <p style=""text-align: center;"">₪79
                                                <br>40%</p>
                  <p id=""wtp"" style=""text-align:center; margin-top: 0px; margin-bottom: 0px; font-size: 40px"";>&ensp;</p>","-","viewing","0","30","9B","","","","","","","","","","","","","","","","","","","",""
"","","","","","html-slider-response","158","1171200","0.0-21.0-1.15","03cbde16-3b69-4c03-bac2-7359d2f67f94","2184","
                  <p style=""text-align: center;"">₪79
                                                <br>40%</p>
                  <p id=""wtp"" style=""text-align:center; margin-top: 0px; margin-bottom: 0px; font-size: 40px"";>מוכנים לשלם: <span id=""c_p_y""></span></p>","34","evaluation","53","30","9B","40","79","34","","","","","","","","","","","","","","","","",""
"","","","","","html-keyboard-response","159","1172114","0.0-21.0-2.15","03cbde16-3b69-4c03-bac2-7359d2f67f94","null","<p style=""text-align: center;"">+</p>","null","fixation","","","","","","","","","","","","","","","","","","","","","","",""
"","","","","","html-slider-response","160","1173121","0.0-21.0-0.16","03cbde16-3b69-4c03-bac2-7359d2f67f94","1000","
                  <p style=""text-align: center;"">₪79
                                                <br>65%</p>
                  <p id=""wtp"" style=""text-align:center; margin-top: 0px; margin-bottom: 0px; font-size: 40px"";>&ensp;</p>","-","viewing","0","31","8A","","","","","","","","","","","","","","","","","","","",""
"","","","","","html-slider-response","161","1175216","0.0-21.0-1.16","03cbde16-3b69-4c03-bac2-7359d2f67f94","2095","
                  <p style=""text-align: center;"">₪79
                                                <br>65%</p>
                  <p id=""wtp"" style=""text-align:center; margin-top: 0px; margin-bottom: 0px; font-size: 40px"";>מוכנים לשלם: <span id=""c_p_y""></span></p>","44","evaluation","21","31","8A","65","79","44","","","","","","","","","","","","","","","","",""
"","","","","","html-keyboard-response","162","1176042","0.0-21.0-2.16","03cbde16-3b69-4c03-bac2-7359d2f67f94","null","<p style=""text-align: center;"">+</p>","null","fixation","","","","","","","","","","","","","","","","","","","","","","",""
"","","","","","html-slider-response","163","1177056","0.0-21.0-0.17","03cbde16-3b69-4c03-bac2-7359d2f67f94","1000","
                  <p style=""text-align: center;"">₪64
                                                <br>25%</p>
                  <p id=""wtp"" style=""text-align:center; margin-top: 0px; margin-bottom: 0px; font-size: 40px"";>&ensp;</p>","-","viewing","0","24","6A,21A","","","","","","","","","","","","","","","","","","","",""
"","","","","","html-slider-response","164","1179088","0.0-21.0-1.17","03cbde16-3b69-4c03-bac2-7359d2f67f94","2031","
                  <p style=""text-align: center;"">₪64
                                                <br>25%</p>
                  <p id=""wtp"" style=""text-align:center; margin-top: 0px; margin-bottom: 0px; font-size: 40px"";>מוכנים לשלם: <span id=""c_p_y""></span></p>","33","evaluation","5","24","6A,21A","25","64","33","","","","","","","","","","","","","","","","",""
"","","","","","html-keyboard-response","165","1179600","0.0-21.0-2.17","03cbde16-3b69-4c03-bac2-7359d2f67f94","null","<p style=""text-align: center;"">+</p>","null","fixation","","","","","","","","","","","","","","","","","","","","","","",""
"","","","","","html-slider-response","166","1180609","0.0-21.0-0.18","03cbde16-3b69-4c03-bac2-7359d2f67f94","1000","
                  <p style=""text-align: center;"">₪36
                                                <br>75%</p>
                  <p id=""wtp"" style=""text-align:center; margin-top: 0px; margin-bottom: 0px; font-size: 40px"";>&ensp;</p>","-","viewing","0","14","4B,5A,13B,16B","","","","","","","","","","","","","","","","","","","",""
"","","","","","html-slider-response","167","1182192","0.0-21.0-1.18","03cbde16-3b69-4c03-bac2-7359d2f67f94","1582","
                  <p style=""text-align: center;"">₪36
                                                <br>75%</p>
                  <p id=""wtp"" style=""text-align:center; margin-top: 0px; margin-bottom: 0px; font-size: 40px"";>מוכנים לשלם: <span id=""c_p_y""></span></p>","21","evaluation","64","14","4B,5A,13B,16B","75","36","21","","","","","","","","","","","","","","","","",""
"","","","","","html-keyboard-response","168","1183574","0.0-21.0-2.18","03cbde16-3b69-4c03-bac2-7359d2f67f94","null","<p style=""text-align: center;"">+</p>","null","fixation","","","","","","","","","","","","","","","","","","","","","","",""
"","","","","","html-slider-response","169","1184580","0.0-21.0-0.19","03cbde16-3b69-4c03-bac2-7359d2f67f94","1000","
                  <p style=""text-align: center;"">₪71
                                                <br>75%</p>
                  <p id=""wtp"" style=""text-align:center; margin-top: 0px; margin-bottom: 0px; font-size: 40px"";>&ensp;</p>","-","viewing","0","28","8B","","","","","","","","","","","","","","","","","","","",""
"","","","","","html-slider-response","170","1186592","0.0-21.0-1.19","03cbde16-3b69-4c03-bac2-7359d2f67f94","2011","
                  <p style=""text-align: center;"">₪71
                                                <br>75%</p>
                  <p id=""wtp"" style=""text-align:center; margin-top: 0px; margin-bottom: 0px; font-size: 40px"";>מוכנים לשלם: <span id=""c_p_y""></span></p>","49","evaluation","37","28","8B","75","71","49","","","","","","","","","","","","","","","","",""
"","","","","","html-keyboard-response","171","1187331","0.0-21.0-2.19","03cbde16-3b69-4c03-bac2-7359d2f67f94","null","<p style=""text-align: center;"">+</p>","null","fixation","","","","","","","","","","","","","","","","","","","","","","",""
"","","","","","html-slider-response","172","1188335","0.0-21.0-0.20","03cbde16-3b69-4c03-bac2-7359d2f67f94","1000","
                  <p style=""text-align: center;"">₪4
                                                <br>50%</p>
                  <p id=""wtp"" style=""text-align:center; margin-top: 0px; margin-bottom: 0px; font-size: 40px"";>&ensp;</p>","-","viewing","0","2","4C,17B","","","","","","","","","","","","","","","","","","","",""
"","","","","","html-slider-response","173","1189736","0.0-21.0-1.20","03cbde16-3b69-4c03-bac2-7359d2f67f94","1400","
                  <p style=""text-align: center;"">₪4
                                                <br>50%</p>
                  <p id=""wtp"" style=""text-align:center; margin-top: 0px; margin-bottom: 0px; font-size: 40px"";>מוכנים לשלם: <span id=""c_p_y""></span></p>","3","evaluation","66","2","4C,17B","50","4","4","","","","","","","","","","","","","","","","",""
"","","","","","html-keyboard-response","174","1190996","0.0-21.0-2.20","03cbde16-3b69-4c03-bac2-7359d2f67f94","null","<p style=""text-align: center;"">+</p>","null","fixation","","","","","","","","","","","","","","","","","","","","","","",""
"","","","","","html-slider-response","175","1192004","0.0-21.0-0.21","03cbde16-3b69-4c03-bac2-7359d2f67f94","1000","
                  <p style=""text-align: center;"">₪11
                                                <br>25%</p>
                  <p id=""wtp"" style=""text-align:center; margin-top: 0px; margin-bottom: 0px; font-size: 40px"";>&ensp;</p>","-","viewing","0","5","12A,27B,28B,30B","","","","","","","","","","","","","","","","","","","",""
"","","","","","html-slider-response","176","1194136","0.0-21.0-1.21","03cbde16-3b69-4c03-bac2-7359d2f67f94","2130","
                  <p style=""text-align: center;"">₪11
                                                <br>25%</p>
                  <p id=""wtp"" style=""text-align:center; margin-top: 0px; margin-bottom: 0px; font-size: 40px"";>מוכנים לשלם: <span id=""c_p_y""></span></p>","17","evaluation","77","5","12A,27B,28B,30B","25","11","17","","","","","","","","","","","","","","","","",""
"","","","","","html-keyboard-response","177","1194899","0.0-21.0-2.21","03cbde16-3b69-4c03-bac2-7359d2f67f94","null","<p style=""text-align: center;"">+</p>","null","fixation","","","","","","","","","","","","","","","","","","","","","","",""
"","","","","","html-slider-response","178","1195911","0.0-21.0-0.22","03cbde16-3b69-4c03-bac2-7359d2f67f94","1000","
                  <p style=""text-align: center;"">₪64
                                                <br>50%</p>
                  <p id=""wtp"" style=""text-align:center; margin-top: 0px; margin-bottom: 0px; font-size: 40px"";>&ensp;</p>","-","viewing","0","25","1B,3B,4A","","","","","","","","","","","","","","","","","","","",""
"","","","","","html-slider-response","179","1197552","0.0-21.0-1.22","03cbde16-3b69-4c03-bac2-7359d2f67f94","1640","
                  <p style=""text-align: center;"">₪64
                                                <br>50%</p>
                  <p id=""wtp"" style=""text-align:center; margin-top: 0px; margin-bottom: 0px; font-size: 40px"";>מוכנים לשלם: <span id=""c_p_y""></span></p>","26","evaluation","5","25","1B,3B,4A","50","64","26","","","","","","","","","","","","","","","","",""
"","","","","","html-keyboard-response","180","1198904","0.0-21.0-2.22","03cbde16-3b69-4c03-bac2-7359d2f67f94","null","<p style=""text-align: center;"">+</p>","null","fixation","","","","","","","","","","","","","","","","","","","","","","",""
"","","","","","html-slider-response","181","1199917","0.0-21.0-0.23","03cbde16-3b69-4c03-bac2-7359d2f67f94","1000","
                  <p style=""text-align: center;"">₪4
                                                <br>75%</p>
                  <p id=""wtp"" style=""text-align:center; margin-top: 0px; margin-bottom: 0px; font-size: 40px"";>&ensp;</p>","-","viewing","0","3","12B,20B,23B,27C,29C","","","","","","","","","","","","","","","","","","","",""
"","","","","","html-slider-response","182","1201648","0.0-21.0-1.23","03cbde16-3b69-4c03-bac2-7359d2f67f94","1729","
                  <p style=""text-align: center;"">₪4
                                                <br>75%</p>
                  <p id=""wtp"" style=""text-align:center; margin-top: 0px; margin-bottom: 0px; font-size: 40px"";>מוכנים לשלם: <span id=""c_p_y""></span></p>","6","evaluation","72","3","12B,20B,23B,27C,29C","75","4","6","","","","","","","","","","","","","","","","",""
"","","","","","html-keyboard-response","183","1202901","0.0-21.0-2.23","03cbde16-3b69-4c03-bac2-7359d2f67f94","null","<p style=""text-align: center;"">+</p>","null","fixation","","","","","","","","","","","","","","","","","","","","","","",""
"","","","","","html-slider-response","184","1203916","0.0-21.0-0.24","03cbde16-3b69-4c03-bac2-7359d2f67f94","1000","
                  <p style=""text-align: center;"">₪76
                                                <br>65%</p>
                  <p id=""wtp"" style=""text-align:center; margin-top: 0px; margin-bottom: 0px; font-size: 40px"";>&ensp;</p>","-","viewing","0","29","8C,19A,24B","","","","","","","","","","","","","","","","","","","",""
"","","","","","html-slider-response","185","1205528","0.0-21.0-1.24","03cbde16-3b69-4c03-bac2-7359d2f67f94","1611","
                  <p style=""text-align: center;"">₪76
                                                <br>65%</p>
                  <p id=""wtp"" style=""text-align:center; margin-top: 0px; margin-bottom: 0px; font-size: 40px"";>מוכנים לשלם: <span id=""c_p_y""></span></p>","36","evaluation","33","29","8C,19A,24B","65","76","36","","","","","","","","","","","","","","","","",""
"","","","","","html-keyboard-response","186","1206895","0.0-21.0-2.24","03cbde16-3b69-4c03-bac2-7359d2f67f94","null","<p style=""text-align: center;"">+</p>","null","fixation","","","","","","","","","","","","","","","","","","","","","","",""
"","","","","","html-slider-response","187","1207904","0.0-21.0-0.25","03cbde16-3b69-4c03-bac2-7359d2f67f94","1000","
                  <p style=""text-align: center;"">₪4
                                                <br>25%</p>
                  <p id=""wtp"" style=""text-align:center; margin-top: 0px; margin-bottom: 0px; font-size: 40px"";>&ensp;</p>","-","viewing","0","1","6C,29B,30C","","","","","","","","","","","","","","","","","","","",""
"","","","","","html-slider-response","188","1208944","0.0-21.0-1.25","03cbde16-3b69-4c03-bac2-7359d2f67f94","1039","
                  <p style=""text-align: center;"">₪4
                                                <br>25%</p>
                  <p id=""wtp"" style=""text-align:center; margin-top: 0px; margin-bottom: 0px; font-size: 40px"";>מוכנים לשלם: <span id=""c_p_y""></span></p>","5","evaluation","25","1","6C,29B,30C","25","4","5","","","","","","","","","","","","","","","","",""
"","","","","","html-keyboard-response","189","1210368","0.0-21.0-2.25","03cbde16-3b69-4c03-bac2-7359d2f67f94","null","<p style=""text-align: center;"">+</p>","null","fixation","","","","","","","","","","","","","","","","","","","","","","",""
"","","","","","html-slider-response","190","1211375","0.0-21.0-0.26","03cbde16-3b69-4c03-bac2-7359d2f67f94","1000","
                  <p style=""text-align: center;"">₪58
                                                <br>45%</p>
                  <p id=""wtp"" style=""text-align:center; margin-top: 0px; margin-bottom: 0px; font-size: 40px"";>&ensp;</p>","-","viewing","0","21","11C,18C,25A","","","","","","","","","","","","","","","","","","","",""
"","","","","","html-slider-response","191","1212752","0.0-21.0-1.26","03cbde16-3b69-4c03-bac2-7359d2f67f94","1376","
                  <p style=""text-align: center;"">₪58
                                                <br>45%</p>
                  <p id=""wtp"" style=""text-align:center; margin-top: 0px; margin-bottom: 0px; font-size: 40px"";>מוכנים לשלם: <span id=""c_p_y""></span></p>","16","evaluation","63","21","11C,18C,25A","45","58","16","","","","","","","","","","","","","","","","",""
"","","","","","html-keyboard-response","192","1214233","0.0-21.0-2.26","03cbde16-3b69-4c03-bac2-7359d2f67f94","null","<p style=""text-align: center;"">+</p>","null","fixation","","","","","","","","","","","","","","","","","","","","","","",""
"","","","","","html-slider-response","193","1215244","0.0-21.0-0.27","03cbde16-3b69-4c03-bac2-7359d2f67f94","1000","
                  <p style=""text-align: center;"">₪18
                                                <br>50%</p>
                  <p id=""wtp"" style=""text-align:center; margin-top: 0px; margin-bottom: 0px; font-size: 40px"";>&ensp;</p>","-","viewing","0","10","2C,16C,22B,28A","","","","","","","","","","","","","","","","","","","",""
"","","","","","html-slider-response","194","1216504","0.0-21.0-1.27","03cbde16-3b69-4c03-bac2-7359d2f67f94","1260","
                  <p style=""text-align: center;"">₪18
                                                <br>50%</p>
                  <p id=""wtp"" style=""text-align:center; margin-top: 0px; margin-bottom: 0px; font-size: 40px"";>מוכנים לשלם: <span id=""c_p_y""></span></p>","9","evaluation","2","10","2C,16C,22B,28A","50","18","9","","","","","","","","","","","","","","","","",""
"","","","","","html-keyboard-response","195","1217404","0.0-21.0-2.27","03cbde16-3b69-4c03-bac2-7359d2f67f94","null","<p style=""text-align: center;"">+</p>","null","fixation","","","","","","","","","","","","","","","","","","","","","","",""
"","","","","","html-slider-response","196","1218414","0.0-21.0-0.28","03cbde16-3b69-4c03-bac2-7359d2f67f94","1000","
                  <p style=""text-align: center;"">₪39
                                                <br>60%</p>
                  <p id=""wtp"" style=""text-align:center; margin-top: 0px; margin-bottom: 0px; font-size: 40px"";>&ensp;</p>","-","viewing","0","15","9C,25B","","","","","","","","","","","","","","","","","","","",""
"","","","","","html-slider-response","197","1220232","0.0-21.0-1.28","03cbde16-3b69-4c03-bac2-7359d2f67f94","1816","
                  <p style=""text-align: center;"">₪39
                                                <br>60%</p>
                  <p id=""wtp"" style=""text-align:center; margin-top: 0px; margin-bottom: 0px; font-size: 40px"";>מוכנים לשלם: <span id=""c_p_y""></span></p>","24","evaluation","20","15","9C,25B","60","39","24","","","","","","","","","","","","","","","","",""
"","","","","","html-keyboard-response","198","1221081","0.0-21.0-2.28","03cbde16-3b69-4c03-bac2-7359d2f67f94","null","<p style=""text-align: center;"">+</p>","null","fixation","","","","","","","","","","","","","","","","","","","","","","",""
"","","","","","html-slider-response","199","1222086","0.0-21.0-0.29","03cbde16-3b69-4c03-bac2-7359d2f67f94","1000","
                  <p style=""text-align: center;"">₪36
                                                <br>70%</p>
                  <p id=""wtp"" style=""text-align:center; margin-top: 0px; margin-bottom: 0px; font-size: 40px"";>&ensp;</p>","-","viewing","0","13","3A,5C,10B","","","","","","","","","","","","","","","","","","","",""
"","","","","","html-slider-response","200","1223024","0.0-21.0-1.29","03cbde16-3b69-4c03-bac2-7359d2f67f94","937","
                  <p style=""text-align: center;"">₪36
                                                <br>70%</p>
                  <p id=""wtp"" style=""text-align:center; margin-top: 0px; margin-bottom: 0px; font-size: 40px"";>מוכנים לשלם: <span id=""c_p_y""></span></p>","14","evaluation","49","13","3A,5C,10B","70","36","14","","","","","","","","","","","","","","","","",""
"","","","","","html-keyboard-response","201","1223853","0.0-21.0-2.29","03cbde16-3b69-4c03-bac2-7359d2f67f94","null","<p style=""text-align: center;"">+</p>","null","fixation","","","","","","","","","","","","","","","","","","","","","","",""
"","","","","","html-slider-response","202","1224855","0.0-21.0-0.30","03cbde16-3b69-4c03-bac2-7359d2f67f94","1000","
                  <p style=""text-align: center;"">₪11
                                                <br>20%</p>
                  <p id=""wtp"" style=""text-align:center; margin-top: 0px; margin-bottom: 0px; font-size: 40px"";>&ensp;</p>","-","viewing","0","4","12C,17C,23C,28C","","","","","","","","","","","","","","","","","","","",""
"","","","","","html-slider-response","203","1226424","0.0-21.0-1.30","03cbde16-3b69-4c03-bac2-7359d2f67f94","1568","
                  <p style=""text-align: center;"">₪11
                                                <br>20%</p>
                  <p id=""wtp"" style=""text-align:center; margin-top: 0px; margin-bottom: 0px; font-size: 40px"";>מוכנים לשלם: <span id=""c_p_y""></span></p>","2","evaluation","20","4","12C,17C,23C,28C","20","11","2","","","","","","","","","","","","","","","","",""
"","","","","","html-keyboard-response","204","1227518","0.0-21.0-2.30","03cbde16-3b69-4c03-bac2-7359d2f67f94","null","<p style=""text-align: center;"">+</p>","null","fixation","","","","","","","","","","","","","","","","","","","","","","",""
"","","","","","html-keyboard-response","205","1228525","0.0-22.0","03cbde16-3b69-4c03-bac2-7359d2f67f94","null","<p style=""text-align: center;"">+</p>","null","fixation","","","","","","","","","","","","","","","","","","","","","","",""
"","","","","","html-keyboard-response","206","1232032","0.0-23.0","03cbde16-3b69-4c03-bac2-7359d2f67f94","null","<p>הפסקה.
          <br>לחצו כדי להמשיך.</p>","1","scan_wait","","","","","","","","","","","","","","","","","","","","","","",""
"","","","","","html-keyboard-response","207","1233045","0.0-24.0","03cbde16-3b69-4c03-bac2-7359d2f67f94","null","<p style=""text-align: center;"">+</p>","null","fixation","","","","","","","","","","","","","","","","","","","","","","",""
"","","","","","html-slider-response","208","1234052","0.0-25.0-0.0","03cbde16-3b69-4c03-bac2-7359d2f67f94","1000","
                  <p style=""text-align: center;"">₪4
                                                <br>25%</p>
                  <p id=""wtp"" style=""text-align:center; margin-top: 0px; margin-bottom: 0px; font-size: 40px"";>&ensp;</p>","-","viewing","0","1","6C,29B,30C","","","","","","","","","","","","","","","","","","","",""
"","","","","","html-slider-response","209","1235864","0.0-25.0-1.0","03cbde16-3b69-4c03-bac2-7359d2f67f94","1811","
                  <p style=""text-align: center;"">₪4
                                                <br>25%</p>
                  <p id=""wtp"" style=""text-align:center; margin-top: 0px; margin-bottom: 0px; font-size: 40px"";>מוכנים לשלם: <span id=""c_p_y""></span></p>","4","evaluation","5","1","6C,29B,30C","25","4","4","","","","","","","","","","","","","","","","",""
"","","","","","html-keyboard-response","210","1236851","0.0-25.0-2.0","03cbde16-3b69-4c03-bac2-7359d2f67f94","null","<p style=""text-align: center;"">+</p>","null","fixation","","","","","","","","","","","","","","","","","","","","","","",""
"","","","","","html-slider-response","211","1237866","0.0-25.0-0.1","03cbde16-3b69-4c03-bac2-7359d2f67f94","1000","
                  <p style=""text-align: center;"">₪36
                                                <br>60%</p>
                  <p id=""wtp"" style=""text-align:center; margin-top: 0px; margin-bottom: 0px; font-size: 40px"";>&ensp;</p>","-","viewing","0","12","1C,7C,15C","","","","","","","","","","","","","","","","","","","",""
"","","","","","html-slider-response","212","1239583","0.0-25.0-1.1","03cbde16-3b69-4c03-bac2-7359d2f67f94","1716","
                  <p style=""text-align: center;"">₪36
                                                <br>60%</p>
                  <p id=""wtp"" style=""text-align:center; margin-top: 0px; margin-bottom: 0px; font-size: 40px"";>מוכנים לשלם: <span id=""c_p_y""></span></p>","28","evaluation","1","12","1C,7C,15C","60","36","28","","","","","","","","","","","","","","","","",""
"","","","","","html-keyboard-response","213","1240290","0.0-25.0-2.1","03cbde16-3b69-4c03-bac2-7359d2f67f94","null","<p style=""text-align: center;"">+</p>","null","fixation","","","","","","","","","","","","","","","","","","","","","","",""
"","","","","","html-slider-response","214","1241303","0.0-25.0-0.2","03cbde16-3b69-4c03-bac2-7359d2f67f94","1000","
                  <p style=""text-align: center;"">₪71
                                                <br>45%</p>
                  <p id=""wtp"" style=""text-align:center; margin-top: 0px; margin-bottom: 0px; font-size: 40px"";>&ensp;</p>","-","viewing","0","26","2B,16A","","","","","","","","","","","","","","","","","","","",""
"","","","","","html-slider-response","215","1244144","0.0-25.0-1.2","03cbde16-3b69-4c03-bac2-7359d2f67f94","2840","
                  <p style=""text-align: center;"">₪71
                                                <br>45%</p>
                  <p id=""wtp"" style=""text-align:center; margin-top: 0px; margin-bottom: 0px; font-size: 40px"";>מוכנים לשלם: <span id=""c_p_y""></span></p>","51","evaluation","73","26","2B,16A","45","71","51","","","","","","","","","","","","","","","","",""
"","","","","","html-keyboard-response","216","1245257","0.0-25.0-2.2","03cbde16-3b69-4c03-bac2-7359d2f67f94","null","<p style=""text-align: center;"">+</p>","null","fixation","","","","","","","","","","","","","","","","","","","","","","",""
"","","","","","html-slider-response","217","1246259","0.0-25.0-0.3","03cbde16-3b69-4c03-bac2-7359d2f67f94","1000","
                  <p style=""text-align: center;"">₪18
                                                <br>50%</p>
                  <p id=""wtp"" style=""text-align:center; margin-top: 0px; margin-bottom: 0px; font-size: 40px"";>&ensp;</p>","-","viewing","0","10","2C,16C,22B,28A","","","","","","","","","","","","","","","","","","","",""
"","","","","","html-slider-response","218","1247288","0.0-25.0-1.3","03cbde16-3b69-4c03-bac2-7359d2f67f94","1028","
                  <p style=""text-align: center;"">₪18
                                                <br>50%</p>
                  <p id=""wtp"" style=""text-align:center; margin-top: 0px; margin-bottom: 0px; font-size: 40px"";>מוכנים לשלם: <span id=""c_p_y""></span></p>","16","evaluation","35","10","2C,16C,22B,28A","50","18","16","","","","","","","","","","","","","","","","",""
"","","","","","html-keyboard-response","219","1248286","0.0-25.0-2.3","03cbde16-3b69-4c03-bac2-7359d2f67f94","null","<p style=""text-align: center;"">+</p>","null","fixation","","","","","","","","","","","","","","","","","","","","","","",""
"","","","","","html-slider-response","220","1249294","0.0-25.0-0.4","03cbde16-3b69-4c03-bac2-7359d2f67f94","1000","
                  <p style=""text-align: center;"">₪58
                                                <br>30%</p>
                  <p id=""wtp"" style=""text-align:center; margin-top: 0px; margin-bottom: 0px; font-size: 40px"";>&ensp;</p>","-","viewing","0","19","13C,30A","","","","","","","","","","","","","","","","","","","",""
"","","","","","html-slider-response","221","1250240","0.0-25.0-1.4","03cbde16-3b69-4c03-bac2-7359d2f67f94","945","
                  <p style=""text-align: center;"">₪58
                                                <br>30%</p>
                  <p id=""wtp"" style=""text-align:center; margin-top: 0px; margin-bottom: 0px; font-size: 40px"";>מוכנים לשלם: <span id=""c_p_y""></span></p>","8","evaluation","36","19","13C,30A","30","58","8","","","","","","","","","","","","","","","","",""
"","","","","","html-keyboard-response","222","1251715","0.0-25.0-2.4","03cbde16-3b69-4c03-bac2-7359d2f67f94","null","<p style=""text-align: center;"">+</p>","null","fixation","","","","","","","","","","","","","","","","","","","","","","",""
"","","","","","html-slider-response","223","1252732","0.0-25.0-0.5","03cbde16-3b69-4c03-bac2-7359d2f67f94","1000","
                  <p style=""text-align: center;"">₪64
                                                <br>25%</p>
                  <p id=""wtp"" style=""text-align:center; margin-top: 0px; margin-bottom: 0px; font-size: 40px"";>&ensp;</p>","-","viewing","0","24","6A,21A","","","","","","","","","","","","","","","","","","","",""
"","","","","","html-slider-response","224","1254631","0.0-25.0-1.5","03cbde16-3b69-4c03-bac2-7359d2f67f94","1899","
                  <p style=""text-align: center;"">₪64
                                                <br>25%</p>
                  <p id=""wtp"" style=""text-align:center; margin-top: 0px; margin-bottom: 0px; font-size: 40px"";>מוכנים לשלם: <span id=""c_p_y""></span></p>","14","evaluation","3","24","6A,21A","25","64","14","","","","","","","","","","","","","","","","",""
"","","","","","html-keyboard-response","225","1255206","0.0-25.0-2.5","03cbde16-3b69-4c03-bac2-7359d2f67f94","null","<p style=""text-align: center;"">+</p>","null","fixation","","","","","","","","","","","","","","","","","","","","","","",""
"","","","","","html-slider-response","226","1256218","0.0-25.0-0.6","03cbde16-3b69-4c03-bac2-7359d2f67f94","1000","
                  <p style=""text-align: center;"">₪11
                                                <br>25%</p>
                  <p id=""wtp"" style=""text-align:center; margin-top: 0px; margin-bottom: 0px; font-size: 40px"";>&ensp;</p>","-","viewing","0","5","12A,27B,28B,30B","","","","","","","","","","","","","","","","","","","",""
"","","","","","html-slider-response","227","1258800","0.0-25.0-1.6","03cbde16-3b69-4c03-bac2-7359d2f67f94","2580","
                  <p style=""text-align: center;"">₪11
                                                <br>25%</p>
                  <p id=""wtp"" style=""text-align:center; margin-top: 0px; margin-bottom: 0px; font-size: 40px"";>מוכנים לשלם: <span id=""c_p_y""></span></p>","2","evaluation","27","5","12A,27B,28B,30B","25","11","2","","","","","","","","","","","","","","","","",""
"","","","","","html-keyboard-response","228","1260163","0.0-25.0-2.6","03cbde16-3b69-4c03-bac2-7359d2f67f94","null","<p style=""text-align: center;"">+</p>","null","fixation","","","","","","","","","","","","","","","","","","","","","","",""
"","","","","","html-slider-response","229","1261173","0.0-25.0-0.7","03cbde16-3b69-4c03-bac2-7359d2f67f94","1000","
                  <p style=""text-align: center;"">₪71
                                                <br>75%</p>
                  <p id=""wtp"" style=""text-align:center; margin-top: 0px; margin-bottom: 0px; font-size: 40px"";>&ensp;</p>","-","viewing","0","28","8B","","","","","","","","","","","","","","","","","","","",""
"","","","","","html-slider-response","230","1263272","0.0-25.0-1.7","03cbde16-3b69-4c03-bac2-7359d2f67f94","2097","
                  <p style=""text-align: center;"">₪71
                                                <br>75%</p>
                  <p id=""wtp"" style=""text-align:center; margin-top: 0px; margin-bottom: 0px; font-size: 40px"";>מוכנים לשלם: <span id=""c_p_y""></span></p>","56","evaluation","49","28","8B","75","71","56","","","","","","","","","","","","","","","","",""
"","","","","","html-keyboard-response","231","1264686","0.0-25.0-2.7","03cbde16-3b69-4c03-bac2-7359d2f67f94","null","<p style=""text-align: center;"">+</p>","null","fixation","","","","","","","","","","","","","","","","","","","","","","",""
"","","","","","html-slider-response","232","1265696","0.0-25.0-0.8","03cbde16-3b69-4c03-bac2-7359d2f67f94","1000","
                  <p style=""text-align: center;"">₪11
                                                <br>45%</p>
                  <p id=""wtp"" style=""text-align:center; margin-top: 0px; margin-bottom: 0px; font-size: 40px"";>&ensp;</p>","-","viewing","0","6","14B,21C,25C","","","","","","","","","","","","","","","","","","","",""
"","","","","","html-slider-response","233","1267904","0.0-25.0-1.8","03cbde16-3b69-4c03-bac2-7359d2f67f94","2207","
                  <p style=""text-align: center;"">₪11
                                                <br>45%</p>
                  <p id=""wtp"" style=""text-align:center; margin-top: 0px; margin-bottom: 0px; font-size: 40px"";>מוכנים לשלם: <span id=""c_p_y""></span></p>","6","evaluation","38","6","14B,21C,25C","45","11","6","","","","","","","","","","","","","","","","",""
"","","","","","html-keyboard-response","234","1269251","0.0-25.0-2.8","03cbde16-3b69-4c03-bac2-7359d2f67f94","null","<p style=""text-align: center;"">+</p>","null","fixation","","","","","","","","","","","","","","","","","","","","","","",""
"","","","","","html-slider-response","235","1270266","0.0-25.0-0.9","03cbde16-3b69-4c03-bac2-7359d2f67f94","1000","
                  <p style=""text-align: center;"">₪61
                                                <br>55%</p>
                  <p id=""wtp"" style=""text-align:center; margin-top: 0px; margin-bottom: 0px; font-size: 40px"";>&ensp;</p>","-","viewing","0","23","7B,26B","","","","","","","","","","","","","","","","","","","",""
"","","","","","html-slider-response","236","1272680","0.0-25.0-1.9","03cbde16-3b69-4c03-bac2-7359d2f67f94","2413","
                  <p style=""text-align: center;"">₪61
                                                <br>55%</p>
                  <p id=""wtp"" style=""text-align:center; margin-top: 0px; margin-bottom: 0px; font-size: 40px"";>מוכנים לשלם: <span id=""c_p_y""></span></p>","46","evaluation","80","23","7B,26B","55","61","46","","","","","","","","","","","","","","","","",""
"","","","","","html-keyboard-response","237","1273388","0.0-25.0-2.9","03cbde16-3b69-4c03-bac2-7359d2f67f94","null","<p style=""text-align: center;"">+</p>","null","fixation","","","","","","","","","","","","","","","","","","","","","","",""
"","","","","","html-slider-response","238","1274403","0.0-25.0-0.10","03cbde16-3b69-4c03-bac2-7359d2f67f94","1000","
                  <p style=""text-align: center;"">₪4
                                                <br>75%</p>
                  <p id=""wtp"" style=""text-align:center; margin-top: 0px; margin-bottom: 0px; font-size: 40px"";>&ensp;</p>","-","viewing","0","3","12B,20B,23B,27C,29C","","","","","","","","","","","","","","","","","","","",""
"","","","","","html-slider-response","239","1275744","0.0-25.0-1.10","03cbde16-3b69-4c03-bac2-7359d2f67f94","1339","
                  <p style=""text-align: center;"">₪4
                                                <br>75%</p>
                  <p id=""wtp"" style=""text-align:center; margin-top: 0px; margin-bottom: 0px; font-size: 40px"";>מוכנים לשלם: <span id=""c_p_y""></span></p>","2","evaluation","54","3","12B,20B,23B,27C,29C","75","4","2","","","","","","","","","","","","","","","","",""
"","","","","","html-keyboard-response","240","1276521","0.0-25.0-2.10","03cbde16-3b69-4c03-bac2-7359d2f67f94","null","<p style=""text-align: center;"">+</p>","null","fixation","","","","","","","","","","","","","","","","","","","","","","",""
"","","","","","html-slider-response","241","1277524","0.0-25.0-0.11","03cbde16-3b69-4c03-bac2-7359d2f67f94","1000","
                  <p style=""text-align: center;"">₪79
                                                <br>65%</p>
                  <p id=""wtp"" style=""text-align:center; margin-top: 0px; margin-bottom: 0px; font-size: 40px"";>&ensp;</p>","-","viewing","0","31","8A","","","","","","","","","","","","","","","","","","","",""
"","","","","","html-slider-response","242","1279440","0.0-25.0-1.11","03cbde16-3b69-4c03-bac2-7359d2f67f94","1915","
                  <p style=""text-align: center;"">₪79
                                                <br>65%</p>
                  <p id=""wtp"" style=""text-align:center; margin-top: 0px; margin-bottom: 0px; font-size: 40px"";>מוכנים לשלם: <span id=""c_p_y""></span></p>","60","evaluation","25","31","8A","65","79","60","","","","","","","","","","","","","","","","",""
"","","","","","html-keyboard-response","243","1280271","0.0-25.0-2.11","03cbde16-3b69-4c03-bac2-7359d2f67f94","null","<p style=""text-align: center;"">+</p>","null","fixation","","","","","","","","","","","","","","","","","","","","","","",""
"","","","","","html-slider-response","244","1281277","0.0-25.0-0.12","03cbde16-3b69-4c03-bac2-7359d2f67f94","1000","
                  <p style=""text-align: center;"">₪71
                                                <br>55%</p>
                  <p id=""wtp"" style=""text-align:center; margin-top: 0px; margin-bottom: 0px; font-size: 40px"";>&ensp;</p>","-","viewing","0","27","5B,18A","","","","","","","","","","","","","","","","","","","",""
"","","","","","html-slider-response","245","1282608","0.0-25.0-1.12","03cbde16-3b69-4c03-bac2-7359d2f67f94","1330","
                  <p style=""text-align: center;"">₪71
                                                <br>55%</p>
                  <p id=""wtp"" style=""text-align:center; margin-top: 0px; margin-bottom: 0px; font-size: 40px"";>מוכנים לשלם: <span id=""c_p_y""></span></p>","55","evaluation","74","27","5B,18A","55","71","55","","","","","","","","","","","","","","","","",""
"","","","","","html-keyboard-response","246","1283254","0.0-25.0-2.12","03cbde16-3b69-4c03-bac2-7359d2f67f94","null","<p style=""text-align: center;"">+</p>","null","fixation","","","","","","","","","","","","","","","","","","","","","","",""
"","","","","","html-slider-response","247","1284264","0.0-25.0-0.13","03cbde16-3b69-4c03-bac2-7359d2f67f94","1000","
                  <p style=""text-align: center;"">₪76
                                                <br>65%</p>
                  <p id=""wtp"" style=""text-align:center; margin-top: 0px; margin-bottom: 0px; font-size: 40px"";>&ensp;</p>","-","viewing","0","29","8C,19A,24B","","","","","","","","","","","","","","","","","","","",""
"","","","","","html-slider-response","248","1285679","0.0-25.0-1.13","03cbde16-3b69-4c03-bac2-7359d2f67f94","1414","
                  <p style=""text-align: center;"">₪76
                                                <br>65%</p>
                  <p id=""wtp"" style=""text-align:center; margin-top: 0px; margin-bottom: 0px; font-size: 40px"";>מוכנים לשלם: <span id=""c_p_y""></span></p>","62","evaluation","70","29","8C,19A,24B","65","76","62","","","","","","","","","","","","","","","","",""
