"success","timeout","failed_images","failed_audio","failed_video","trial_type","trial_index","time_elapsed","internal_node_id","subject_id","rt","stimulus","response","part","slider_start","ID","set_ID","prob","amount","last_location","actual_choice","actual_EV","binary_id","trinary_id","catch","direction","A_key","S_key","D_key","choice_prob","choice_amount","potential_prize_prob","potential_prize_amount","won_prize","total_prize","remaining_budget","accuracy"
"true","false","[]","[]","[]","preload","0","12","0.0-0.0","593fa13f-2aeb-461c-9039-b5510e9a7b36","","","","","","","","","","","","","","","","","","","","","","","","","","",""
"","","","","","html-keyboard-response","1","12427","0.0-1.0","593fa13f-2aeb-461c-9039-b5510e9a7b36","null","
          <h1>שלום וברוכים הבאים!</h1>
          <p>לפניכם ניסוי בקבלת החלטות עם שני חלקים.
          <br><br>לחצו על העכבר כדי להמשיך.</p>","0","example","","","","","","","","","","","","","","","","","","","","","","",""
"","","","","","html-keyboard-response","2","15419","0.0-2.0","593fa13f-2aeb-461c-9039-b5510e9a7b36","null","
        <h1>חלק 1</h1>
        <p>בקרוב יוצגו בפניכם הגרלות.
        <br>עליכם לבחור את המחיר המירבי שתהיו מוכנים לשלם כדי להשתתף בהגרלה שתוצג.
        <br>יש לכם תקציב של ₪80 לכל הגרלה. 
        <br>נסו להעריך כל הגרלה בנפרד ולחשוב כמה היא שווה עבורכם, ₪80 זמינים לכל הגרלה בנפרד.
        <br><br>לחצו על העכבר כדי להמשיך.</p>","1","instructions","","","","","","","","","","","","","","","","","","","","","","",""
"","","","","","html-keyboard-response","3","20683","0.0-3.0","593fa13f-2aeb-461c-9039-b5510e9a7b36","null","
        <p>בסוף הניסוי, המחשב יבחר את אחת ההגרלות ויקבע מחיר לכרטיס עבורה. 
        <br>במידה והמחיר שבחרתם נמוך מהמחיר שנבחר על ידי המחשב, לא תשתתפו בהגרלה ותשארו עם מלוא התקציב.
        <br>במידה והמחיר שבחרתם גבוה מהמחיר שנבחר על ידי המחשב, תשלמו את המחיר שנקבע ותשתתפו בהגרלה.
        <br><br>לחצו על העכבר כדי להמשיך.</p>","1","instructions","","","","","","","","","","","","","","","","","","","","","","",""
"","","","","","html-slider-response","4","31803","0.0-4.0","593fa13f-2aeb-461c-9039-b5510e9a7b36","11007","
        <p style=""font-size: 42px;"">נתחיל עם דוגמא: 
        <br>ההגרלה מטה מציעה 65% סיכוי לזכות ב-₪40 
        <br>&emsp;&emsp;&emsp;&emsp;&emsp;&emsp;&emsp;&emsp;&ensp;35% סיכוי לזכות ב-₪0.
        <br><br>מה המחיר המירבי שתהיו מוכנים לשלם על כרטיס להגרלה זו בין 0 ל-₪80?
        <br>הזיזו את העכבר על פני המלבן ולחצו כדי לבצע בחירה.</p>
        
        <p style=""text-align: center;"">₪40<br>65%</p>

        <p id=""wtp"" style=""text-align:center; margin-top: 0px; margin-bottom: 0px; font-size: 40px"";>מוכנים לשלם: <span id=""c_p_y""></span></p>","20","example","42","","","","","","","","","","","","","","","","","","","","","",""
"","","","","","html-keyboard-response","5","42499","0.0-5.0","593fa13f-2aeb-461c-9039-b5510e9a7b36","null","<p>יפה מאוד!
                <br> בחרתם שתהיו מוכנים לשלם ₪20 כדי להשתתף בהגרלה:
                <br><p style=""text-align: center;"">₪40<br>65%</p>
                <p>נשמע נכון?
                <br>נניח שהגרלה זו נבחרה בסוף הניסוי.
                <br>כעת המחשב יקבע מחיר עבורה באקראי.
                <br>לחצו על העכבר להמשך.</p>","1","example","","","","","","","","","","","","","","","","","","","","","","",""
"","","","","","html-keyboard-response","6","55667","0.0-6.0","593fa13f-2aeb-461c-9039-b5510e9a7b36","null","<p>המחשב קבע מחיר: ₪33
                <br>ואתם בחרתם לשלם לכל היותר: ₪20
                <br><br>מכיוון שהמחיר שבחרתם נמוך מהמחיר שנקבע, לא תתשתתפו בהגרלה.
                <br>במקרה כזה, בסוף הניסוי תקבלו את כל התקציב ההתחלתי של ₪80.
                <br><br>לחצו על העכבר להמשך.</p>","1","example","","","","","","","","","","","","","","","","","","","","","","",""
"","","","","","html-slider-response","7","67604","0.0-7.0","593fa13f-2aeb-461c-9039-b5510e9a7b36","11674","<p style=""font-size: 42px;"">הנה עוד דוגמא:
                <br>ההגרלה מטה מציעה 35% סיכוי לזכות ב-₪18 
                <br>&emsp;&emsp;&emsp;&emsp;&emsp;&emsp;&emsp;&emsp;&ensp;65% סיכוי לזכות ב-₪0.</p>
        
                <p style=""text-align: center;"">₪18<br>35%</p>
                <p id=""wtp"" style=""text-align:center; margin-top: 0px; margin-bottom: 0px; font-size: 40px"";>מוכנים לשלם: <span id=""c_p_y""></span></p>","5","example","49","","","","","","","","","","","","","","","","","","","","","",""
"","","","","","html-keyboard-response","8","71451","0.0-8.0","593fa13f-2aeb-461c-9039-b5510e9a7b36","null","<p>הייתם מוכנים לשלם  ₪5 כדי להשתתף בהגרלה:
                <p style=""text-align: center;"">₪18<br>35%</p>
                <p>כעת נניח שהמחשב בחר את ההגרלה הזו בסוף הניסוי, וקבע עבורה מחיר.
                <br><br>לחצו על העכבר כדי להמשיך.</p>","1","instructions","","","","","","","","","","","","","","","","","","","","","","",""
"","","","","","html-keyboard-response","9","83515","0.0-9.0","593fa13f-2aeb-461c-9039-b5510e9a7b36","null","<p>המחשב קבע מחיר להגרלה: ₪3<br>ואתם בחרתם לשלם לכל היותר: ₪5
                <br><br>כעת המחיר שנקבע נמוך מזה שבחרתם, אז תשלמו את המחיר שקבע המחשב (₪3) ותשתתפו בהגרלה.
                <br>במקרה כזה, תסיימו את הניסוי עם תקציב של ₪77 ועם סיכוי לזכות ב-₪18 נוספים מההגרלה.
                <br>כלומר, תוכלו לקבל ₪77 אם לא תזכו בהגרלה, או ₪95 אם תזכו בהגרלה.
                <br><br>לחצו על העכבר להמשך.</p>","1","example","","","","","","","","","","","","","","","","","","","","","","",""
"","","","","","html-keyboard-response","10","91587","0.0-10.0","593fa13f-2aeb-461c-9039-b5510e9a7b36","null","<p>במהלך הניסוי, קודם תראו את ההגרלה ורק לאחר מכן תוכלו לבחור.
                <p>כמו כן, יהיו לכם מספר שניות מוגבל להגיב.
                <p>בואו ננסה זאת עם ההגרלה הקודמת.
                <br>לחצו על העכבר כדי להמשיך.</p>","1","instructions","","","","","","","","","","","","","","","","","","","","","","",""
"","","","","","html-slider-response","11","92854","0.0-11.0","593fa13f-2aeb-461c-9039-b5510e9a7b36","1000","
                    <p style=""text-align: center;"">₪18<br>35%</p>
                    <p id=""wtp"" style=""text-align:center; margin-top: 0px; margin-bottom: 0px; font-size: 40px"";>&ensp;</p>","38","instructions","0","","","","","","","","","","","","","","","","","","","","","",""
"","","","","","html-slider-response","12","97106","0.0-12.0","593fa13f-2aeb-461c-9039-b5510e9a7b36","null","
                    <p style=""text-align: center;"">₪18<br>35%</p>
                    <p id=""wtp"" style=""text-align:center; margin-top: 0px; margin-bottom: 0px; font-size: 40px"";>מוכנים לשלם: <span id=""c_p_y""></span></p>","null","instructions","26","","","","","","","","","","","","","","","","","","","","","",""
"","","","","","html-keyboard-response","13","101427","0.0-13.0","593fa13f-2aeb-461c-9039-b5510e9a7b36","null","<p>לא הגבתם בזמן המוקצב לתגובה. 
                <br>נסו להגיב מהר יותר בפעם הבאה.
                <br><br>לחצו על העכבר כדי להמשיך.</p>","1","instructions","","","","","","","","","","","","","","","","","","","","","","",""
"","","","","","html-slider-response","14","102644","0.0-14.0-0.0","593fa13f-2aeb-461c-9039-b5510e9a7b36","964","
                    <p style=""text-align: center;"">₪40<br>65%</p>
                    <p id=""wtp"" style=""text-align:center; margin-top: 0px; margin-bottom: 0px; font-size: 40px"";>מוכנים לשלם: <span id=""c_p_y""></span></p>","1","instructions","45","","","","","","","","","","","","","","","","","","","","","",""
"","","","","","html-keyboard-response","15","105868","0.0-14.0-1.0","593fa13f-2aeb-461c-9039-b5510e9a7b36","null","<p>יפה. הפעם בחרתם לשלם לכל היותר ₪1.
                <br><br>לחצו על העכבר כדי להמשיך.</p>","1","instructions","","","","","","","","","","","","","","","","","","","","","","",""
"","","","","","html-keyboard-response","16","111547","0.0-15.0","593fa13f-2aeb-461c-9039-b5510e9a7b36","null","<p>כעת נתחיל את הניסוי.
                <br><br>אתם תראו הגרלות ותתבקשו לבחור כמה תהיו מוכנים לשלם כדי להשתתף בהן.
                <br>יש לכם תקציב של ₪80 עבור כל הגרלה.
                <br>בסוף הניסוי הגרלה אחת תבחר באקראי ותשוחק.
                <br><br>לחצו על העכבר כדי להתחיל את הניסוי.</p>","1","instructions","","","","","","","","","","","","","","","","","","","","","","",""
"","","","","","html-keyboard-response","17","112799","0.0-16.0","593fa13f-2aeb-461c-9039-b5510e9a7b36","null","<p style=""text-align: center;"">+</p>","null","fixation","","","","","","","","","","","","","","","","","","","","","","",""
"","","","","","html-slider-response","18","113801","0.0-17.0-0.0","593fa13f-2aeb-461c-9039-b5510e9a7b36","1000","
                  <p style=""text-align: center;"">₪18
                                                <br>50%</p>
                  <p id=""wtp"" style=""text-align:center; margin-top: 0px; margin-bottom: 0px; font-size: 40px"";>&ensp;</p>","-","viewing","0","10","2C,16C,22B,28A","","","","","","","","","","","","","","","","","","","",""
"","","","","","html-slider-response","19","117180","0.0-17.0-1.0","593fa13f-2aeb-461c-9039-b5510e9a7b36","3377","
                  <p style=""text-align: center;"">₪18
                                                <br>50%</p>
                  <p id=""wtp"" style=""text-align:center; margin-top: 0px; margin-bottom: 0px; font-size: 40px"";>מוכנים לשלם: <span id=""c_p_y""></span></p>","4","evaluation","13","10","2C,16C,22B,28A","50","18","5","","","","","","","","","","","","","","","","",""
"","","","","","html-keyboard-response","20","118380","0.0-17.0-2.0","593fa13f-2aeb-461c-9039-b5510e9a7b36","null","<p style=""text-align: center;"">+</p>","null","fixation","","","","","","","","","","","","","","","","","","","","","","",""
"","","","","","html-slider-response","21","119389","0.0-17.0-0.1","593fa13f-2aeb-461c-9039-b5510e9a7b36","1000","
                  <p style=""text-align: center;"">₪58
                                                <br>45%</p>
                  <p id=""wtp"" style=""text-align:center; margin-top: 0px; margin-bottom: 0px; font-size: 40px"";>&ensp;</p>","-","viewing","0","21","11C,18C,25A","","","","","","","","","","","","","","","","","","","",""
"","","","","","html-slider-response","22","122923","0.0-17.0-1.1","593fa13f-2aeb-461c-9039-b5510e9a7b36","3533","
                  <p style=""text-align: center;"">₪58
                                                <br>45%</p>
                  <p id=""wtp"" style=""text-align:center; margin-top: 0px; margin-bottom: 0px; font-size: 40px"";>מוכנים לשלם: <span id=""c_p_y""></span></p>","18","evaluation","41","21","11C,18C,25A","45","58","18","","","","","","","","","","","","","","","","",""
"","","","","","html-keyboard-response","23","123824","0.0-17.0-2.1","593fa13f-2aeb-461c-9039-b5510e9a7b36","null","<p style=""text-align: center;"">+</p>","null","fixation","","","","","","","","","","","","","","","","","","","","","","",""
"","","","","","html-slider-response","24","124835","0.0-17.0-0.2","593fa13f-2aeb-461c-9039-b5510e9a7b36","1000","
                  <p style=""text-align: center;"">₪39
                                                <br>65%</p>
                  <p id=""wtp"" style=""text-align:center; margin-top: 0px; margin-bottom: 0px; font-size: 40px"";>&ensp;</p>","-","viewing","0","16","1A,15A,26C","","","","","","","","","","","","","","","","","","","",""
"","","","","","html-slider-response","25","128267","0.0-17.0-1.2","593fa13f-2aeb-461c-9039-b5510e9a7b36","3431","
                  <p style=""text-align: center;"">₪39
                                                <br>65%</p>
                  <p id=""wtp"" style=""text-align:center; margin-top: 0px; margin-bottom: 0px; font-size: 40px"";>מוכנים לשלם: <span id=""c_p_y""></span></p>","16","evaluation","12","16","1A,15A,26C","65","39","16","","","","","","","","","","","","","","","","",""
"","","","","","html-keyboard-response","26","129354","0.0-17.0-2.2","593fa13f-2aeb-461c-9039-b5510e9a7b36","null","<p style=""text-align: center;"">+</p>","null","fixation","","","","","","","","","","","","","","","","","","","","","","",""
"","","","","","html-slider-response","27","130356","0.0-17.0-0.3","593fa13f-2aeb-461c-9039-b5510e9a7b36","1000","
                  <p style=""text-align: center;"">₪71
                                                <br>75%</p>
                  <p id=""wtp"" style=""text-align:center; margin-top: 0px; margin-bottom: 0px; font-size: 40px"";>&ensp;</p>","-","viewing","0","28","8B","","","","","","","","","","","","","","","","","","","",""
"","","","","","html-slider-response","28","134358","0.0-17.0-1.3","593fa13f-2aeb-461c-9039-b5510e9a7b36","null","
                  <p style=""text-align: center;"">₪71
                                                <br>75%</p>
                  <p id=""wtp"" style=""text-align:center; margin-top: 0px; margin-bottom: 0px; font-size: 40px"";>מוכנים לשלם: <span id=""c_p_y""></span></p>","null","evaluation","48","28","8B","75","71","32","","","","","","","","","","","","","","","","",""
"","","","","","html-keyboard-response","29","135266","0.0-17.0-2.3","593fa13f-2aeb-461c-9039-b5510e9a7b36","null","<p style=""text-align: center;"">+</p>","null","fixation","","","","","","","","","","","","","","","","","","","","","","",""
"","","","","","html-slider-response","30","136268","0.0-17.0-0.4","593fa13f-2aeb-461c-9039-b5510e9a7b36","1000","
                  <p style=""text-align: center;"">₪36
                                                <br>30%</p>
                  <p id=""wtp"" style=""text-align:center; margin-top: 0px; margin-bottom: 0px; font-size: 40px"";>&ensp;</p>","-","viewing","0","11","3C,20A,22A","","","","","","","","","","","","","","","","","","","",""
"","","","","","html-slider-response","31","138147","0.0-17.0-1.4","593fa13f-2aeb-461c-9039-b5510e9a7b36","1877","
                  <p style=""text-align: center;"">₪36
                                                <br>30%</p>
                  <p id=""wtp"" style=""text-align:center; margin-top: 0px; margin-bottom: 0px; font-size: 40px"";>מוכנים לשלם: <span id=""c_p_y""></span></p>","15","evaluation","64","11","3C,20A,22A","30","36","15","","","","","","","","","","","","","","","","",""
"","","","","","html-keyboard-response","32","138988","0.0-17.0-2.4","593fa13f-2aeb-461c-9039-b5510e9a7b36","null","<p style=""text-align: center;"">+</p>","null","fixation","","","","","","","","","","","","","","","","","","","","","","",""
"","","","","","html-slider-response","33","140001","0.0-17.0-0.5","593fa13f-2aeb-461c-9039-b5510e9a7b36","1000","
                  <p style=""text-align: center;"">₪64
                                                <br>50%</p>
                  <p id=""wtp"" style=""text-align:center; margin-top: 0px; margin-bottom: 0px; font-size: 40px"";>&ensp;</p>","-","viewing","0","25","1B,3B,4A","","","","","","","","","","","","","","","","","","","",""
"","","","","","html-slider-response","34","141795","0.0-17.0-1.5","593fa13f-2aeb-461c-9039-b5510e9a7b36","1793","
                  <p style=""text-align: center;"">₪64
                                                <br>50%</p>
                  <p id=""wtp"" style=""text-align:center; margin-top: 0px; margin-bottom: 0px; font-size: 40px"";>מוכנים לשלם: <span id=""c_p_y""></span></p>","23","evaluation","1","25","1B,3B,4A","50","64","23","","","","","","","","","","","","","","","","",""
"","","","","","html-keyboard-response","35","142740","0.0-17.0-2.5","593fa13f-2aeb-461c-9039-b5510e9a7b36","null","<p style=""text-align: center;"">+</p>","null","fixation","","","","","","","","","","","","","","","","","","","","","","",""
"","","","","","html-slider-response","36","143755","0.0-17.0-0.6","593fa13f-2aeb-461c-9039-b5510e9a7b36","1000","
                  <p style=""text-align: center;"">₪76
                                                <br>65%</p>
                  <p id=""wtp"" style=""text-align:center; margin-top: 0px; margin-bottom: 0px; font-size: 40px"";>&ensp;</p>","-","viewing","0","29","8C,19A,24B","","","","","","","","","","","","","","","","","","","",""
"","","","","","html-slider-response","37","145107","0.0-17.0-1.6","593fa13f-2aeb-461c-9039-b5510e9a7b36","1351","
                  <p style=""text-align: center;"">₪76
                                                <br>65%</p>
                  <p id=""wtp"" style=""text-align:center; margin-top: 0px; margin-bottom: 0px; font-size: 40px"";>מוכנים לשלם: <span id=""c_p_y""></span></p>","29","evaluation","20","29","8C,19A,24B","65","76","29","","","","","","","","","","","","","","","","",""
"","","","","","html-keyboard-response","38","145628","0.0-17.0-2.6","593fa13f-2aeb-461c-9039-b5510e9a7b36","null","<p style=""text-align: center;"">+</p>","null","fixation","","","","","","","","","","","","","","","","","","","","","","",""
"","","","","","html-slider-response","39","146630","0.0-17.0-0.7","593fa13f-2aeb-461c-9039-b5510e9a7b36","1000","
                  <p style=""text-align: center;"">₪4
                                                <br>50%</p>
                  <p id=""wtp"" style=""text-align:center; margin-top: 0px; margin-bottom: 0px; font-size: 40px"";>&ensp;</p>","-","viewing","0","2","4C,17B","","","","","","","","","","","","","","","","","","","",""
"","","","","","html-slider-response","40","149203","0.0-17.0-1.7","593fa13f-2aeb-461c-9039-b5510e9a7b36","2571","
                  <p style=""text-align: center;"">₪4
                                                <br>50%</p>
                  <p id=""wtp"" style=""text-align:center; margin-top: 0px; margin-bottom: 0px; font-size: 40px"";>מוכנים לשלם: <span id=""c_p_y""></span></p>","6","evaluation","9","2","4C,17B","50","4","6","","","","","","","","","","","","","","","","",""
"","","","","","html-keyboard-response","41","150016","0.0-17.0-2.7","593fa13f-2aeb-461c-9039-b5510e9a7b36","null","<p style=""text-align: center;"">+</p>","null","fixation","","","","","","","","","","","","","","","","","","","","","","",""
"","","","","","html-slider-response","42","151019","0.0-17.0-0.8","593fa13f-2aeb-461c-9039-b5510e9a7b36","1000","
                  <p style=""text-align: center;"">₪71
                                                <br>55%</p>
                  <p id=""wtp"" style=""text-align:center; margin-top: 0px; margin-bottom: 0px; font-size: 40px"";>&ensp;</p>","-","viewing","0","27","5B,18A","","","","","","","","","","","","","","","","","","","",""
"","","","","","html-slider-response","43","153707","0.0-17.0-1.8","593fa13f-2aeb-461c-9039-b5510e9a7b36","2687","
                  <p style=""text-align: center;"">₪71
                                                <br>55%</p>
                  <p id=""wtp"" style=""text-align:center; margin-top: 0px; margin-bottom: 0px; font-size: 40px"";>מוכנים לשלם: <span id=""c_p_y""></span></p>","21","evaluation","3","27","5B,18A","55","71","21","","","","","","","","","","","","","","","","",""
"","","","","","html-keyboard-response","44","154925","0.0-17.0-2.8","593fa13f-2aeb-461c-9039-b5510e9a7b36","null","<p style=""text-align: center;"">+</p>","null","fixation","","","","","","","","","","","","","","","","","","","","","","",""
"","","","","","html-slider-response","45","155927","0.0-17.0-0.9","593fa13f-2aeb-461c-9039-b5510e9a7b36","1000","
                  <p style=""text-align: center;"">₪4
                                                <br>75%</p>
                  <p id=""wtp"" style=""text-align:center; margin-top: 0px; margin-bottom: 0px; font-size: 40px"";>&ensp;</p>","-","viewing","0","3","12B,20B,23B,27C,29C","","","","","","","","","","","","","","","","","","","",""
"","","","","","html-slider-response","46","158515","0.0-17.0-1.9","593fa13f-2aeb-461c-9039-b5510e9a7b36","2587","
                  <p style=""text-align: center;"">₪4
                                                <br>75%</p>
                  <p id=""wtp"" style=""text-align:center; margin-top: 0px; margin-bottom: 0px; font-size: 40px"";>מוכנים לשלם: <span id=""c_p_y""></span></p>","27","evaluation","61","3","12B,20B,23B,27C,29C","75","4","27","","","","","","","","","","","","","","","","",""
"","","","","","html-keyboard-response","47","159652","0.0-17.0-2.9","593fa13f-2aeb-461c-9039-b5510e9a7b36","null","<p style=""text-align: center;"">+</p>","null","fixation","","","","","","","","","","","","","","","","","","","","","","",""
"","","","","","html-slider-response","48","160654","0.0-17.0-0.10","593fa13f-2aeb-461c-9039-b5510e9a7b36","1000","
                  <p style=""text-align: center;"">₪36
                                                <br>60%</p>
                  <p id=""wtp"" style=""text-align:center; margin-top: 0px; margin-bottom: 0px; font-size: 40px"";>&ensp;</p>","-","viewing","0","12","1C,7C,15C","","","","","","","","","","","","","","","","","","","",""
"","","","","","html-slider-response","49","164339","0.0-17.0-1.10","593fa13f-2aeb-461c-9039-b5510e9a7b36","3684","
                  <p style=""text-align: center;"">₪36
                                                <br>60%</p>
                  <p id=""wtp"" style=""text-align:center; margin-top: 0px; margin-bottom: 0px; font-size: 40px"";>מוכנים לשלם: <span id=""c_p_y""></span></p>","7","evaluation","3","12","1C,7C,15C","60","36","8","","","","","","","","","","","","","","","","",""
"","","","","","html-keyboard-response","50","165141","0.0-17.0-2.10","593fa13f-2aeb-461c-9039-b5510e9a7b36","null","<p style=""text-align: center;"">+</p>","null","fixation","","","","","","","","","","","","","","","","","","","","","","",""
"","","","","","html-slider-response","51","166143","0.0-17.0-0.11","593fa13f-2aeb-461c-9039-b5510e9a7b36","1000","
                  <p style=""text-align: center;"">₪61
                                                <br>45%</p>
                  <p id=""wtp"" style=""text-align:center; margin-top: 0px; margin-bottom: 0px; font-size: 40px"";>&ensp;</p>","-","viewing","0","22","10A,11A","","","","","","","","","","","","","","","","","","","",""
"","","","","","html-slider-response","52","168699","0.0-17.0-1.11","593fa13f-2aeb-461c-9039-b5510e9a7b36","2554","
                  <p style=""text-align: center;"">₪61
                                                <br>45%</p>
                  <p id=""wtp"" style=""text-align:center; margin-top: 0px; margin-bottom: 0px; font-size: 40px"";>מוכנים לשלם: <span id=""c_p_y""></span></p>","17","evaluation","73","22","10A,11A","45","61","17","","","","","","","","","","","","","","","","",""
"","","","","","html-keyboard-response","53","169370","0.0-17.0-2.11","593fa13f-2aeb-461c-9039-b5510e9a7b36","null","<p style=""text-align: center;"">+</p>","null","fixation","","","","","","","","","","","","","","","","","","","","","","",""
"","","","","","html-slider-response","54","170371","0.0-17.0-0.12","593fa13f-2aeb-461c-9039-b5510e9a7b36","1000","
                  <p style=""text-align: center;"">₪43
                                                <br>60%</p>
                  <p id=""wtp"" style=""text-align:center; margin-top: 0px; margin-bottom: 0px; font-size: 40px"";>&ensp;</p>","-","viewing","0","17","2A,7A,9A,15B","","","","","","","","","","","","","","","","","","","",""
"","","","","","html-slider-response","55","173099","0.0-17.0-1.12","593fa13f-2aeb-461c-9039-b5510e9a7b36","2727","
                  <p style=""text-align: center;"">₪43
                                                <br>60%</p>
                  <p id=""wtp"" style=""text-align:center; margin-top: 0px; margin-bottom: 0px; font-size: 40px"";>מוכנים לשלם: <span id=""c_p_y""></span></p>","21","evaluation","55","17","2A,7A,9A,15B","60","43","21","","","","","","","","","","","","","","","","",""
"","","","","","html-keyboard-response","56","173627","0.0-17.0-2.12","593fa13f-2aeb-461c-9039-b5510e9a7b36","null","<p style=""text-align: center;"">+</p>","null","fixation","","","","","","","","","","","","","","","","","","","","","","",""
"","","","","","html-slider-response","57","174628","0.0-17.0-0.13","593fa13f-2aeb-461c-9039-b5510e9a7b36","1000","
                  <p style=""text-align: center;"">₪71
                                                <br>45%</p>
                  <p id=""wtp"" style=""text-align:center; margin-top: 0px; margin-bottom: 0px; font-size: 40px"";>&ensp;</p>","-","viewing","0","26","2B,16A","","","","","","","","","","","","","","","","","","","",""
"","","","","","html-slider-response","58","176187","0.0-17.0-1.13","593fa13f-2aeb-461c-9039-b5510e9a7b36","1558","
                  <p style=""text-align: center;"">₪71
                                                <br>45%</p>
                  <p id=""wtp"" style=""text-align:center; margin-top: 0px; margin-bottom: 0px; font-size: 40px"";>מוכנים לשלם: <span id=""c_p_y""></span></p>","15","evaluation","30","26","2B,16A","45","71","15","","","","","","","","","","","","","","","","",""
"","","","","","html-keyboard-response","59","176778","0.0-17.0-2.13","593fa13f-2aeb-461c-9039-b5510e9a7b36","null","<p style=""text-align: center;"">+</p>","null","fixation","","","","","","","","","","","","","","","","","","","","","","",""
"","","","","","html-slider-response","60","177787","0.0-17.0-0.14","593fa13f-2aeb-461c-9039-b5510e9a7b36","1000","
                  <p style=""text-align: center;"">₪36
                                                <br>70%</p>
                  <p id=""wtp"" style=""text-align:center; margin-top: 0px; margin-bottom: 0px; font-size: 40px"";>&ensp;</p>","-","viewing","0","13","3A,5C,10B","","","","","","","","","","","","","","","","","","","",""
"","","","","","html-slider-response","61","180332","0.0-17.0-1.14","593fa13f-2aeb-461c-9039-b5510e9a7b36","2543","
                  <p style=""text-align: center;"">₪36
                                                <br>70%</p>
                  <p id=""wtp"" style=""text-align:center; margin-top: 0px; margin-bottom: 0px; font-size: 40px"";>מוכנים לשלם: <span id=""c_p_y""></span></p>","19","evaluation","5","13","3A,5C,10B","70","36","20","","","","","","","","","","","","","","","","",""
"","","","","","html-keyboard-response","62","180985","0.0-17.0-2.14","593fa13f-2aeb-461c-9039-b5510e9a7b36","null","<p style=""text-align: center;"">+</p>","null","fixation","","","","","","","","","","","","","","","","","","","","","","",""
"","","","","","html-slider-response","63","181987","0.0-17.0-0.15","593fa13f-2aeb-461c-9039-b5510e9a7b36","1000","
                  <p style=""text-align: center;"">₪43
                                                <br>75%</p>
                  <p id=""wtp"" style=""text-align:center; margin-top: 0px; margin-bottom: 0px; font-size: 40px"";>&ensp;</p>","-","viewing","0","18","11B,19B,24A,26A","","","","","","","","","","","","","","","","","","","",""
"","","","","","html-slider-response","64","183756","0.0-17.0-1.15","593fa13f-2aeb-461c-9039-b5510e9a7b36","1767","
                  <p style=""text-align: center;"">₪43
                                                <br>75%</p>
                  <p id=""wtp"" style=""text-align:center; margin-top: 0px; margin-bottom: 0px; font-size: 40px"";>מוכנים לשלם: <span id=""c_p_y""></span></p>","27","evaluation","76","18","11B,19B,24A,26A","75","43","27","","","","","","","","","","","","","","","","",""
"","","","","","html-keyboard-response","65","185056","0.0-17.0-2.15","593fa13f-2aeb-461c-9039-b5510e9a7b36","null","<p style=""text-align: center;"">+</p>","null","fixation","","","","","","","","","","","","","","","","","","","","","","",""
"","","","","","html-slider-response","66","186065","0.0-17.0-0.16","593fa13f-2aeb-461c-9039-b5510e9a7b36","1000","
                  <p style=""text-align: center;"">₪79
                                                <br>40%</p>
                  <p id=""wtp"" style=""text-align:center; margin-top: 0px; margin-bottom: 0px; font-size: 40px"";>&ensp;</p>","-","viewing","0","30","9B","","","","","","","","","","","","","","","","","","","",""
"","","","","","html-slider-response","67","188724","0.0-17.0-1.16","593fa13f-2aeb-461c-9039-b5510e9a7b36","2657","
                  <p style=""text-align: center;"">₪79
                                                <br>40%</p>
                  <p id=""wtp"" style=""text-align:center; margin-top: 0px; margin-bottom: 0px; font-size: 40px"";>מוכנים לשלם: <span id=""c_p_y""></span></p>","15","evaluation","39","30","9B","40","79","15","","","","","","","","","","","","","","","","",""
"","","","","","html-keyboard-response","68","189292","0.0-17.0-2.16","593fa13f-2aeb-461c-9039-b5510e9a7b36","null","<p style=""text-align: center;"">+</p>","null","fixation","","","","","","","","","","","","","","","","","","","","","","",""
"","","","","","html-slider-response","69","190294","0.0-17.0-0.17","593fa13f-2aeb-461c-9039-b5510e9a7b36","1000","
                  <p style=""text-align: center;"">₪36
                                                <br>75%</p>
                  <p id=""wtp"" style=""text-align:center; margin-top: 0px; margin-bottom: 0px; font-size: 40px"";>&ensp;</p>","-","viewing","0","14","4B,5A,13B,16B","","","","","","","","","","","","","","","","","","","",""
"","","","","","html-slider-response","70","191939","0.0-17.0-1.17","593fa13f-2aeb-461c-9039-b5510e9a7b36","1644","
                  <p style=""text-align: center;"">₪36
                                                <br>75%</p>
                  <p id=""wtp"" style=""text-align:center; margin-top: 0px; margin-bottom: 0px; font-size: 40px"";>מוכנים לשלם: <span id=""c_p_y""></span></p>","19","evaluation","45","14","4B,5A,13B,16B","75","36","19","","","","","","","","","","","","","","","","",""
"","","","","","html-keyboard-response","71","192947","0.0-17.0-2.17","593fa13f-2aeb-461c-9039-b5510e9a7b36","null","<p style=""text-align: center;"">+</p>","null","fixation","","","","","","","","","","","","","","","","","","","","","","",""
"","","","","","html-slider-response","72","193948","0.0-17.0-0.18","593fa13f-2aeb-461c-9039-b5510e9a7b36","1000","
                  <p style=""text-align: center;"">₪58
                                                <br>40%</p>
                  <p id=""wtp"" style=""text-align:center; margin-top: 0px; margin-bottom: 0px; font-size: 40px"";>&ensp;</p>","-","viewing","0","20","10C,13A,19C,21B","","","","","","","","","","","","","","","","","","","",""
"","","","","","html-slider-response","73","197020","0.0-17.0-1.18","593fa13f-2aeb-461c-9039-b5510e9a7b36","3071","
                  <p style=""text-align: center;"">₪58
                                                <br>40%</p>
                  <p id=""wtp"" style=""text-align:center; margin-top: 0px; margin-bottom: 0px; font-size: 40px"";>מוכנים לשלם: <span id=""c_p_y""></span></p>","16","evaluation","5","20","10C,13A,19C,21B","40","58","16","","","","","","","","","","","","","","","","",""
"","","","","","html-keyboard-response","74","198460","0.0-17.0-2.18","593fa13f-2aeb-461c-9039-b5510e9a7b36","null","<p style=""text-align: center;"">+</p>","null","fixation","","","","","","","","","","","","","","","","","","","","","","",""
"","","","","","html-slider-response","75","199462","0.0-17.0-0.19","593fa13f-2aeb-461c-9039-b5510e9a7b36","1000","
                  <p style=""text-align: center;"">₪58
                                                <br>30%</p>
                  <p id=""wtp"" style=""text-align:center; margin-top: 0px; margin-bottom: 0px; font-size: 40px"";>&ensp;</p>","-","viewing","0","19","13C,30A","","","","","","","","","","","","","","","","","","","",""
"","","","","","html-slider-response","76","201259","0.0-17.0-1.19","593fa13f-2aeb-461c-9039-b5510e9a7b36","1797","
                  <p style=""text-align: center;"">₪58
                                                <br>30%</p>
                  <p id=""wtp"" style=""text-align:center; margin-top: 0px; margin-bottom: 0px; font-size: 40px"";>מוכנים לשלם: <span id=""c_p_y""></span></p>","13","evaluation","77","19","13C,30A","30","58","13","","","","","","","","","","","","","","","","",""
"","","","","","html-keyboard-response","77","202713","0.0-17.0-2.19","593fa13f-2aeb-461c-9039-b5510e9a7b36","null","<p style=""text-align: center;"">+</p>","null","fixation","","","","","","","","","","","","","","","","","","","","","","",""
"","","","","","html-slider-response","78","203715","0.0-17.0-0.20","593fa13f-2aeb-461c-9039-b5510e9a7b36","1000","
                  <p style=""text-align: center;"">₪11
                                                <br>75%</p>
                  <p id=""wtp"" style=""text-align:center; margin-top: 0px; margin-bottom: 0px; font-size: 40px"";>&ensp;</p>","-","viewing","0","7","6B,18B,22C,24C,29A","","","","","","","","","","","","","","","","","","","",""
"","","","","","html-slider-response","79","205772","0.0-17.0-1.20","593fa13f-2aeb-461c-9039-b5510e9a7b36","2056","
                  <p style=""text-align: center;"">₪11
                                                <br>75%</p>
                  <p id=""wtp"" style=""text-align:center; margin-top: 0px; margin-bottom: 0px; font-size: 40px"";>מוכנים לשלם: <span id=""c_p_y""></span></p>","20","evaluation","16","7","6B,18B,22C,24C,29A","75","11","20","","","","","","","","","","","","","","","","",""
"","","","","","html-keyboard-response","80","206638","0.0-17.0-2.20","593fa13f-2aeb-461c-9039-b5510e9a7b36","null","<p style=""text-align: center;"">+</p>","null","fixation","","","","","","","","","","","","","","","","","","","","","","",""
"","","","","","html-slider-response","81","207640","0.0-17.0-0.21","593fa13f-2aeb-461c-9039-b5510e9a7b36","1000","
                  <p style=""text-align: center;"">₪11
                                                <br>45%</p>
                  <p id=""wtp"" style=""text-align:center; margin-top: 0px; margin-bottom: 0px; font-size: 40px"";>&ensp;</p>","-","viewing","0","6","14B,21C,25C","","","","","","","","","","","","","","","","","","","",""
"","","","","","html-slider-response","82","209284","0.0-17.0-1.21","593fa13f-2aeb-461c-9039-b5510e9a7b36","1643","
                  <p style=""text-align: center;"">₪11
                                                <br>45%</p>
                  <p id=""wtp"" style=""text-align:center; margin-top: 0px; margin-bottom: 0px; font-size: 40px"";>מוכנים לשלם: <span id=""c_p_y""></span></p>","5","evaluation","2","6","14B,21C,25C","45","11","5","","","","","","","","","","","","","","","","",""
"","","","","","html-keyboard-response","83","210439","0.0-17.0-2.21","593fa13f-2aeb-461c-9039-b5510e9a7b36","null","<p style=""text-align: center;"">+</p>","null","fixation","","","","","","","","","","","","","","","","","","","","","","",""
"","","","","","html-slider-response","84","211447","0.0-17.0-0.22","593fa13f-2aeb-461c-9039-b5510e9a7b36","1000","
                  <p style=""text-align: center;"">₪64
                                                <br>25%</p>
                  <p id=""wtp"" style=""text-align:center; margin-top: 0px; margin-bottom: 0px; font-size: 40px"";>&ensp;</p>","-","viewing","0","24","6A,21A","","","","","","","","","","","","","","","","","","","",""
"","","","","","html-slider-response","85","214331","0.0-17.0-1.22","593fa13f-2aeb-461c-9039-b5510e9a7b36","2883","
                  <p style=""text-align: center;"">₪64
                                                <br>25%</p>
                  <p id=""wtp"" style=""text-align:center; margin-top: 0px; margin-bottom: 0px; font-size: 40px"";>מוכנים לשלם: <span id=""c_p_y""></span></p>","20","evaluation","62","24","6A,21A","25","64","21","","","","","","","","","","","","","","","","",""
"","","","","","html-keyboard-response","86","214860","0.0-17.0-2.22","593fa13f-2aeb-461c-9039-b5510e9a7b36","null","<p style=""text-align: center;"">+</p>","null","fixation","","","","","","","","","","","","","","","","","","","","","","",""
"","","","","","html-slider-response","87","215870","0.0-17.0-0.23","593fa13f-2aeb-461c-9039-b5510e9a7b36","1000","
                  <p style=""text-align: center;"">₪79
                                                <br>65%</p>
                  <p id=""wtp"" style=""text-align:center; margin-top: 0px; margin-bottom: 0px; font-size: 40px"";>&ensp;</p>","-","viewing","0","31","8A","","","","","","","","","","","","","","","","","","","",""
"","","","","","html-slider-response","88","217787","0.0-17.0-1.23","593fa13f-2aeb-461c-9039-b5510e9a7b36","1916","
                  <p style=""text-align: center;"">₪79
                                                <br>65%</p>
                  <p id=""wtp"" style=""text-align:center; margin-top: 0px; margin-bottom: 0px; font-size: 40px"";>מוכנים לשלם: <span id=""c_p_y""></span></p>","30","evaluation","14","31","8A","65","79","30","","","","","","","","","","","","","","","","",""
"","","","","","html-keyboard-response","89","218474","0.0-17.0-2.23","593fa13f-2aeb-461c-9039-b5510e9a7b36","null","<p style=""text-align: center;"">+</p>","null","fixation","","","","","","","","","","","","","","","","","","","","","","",""
"","","","","","html-slider-response","90","219477","0.0-17.0-0.24","593fa13f-2aeb-461c-9039-b5510e9a7b36","1000","
                  <p style=""text-align: center;"">₪16
                                                <br>20%</p>
                  <p id=""wtp"" style=""text-align:center; margin-top: 0px; margin-bottom: 0px; font-size: 40px"";>&ensp;</p>","-","viewing","0","8","14C,17A,20C,27A","","","","","","","","","","","","","","","","","","","",""
"","","","","","html-slider-response","91","221444","0.0-17.0-1.24","593fa13f-2aeb-461c-9039-b5510e9a7b36","1966","
                  <p style=""text-align: center;"">₪16
                                                <br>20%</p>
                  <p id=""wtp"" style=""text-align:center; margin-top: 0px; margin-bottom: 0px; font-size: 40px"";>מוכנים לשלם: <span id=""c_p_y""></span></p>","9","evaluation","66","8","14C,17A,20C,27A","20","16","10","","","","","","","","","","","","","","","","",""
"","","","","","html-keyboard-response","92","222195","0.0-17.0-2.24","593fa13f-2aeb-461c-9039-b5510e9a7b36","null","<p style=""text-align: center;"">+</p>","null","fixation","","","","","","","","","","","","","","","","","","","","","","",""
"","","","","","html-slider-response","93","223205","0.0-17.0-0.25","593fa13f-2aeb-461c-9039-b5510e9a7b36","1000","
                  <p style=""text-align: center;"">₪4
                                                <br>25%</p>
                  <p id=""wtp"" style=""text-align:center; margin-top: 0px; margin-bottom: 0px; font-size: 40px"";>&ensp;</p>","-","viewing","0","1","6C,29B,30C","","","","","","","","","","","","","","","","","","","",""
"","","","","","html-slider-response","94","225020","0.0-17.0-1.25","593fa13f-2aeb-461c-9039-b5510e9a7b36","1813","
                  <p style=""text-align: center;"">₪4
                                                <br>25%</p>
                  <p id=""wtp"" style=""text-align:center; margin-top: 0px; margin-bottom: 0px; font-size: 40px"";>מוכנים לשלם: <span id=""c_p_y""></span></p>","2","evaluation","52","1","6C,29B,30C","25","4","3","","","","","","","","","","","","","","","","",""
"","","","","","html-keyboard-response","95","226207","0.0-17.0-2.25","593fa13f-2aeb-461c-9039-b5510e9a7b36","null","<p style=""text-align: center;"">+</p>","null","fixation","","","","","","","","","","","","","","","","","","","","","","",""
"","","","","","html-slider-response","96","227208","0.0-17.0-0.26","593fa13f-2aeb-461c-9039-b5510e9a7b36","1000","
                  <p style=""text-align: center;"">₪18
                                                <br>25%</p>
                  <p id=""wtp"" style=""text-align:center; margin-top: 0px; margin-bottom: 0px; font-size: 40px"";>&ensp;</p>","-","viewing","0","9","14A,23A","","","","","","","","","","","","","","","","","","","",""
"","","","","","html-slider-response","97","228587","0.0-17.0-1.26","593fa13f-2aeb-461c-9039-b5510e9a7b36","1378","
                  <p style=""text-align: center;"">₪18
                                                <br>25%</p>
                  <p id=""wtp"" style=""text-align:center; margin-top: 0px; margin-bottom: 0px; font-size: 40px"";>מוכנים לשלם: <span id=""c_p_y""></span></p>","7","evaluation","41","9","14A,23A","25","18","7","","","","","","","","","","","","","","","","",""
"","","","","","html-keyboard-response","98","229430","0.0-17.0-2.26","593fa13f-2aeb-461c-9039-b5510e9a7b36","null","<p style=""text-align: center;"">+</p>","null","fixation","","","","","","","","","","","","","","","","","","","","","","",""
"","","","","","html-slider-response","99","230438","0.0-17.0-0.27","593fa13f-2aeb-461c-9039-b5510e9a7b36","1000","
                  <p style=""text-align: center;"">₪11
                                                <br>20%</p>
                  <p id=""wtp"" style=""text-align:center; margin-top: 0px; margin-bottom: 0px; font-size: 40px"";>&ensp;</p>","-","viewing","0","4","12C,17C,23C,28C","","","","","","","","","","","","","","","","","","","",""
"","","","","","html-slider-response","100","232099","0.0-17.0-1.27","593fa13f-2aeb-461c-9039-b5510e9a7b36","1660","
                  <p style=""text-align: center;"">₪11
                                                <br>20%</p>
                  <p id=""wtp"" style=""text-align:center; margin-top: 0px; margin-bottom: 0px; font-size: 40px"";>מוכנים לשלם: <span id=""c_p_y""></span></p>","6","evaluation","71","4","12C,17C,23C,28C","20","11","6","","","","","","","","","","","","","","","","",""
"","","","","","html-keyboard-response","101","232806","0.0-17.0-2.27","593fa13f-2aeb-461c-9039-b5510e9a7b36","null","<p style=""text-align: center;"">+</p>","null","fixation","","","","","","","","","","","","","","","","","","","","","","",""
"","","","","","html-slider-response","102","233821","0.0-17.0-0.28","593fa13f-2aeb-461c-9039-b5510e9a7b36","1000","
                  <p style=""text-align: center;"">₪11
                                                <br>25%</p>
                  <p id=""wtp"" style=""text-align:center; margin-top: 0px; margin-bottom: 0px; font-size: 40px"";>&ensp;</p>","-","viewing","0","5","12A,27B,28B,30B","","","","","","","","","","","","","","","","","","","",""
"","","","","","html-slider-response","103","235516","0.0-17.0-1.28","593fa13f-2aeb-461c-9039-b5510e9a7b36","1694","
                  <p style=""text-align: center;"">₪11
                                                <br>25%</p>
                  <p id=""wtp"" style=""text-align:center; margin-top: 0px; margin-bottom: 0px; font-size: 40px"";>מוכנים לשלם: <span id=""c_p_y""></span></p>","6","evaluation","74","5","12A,27B,28B,30B","25","11","6","","","","","","","","","","","","","","","","",""
"","","","","","html-keyboard-response","104","236255","0.0-17.0-2.28","593fa13f-2aeb-461c-9039-b5510e9a7b36","null","<p style=""text-align: center;"">+</p>","null","fixation","","","","","","","","","","","","","","","","","","","","","","",""
"","","","","","html-slider-response","105","237258","0.0-17.0-0.29","593fa13f-2aeb-461c-9039-b5510e9a7b36","1000","
                  <p style=""text-align: center;"">₪61
                                                <br>55%</p>
                  <p id=""wtp"" style=""text-align:center; margin-top: 0px; margin-bottom: 0px; font-size: 40px"";>&ensp;</p>","-","viewing","0","23","7B,26B","","","","","","","","","","","","","","","","","","","",""
"","","","","","html-slider-response","106","239124","0.0-17.0-1.29","593fa13f-2aeb-461c-9039-b5510e9a7b36","1865","
                  <p style=""text-align: center;"">₪61
                                                <br>55%</p>
                  <p id=""wtp"" style=""text-align:center; margin-top: 0px; margin-bottom: 0px; font-size: 40px"";>מוכנים לשלם: <span id=""c_p_y""></span></p>","20","evaluation","0","23","7B,26B","55","61","20","","","","","","","","","","","","","","","","",""
"","","","","","html-keyboard-response","107","240044","0.0-17.0-2.29","593fa13f-2aeb-461c-9039-b5510e9a7b36","null","<p style=""text-align: center;"">+</p>","null","fixation","","","","","","","","","","","","","","","","","","","","","","",""
"","","","","","html-slider-response","108","241058","0.0-17.0-0.30","593fa13f-2aeb-461c-9039-b5510e9a7b36","1000","
                  <p style=""text-align: center;"">₪39
                                                <br>60%</p>
                  <p id=""wtp"" style=""text-align:center; margin-top: 0px; margin-bottom: 0px; font-size: 40px"";>&ensp;</p>","-","viewing","0","15","9C,25B","","","","","","","","","","","","","","","","","","","",""
"","","","","","html-slider-response","109","243084","0.0-17.0-1.30","593fa13f-2aeb-461c-9039-b5510e9a7b36","2024","
                  <p style=""text-align: center;"">₪39
                                                <br>60%</p>
                  <p id=""wtp"" style=""text-align:center; margin-top: 0px; margin-bottom: 0px; font-size: 40px"";>מוכנים לשלם: <span id=""c_p_y""></span></p>","13","evaluation","3","15","9C,25B","60","39","13","","","","","","","","","","","","","","","","",""
"","","","","","html-keyboard-response","110","243613","0.0-17.0-2.30","593fa13f-2aeb-461c-9039-b5510e9a7b36","null","<p style=""text-align: center;"">+</p>","null","fixation","","","","","","","","","","","","","","","","","","","","","","",""
"","","","","","html-keyboard-response","111","244630","0.0-18.0","593fa13f-2aeb-461c-9039-b5510e9a7b36","null","<p style=""text-align: center;"">+</p>","null","fixation","","","","","","","","","","","","","","","","","","","","","","",""
"","","","","","html-keyboard-response","112","247683","0.0-19.0","593fa13f-2aeb-461c-9039-b5510e9a7b36","null","<p>הפסקה.
          <br>לחצו כדי להמשיך.</p>","1","scan_wait","","","","","","","","","","","","","","","","","","","","","","",""
"","","","","","html-keyboard-response","113","248696","0.0-20.0","593fa13f-2aeb-461c-9039-b5510e9a7b36","null","<p style=""text-align: center;"">+</p>","null","fixation","","","","","","","","","","","","","","","","","","","","","","",""
"","","","","","html-slider-response","114","249699","0.0-21.0-0.0","593fa13f-2aeb-461c-9039-b5510e9a7b36","1000","
                  <p style=""text-align: center;"">₪11
                                                <br>25%</p>
                  <p id=""wtp"" style=""text-align:center; margin-top: 0px; margin-bottom: 0px; font-size: 40px"";>&ensp;</p>","-","viewing","0","5","12A,27B,28B,30B","","","","","","","","","","","","","","","","","","","",""
"","","","","","html-slider-response","115","251588","0.0-21.0-1.0","593fa13f-2aeb-461c-9039-b5510e9a7b36","1888","
                  <p style=""text-align: center;"">₪11
                                                <br>25%</p>
                  <p id=""wtp"" style=""text-align:center; margin-top: 0px; margin-bottom: 0px; font-size: 40px"";>מוכנים לשלם: <span id=""c_p_y""></span></p>","4","evaluation","76","5","12A,27B,28B,30B","25","11","4","","","","","","","","","","","","","","","","",""
"","","","","","html-keyboard-response","116","252746","0.0-21.0-2.0","593fa13f-2aeb-461c-9039-b5510e9a7b36","null","<p style=""text-align: center;"">+</p>","null","fixation","","","","","","","","","","","","","","","","","","","","","","",""
"","","","","","html-slider-response","117","253748","0.0-21.0-0.1","593fa13f-2aeb-461c-9039-b5510e9a7b36","1000","
                  <p style=""text-align: center;"">₪61
                                                <br>55%</p>
                  <p id=""wtp"" style=""text-align:center; margin-top: 0px; margin-bottom: 0px; font-size: 40px"";>&ensp;</p>","-","viewing","0","23","7B,26B","","","","","","","","","","","","","","","","","","","",""
"","","","","","html-slider-response","118","256588","0.0-21.0-1.1","593fa13f-2aeb-461c-9039-b5510e9a7b36","2839","
                  <p style=""text-align: center;"">₪61
                                                <br>55%</p>
                  <p id=""wtp"" style=""text-align:center; margin-top: 0px; margin-bottom: 0px; font-size: 40px"";>מוכנים לשלם: <span id=""c_p_y""></span></p>","16","evaluation","76","23","7B,26B","55","61","16","","","","","","","","","","","","","","","","",""
"","","","","","html-keyboard-response","119","257111","0.0-21.0-2.1","593fa13f-2aeb-461c-9039-b5510e9a7b36","null","<p style=""text-align: center;"">+</p>","null","fixation","","","","","","","","","","","","","","","","","","","","","","",""
"","","","","","html-slider-response","120","258113","0.0-21.0-0.2","593fa13f-2aeb-461c-9039-b5510e9a7b36","1000","
                  <p style=""text-align: center;"">₪71
                                                <br>45%</p>
                  <p id=""wtp"" style=""text-align:center; margin-top: 0px; margin-bottom: 0px; font-size: 40px"";>&ensp;</p>","-","viewing","0","26","2B,16A","","","","","","","","","","","","","","","","","","","",""
"","","","","","html-slider-response","121","261284","0.0-21.0-1.2","593fa13f-2aeb-461c-9039-b5510e9a7b36","3170","
                  <p style=""text-align: center;"">₪71
                                                <br>45%</p>
                  <p id=""wtp"" style=""text-align:center; margin-top: 0px; margin-bottom: 0px; font-size: 40px"";>מוכנים לשלם: <span id=""c_p_y""></span></p>","22","evaluation","59","26","2B,16A","45","71","22","","","","","","","","","","","","","","","","",""
"","","","","","html-keyboard-response","122","261933","0.0-21.0-2.2","593fa13f-2aeb-461c-9039-b5510e9a7b36","null","<p style=""text-align: center;"">+</p>","null","fixation","","","","","","","","","","","","","","","","","","","","","","",""
"","","","","","html-slider-response","123","262935","0.0-21.0-0.3","593fa13f-2aeb-461c-9039-b5510e9a7b36","1000","
                  <p style=""text-align: center;"">₪71
                                                <br>75%</p>
                  <p id=""wtp"" style=""text-align:center; margin-top: 0px; margin-bottom: 0px; font-size: 40px"";>&ensp;</p>","-","viewing","0","28","8B","","","","","","","","","","","","","","","","","","","",""
"","","","","","html-slider-response","124","264740","0.0-21.0-1.3","593fa13f-2aeb-461c-9039-b5510e9a7b36","1804","
                  <p style=""text-align: center;"">₪71
                                                <br>75%</p>
                  <p id=""wtp"" style=""text-align:center; margin-top: 0px; margin-bottom: 0px; font-size: 40px"";>מוכנים לשלם: <span id=""c_p_y""></span></p>","35","evaluation","62","28","8B","75","71","35","","","","","","","","","","","","","","","","",""
"","","","","","html-keyboard-response","125","265281","0.0-21.0-2.3","593fa13f-2aeb-461c-9039-b5510e9a7b36","null","<p style=""text-align: center;"">+</p>","null","fixation","","","","","","","","","","","","","","","","","","","","","","",""
"","","","","","html-slider-response","126","266283","0.0-21.0-0.4","593fa13f-2aeb-461c-9039-b5510e9a7b36","1000","
                  <p style=""text-align: center;"">₪18
                                                <br>50%</p>
                  <p id=""wtp"" style=""text-align:center; margin-top: 0px; margin-bottom: 0px; font-size: 40px"";>&ensp;</p>","-","viewing","0","10","2C,16C,22B,28A","","","","","","","","","","","","","","","","","","","",""
"","","","","","html-slider-response","127","268549","0.0-21.0-1.4","593fa13f-2aeb-461c-9039-b5510e9a7b36","2265","
                  <p style=""text-align: center;"">₪18
                                                <br>50%</p>
                  <p id=""wtp"" style=""text-align:center; margin-top: 0px; margin-bottom: 0px; font-size: 40px"";>מוכנים לשלם: <span id=""c_p_y""></span></p>","9","evaluation","43","10","2C,16C,22B,28A","50","18","10","","","","","","","","","","","","","","","","",""
"","","","","","html-keyboard-response","128","269450","0.0-21.0-2.4","593fa13f-2aeb-461c-9039-b5510e9a7b36","null","<p style=""text-align: center;"">+</p>","null","fixation","","","","","","","","","","","","","","","","","","","","","","",""
"","","","","","html-slider-response","129","270465","0.0-21.0-0.5","593fa13f-2aeb-461c-9039-b5510e9a7b36","1000","
                  <p style=""text-align: center;"">₪11
                                                <br>20%</p>
                  <p id=""wtp"" style=""text-align:center; margin-top: 0px; margin-bottom: 0px; font-size: 40px"";>&ensp;</p>","-","viewing","0","4","12C,17C,23C,28C","","","","","","","","","","","","","","","","","","","",""
"","","","","","html-slider-response","130","272572","0.0-21.0-1.5","593fa13f-2aeb-461c-9039-b5510e9a7b36","2106","
                  <p style=""text-align: center;"">₪11
                                                <br>20%</p>
                  <p id=""wtp"" style=""text-align:center; margin-top: 0px; margin-bottom: 0px; font-size: 40px"";>מוכנים לשלם: <span id=""c_p_y""></span></p>","5","evaluation","34","4","12C,17C,23C,28C","20","11","5","","","","","","","","","","","","","","","","",""
"","","","","","html-keyboard-response","131","273863","0.0-21.0-2.5","593fa13f-2aeb-461c-9039-b5510e9a7b36","null","<p style=""text-align: center;"">+</p>","null","fixation","","","","","","","","","","","","","","","","","","","","","","",""
"","","","","","html-slider-response","132","274868","0.0-21.0-0.6","593fa13f-2aeb-461c-9039-b5510e9a7b36","1000","
                  <p style=""text-align: center;"">₪58
                                                <br>45%</p>
                  <p id=""wtp"" style=""text-align:center; margin-top: 0px; margin-bottom: 0px; font-size: 40px"";>&ensp;</p>","-","viewing","0","21","11C,18C,25A","","","","","","","","","","","","","","","","","","","",""
"","","","","","html-slider-response","133","277684","0.0-21.0-1.6","593fa13f-2aeb-461c-9039-b5510e9a7b36","2814","
                  <p style=""text-align: center;"">₪58
                                                <br>45%</p>
                  <p id=""wtp"" style=""text-align:center; margin-top: 0px; margin-bottom: 0px; font-size: 40px"";>מוכנים לשלם: <span id=""c_p_y""></span></p>","20","evaluation","36","21","11C,18C,25A","45","58","21","","","","","","","","","","","","","","","","",""
"","","","","","html-keyboard-response","134","278512","0.0-21.0-2.6","593fa13f-2aeb-461c-9039-b5510e9a7b36","null","<p style=""text-align: center;"">+</p>","null","fixation","","","","","","","","","","","","","","","","","","","","","","",""
"","","","","","html-slider-response","135","279521","0.0-21.0-0.7","593fa13f-2aeb-461c-9039-b5510e9a7b36","1000","
                  <p style=""text-align: center;"">₪64
                                                <br>50%</p>
                  <p id=""wtp"" style=""text-align:center; margin-top: 0px; margin-bottom: 0px; font-size: 40px"";>&ensp;</p>","-","viewing","0","25","1B,3B,4A","","","","","","","","","","","","","","","","","","","",""
"","","","","","html-slider-response","136","283036","0.0-21.0-1.7","593fa13f-2aeb-461c-9039-b5510e9a7b36","3513","
                  <p style=""text-align: center;"">₪64
                                                <br>50%</p>
                  <p id=""wtp"" style=""text-align:center; margin-top: 0px; margin-bottom: 0px; font-size: 40px"";>מוכנים לשלם: <span id=""c_p_y""></span></p>","32","evaluation","32","25","1B,3B,4A","50","64","32","","","","","","","","","","","","","","","","",""
"","","","","","html-keyboard-response","137","284318","0.0-21.0-2.7","593fa13f-2aeb-461c-9039-b5510e9a7b36","null","<p style=""text-align: center;"">+</p>","null","fixation","","","","","","","","","","","","","","","","","","","","","","",""
"","","","","","html-slider-response","138","285330","0.0-21.0-0.8","593fa13f-2aeb-461c-9039-b5510e9a7b36","1000","
                  <p style=""text-align: center;"">₪43
                                                <br>75%</p>
                  <p id=""wtp"" style=""text-align:center; margin-top: 0px; margin-bottom: 0px; font-size: 40px"";>&ensp;</p>","-","viewing","0","18","11B,19B,24A,26A","","","","","","","","","","","","","","","","","","","",""
"","","","","","html-slider-response","139","287676","0.0-21.0-1.8","593fa13f-2aeb-461c-9039-b5510e9a7b36","2344","
                  <p style=""text-align: center;"">₪43
                                                <br>75%</p>
                  <p id=""wtp"" style=""text-align:center; margin-top: 0px; margin-bottom: 0px; font-size: 40px"";>מוכנים לשלם: <span id=""c_p_y""></span></p>","30","evaluation","21","18","11B,19B,24A,26A","75","43","30","","","","","","","","","","","","","","","","",""
"","","","","","html-keyboard-response","140","288315","0.0-21.0-2.8","593fa13f-2aeb-461c-9039-b5510e9a7b36","null","<p style=""text-align: center;"">+</p>","null","fixation","","","","","","","","","","","","","","","","","","","","","","",""
"","","","","","html-slider-response","141","289319","0.0-21.0-0.9","593fa13f-2aeb-461c-9039-b5510e9a7b36","1000","
                  <p style=""text-align: center;"">₪4
                                                <br>75%</p>
                  <p id=""wtp"" style=""text-align:center; margin-top: 0px; margin-bottom: 0px; font-size: 40px"";>&ensp;</p>","-","viewing","0","3","12B,20B,23B,27C,29C","","","","","","","","","","","","","","","","","","","",""
"","","","","","html-slider-response","142","291419","0.0-21.0-1.9","593fa13f-2aeb-461c-9039-b5510e9a7b36","2099","
                  <p style=""text-align: center;"">₪4
                                                <br>75%</p>
                  <p id=""wtp"" style=""text-align:center; margin-top: 0px; margin-bottom: 0px; font-size: 40px"";>מוכנים לשלם: <span id=""c_p_y""></span></p>","3","evaluation","43","3","12B,20B,23B,27C,29C","75","4","4","","","","","","","","","","","","","","","","",""
"","","","","","html-keyboard-response","143","292510","0.0-21.0-2.9","593fa13f-2aeb-461c-9039-b5510e9a7b36","null","<p style=""text-align: center;"">+</p>","null","fixation","","","","","","","","","","","","","","","","","","","","","","",""
"","","","","","html-slider-response","144","293519","0.0-21.0-0.10","593fa13f-2aeb-461c-9039-b5510e9a7b36","1000","
                  <p style=""text-align: center;"">₪36
                                                <br>70%</p>
                  <p id=""wtp"" style=""text-align:center; margin-top: 0px; margin-bottom: 0px; font-size: 40px"";>&ensp;</p>","-","viewing","0","13","3A,5C,10B","","","","","","","","","","","","","","","","","","","",""
"","","","","","html-slider-response","145","296731","0.0-21.0-1.10","593fa13f-2aeb-461c-9039-b5510e9a7b36","3211","
                  <p style=""text-align: center;"">₪36
                                                <br>70%</p>
                  <p id=""wtp"" style=""text-align:center; margin-top: 0px; margin-bottom: 0px; font-size: 40px"";>מוכנים לשלם: <span id=""c_p_y""></span></p>","28","evaluation","70","13","3A,5C,10B","70","36","28","","","","","","","","","","","","","","","","",""
"","","","","","html-keyboard-response","146","297820","0.0-21.0-2.10","593fa13f-2aeb-461c-9039-b5510e9a7b36","null","<p style=""text-align: center;"">+</p>","null","fixation","","","","","","","","","","","","","","","","","","","","","","",""
"","","","","","html-slider-response","147","298822","0.0-21.0-0.11","593fa13f-2aeb-461c-9039-b5510e9a7b36","1000","
                  <p style=""text-align: center;"">₪39
                                                <br>60%</p>
                  <p id=""wtp"" style=""text-align:center; margin-top: 0px; margin-bottom: 0px; font-size: 40px"";>&ensp;</p>","-","viewing","0","15","9C,25B","","","","","","","","","","","","","","","","","","","",""
"","","","","","html-slider-response","148","302419","0.0-21.0-1.11","593fa13f-2aeb-461c-9039-b5510e9a7b36","3596","
                  <p style=""text-align: center;"">₪39
                                                <br>60%</p>
                  <p id=""wtp"" style=""text-align:center; margin-top: 0px; margin-bottom: 0px; font-size: 40px"";>מוכנים לשלם: <span id=""c_p_y""></span></p>","26","evaluation","77","15","9C,25B","60","39","26","","","","","","","","","","","","","","","","",""
"","","","","","html-keyboard-response","149","303096","0.0-21.0-2.11","593fa13f-2aeb-461c-9039-b5510e9a7b36","null","<p style=""text-align: center;"">+</p>","null","fixation","","","","","","","","","","","","","","","","","","","","","","",""
"","","","","","html-slider-response","150","304098","0.0-21.0-0.12","593fa13f-2aeb-461c-9039-b5510e9a7b36","1000","
                  <p style=""text-align: center;"">₪36
                                                <br>60%</p>
                  <p id=""wtp"" style=""text-align:center; margin-top: 0px; margin-bottom: 0px; font-size: 40px"";>&ensp;</p>","-","viewing","0","12","1C,7C,15C","","","","","","","","","","","","","","","","","","","",""
"","","","","","html-slider-response","151","307307","0.0-21.0-1.12","593fa13f-2aeb-461c-9039-b5510e9a7b36","3208","
                  <p style=""text-align: center;"">₪36
                                                <br>60%</p>
                  <p id=""wtp"" style=""text-align:center; margin-top: 0px; margin-bottom: 0px; font-size: 40px"";>מוכנים לשלם: <span id=""c_p_y""></span></p>","26","evaluation","24","12","1C,7C,15C","60","36","26","","","","","","","","","","","","","","","","",""
"","","","","","html-keyboard-response","152","308729","0.0-21.0-2.12","593fa13f-2aeb-461c-9039-b5510e9a7b36","null","<p style=""text-align: center;"">+</p>","null","fixation","","","","","","","","","","","","","","","","","","","","","","",""
"","","","","","html-slider-response","153","309739","0.0-21.0-0.13","593fa13f-2aeb-461c-9039-b5510e9a7b36","1000","
                  <p style=""text-align: center;"">₪71
                                                <br>55%</p>
                  <p id=""wtp"" style=""text-align:center; margin-top: 0px; margin-bottom: 0px; font-size: 40px"";>&ensp;</p>","-","viewing","0","27","5B,18A","","","","","","","","","","","","","","","","","","","",""
"","","","","","html-slider-response","154","313043","0.0-21.0-1.13","593fa13f-2aeb-461c-9039-b5510e9a7b36","3303","
                  <p style=""text-align: center;"">₪71
                                                <br>55%</p>
                  <p id=""wtp"" style=""text-align:center; margin-top: 0px; margin-bottom: 0px; font-size: 40px"";>מוכנים לשלם: <span id=""c_p_y""></span></p>","40","evaluation","61","27","5B,18A","55","71","40","","","","","","","","","","","","","","","","",""
"","","","","","html-keyboard-response","155","314168","0.0-21.0-2.13","593fa13f-2aeb-461c-9039-b5510e9a7b36","null","<p style=""text-align: center;"">+</p>","null","fixation","","","","","","","","","","","","","","","","","","","","","","",""
"","","","","","html-slider-response","156","315173","0.0-21.0-0.14","593fa13f-2aeb-461c-9039-b5510e9a7b36","1000","
                  <p style=""text-align: center;"">₪64
                                                <br>25%</p>
                  <p id=""wtp"" style=""text-align:center; margin-top: 0px; margin-bottom: 0px; font-size: 40px"";>&ensp;</p>","-","viewing","0","24","6A,21A","","","","","","","","","","","","","","","","","","","",""
"","","","","","html-slider-response","157","316427","0.0-21.0-1.14","593fa13f-2aeb-461c-9039-b5510e9a7b36","1253","
                  <p style=""text-align: center;"">₪64
                                                <br>25%</p>
                  <p id=""wtp"" style=""text-align:center; margin-top: 0px; margin-bottom: 0px; font-size: 40px"";>מוכנים לשלם: <span id=""c_p_y""></span></p>","20","evaluation","55","24","6A,21A","25","64","20","","","","","","","","","","","","","","","","",""
"","","","","","html-keyboard-response","158","317194","0.0-21.0-2.14","593fa13f-2aeb-461c-9039-b5510e9a7b36","null","<p style=""text-align: center;"">+</p>","null","fixation","","","","","","","","","","","","","","","","","","","","","","",""
"","","","","","html-slider-response","159","318209","0.0-21.0-0.15","593fa13f-2aeb-461c-9039-b5510e9a7b36","1000","
                  <p style=""text-align: center;"">₪4
                                                <br>25%</p>
                  <p id=""wtp"" style=""text-align:center; margin-top: 0px; margin-bottom: 0px; font-size: 40px"";>&ensp;</p>","-","viewing","0","1","6C,29B,30C","","","","","","","","","","","","","","","","","","","",""
"","","","","","html-slider-response","160","320755","0.0-21.0-1.15","593fa13f-2aeb-461c-9039-b5510e9a7b36","2545","
                  <p style=""text-align: center;"">₪4
                                                <br>25%</p>
                  <p id=""wtp"" style=""text-align:center; margin-top: 0px; margin-bottom: 0px; font-size: 40px"";>מוכנים לשלם: <span id=""c_p_y""></span></p>","4","evaluation","45","1","6C,29B,30C","25","4","5","","","","","","","","","","","","","","","","",""
"","","","","","html-keyboard-response","161","321467","0.0-21.0-2.15","593fa13f-2aeb-461c-9039-b5510e9a7b36","null","<p style=""text-align: center;"">+</p>","null","fixation","","","","","","","","","","","","","","","","","","","","","","",""
"","","","","","html-slider-response","162","322472","0.0-21.0-0.16","593fa13f-2aeb-461c-9039-b5510e9a7b36","1000","
                  <p style=""text-align: center;"">₪39
                                                <br>65%</p>
                  <p id=""wtp"" style=""text-align:center; margin-top: 0px; margin-bottom: 0px; font-size: 40px"";>&ensp;</p>","-","viewing","0","16","1A,15A,26C","","","","","","","","","","","","","","","","","","","",""
"","","","","","html-slider-response","163","326475","0.0-21.0-1.16","593fa13f-2aeb-461c-9039-b5510e9a7b36","null","
                  <p style=""text-align: center;"">₪39
                                                <br>65%</p>
                  <p id=""wtp"" style=""text-align:center; margin-top: 0px; margin-bottom: 0px; font-size: 40px"";>מוכנים לשלם: <span id=""c_p_y""></span></p>","null","evaluation","35","16","1A,15A,26C","65","39","29","","","","","","","","","","","","","","","","",""
"","","","","","html-keyboard-response","164","327108","0.0-21.0-2.16","593fa13f-2aeb-461c-9039-b5510e9a7b36","null","<p style=""text-align: center;"">+</p>","null","fixation","","","","","","","","","","","","","","","","","","","","","","",""
"","","","","","html-slider-response","165","328126","0.0-21.0-0.17","593fa13f-2aeb-461c-9039-b5510e9a7b36","1000","
                  <p style=""text-align: center;"">₪76
                                                <br>65%</p>
                  <p id=""wtp"" style=""text-align:center; margin-top: 0px; margin-bottom: 0px; font-size: 40px"";>&ensp;</p>","-","viewing","0","29","8C,19A,24B","","","","","","","","","","","","","","","","","","","",""
"","","","","","html-slider-response","166","330339","0.0-21.0-1.17","593fa13f-2aeb-461c-9039-b5510e9a7b36","2212","
                  <p style=""text-align: center;"">₪76
                                                <br>65%</p>
                  <p id=""wtp"" style=""text-align:center; margin-top: 0px; margin-bottom: 0px; font-size: 40px"";>מוכנים לשלם: <span id=""c_p_y""></span></p>","40","evaluation","46","29","8C,19A,24B","65","76","40","","","","","","","","","","","","","","","","",""
"","","","","","html-keyboard-response","167","331568","0.0-21.0-2.17","593fa13f-2aeb-461c-9039-b5510e9a7b36","null","<p style=""text-align: center;"">+</p>","null","fixation","","","","","","","","","","","","","","","","","","","","","","",""
"","","","","","html-slider-response","168","332574","0.0-21.0-0.18","593fa13f-2aeb-461c-9039-b5510e9a7b36","1000","
                  <p style=""text-align: center;"">₪79
                                                <br>65%</p>
                  <p id=""wtp"" style=""text-align:center; margin-top: 0px; margin-bottom: 0px; font-size: 40px"";>&ensp;</p>","-","viewing","0","31","8A","","","","","","","","","","","","","","","","","","","",""
"","","","","","html-slider-response","169","334275","0.0-21.0-1.18","593fa13f-2aeb-461c-9039-b5510e9a7b36","1700","
                  <p style=""text-align: center;"">₪79
                                                <br>65%</p>
                  <p id=""wtp"" style=""text-align:center; margin-top: 0px; margin-bottom: 0px; font-size: 40px"";>מוכנים לשלם: <span id=""c_p_y""></span></p>","35","evaluation","25","31","8A","65","79","35","","","","","","","","","","","","","","","","",""
"","","","","","html-keyboard-response","170","335209","0.0-21.0-2.18","593fa13f-2aeb-461c-9039-b5510e9a7b36","null","<p style=""text-align: center;"">+</p>","null","fixation","","","","","","","","","","","","","","","","","","","","","","",""
"","","","","","html-slider-response","171","336216","0.0-21.0-0.19","593fa13f-2aeb-461c-9039-b5510e9a7b36","1000","
                  <p style=""text-align: center;"">₪79
                                                <br>40%</p>
                  <p id=""wtp"" style=""text-align:center; margin-top: 0px; margin-bottom: 0px; font-size: 40px"";>&ensp;</p>","-","viewing","0","30","9B","","","","","","","","","","","","","","","","","","","",""
"","","","","","html-slider-response","172","337827","0.0-21.0-1.19","593fa13f-2aeb-461c-9039-b5510e9a7b36","1609","
                  <p style=""text-align: center;"">₪79
                                                <br>40%</p>
                  <p id=""wtp"" style=""text-align:center; margin-top: 0px; margin-bottom: 0px; font-size: 40px"";>מוכנים לשלם: <span id=""c_p_y""></span></p>","29","evaluation","68","30","9B","40","79","29","","","","","","","","","","","","","","","","",""
"","","","","","html-keyboard-response","173","338941","0.0-21.0-2.19","593fa13f-2aeb-461c-9039-b5510e9a7b36","null","<p style=""text-align: center;"">+</p>","null","fixation","","","","","","","","","","","","","","","","","","","","","","",""
"","","","","","html-slider-response","174","339944","0.0-21.0-0.20","593fa13f-2aeb-461c-9039-b5510e9a7b36","1000","
                  <p style=""text-align: center;"">₪58
                                                <br>30%</p>
                  <p id=""wtp"" style=""text-align:center; margin-top: 0px; margin-bottom: 0px; font-size: 40px"";>&ensp;</p>","-","viewing","0","19","13C,30A","","","","","","","","","","","","","","","","","","","",""
"","","","","","html-slider-response","175","342067","0.0-21.0-1.20","593fa13f-2aeb-461c-9039-b5510e9a7b36","2122","
                  <p style=""text-align: center;"">₪58
                                                <br>30%</p>
                  <p id=""wtp"" style=""text-align:center; margin-top: 0px; margin-bottom: 0px; font-size: 40px"";>מוכנים לשלם: <span id=""c_p_y""></span></p>","19","evaluation","62","19","13C,30A","30","58","19","","","","","","","","","","","","","","","","",""
"","","","","","html-keyboard-response","176","343226","0.0-21.0-2.20","593fa13f-2aeb-461c-9039-b5510e9a7b36","null","<p style=""text-align: center;"">+</p>","null","fixation","","","","","","","","","","","","","","","","","","","","","","",""
"","","","","","html-slider-response","177","344241","0.0-21.0-0.21","593fa13f-2aeb-461c-9039-b5510e9a7b36","1000","
                  <p style=""text-align: center;"">₪11
                                                <br>75%</p>
                  <p id=""wtp"" style=""text-align:center; margin-top: 0px; margin-bottom: 0px; font-size: 40px"";>&ensp;</p>","-","viewing","0","7","6B,18B,22C,24C,29A","","","","","","","","","","","","","","","","","","","",""
"","","","","","html-slider-response","178","346083","0.0-21.0-1.21","593fa13f-2aeb-461c-9039-b5510e9a7b36","1840","
                  <p style=""text-align: center;"">₪11
                                                <br>75%</p>
                  <p id=""wtp"" style=""text-align:center; margin-top: 0px; margin-bottom: 0px; font-size: 40px"";>מוכנים לשלם: <span id=""c_p_y""></span></p>","9","evaluation","61","7","6B,18B,22C,24C,29A","75","11","9","","","","","","","","","","","","","","","","",""
"","","","","","html-keyboard-response","179","346702","0.0-21.0-2.21","593fa13f-2aeb-461c-9039-b5510e9a7b36","null","<p style=""text-align: center;"">+</p>","null","fixation","","","","","","","","","","","","","","","","","","","","","","",""
"","","","","","html-slider-response","180","347710","0.0-21.0-0.22","593fa13f-2aeb-461c-9039-b5510e9a7b36","1000","
                  <p style=""text-align: center;"">₪4
                                                <br>50%</p>
                  <p id=""wtp"" style=""text-align:center; margin-top: 0px; margin-bottom: 0px; font-size: 40px"";>&ensp;</p>","-","viewing","0","2","4C,17B","","","","","","","","","","","","","","","","","","","",""
"","","","","","html-slider-response","181","349755","0.0-21.0-1.22","593fa13f-2aeb-461c-9039-b5510e9a7b36","2044","
                  <p style=""text-align: center;"">₪4
                                                <br>50%</p>
                  <p id=""wtp"" style=""text-align:center; margin-top: 0px; margin-bottom: 0px; font-size: 40px"";>מוכנים לשלם: <span id=""c_p_y""></span></p>","4","evaluation","22","2","4C,17B","50","4","4","","","","","","","","","","","","","","","","",""
"","","","","","html-keyboard-response","182","350389","0.0-21.0-2.22","593fa13f-2aeb-461c-9039-b5510e9a7b36","null","<p style=""text-align: center;"">+</p>","null","fixation","","","","","","","","","","","","","","","","","","","","","","",""
"","","","","","html-slider-response","183","351395","0.0-21.0-0.23","593fa13f-2aeb-461c-9039-b5510e9a7b36","1000","
                  <p style=""text-align: center;"">₪58
                                                <br>40%</p>
                  <p id=""wtp"" style=""text-align:center; margin-top: 0px; margin-bottom: 0px; font-size: 40px"";>&ensp;</p>","-","viewing","0","20","10C,13A,19C,21B","","","","","","","","","","","","","","","","","","","",""
"","","","","","html-slider-response","184","354603","0.0-21.0-1.23","593fa13f-2aeb-461c-9039-b5510e9a7b36","3206","
                  <p style=""text-align: center;"">₪58
                                                <br>40%</p>
                  <p id=""wtp"" style=""text-align:center; margin-top: 0px; margin-bottom: 0px; font-size: 40px"";>מוכנים לשלם: <span id=""c_p_y""></span></p>","15","evaluation","69","20","10C,13A,19C,21B","40","58","15","","","","","","","","","","","","","","","","",""
"","","","","","html-keyboard-response","185","355637","0.0-21.0-2.23","593fa13f-2aeb-461c-9039-b5510e9a7b36","null","<p style=""text-align: center;"">+</p>","null","fixation","","","","","","","","","","","","","","","","","","","","","","",""
"","","","","","html-slider-response","186","356653","0.0-21.0-0.24","593fa13f-2aeb-461c-9039-b5510e9a7b36","1000","
                  <p style=""text-align: center;"">₪18
                                                <br>25%</p>
                  <p id=""wtp"" style=""text-align:center; margin-top: 0px; margin-bottom: 0px; font-size: 40px"";>&ensp;</p>","-","viewing","0","9","14A,23A","","","","","","","","","","","","","","","","","","","",""
"","","","","","html-slider-response","187","358915","0.0-21.0-1.24","593fa13f-2aeb-461c-9039-b5510e9a7b36","2261","
                  <p style=""text-align: center;"">₪18
                                                <br>25%</p>
                  <p id=""wtp"" style=""text-align:center; margin-top: 0px; margin-bottom: 0px; font-size: 40px"";>מוכנים לשלם: <span id=""c_p_y""></span></p>","7","evaluation","48","9","14A,23A","25","18","7","","","","","","","","","","","","","","","","",""
"","","","","","html-keyboard-response","188","359423","0.0-21.0-2.24","593fa13f-2aeb-461c-9039-b5510e9a7b36","null","<p style=""text-align: center;"">+</p>","null","fixation","","","","","","","","","","","","","","","","","","","","","","",""
"","","","","","html-slider-response","189","360426","0.0-21.0-0.25","593fa13f-2aeb-461c-9039-b5510e9a7b36","1000","
                  <p style=""text-align: center;"">₪16
                                                <br>20%</p>
                  <p id=""wtp"" style=""text-align:center; margin-top: 0px; margin-bottom: 0px; font-size: 40px"";>&ensp;</p>","-","viewing","0","8","14C,17A,20C,27A","","","","","","","","","","","","","","","","","","","",""
"","","","","","html-slider-response","190","363083","0.0-21.0-1.25","593fa13f-2aeb-461c-9039-b5510e9a7b36","2656","
                  <p style=""text-align: center;"">₪16
                                                <br>20%</p>
                  <p id=""wtp"" style=""text-align:center; margin-top: 0px; margin-bottom: 0px; font-size: 40px"";>מוכנים לשלם: <span id=""c_p_y""></span></p>","4","evaluation","38","8","14C,17A,20C,27A","20","16","4","","","","","","","","","","","","","","","","",""
"","","","","","html-keyboard-response","191","363995","0.0-21.0-2.25","593fa13f-2aeb-461c-9039-b5510e9a7b36","null","<p style=""text-align: center;"">+</p>","null","fixation","","","","","","","","","","","","","","","","","","","","","","",""
"","","","","","html-slider-response","192","365003","0.0-21.0-0.26","593fa13f-2aeb-461c-9039-b5510e9a7b36","1000","
                  <p style=""text-align: center;"">₪36
                                                <br>75%</p>
                  <p id=""wtp"" style=""text-align:center; margin-top: 0px; margin-bottom: 0px; font-size: 40px"";>&ensp;</p>","-","viewing","0","14","4B,5A,13B,16B","","","","","","","","","","","","","","","","","","","",""
"","","","","","html-slider-response","193","367299","0.0-21.0-1.26","593fa13f-2aeb-461c-9039-b5510e9a7b36","2295","
                  <p style=""text-align: center;"">₪36
                                                <br>75%</p>
                  <p id=""wtp"" style=""text-align:center; margin-top: 0px; margin-bottom: 0px; font-size: 40px"";>מוכנים לשלם: <span id=""c_p_y""></span></p>","20","evaluation","38","14","4B,5A,13B,16B","75","36","20","","","","","","","","","","","","","","","","",""
"","","","","","html-keyboard-response","194","368506","0.0-21.0-2.26","593fa13f-2aeb-461c-9039-b5510e9a7b36","null","<p style=""text-align: center;"">+</p>","null","fixation","","","","","","","","","","","","","","","","","","","","","","",""
"","","","","","html-slider-response","195","369514","0.0-21.0-0.27","593fa13f-2aeb-461c-9039-b5510e9a7b36","1000","
                  <p style=""text-align: center;"">₪11
                                                <br>45%</p>
                  <p id=""wtp"" style=""text-align:center; margin-top: 0px; margin-bottom: 0px; font-size: 40px"";>&ensp;</p>","-","viewing","0","6","14B,21C,25C","","","","","","","","","","","","","","","","","","","",""
"","","","","","html-slider-response","196","371660","0.0-21.0-1.27","593fa13f-2aeb-461c-9039-b5510e9a7b36","2144","
                  <p style=""text-align: center;"">₪11
                                                <br>45%</p>
                  <p id=""wtp"" style=""text-align:center; margin-top: 0px; margin-bottom: 0px; font-size: 40px"";>מוכנים לשלם: <span id=""c_p_y""></span></p>","10","evaluation","68","6","14B,21C,25C","45","11","10","","","","","","","","","","","","","","","","",""
"","","","","","html-keyboard-response","197","372553","0.0-21.0-2.27","593fa13f-2aeb-461c-9039-b5510e9a7b36","null","<p style=""text-align: center;"">+</p>","null","fixation","","","","","","","","","","","","","","","","","","","","","","",""
"","","","","","html-slider-response","198","373564","0.0-21.0-0.28","593fa13f-2aeb-461c-9039-b5510e9a7b36","1000","
                  <p style=""text-align: center;"">₪43
                                                <br>60%</p>
                  <p id=""wtp"" style=""text-align:center; margin-top: 0px; margin-bottom: 0px; font-size: 40px"";>&ensp;</p>","-","viewing","0","17","2A,7A,9A,15B","","","","","","","","","","","","","","","","","","","",""
"","","","","","html-slider-response","199","376883","0.0-21.0-1.28","593fa13f-2aeb-461c-9039-b5510e9a7b36","3318","
                  <p style=""text-align: center;"">₪43
                                                <br>60%</p>
                  <p id=""wtp"" style=""text-align:center; margin-top: 0px; margin-bottom: 0px; font-size: 40px"";>מוכנים לשלם: <span id=""c_p_y""></span></p>","27","evaluation","45","17","2A,7A,9A,15B","60","43","27","","","","","","","","","","","","","","","","",""
"","","","","","html-keyboard-response","200","378197","0.0-21.0-2.28","593fa13f-2aeb-461c-9039-b5510e9a7b36","null","<p style=""text-align: center;"">+</p>","null","fixation","","","","","","","","","","","","","","","","","","","","","","",""
"","","","","","html-slider-response","201","379212","0.0-21.0-0.29","593fa13f-2aeb-461c-9039-b5510e9a7b36","1000","
                  <p style=""text-align: center;"">₪61
                                                <br>45%</p>
                  <p id=""wtp"" style=""text-align:center; margin-top: 0px; margin-bottom: 0px; font-size: 40px"";>&ensp;</p>","-","viewing","0","22","10A,11A","","","","","","","","","","","","","","","","","","","",""
"","","","","","html-slider-response","202","381763","0.0-21.0-1.29","593fa13f-2aeb-461c-9039-b5510e9a7b36","2550","
                  <p style=""text-align: center;"">₪61
                                                <br>45%</p>
                  <p id=""wtp"" style=""text-align:center; margin-top: 0px; margin-bottom: 0px; font-size: 40px"";>מוכנים לשלם: <span id=""c_p_y""></span></p>","20","evaluation","27","22","10A,11A","45","61","20","","","","","","","","","","","","","","","","",""
"","","","","","html-keyboard-response","203","382548","0.0-21.0-2.29","593fa13f-2aeb-461c-9039-b5510e9a7b36","null","<p style=""text-align: center;"">+</p>","null","fixation","","","","","","","","","","","","","","","","","","","","","","",""
"","","","","","html-slider-response","204","383550","0.0-21.0-0.30","593fa13f-2aeb-461c-9039-b5510e9a7b36","1000","
                  <p style=""text-align: center;"">₪36
                                                <br>30%</p>
                  <p id=""wtp"" style=""text-align:center; margin-top: 0px; margin-bottom: 0px; font-size: 40px"";>&ensp;</p>","-","viewing","0","11","3C,20A,22A","","","","","","","","","","","","","","","","","","","",""
"","","","","","html-slider-response","205","385091","0.0-21.0-1.30","593fa13f-2aeb-461c-9039-b5510e9a7b36","1540","
                  <p style=""text-align: center;"">₪36
                                                <br>30%</p>
                  <p id=""wtp"" style=""text-align:center; margin-top: 0px; margin-bottom: 0px; font-size: 40px"";>מוכנים לשלם: <span id=""c_p_y""></span></p>","20","evaluation","4","11","3C,20A,22A","30","36","20","","","","","","","","","","","","","","","","",""
"","","","","","html-keyboard-response","206","386477","0.0-21.0-2.30","593fa13f-2aeb-461c-9039-b5510e9a7b36","null","<p style=""text-align: center;"">+</p>","null","fixation","","","","","","","","","","","","","","","","","","","","","","",""
"","","","","","html-keyboard-response","207","387478","0.0-22.0","593fa13f-2aeb-461c-9039-b5510e9a7b36","null","<p style=""text-align: center;"">+</p>","null","fixation","","","","","","","","","","","","","","","","","","","","","","",""
"","","","","","html-keyboard-response","208","389651","0.0-23.0","593fa13f-2aeb-461c-9039-b5510e9a7b36","null","<p>הפסקה.
          <br>לחצו כדי להמשיך.</p>","1","scan_wait","","","","","","","","","","","","","","","","","","","","","","",""
"","","","","","html-keyboard-response","209","390661","0.0-24.0","593fa13f-2aeb-461c-9039-b5510e9a7b36","null","<p style=""text-align: center;"">+</p>","null","fixation","","","","","","","","","","","","","","","","","","","","","","",""
"","","","","","html-slider-response","210","391671","0.0-25.0-0.0","593fa13f-2aeb-461c-9039-b5510e9a7b36","1000","
                  <p style=""text-align: center;"">₪64
                                                <br>50%</p>
                  <p id=""wtp"" style=""text-align:center; margin-top: 0px; margin-bottom: 0px; font-size: 40px"";>&ensp;</p>","-","viewing","0","25","1B,3B,4A","","","","","","","","","","","","","","","","","","","",""
"","","","","","html-slider-response","211","394692","0.0-25.0-1.0","593fa13f-2aeb-461c-9039-b5510e9a7b36","3019","
                  <p style=""text-align: center;"">₪64
                                                <br>50%</p>
                  <p id=""wtp"" style=""text-align:center; margin-top: 0px; margin-bottom: 0px; font-size: 40px"";>מוכנים לשלם: <span id=""c_p_y""></span></p>","20","evaluation","60","25","1B,3B,4A","50","64","20","","","","","","","","","","","","","","","","",""
"","","","","","html-keyboard-response","212","395406","0.0-25.0-2.0","593fa13f-2aeb-461c-9039-b5510e9a7b36","null","<p style=""text-align: center;"">+</p>","null","fixation","","","","","","","","","","","","","","","","","","","","","","",""
"","","","","","html-slider-response","213","396408","0.0-25.0-0.1","593fa13f-2aeb-461c-9039-b5510e9a7b36","1000","
                  <p style=""text-align: center;"">₪11
                                                <br>20%</p>
                  <p id=""wtp"" style=""text-align:center; margin-top: 0px; margin-bottom: 0px; font-size: 40px"";>&ensp;</p>","-","viewing","0","4","12C,17C,23C,28C","","","","","","","","","","","","","","","","","","","",""
"","","","","","html-slider-response","214","397652","0.0-25.0-1.1","593fa13f-2aeb-461c-9039-b5510e9a7b36","1242","
                  <p style=""text-align: center;"">₪11
                                                <br>20%</p>
                  <p id=""wtp"" style=""text-align:center; margin-top: 0px; margin-bottom: 0px; font-size: 40px"";>מוכנים לשלם: <span id=""c_p_y""></span></p>","2","evaluation","25","4","12C,17C,23C,28C","20","11","3","","","","","","","","","","","","","","","","",""
"","","","","","html-keyboard-response","215","398963","0.0-25.0-2.1","593fa13f-2aeb-461c-9039-b5510e9a7b36","null","<p style=""text-align: center;"">+</p>","null","fixation","","","","","","","","","","","","","","","","","","","","","","",""
"","","","","","html-slider-response","216","399964","0.0-25.0-0.2","593fa13f-2aeb-461c-9039-b5510e9a7b36","1000","
                  <p style=""text-align: center;"">₪11
                                                <br>75%</p>
                  <p id=""wtp"" style=""text-align:center; margin-top: 0px; margin-bottom: 0px; font-size: 40px"";>&ensp;</p>","-","viewing","0","7","6B,18B,22C,24C,29A","","","","","","","","","","","","","","","","","","","",""
"","","","","","html-slider-response","217","401347","0.0-25.0-1.2","593fa13f-2aeb-461c-9039-b5510e9a7b36","1382","
                  <p style=""text-align: center;"">₪11
                                                <br>75%</p>
                  <p id=""wtp"" style=""text-align:center; margin-top: 0px; margin-bottom: 0px; font-size: 40px"";>מוכנים לשלם: <span id=""c_p_y""></span></p>","10","evaluation","56","7","6B,18B,22C,24C,29A","75","11","11","","","","","","","","","","","","","","","","",""
"","","","","","html-keyboard-response","218","401954","0.0-25.0-2.2","593fa13f-2aeb-461c-9039-b5510e9a7b36","null","<p style=""text-align: center;"">+</p>","null","fixation","","","","","","","","","","","","","","","","","","","","","","",""
"","","","","","html-slider-response","219","402960","0.0-25.0-0.3","593fa13f-2aeb-461c-9039-b5510e9a7b36","1000","
                  <p style=""text-align: center;"">₪71
                                                <br>75%</p>
                  <p id=""wtp"" style=""text-align:center; margin-top: 0px; margin-bottom: 0px; font-size: 40px"";>&ensp;</p>","-","viewing","0","28","8B","","","","","","","","","","","","","","","","","","","",""
"","","","","","html-slider-response","220","406459","0.0-25.0-1.3","593fa13f-2aeb-461c-9039-b5510e9a7b36","3498","
                  <p style=""text-align: center;"">₪71
                                                <br>75%</p>
                  <p id=""wtp"" style=""text-align:center; margin-top: 0px; margin-bottom: 0px; font-size: 40px"";>מוכנים לשלם: <span id=""c_p_y""></span></p>","46","evaluation","1","28","8B","75","71","46","","","","","","","","","","","","","","","","",""
"","","","","","html-keyboard-response","221","407006","0.0-25.0-2.3","593fa13f-2aeb-461c-9039-b5510e9a7b36","null","<p style=""text-align: center;"">+</p>","null","fixation","","","","","","","","","","","","","","","","","","","","","","",""
"","","","","","html-slider-response","222","408018","0.0-25.0-0.4","593fa13f-2aeb-461c-9039-b5510e9a7b36","1000","
                  <p style=""text-align: center;"">₪71
                                                <br>55%</p>
                  <p id=""wtp"" style=""text-align:center; margin-top: 0px; margin-bottom: 0px; font-size: 40px"";>&ensp;</p>","-","viewing","0","27","5B,18A","","","","","","","","","","","","","","","","","","","",""
"","","","","","html-slider-response","223","411916","0.0-25.0-1.4","593fa13f-2aeb-461c-9039-b5510e9a7b36","3897","
                  <p style=""text-align: center;"">₪71
                                                <br>55%</p>
                  <p id=""wtp"" style=""text-align:center; margin-top: 0px; margin-bottom: 0px; font-size: 40px"";>מוכנים לשלם: <span id=""c_p_y""></span></p>","29","evaluation","63","27","5B,18A","55","71","29","","","","","","","","","","","","","","","","",""
"","","","","","html-keyboard-response","224","412867","0.0-25.0-2.4","593fa13f-2aeb-461c-9039-b5510e9a7b36","null","<p style=""text-align: center;"">+</p>","null","fixation","","","","","","","","","","","","","","","","","","","","","","",""
"","","","","","html-slider-response","225","413884","0.0-25.0-0.5","593fa13f-2aeb-461c-9039-b5510e9a7b36","1000","
                  <p style=""text-align: center;"">₪4
                                                <br>25%</p>
                  <p id=""wtp"" style=""text-align:center; margin-top: 0px; margin-bottom: 0px; font-size: 40px"";>&ensp;</p>","-","viewing","0","1","6C,29B,30C","","","","","","","","","","","","","","","","","","","",""
"","","","","","html-slider-response","226","415060","0.0-25.0-1.5","593fa13f-2aeb-461c-9039-b5510e9a7b36","1174","
                  <p style=""text-align: center;"">₪4
                                                <br>25%</p>
                  <p id=""wtp"" style=""text-align:center; margin-top: 0px; margin-bottom: 0px; font-size: 40px"";>מוכנים לשלם: <span id=""c_p_y""></span></p>","3","evaluation","22","1","6C,29B,30C","25","4","3","","","","","","","","","","","","","","","","",""
"","","","","","html-keyboard-response","227","416468","0.0-25.0-2.5","593fa13f-2aeb-461c-9039-b5510e9a7b36","null","<p style=""text-align: center;"">+</p>","null","fixation","","","","","","","","","","","","","","","","","","","","","","",""
"","","","","","html-slider-response","228","417483","0.0-25.0-0.6","593fa13f-2aeb-461c-9039-b5510e9a7b36","1000","
                  <p style=""text-align: center;"">₪71
                                                <br>45%</p>
                  <p id=""wtp"" style=""text-align:center; margin-top: 0px; margin-bottom: 0px; font-size: 40px"";>&ensp;</p>","-","viewing","0","26","2B,16A","","","","","","","","","","","","","","","","","","","",""
"","","","","","html-slider-response","229","418796","0.0-25.0-1.6","593fa13f-2aeb-461c-9039-b5510e9a7b36","1312","
                  <p style=""text-align: center;"">₪71
                                                <br>45%</p>
                  <p id=""wtp"" style=""text-align:center; margin-top: 0px; margin-bottom: 0px; font-size: 40px"";>מוכנים לשלם: <span id=""c_p_y""></span></p>","21","evaluation","74","26","2B,16A","45","71","21","","","","","","","","","","","","","","","","",""
"","","","","","html-keyboard-response","230","419760","0.0-25.0-2.6","593fa13f-2aeb-461c-9039-b5510e9a7b36","null","<p style=""text-align: center;"">+</p>","null","fixation","","","","","","","","","","","","","","","","","","","","","","",""
"","","","","","html-slider-response","231","420767","0.0-25.0-0.7","593fa13f-2aeb-461c-9039-b5510e9a7b36","1000","
                  <p style=""text-align: center;"">₪36
                                                <br>60%</p>
                  <p id=""wtp"" style=""text-align:center; margin-top: 0px; margin-bottom: 0px; font-size: 40px"";>&ensp;</p>","-","viewing","0","12","1C,7C,15C","","","","","","","","","","","","","","","","","","","",""
"","","","","","html-slider-response","232","423876","0.0-25.0-1.7","593fa13f-2aeb-461c-9039-b5510e9a7b36","3108","
                  <p style=""text-align: center;"">₪36
                                                <br>60%</p>
                  <p id=""wtp"" style=""text-align:center; margin-top: 0px; margin-bottom: 0px; font-size: 40px"";>מוכנים לשלם: <span id=""c_p_y""></span></p>","20","evaluation","74","12","1C,7C,15C","60","36","20","","","","","","","","","","","","","","","","",""
"","","","","","html-keyboard-response","233","425062","0.0-25.0-2.7","593fa13f-2aeb-461c-9039-b5510e9a7b36","null","<p style=""text-align: center;"">+</p>","null","fixation","","","","","","","","","","","","","","","","","","","","","","",""
"","","","","","html-slider-response","234","426065","0.0-25.0-0.8","593fa13f-2aeb-461c-9039-b5510e9a7b36","1000","
                  <p style=""text-align: center;"">₪61
                                                <br>55%</p>
                  <p id=""wtp"" style=""text-align:center; margin-top: 0px; margin-bottom: 0px; font-size: 40px"";>&ensp;</p>","-","viewing","0","23","7B,26B","","","","","","","","","","","","","","","","","","","",""
"","","","","","html-slider-response","235","428748","0.0-25.0-1.8","593fa13f-2aeb-461c-9039-b5510e9a7b36","2681","
                  <p style=""text-align: center;"">₪61
                                                <br>55%</p>
                  <p id=""wtp"" style=""text-align:center; margin-top: 0px; margin-bottom: 0px; font-size: 40px"";>מוכנים לשלם: <span id=""c_p_y""></span></p>","30","evaluation","67","23","7B,26B","55","61","30","","","","","","","","","","","","","","","","",""
"","","","","","html-keyboard-response","236","430009","0.0-25.0-2.8","593fa13f-2aeb-461c-9039-b5510e9a7b36","null","<p style=""text-align: center;"">+</p>","null","fixation","","","","","","","","","","","","","","","","","","","","","","",""
"","","","","","html-slider-response","237","431011","0.0-25.0-0.9","593fa13f-2aeb-461c-9039-b5510e9a7b36","1000","
                  <p style=""text-align: center;"">₪16
                                                <br>20%</p>
                  <p id=""wtp"" style=""text-align:center; margin-top: 0px; margin-bottom: 0px; font-size: 40px"";>&ensp;</p>","-","viewing","0","8","14C,17A,20C,27A","","","","","","","","","","","","","","","","","","","",""
"","","","","","html-slider-response","238","433260","0.0-25.0-1.9","593fa13f-2aeb-461c-9039-b5510e9a7b36","2248","
                  <p style=""text-align: center;"">₪16
                                                <br>20%</p>
                  <p id=""wtp"" style=""text-align:center; margin-top: 0px; margin-bottom: 0px; font-size: 40px"";>מוכנים לשלם: <span id=""c_p_y""></span></p>","3","evaluation","27","8","14C,17A,20C,27A","20","16","3","","","","","","","","","","","","","","","","",""
"","","","","","html-keyboard-response","239","434415","0.0-25.0-2.9","593fa13f-2aeb-461c-9039-b5510e9a7b36","null","<p style=""text-align: center;"">+</p>","null","fixation","","","","","","","","","","","","","","","","","","","","","","",""
"","","","","","html-slider-response","240","435422","0.0-25.0-0.10","593fa13f-2aeb-461c-9039-b5510e9a7b36","1000","
                  <p style=""text-align: center;"">₪64
                                                <br>25%</p>
                  <p id=""wtp"" style=""text-align:center; margin-top: 0px; margin-bottom: 0px; font-size: 40px"";>&ensp;</p>","-","viewing","0","24","6A,21A","","","","","","","","","","","","","","","","","","","",""
"","","","","","html-slider-response","241","438244","0.0-25.0-1.10","593fa13f-2aeb-461c-9039-b5510e9a7b36","2821","
                  <p style=""text-align: center;"">₪64
                                                <br>25%</p>
                  <p id=""wtp"" style=""text-align:center; margin-top: 0px; margin-bottom: 0px; font-size: 40px"";>מוכנים לשלם: <span id=""c_p_y""></span></p>","14","evaluation","39","24","6A,21A","25","64","15","","","","","","","","","","","","","","","","",""
"","","","","","html-keyboard-response","242","438952","0.0-25.0-2.10","593fa13f-2aeb-461c-9039-b5510e9a7b36","null","<p style=""text-align: center;"">+</p>","null","fixation","","","","","","","","","","","","","","","","","","","","","","",""
"","","","","","html-slider-response","243","439956","0.0-25.0-0.11","593fa13f-2aeb-461c-9039-b5510e9a7b36","1000","
                  <p style=""text-align: center;"">₪36
                                                <br>75%</p>
                  <p id=""wtp"" style=""text-align:center; margin-top: 0px; margin-bottom: 0px; font-size: 40px"";>&ensp;</p>","-","viewing","0","14","4B,5A,13B,16B","","","","","","","","","","","","","","","","","","","",""
"","","","","","html-slider-response","244","442300","0.0-25.0-1.11","593fa13f-2aeb-461c-9039-b5510e9a7b36","2343","
                  <p style=""text-align: center;"">₪36
                                                <br>75%</p>
                  <p id=""wtp"" style=""text-align:center; margin-top: 0px; margin-bottom: 0px; font-size: 40px"";>מוכנים לשלם: <span id=""c_p_y""></span></p>","30","evaluation","0","14","4B,5A,13B,16B","75","36","30","","","","","","","","","","","","","","","","",""
"","","","","","html-keyboard-response","245","443482","0.0-25.0-2.11","593fa13f-2aeb-461c-9039-b5510e9a7b36","null","<p style=""text-align: center;"">+</p>","null","fixation","","","","","","","","","","","","","","","","","","","","","","",""
"","","","","","html-slider-response","246","444489","0.0-25.0-0.12","593fa13f-2aeb-461c-9039-b5510e9a7b36","1000","
                  <p style=""text-align: center;"">₪18
                                                <br>25%</p>
                  <p id=""wtp"" style=""text-align:center; margin-top: 0px; margin-bottom: 0px; font-size: 40px"";>&ensp;</p>","-","viewing","0","9","14A,23A","","","","","","","","","","","","","","","","","","","",""
"","","","","","html-slider-response","247","446892","0.0-25.0-1.12","593fa13f-2aeb-461c-9039-b5510e9a7b36","2402","
                  <p style=""text-align: center;"">₪18
                                                <br>25%</p>
                  <p id=""wtp"" style=""text-align:center; margin-top: 0px; margin-bottom: 0px; font-size: 40px"";>מוכנים לשלם: <span id=""c_p_y""></span></p>","9","evaluation","25","9","14A,23A","25","18","9","","","","","","","","","","","","","","","","",""
"","","","","","html-keyboard-response","248","448237","0.0-25.0-2.12","593fa13f-2aeb-461c-9039-b5510e9a7b36","null","<p style=""text-align: center;"">+</p>","null","fixation","","","","","","","","","","","","","","","","","","","","","","",""
"","","","","","html-slider-response","249","449252","0.0-25.0-0.13","593fa13f-2aeb-461c-9039-b5510e9a7b36","1000","
                  <p style=""text-align: center;"">₪39
