"success","timeout","failed_images","failed_audio","failed_video","trial_type","trial_index","time_elapsed","internal_node_id","subject_id","rt","stimulus","response","part","slider_start","ID","set_ID","prob","amount","last_location","actual_choice","actual_EV","binary_id","trinary_id","catch","direction","A_key","S_key","D_key","choice_prob","choice_amount","won_prize","potential_prize_amount","potential_prize_prob","total_prize","accuracy"
"true","false","[]","[]","[]","preload","0","17","0.0-0.0","76a1ad7d-b5cb-4968-abdb-e4fbe5079a2c","","","","","","","","","","","","","","","","","","","","","","","","","",""
"","","","","","html-keyboard-response","1","10665","0.0-1.0","76a1ad7d-b5cb-4968-abdb-e4fbe5079a2c","null","
          <h1>שלום וברוכים הבאים!</h1>
          <p>לפניכם ניסוי בקבלת החלטות עם שני חלקים.
          <br><br>לחצו על העכבר כדי להמשיך.</p>","0","example","","","","","","","","","","","","","","","","","","","","","",""
"","","","","","html-keyboard-response","2","43185","0.0-2.0","76a1ad7d-b5cb-4968-abdb-e4fbe5079a2c","null","
        <h1>חלק 1</h1>
        <p>בקרוב יוצגו בפניכם הגרלות.
        <br>עליכם לבחור את המחיר המירבי שתהיו מוכנים לשלם כדי להשתתף בהגרלה שתוצג.
        <br>יש לכם תקציב של ₪80 לכל הגרלה. 
        <br>נסו להעריך כל הגרלה בנפרד ולחשוב כמה היא שווה עבורכם, ₪80 זמינים לכל הגרלה בנפרד.
        <br><br>לחצו על העכבר כדי להמשיך.</p>","1","instructions","","","","","","","","","","","","","","","","","","","","","",""
"","","","","","html-keyboard-response","3","73041","0.0-3.0","76a1ad7d-b5cb-4968-abdb-e4fbe5079a2c","null","
        <p>בסוף הניסוי, המחשב יבחר את אחת ההגרלות ויקבע מחיר לכרטיס עבורה. 
        <br>במידה והמחיר שבחרתם נמוך מהמחיר שנבחר על ידי המחשב, לא תשתתפו בהגרלה ותשארו עם מלוא התקציב.
        <br>במידה והמחיר שבחרתם גבוה מהמחיר שנבחר על ידי המחשב, תשלמו את המחיר שנקבע ותשתתפו בהגרלה.
        <br><br>לחצו על העכבר כדי להמשיך.</p>","1","instructions","","","","","","","","","","","","","","","","","","","","","",""
"","","","","","html-slider-response","4","92065","0.0-4.0","76a1ad7d-b5cb-4968-abdb-e4fbe5079a2c","18921","
        <p style=""font-size: 42px;"">נתחיל עם דוגמא: 
        <br>ההגרלה מטה מציעה 65% סיכוי לזכות ב-₪40 
        <br>&emsp;&emsp;&emsp;&emsp;&emsp;&emsp;&emsp;&emsp;&ensp;35% סיכוי לזכות ב-₪0.
        <br><br>מה המחיר המירבי שתהיו מוכנים לשלם על כרטיס להגרלה זו בין 0 ל-₪80?
        <br>הזיזו את העכבר על פני המלבן ולחצו כדי לבצע בחירה.</p>
        
        <p style=""text-align: center;"">₪40<br>65%</p>

        <p id=""wtp"" style=""text-align:center; margin-top: 0px; margin-bottom: 0px; font-size: 40px"";>מוכנים לשלם: <span id=""c_p_y""></span></p>","25","example","0","","","","","","","","","","","","","","","","","","","","",""
"","","","","","html-keyboard-response","5","99825","0.0-5.0","76a1ad7d-b5cb-4968-abdb-e4fbe5079a2c","null","<p>יפה מאוד!
                <br> בחרתם שתהיו מוכנים לשלם ₪25 כדי להשתתף בהגרלה:
                <br><p style=""text-align: center;"">₪40<br>65%</p>
                <p>נשמע נכון?
                <br>נניח שהגרלה זו נבחרה בסוף הניסוי.
                <br>כעת המחשב יקבע מחיר עבורה באקראי.
                <br>לחצו על העכבר להמשך.</p>","1","example","","","","","","","","","","","","","","","","","","","","","",""
"","","","","","html-keyboard-response","6","111001","0.0-6.0","76a1ad7d-b5cb-4968-abdb-e4fbe5079a2c","null","<p>המחשב קבע מחיר: ₪51
                <br>ואתם בחרתם לשלם לכל היותר: ₪25
                <br><br>מכיוון שהמחיר שבחרתם נמוך מהמחיר שנקבע, לא תתשתתפו בהגרלה.
                <br>במקרה כזה, בסוף הניסוי תקבלו את כל התקציב ההתחלתי של ₪80.
                <br><br>לחצו על העכבר להמשך.</p>","1","example","","","","","","","","","","","","","","","","","","","","","",""
"","","","","","html-slider-response","7","120553","0.0-7.0","76a1ad7d-b5cb-4968-abdb-e4fbe5079a2c","9298","<p style=""font-size: 42px;"">הנה עוד דוגמא:
                <br>ההגרלה מטה מציעה 35% סיכוי לזכות ב-₪18 
                <br>&emsp;&emsp;&emsp;&emsp;&emsp;&emsp;&emsp;&emsp;&ensp;65% סיכוי לזכות ב-₪0.</p>
        
                <p style=""text-align: center;"">₪18<br>35%</p>
                <p id=""wtp"" style=""text-align:center; margin-top: 0px; margin-bottom: 0px; font-size: 40px"";>מוכנים לשלם: <span id=""c_p_y""></span></p>","3","example","4","","","","","","","","","","","","","","","","","","","","",""
"","","","","","html-keyboard-response","8","127361","0.0-8.0","76a1ad7d-b5cb-4968-abdb-e4fbe5079a2c","null","<p>הייתם מוכנים לשלם  ₪3 כדי להשתתף בהגרלה:
                <p style=""text-align: center;"">₪18<br>35%</p>
                <p>כעת נניח שהמחשב בחר את ההגרלה הזו בסוף הניסוי, וקבע עבורה מחיר.
                <br><br>לחצו על העכבר כדי להמשיך.</p>","1","instructions","","","","","","","","","","","","","","","","","","","","","",""
"","","","","","html-keyboard-response","9","137745","0.0-9.0","76a1ad7d-b5cb-4968-abdb-e4fbe5079a2c","null","<p>המחשב קבע מחיר להגרלה: ₪3
                <br>ואתם בחרתם לשלם לכל היותר: ₪3
                <br><br>כעת המחיר שנקבע זהה לזה שבחרתם, אז תשלמו את המחיר שקבע המחשב (₪3) ותשתתפו בהגרלה.
                <br>במקרה כזה, תסיימו את הניסוי עם תקציב של ₪77 ועם סיכוי לזכות ב-₪18 נוספים מההגרלה.
                <br>כלומר, תוכלו לקבל ₪77 אם לא תזכו בהגרלה, או ₪95 אם תזכו בהגרלה.
                <br><br>לחצו על העכבר להמשך.</p>","1","example","","","","","","","","","","","","","","","","","","","","","",""
"","","","","","html-keyboard-response","10","144553","0.0-10.0","76a1ad7d-b5cb-4968-abdb-e4fbe5079a2c","null","<p>במהלך הניסוי, קודם תראו את ההגרלה ורק לאחר מכן תוכלו לבחור.
                <p>כמו כן, יהיו לכם מספר שניות מוגבל להגיב.
                <p>בואו ננסה זאת עם ההגרלה הקודמת.
                <br>לחצו על העכבר כדי להמשיך.</p>","1","instructions","","","","","","","","","","","","","","","","","","","","","",""
"","","","","","html-slider-response","11","145807","0.0-11.0","76a1ad7d-b5cb-4968-abdb-e4fbe5079a2c","1000","
                    <p style=""text-align: center;"">₪18<br>35%</p>
                    <p id=""wtp"" style=""text-align:center; margin-top: 0px; margin-bottom: 0px; font-size: 40px"";>&ensp;</p>","47","instructions","0","","","","","","","","","","","","","","","","","","","","",""
"","","","","","html-slider-response","12","150079","0.0-12.0","76a1ad7d-b5cb-4968-abdb-e4fbe5079a2c","null","
                    <p style=""text-align: center;"">₪18<br>35%</p>
                    <p id=""wtp"" style=""text-align:center; margin-top: 0px; margin-bottom: 0px; font-size: 40px"";>מוכנים לשלם: <span id=""c_p_y""></span></p>","null","instructions","3","","","","","","","","","","","","","","","","","","","","",""
"","","","","","html-keyboard-response","13","156337","0.0-13.0","76a1ad7d-b5cb-4968-abdb-e4fbe5079a2c","null","<p>לא הגבתם בזמן המוקצב לתגובה. 
                <br>נסו להגיב מהר יותר בפעם הבאה.
                <br><br>לחצו על העכבר כדי להמשיך.</p>","1","instructions","","","","","","","","","","","","","","","","","","","","","",""
"","","","","","html-slider-response","14","160603","0.0-14.0-0.0","76a1ad7d-b5cb-4968-abdb-e4fbe5079a2c","null","
                    <p style=""text-align: center;"">₪40<br>65%</p>
                    <p id=""wtp"" style=""text-align:center; margin-top: 0px; margin-bottom: 0px; font-size: 40px"";>מוכנים לשלם: <span id=""c_p_y""></span></p>","null","instructions","64","","","","","","","","","","","","","","","","","","","","",""
"","","","","","html-keyboard-response","15","163345","0.0-14.0-1.0","76a1ad7d-b5cb-4968-abdb-e4fbe5079a2c","null","<p>לא הגבתם בזמן המוקצב לתגובה. 
                <br>נסו להגיב מהר יותר בפעם הבאה.
                <br><br>לחצו על העכבר כדי להמשיך.</p>","1","instructions","","","","","","","","","","","","","","","","","","","","","",""
"","","","","","html-keyboard-response","16","178897","0.0-15.0","76a1ad7d-b5cb-4968-abdb-e4fbe5079a2c","null","<p>כעת נתחיל את הניסוי.
                <br><br>אתם תראו הגרלות ותתבקשו לבחור כמה תהיו מוכנים לשלם כדי להשתתף בהן.
                <br>יש לכם תקציב של ₪80 עבור כל הגרלה.
                <br>בסוף הניסוי הגרלה אחת תבחר באקראי ותשוחק.
                <br><br>לחצו על העכבר כדי להתחיל את הניסוי.</p>","1","instructions","","","","","","","","","","","","","","","","","","","","","",""
"","","","","","html-keyboard-response","17","180162","0.0-16.0","76a1ad7d-b5cb-4968-abdb-e4fbe5079a2c","null","<p style=""text-align: center;"">+</p>","null","fixation","","","","","","","","","","","","","","","","","","","","","",""
"","","","","","html-slider-response","18","181164","0.0-17.0-0.0","76a1ad7d-b5cb-4968-abdb-e4fbe5079a2c","1000","
                  <p style=""text-align: center;"">₪11
                                                <br>25%</p>
                  <p id=""wtp"" style=""text-align:center; margin-top: 0px; margin-bottom: 0px; font-size: 40px"";>&ensp;</p>","-","viewing","0","5","12A,27B,28B,30B","","","","","","","","","","","","","","","","","","",""
"","","","","","html-slider-response","19","184482","0.0-17.0-1.0","76a1ad7d-b5cb-4968-abdb-e4fbe5079a2c","3317","
                  <p style=""text-align: center;"">₪11
                                                <br>25%</p>
                  <p id=""wtp"" style=""text-align:center; margin-top: 0px; margin-bottom: 0px; font-size: 40px"";>מוכנים לשלם: <span id=""c_p_y""></span></p>","7","evaluation","73","5","12A,27B,28B,30B","25","11","7","","","","","","","","","","","","","","","",""
"","","","","","html-keyboard-response","20","185872","0.0-17.0-2.0","76a1ad7d-b5cb-4968-abdb-e4fbe5079a2c","null","<p style=""text-align: center;"">+</p>","null","fixation","","","","","","","","","","","","","","","","","","","","","",""
"","","","","","html-slider-response","21","186874","0.0-17.0-0.1","76a1ad7d-b5cb-4968-abdb-e4fbe5079a2c","1000","
                  <p style=""text-align: center;"">₪58
                                                <br>30%</p>
                  <p id=""wtp"" style=""text-align:center; margin-top: 0px; margin-bottom: 0px; font-size: 40px"";>&ensp;</p>","-","viewing","0","19","13C,30A","","","","","","","","","","","","","","","","","","",""
"","","","","","html-slider-response","22","190877","0.0-17.0-1.1","76a1ad7d-b5cb-4968-abdb-e4fbe5079a2c","null","
                  <p style=""text-align: center;"">₪58
                                                <br>30%</p>
                  <p id=""wtp"" style=""text-align:center; margin-top: 0px; margin-bottom: 0px; font-size: 40px"";>מוכנים לשלם: <span id=""c_p_y""></span></p>","null","evaluation","42","19","13C,30A","30","58","16","","","","","","","","","","","","","","","",""
"","","","","","html-keyboard-response","23","192050","0.0-17.0-2.1","76a1ad7d-b5cb-4968-abdb-e4fbe5079a2c","null","<p style=""text-align: center;"">+</p>","null","fixation","","","","","","","","","","","","","","","","","","","","","",""
"","","","","","html-slider-response","24","193053","0.0-17.0-0.2","76a1ad7d-b5cb-4968-abdb-e4fbe5079a2c","1000","
                  <p style=""text-align: center;"">₪39
                                                <br>65%</p>
                  <p id=""wtp"" style=""text-align:center; margin-top: 0px; margin-bottom: 0px; font-size: 40px"";>&ensp;</p>","-","viewing","0","16","1A,15A,26C","","","","","","","","","","","","","","","","","","",""
"","","","","","html-slider-response","25","196778","0.0-17.0-1.2","76a1ad7d-b5cb-4968-abdb-e4fbe5079a2c","3723","
                  <p style=""text-align: center;"">₪39
                                                <br>65%</p>
                  <p id=""wtp"" style=""text-align:center; margin-top: 0px; margin-bottom: 0px; font-size: 40px"";>מוכנים לשלם: <span id=""c_p_y""></span></p>","19","evaluation","44","16","1A,15A,26C","65","39","20","","","","","","","","","","","","","","","",""
"","","","","","html-keyboard-response","26","198252","0.0-17.0-2.2","76a1ad7d-b5cb-4968-abdb-e4fbe5079a2c","null","<p style=""text-align: center;"">+</p>","null","fixation","","","","","","","","","","","","","","","","","","","","","",""
"","","","","","html-slider-response","27","199254","0.0-17.0-0.3","76a1ad7d-b5cb-4968-abdb-e4fbe5079a2c","1000","
                  <p style=""text-align: center;"">₪61
                                                <br>55%</p>
                  <p id=""wtp"" style=""text-align:center; margin-top: 0px; margin-bottom: 0px; font-size: 40px"";>&ensp;</p>","-","viewing","0","23","7B,26B","","","","","","","","","","","","","","","","","","",""
"","","","","","html-slider-response","28","203129","0.0-17.0-1.3","76a1ad7d-b5cb-4968-abdb-e4fbe5079a2c","3874","
                  <p style=""text-align: center;"">₪61
                                                <br>55%</p>
                  <p id=""wtp"" style=""text-align:center; margin-top: 0px; margin-bottom: 0px; font-size: 40px"";>מוכנים לשלם: <span id=""c_p_y""></span></p>","31","evaluation","69","23","7B,26B","55","61","31","","","","","","","","","","","","","","","",""
"","","","","","html-keyboard-response","29","204007","0.0-17.0-2.3","76a1ad7d-b5cb-4968-abdb-e4fbe5079a2c","null","<p style=""text-align: center;"">+</p>","null","fixation","","","","","","","","","","","","","","","","","","","","","",""
"","","","","","html-slider-response","30","205013","0.0-17.0-0.4","76a1ad7d-b5cb-4968-abdb-e4fbe5079a2c","1000","
                  <p style=""text-align: center;"">₪79
                                                <br>40%</p>
                  <p id=""wtp"" style=""text-align:center; margin-top: 0px; margin-bottom: 0px; font-size: 40px"";>&ensp;</p>","-","viewing","0","30","9B","","","","","","","","","","","","","","","","","","",""
"","","","","","html-slider-response","31","208417","0.0-17.0-1.4","76a1ad7d-b5cb-4968-abdb-e4fbe5079a2c","3403","
                  <p style=""text-align: center;"">₪79
                                                <br>40%</p>
                  <p id=""wtp"" style=""text-align:center; margin-top: 0px; margin-bottom: 0px; font-size: 40px"";>מוכנים לשלם: <span id=""c_p_y""></span></p>","25","evaluation","23","30","9B","40","79","25","","","","","","","","","","","","","","","",""
"","","","","","html-keyboard-response","32","209327","0.0-17.0-2.4","76a1ad7d-b5cb-4968-abdb-e4fbe5079a2c","null","<p style=""text-align: center;"">+</p>","null","fixation","","","","","","","","","","","","","","","","","","","","","",""
"","","","","","html-slider-response","33","210330","0.0-17.0-0.5","76a1ad7d-b5cb-4968-abdb-e4fbe5079a2c","1000","
                  <p style=""text-align: center;"">₪39
                                                <br>60%</p>
                  <p id=""wtp"" style=""text-align:center; margin-top: 0px; margin-bottom: 0px; font-size: 40px"";>&ensp;</p>","-","viewing","0","15","9C,25B","","","","","","","","","","","","","","","","","","",""
"","","","","","html-slider-response","34","214331","0.0-17.0-1.5","76a1ad7d-b5cb-4968-abdb-e4fbe5079a2c","null","
                  <p style=""text-align: center;"">₪39
                                                <br>60%</p>
                  <p id=""wtp"" style=""text-align:center; margin-top: 0px; margin-bottom: 0px; font-size: 40px"";>מוכנים לשלם: <span id=""c_p_y""></span></p>","null","evaluation","25","15","9C,25B","60","39","22","","","","","","","","","","","","","","","",""
"","","","","","html-keyboard-response","35","214966","0.0-17.0-2.5","76a1ad7d-b5cb-4968-abdb-e4fbe5079a2c","null","<p style=""text-align: center;"">+</p>","null","fixation","","","","","","","","","","","","","","","","","","","","","",""
"","","","","","html-slider-response","36","215968","0.0-17.0-0.6","76a1ad7d-b5cb-4968-abdb-e4fbe5079a2c","1000","
                  <p style=""text-align: center;"">₪4
                                                <br>25%</p>
                  <p id=""wtp"" style=""text-align:center; margin-top: 0px; margin-bottom: 0px; font-size: 40px"";>&ensp;</p>","-","viewing","0","1","6C,29B,30C","","","","","","","","","","","","","","","","","","",""
"","","","","","html-slider-response","37","217505","0.0-17.0-1.6","76a1ad7d-b5cb-4968-abdb-e4fbe5079a2c","1536","
                  <p style=""text-align: center;"">₪4
                                                <br>25%</p>
                  <p id=""wtp"" style=""text-align:center; margin-top: 0px; margin-bottom: 0px; font-size: 40px"";>מוכנים לשלם: <span id=""c_p_y""></span></p>","0","evaluation","9","1","6C,29B,30C","25","4","0","","","","","","","","","","","","","","","",""
"","","","","","html-keyboard-response","38","218435","0.0-17.0-2.6","76a1ad7d-b5cb-4968-abdb-e4fbe5079a2c","null","<p style=""text-align: center;"">+</p>","null","fixation","","","","","","","","","","","","","","","","","","","","","",""
"","","","","","html-slider-response","39","219437","0.0-17.0-0.7","76a1ad7d-b5cb-4968-abdb-e4fbe5079a2c","1000","
                  <p style=""text-align: center;"">₪16
                                                <br>20%</p>
                  <p id=""wtp"" style=""text-align:center; margin-top: 0px; margin-bottom: 0px; font-size: 40px"";>&ensp;</p>","-","viewing","0","8","14C,17A,20C,27A","","","","","","","","","","","","","","","","","","",""
"","","","","","html-slider-response","40","221201","0.0-17.0-1.7","76a1ad7d-b5cb-4968-abdb-e4fbe5079a2c","1763","
                  <p style=""text-align: center;"">₪16
                                                <br>20%</p>
                  <p id=""wtp"" style=""text-align:center; margin-top: 0px; margin-bottom: 0px; font-size: 40px"";>מוכנים לשלם: <span id=""c_p_y""></span></p>","1","evaluation","22","8","14C,17A,20C,27A","20","16","1","","","","","","","","","","","","","","","",""
"","","","","","html-keyboard-response","41","222671","0.0-17.0-2.7","76a1ad7d-b5cb-4968-abdb-e4fbe5079a2c","null","<p style=""text-align: center;"">+</p>","null","fixation","","","","","","","","","","","","","","","","","","","","","",""
"","","","","","html-slider-response","42","223681","0.0-17.0-0.8","76a1ad7d-b5cb-4968-abdb-e4fbe5079a2c","1000","
                  <p style=""text-align: center;"">₪76
                                                <br>65%</p>
                  <p id=""wtp"" style=""text-align:center; margin-top: 0px; margin-bottom: 0px; font-size: 40px"";>&ensp;</p>","-","viewing","0","29","8C,19A,24B","","","","","","","","","","","","","","","","","","",""
"","","","","","html-slider-response","43","225881","0.0-17.0-1.8","76a1ad7d-b5cb-4968-abdb-e4fbe5079a2c","2199","
                  <p style=""text-align: center;"">₪76
                                                <br>65%</p>
                  <p id=""wtp"" style=""text-align:center; margin-top: 0px; margin-bottom: 0px; font-size: 40px"";>מוכנים לשלם: <span id=""c_p_y""></span></p>","33","evaluation","37","29","8C,19A,24B","65","76","33","","","","","","","","","","","","","","","",""
"","","","","","html-keyboard-response","44","226999","0.0-17.0-2.8","76a1ad7d-b5cb-4968-abdb-e4fbe5079a2c","null","<p style=""text-align: center;"">+</p>","null","fixation","","","","","","","","","","","","","","","","","","","","","",""
"","","","","","html-slider-response","45","228015","0.0-17.0-0.9","76a1ad7d-b5cb-4968-abdb-e4fbe5079a2c","1000","
                  <p style=""text-align: center;"">₪43
                                                <br>75%</p>
                  <p id=""wtp"" style=""text-align:center; margin-top: 0px; margin-bottom: 0px; font-size: 40px"";>&ensp;</p>","-","viewing","0","18","11B,19B,24A,26A","","","","","","","","","","","","","","","","","","",""
"","","","","","html-slider-response","46","231697","0.0-17.0-1.9","76a1ad7d-b5cb-4968-abdb-e4fbe5079a2c","3681","
                  <p style=""text-align: center;"">₪43
                                                <br>75%</p>
                  <p id=""wtp"" style=""text-align:center; margin-top: 0px; margin-bottom: 0px; font-size: 40px"";>מוכנים לשלם: <span id=""c_p_y""></span></p>","23","evaluation","51","18","11B,19B,24A,26A","75","43","23","","","","","","","","","","","","","","","",""
"","","","","","html-keyboard-response","47","232846","0.0-17.0-2.9","76a1ad7d-b5cb-4968-abdb-e4fbe5079a2c","null","<p style=""text-align: center;"">+</p>","null","fixation","","","","","","","","","","","","","","","","","","","","","",""
"","","","","","html-slider-response","48","233849","0.0-17.0-0.10","76a1ad7d-b5cb-4968-abdb-e4fbe5079a2c","1000","
                  <p style=""text-align: center;"">₪36
                                                <br>75%</p>
                  <p id=""wtp"" style=""text-align:center; margin-top: 0px; margin-bottom: 0px; font-size: 40px"";>&ensp;</p>","-","viewing","0","14","4B,5A,13B,16B","","","","","","","","","","","","","","","","","","",""
"","","","","","html-slider-response","49","237057","0.0-17.0-1.10","76a1ad7d-b5cb-4968-abdb-e4fbe5079a2c","3207","
                  <p style=""text-align: center;"">₪36
                                                <br>75%</p>
                  <p id=""wtp"" style=""text-align:center; margin-top: 0px; margin-bottom: 0px; font-size: 40px"";>מוכנים לשלם: <span id=""c_p_y""></span></p>","17","evaluation","58","14","4B,5A,13B,16B","75","36","17","","","","","","","","","","","","","","","",""
"","","","","","html-keyboard-response","50","238508","0.0-17.0-2.10","76a1ad7d-b5cb-4968-abdb-e4fbe5079a2c","null","<p style=""text-align: center;"">+</p>","null","fixation","","","","","","","","","","","","","","","","","","","","","",""
"","","","","","html-slider-response","51","239510","0.0-17.0-0.11","76a1ad7d-b5cb-4968-abdb-e4fbe5079a2c","1000","
                  <p style=""text-align: center;"">₪11
                                                <br>20%</p>
                  <p id=""wtp"" style=""text-align:center; margin-top: 0px; margin-bottom: 0px; font-size: 40px"";>&ensp;</p>","-","viewing","0","4","12C,17C,23C,28C","","","","","","","","","","","","","","","","","","",""
"","","","","","html-slider-response","52","242385","0.0-17.0-1.11","76a1ad7d-b5cb-4968-abdb-e4fbe5079a2c","2874","
                  <p style=""text-align: center;"">₪11
                                                <br>20%</p>
                  <p id=""wtp"" style=""text-align:center; margin-top: 0px; margin-bottom: 0px; font-size: 40px"";>מוכנים לשלם: <span id=""c_p_y""></span></p>","3","evaluation","69","4","12C,17C,23C,28C","20","11","3","","","","","","","","","","","","","","","",""
"","","","","","html-keyboard-response","53","243709","0.0-17.0-2.11","76a1ad7d-b5cb-4968-abdb-e4fbe5079a2c","null","<p style=""text-align: center;"">+</p>","null","fixation","","","","","","","","","","","","","","","","","","","","","",""
"","","","","","html-slider-response","54","244715","0.0-17.0-0.12","76a1ad7d-b5cb-4968-abdb-e4fbe5079a2c","1000","
                  <p style=""text-align: center;"">₪18
                                                <br>25%</p>
                  <p id=""wtp"" style=""text-align:center; margin-top: 0px; margin-bottom: 0px; font-size: 40px"";>&ensp;</p>","-","viewing","0","9","14A,23A","","","","","","","","","","","","","","","","","","",""
"","","","","","html-slider-response","55","246585","0.0-17.0-1.12","76a1ad7d-b5cb-4968-abdb-e4fbe5079a2c","1869","
                  <p style=""text-align: center;"">₪18
                                                <br>25%</p>
                  <p id=""wtp"" style=""text-align:center; margin-top: 0px; margin-bottom: 0px; font-size: 40px"";>מוכנים לשלם: <span id=""c_p_y""></span></p>","3","evaluation","77","9","14A,23A","25","18","4","","","","","","","","","","","","","","","",""
"","","","","","html-keyboard-response","56","248061","0.0-17.0-2.12","76a1ad7d-b5cb-4968-abdb-e4fbe5079a2c","null","<p style=""text-align: center;"">+</p>","null","fixation","","","","","","","","","","","","","","","","","","","","","",""
"","","","","","html-slider-response","57","249064","0.0-17.0-0.13","76a1ad7d-b5cb-4968-abdb-e4fbe5079a2c","1000","
                  <p style=""text-align: center;"">₪79
                                                <br>65%</p>
                  <p id=""wtp"" style=""text-align:center; margin-top: 0px; margin-bottom: 0px; font-size: 40px"";>&ensp;</p>","-","viewing","0","31","8A","","","","","","","","","","","","","","","","","","",""
"","","","","","html-slider-response","58","252113","0.0-17.0-1.13","76a1ad7d-b5cb-4968-abdb-e4fbe5079a2c","3048","
                  <p style=""text-align: center;"">₪79
                                                <br>65%</p>
                  <p id=""wtp"" style=""text-align:center; margin-top: 0px; margin-bottom: 0px; font-size: 40px"";>מוכנים לשלם: <span id=""c_p_y""></span></p>","19","evaluation","79","31","8A","65","79","19","","","","","","","","","","","","","","","",""
"","","","","","html-keyboard-response","59","252914","0.0-17.0-2.13","76a1ad7d-b5cb-4968-abdb-e4fbe5079a2c","null","<p style=""text-align: center;"">+</p>","null","fixation","","","","","","","","","","","","","","","","","","","","","",""
"","","","","","html-slider-response","60","253916","0.0-17.0-0.14","76a1ad7d-b5cb-4968-abdb-e4fbe5079a2c","1000","
                  <p style=""text-align: center;"">₪61
                                                <br>45%</p>
                  <p id=""wtp"" style=""text-align:center; margin-top: 0px; margin-bottom: 0px; font-size: 40px"";>&ensp;</p>","-","viewing","0","22","10A,11A","","","","","","","","","","","","","","","","","","",""
"","","","","","html-slider-response","61","256401","0.0-17.0-1.14","76a1ad7d-b5cb-4968-abdb-e4fbe5079a2c","2483","
                  <p style=""text-align: center;"">₪61
                                                <br>45%</p>
                  <p id=""wtp"" style=""text-align:center; margin-top: 0px; margin-bottom: 0px; font-size: 40px"";>מוכנים לשלם: <span id=""c_p_y""></span></p>","20","evaluation","48","22","10A,11A","45","61","20","","","","","","","","","","","","","","","",""
"","","","","","html-keyboard-response","62","257459","0.0-17.0-2.14","76a1ad7d-b5cb-4968-abdb-e4fbe5079a2c","null","<p style=""text-align: center;"">+</p>","null","fixation","","","","","","","","","","","","","","","","","","","","","",""
"","","","","","html-slider-response","63","258462","0.0-17.0-0.15","76a1ad7d-b5cb-4968-abdb-e4fbe5079a2c","1000","
                  <p style=""text-align: center;"">₪4
                                                <br>50%</p>
                  <p id=""wtp"" style=""text-align:center; margin-top: 0px; margin-bottom: 0px; font-size: 40px"";>&ensp;</p>","-","viewing","0","2","4C,17B","","","","","","","","","","","","","","","","","","",""
"","","","","","html-slider-response","64","260217","0.0-17.0-1.15","76a1ad7d-b5cb-4968-abdb-e4fbe5079a2c","1753","
                  <p style=""text-align: center;"">₪4
                                                <br>50%</p>
                  <p id=""wtp"" style=""text-align:center; margin-top: 0px; margin-bottom: 0px; font-size: 40px"";>מוכנים לשלם: <span id=""c_p_y""></span></p>","0","evaluation","42","2","4C,17B","50","4","1","","","","","","","","","","","","","","","",""
"","","","","","html-keyboard-response","65","261026","0.0-17.0-2.15","76a1ad7d-b5cb-4968-abdb-e4fbe5079a2c","null","<p style=""text-align: center;"">+</p>","null","fixation","","","","","","","","","","","","","","","","","","","","","",""
"","","","","","html-slider-response","66","262031","0.0-17.0-0.16","76a1ad7d-b5cb-4968-abdb-e4fbe5079a2c","1000","
                  <p style=""text-align: center;"">₪36
                                                <br>60%</p>
                  <p id=""wtp"" style=""text-align:center; margin-top: 0px; margin-bottom: 0px; font-size: 40px"";>&ensp;</p>","-","viewing","0","12","1C,7C,15C","","","","","","","","","","","","","","","","","","",""
"","","","","","html-slider-response","67","265297","0.0-17.0-1.16","76a1ad7d-b5cb-4968-abdb-e4fbe5079a2c","3265","
                  <p style=""text-align: center;"">₪36
                                                <br>60%</p>
                  <p id=""wtp"" style=""text-align:center; margin-top: 0px; margin-bottom: 0px; font-size: 40px"";>מוכנים לשלם: <span id=""c_p_y""></span></p>","12","evaluation","25","12","1C,7C,15C","60","36","13","","","","","","","","","","","","","","","",""
"","","","","","html-keyboard-response","68","265829","0.0-17.0-2.16","76a1ad7d-b5cb-4968-abdb-e4fbe5079a2c","null","<p style=""text-align: center;"">+</p>","null","fixation","","","","","","","","","","","","","","","","","","","","","",""
"","","","","","html-slider-response","69","266841","0.0-17.0-0.17","76a1ad7d-b5cb-4968-abdb-e4fbe5079a2c","1000","
                  <p style=""text-align: center;"">₪64
                                                <br>25%</p>
                  <p id=""wtp"" style=""text-align:center; margin-top: 0px; margin-bottom: 0px; font-size: 40px"";>&ensp;</p>","-","viewing","0","24","6A,21A","","","","","","","","","","","","","","","","","","",""
"","","","","","html-slider-response","70","269561","0.0-17.0-1.17","76a1ad7d-b5cb-4968-abdb-e4fbe5079a2c","2718","
                  <p style=""text-align: center;"">₪64
                                                <br>25%</p>
                  <p id=""wtp"" style=""text-align:center; margin-top: 0px; margin-bottom: 0px; font-size: 40px"";>מוכנים לשלם: <span id=""c_p_y""></span></p>","23","evaluation","14","24","6A,21A","25","64","23","","","","","","","","","","","","","","","",""
"","","","","","html-keyboard-response","71","270607","0.0-17.0-2.17","76a1ad7d-b5cb-4968-abdb-e4fbe5079a2c","null","<p style=""text-align: center;"">+</p>","null","fixation","","","","","","","","","","","","","","","","","","","","","",""
"","","","","","html-slider-response","72","271619","0.0-17.0-0.18","76a1ad7d-b5cb-4968-abdb-e4fbe5079a2c","1000","
                  <p style=""text-align: center;"">₪64
                                                <br>50%</p>
                  <p id=""wtp"" style=""text-align:center; margin-top: 0px; margin-bottom: 0px; font-size: 40px"";>&ensp;</p>","-","viewing","0","25","1B,3B,4A","","","","","","","","","","","","","","","","","","",""
"","","","","","html-slider-response","73","274178","0.0-17.0-1.18","76a1ad7d-b5cb-4968-abdb-e4fbe5079a2c","2557","
                  <p style=""text-align: center;"">₪64
                                                <br>50%</p>
                  <p id=""wtp"" style=""text-align:center; margin-top: 0px; margin-bottom: 0px; font-size: 40px"";>מוכנים לשלם: <span id=""c_p_y""></span></p>","22","evaluation","69","25","1B,3B,4A","50","64","22","","","","","","","","","","","","","","","",""
"","","","","","html-keyboard-response","74","275023","0.0-17.0-2.18","76a1ad7d-b5cb-4968-abdb-e4fbe5079a2c","null","<p style=""text-align: center;"">+</p>","null","fixation","","","","","","","","","","","","","","","","","","","","","",""
"","","","","","html-slider-response","75","276039","0.0-17.0-0.19","76a1ad7d-b5cb-4968-abdb-e4fbe5079a2c","1000","
                  <p style=""text-align: center;"">₪36
                                                <br>30%</p>
                  <p id=""wtp"" style=""text-align:center; margin-top: 0px; margin-bottom: 0px; font-size: 40px"";>&ensp;</p>","-","viewing","0","11","3C,20A,22A","","","","","","","","","","","","","","","","","","",""
"","","","","","html-slider-response","76","278161","0.0-17.0-1.19","76a1ad7d-b5cb-4968-abdb-e4fbe5079a2c","2121","
                  <p style=""text-align: center;"">₪36
                                                <br>30%</p>
                  <p id=""wtp"" style=""text-align:center; margin-top: 0px; margin-bottom: 0px; font-size: 40px"";>מוכנים לשלם: <span id=""c_p_y""></span></p>","10","evaluation","45","11","3C,20A,22A","30","36","10","","","","","","","","","","","","","","","",""
"","","","","","html-keyboard-response","77","278934","0.0-17.0-2.19","76a1ad7d-b5cb-4968-abdb-e4fbe5079a2c","null","<p style=""text-align: center;"">+</p>","null","fixation","","","","","","","","","","","","","","","","","","","","","",""
"","","","","","html-slider-response","78","279935","0.0-17.0-0.20","76a1ad7d-b5cb-4968-abdb-e4fbe5079a2c","1000","
                  <p style=""text-align: center;"">₪71
                                                <br>75%</p>
                  <p id=""wtp"" style=""text-align:center; margin-top: 0px; margin-bottom: 0px; font-size: 40px"";>&ensp;</p>","-","viewing","0","28","8B","","","","","","","","","","","","","","","","","","",""
"","","","","","html-slider-response","79","281985","0.0-17.0-1.20","76a1ad7d-b5cb-4968-abdb-e4fbe5079a2c","2049","
                  <p style=""text-align: center;"">₪71
                                                <br>75%</p>
                  <p id=""wtp"" style=""text-align:center; margin-top: 0px; margin-bottom: 0px; font-size: 40px"";>מוכנים לשלם: <span id=""c_p_y""></span></p>","36","evaluation","80","28","8B","75","71","36","","","","","","","","","","","","","","","",""
"","","","","","html-keyboard-response","80","282976","0.0-17.0-2.20","76a1ad7d-b5cb-4968-abdb-e4fbe5079a2c","null","<p style=""text-align: center;"">+</p>","null","fixation","","","","","","","","","","","","","","","","","","","","","",""
"","","","","","html-slider-response","81","283979","0.0-17.0-0.21","76a1ad7d-b5cb-4968-abdb-e4fbe5079a2c","1000","
                  <p style=""text-align: center;"">₪36
                                                <br>70%</p>
                  <p id=""wtp"" style=""text-align:center; margin-top: 0px; margin-bottom: 0px; font-size: 40px"";>&ensp;</p>","-","viewing","0","13","3A,5C,10B","","","","","","","","","","","","","","","","","","",""
"","","","","","html-slider-response","82","287449","0.0-17.0-1.21","76a1ad7d-b5cb-4968-abdb-e4fbe5079a2c","3469","
                  <p style=""text-align: center;"">₪36
                                                <br>70%</p>
                  <p id=""wtp"" style=""text-align:center; margin-top: 0px; margin-bottom: 0px; font-size: 40px"";>מוכנים לשלם: <span id=""c_p_y""></span></p>","22","evaluation","57","13","3A,5C,10B","70","36","22","","","","","","","","","","","","","","","",""
"","","","","","html-keyboard-response","83","288409","0.0-17.0-2.21","76a1ad7d-b5cb-4968-abdb-e4fbe5079a2c","null","<p style=""text-align: center;"">+</p>","null","fixation","","","","","","","","","","","","","","","","","","","","","",""
"","","","","","html-slider-response","84","289424","0.0-17.0-0.22","76a1ad7d-b5cb-4968-abdb-e4fbe5079a2c","1000","
                  <p style=""text-align: center;"">₪71
                                                <br>45%</p>
                  <p id=""wtp"" style=""text-align:center; margin-top: 0px; margin-bottom: 0px; font-size: 40px"";>&ensp;</p>","-","viewing","0","26","2B,16A","","","","","","","","","","","","","","","","","","",""
"","","","","","html-slider-response","85","292249","0.0-17.0-1.22","76a1ad7d-b5cb-4968-abdb-e4fbe5079a2c","2823","
                  <p style=""text-align: center;"">₪71
                                                <br>45%</p>
                  <p id=""wtp"" style=""text-align:center; margin-top: 0px; margin-bottom: 0px; font-size: 40px"";>מוכנים לשלם: <span id=""c_p_y""></span></p>","20","evaluation","11","26","2B,16A","45","71","20","","","","","","","","","","","","","","","",""
"","","","","","html-keyboard-response","86","293149","0.0-17.0-2.22","76a1ad7d-b5cb-4968-abdb-e4fbe5079a2c","null","<p style=""text-align: center;"">+</p>","null","fixation","","","","","","","","","","","","","","","","","","","","","",""
"","","","","","html-slider-response","87","294159","0.0-17.0-0.23","76a1ad7d-b5cb-4968-abdb-e4fbe5079a2c","1000","
                  <p style=""text-align: center;"">₪18
                                                <br>50%</p>
                  <p id=""wtp"" style=""text-align:center; margin-top: 0px; margin-bottom: 0px; font-size: 40px"";>&ensp;</p>","-","viewing","0","10","2C,16C,22B,28A","","","","","","","","","","","","","","","","","","",""
"","","","","","html-slider-response","88","296985","0.0-17.0-1.23","76a1ad7d-b5cb-4968-abdb-e4fbe5079a2c","2825","
                  <p style=""text-align: center;"">₪18
                                                <br>50%</p>
                  <p id=""wtp"" style=""text-align:center; margin-top: 0px; margin-bottom: 0px; font-size: 40px"";>מוכנים לשלם: <span id=""c_p_y""></span></p>","6","evaluation","46","10","2C,16C,22B,28A","50","18","7","","","","","","","","","","","","","","","",""
"","","","","","html-keyboard-response","89","297521","0.0-17.0-2.23","76a1ad7d-b5cb-4968-abdb-e4fbe5079a2c","null","<p style=""text-align: center;"">+</p>","null","fixation","","","","","","","","","","","","","","","","","","","","","",""
"","","","","","html-slider-response","90","298539","0.0-17.0-0.24","76a1ad7d-b5cb-4968-abdb-e4fbe5079a2c","1000","
                  <p style=""text-align: center;"">₪71
                                                <br>55%</p>
                  <p id=""wtp"" style=""text-align:center; margin-top: 0px; margin-bottom: 0px; font-size: 40px"";>&ensp;</p>","-","viewing","0","27","5B,18A","","","","","","","","","","","","","","","","","","",""
"","","","","","html-slider-response","91","301257","0.0-17.0-1.24","76a1ad7d-b5cb-4968-abdb-e4fbe5079a2c","2717","
                  <p style=""text-align: center;"">₪71
                                                <br>55%</p>
                  <p id=""wtp"" style=""text-align:center; margin-top: 0px; margin-bottom: 0px; font-size: 40px"";>מוכנים לשלם: <span id=""c_p_y""></span></p>","29","evaluation","60","27","5B,18A","55","71","29","","","","","","","","","","","","","","","",""
"","","","","","html-keyboard-response","92","301828","0.0-17.0-2.24","76a1ad7d-b5cb-4968-abdb-e4fbe5079a2c","null","<p style=""text-align: center;"">+</p>","null","fixation","","","","","","","","","","","","","","","","","","","","","",""
"","","","","","html-slider-response","93","302830","0.0-17.0-0.25","76a1ad7d-b5cb-4968-abdb-e4fbe5079a2c","1000","
                  <p style=""text-align: center;"">₪43
                                                <br>60%</p>
                  <p id=""wtp"" style=""text-align:center; margin-top: 0px; margin-bottom: 0px; font-size: 40px"";>&ensp;</p>","-","viewing","0","17","2A,7A,9A,15B","","","","","","","","","","","","","","","","","","",""
"","","","","","html-slider-response","94","305258","0.0-17.0-1.25","76a1ad7d-b5cb-4968-abdb-e4fbe5079a2c","2425","
                  <p style=""text-align: center;"">₪43
                                                <br>60%</p>
                  <p id=""wtp"" style=""text-align:center; margin-top: 0px; margin-bottom: 0px; font-size: 40px"";>מוכנים לשלם: <span id=""c_p_y""></span></p>","29","evaluation","65","17","2A,7A,9A,15B","60","43","30","","","","","","","","","","","","","","","",""
"","","","","","html-keyboard-response","95","306227","0.0-17.0-2.25","76a1ad7d-b5cb-4968-abdb-e4fbe5079a2c","null","<p style=""text-align: center;"">+</p>","null","fixation","","","","","","","","","","","","","","","","","","","","","",""
"","","","","","html-slider-response","96","307231","0.0-17.0-0.26","76a1ad7d-b5cb-4968-abdb-e4fbe5079a2c","1000","
                  <p style=""text-align: center;"">₪58
                                                <br>40%</p>
                  <p id=""wtp"" style=""text-align:center; margin-top: 0px; margin-bottom: 0px; font-size: 40px"";>&ensp;</p>","-","viewing","0","20","10C,13A,19C,21B","","","","","","","","","","","","","","","","","","",""
"","","","","","html-slider-response","97","310249","0.0-17.0-1.26","76a1ad7d-b5cb-4968-abdb-e4fbe5079a2c","3017","
                  <p style=""text-align: center;"">₪58
                                                <br>40%</p>
                  <p id=""wtp"" style=""text-align:center; margin-top: 0px; margin-bottom: 0px; font-size: 40px"";>מוכנים לשלם: <span id=""c_p_y""></span></p>","13","evaluation","7","20","10C,13A,19C,21B","40","58","13","","","","","","","","","","","","","","","",""
"","","","","","html-keyboard-response","98","310896","0.0-17.0-2.26","76a1ad7d-b5cb-4968-abdb-e4fbe5079a2c","null","<p style=""text-align: center;"">+</p>","null","fixation","","","","","","","","","","","","","","","","","","","","","",""
"","","","","","html-slider-response","99","311899","0.0-17.0-0.27","76a1ad7d-b5cb-4968-abdb-e4fbe5079a2c","1000","
                  <p style=""text-align: center;"">₪11
                                                <br>45%</p>
                  <p id=""wtp"" style=""text-align:center; margin-top: 0px; margin-bottom: 0px; font-size: 40px"";>&ensp;</p>","-","viewing","0","6","14B,21C,25C","","","","","","","","","","","","","","","","","","",""
"","","","","","html-slider-response","100","314162","0.0-17.0-1.27","76a1ad7d-b5cb-4968-abdb-e4fbe5079a2c","2261","
                  <p style=""text-align: center;"">₪11
                                                <br>45%</p>
                  <p id=""wtp"" style=""text-align:center; margin-top: 0px; margin-bottom: 0px; font-size: 40px"";>מוכנים לשלם: <span id=""c_p_y""></span></p>","4","evaluation","3","6","14B,21C,25C","45","11","5","","","","","","","","","","","","","","","",""
"","","","","","html-keyboard-response","101","315240","0.0-17.0-2.27","76a1ad7d-b5cb-4968-abdb-e4fbe5079a2c","null","<p style=""text-align: center;"">+</p>","null","fixation","","","","","","","","","","","","","","","","","","","","","",""
"","","","","","html-slider-response","102","316248","0.0-17.0-0.28","76a1ad7d-b5cb-4968-abdb-e4fbe5079a2c","1000","
                  <p style=""text-align: center;"">₪4
                                                <br>75%</p>
                  <p id=""wtp"" style=""text-align:center; margin-top: 0px; margin-bottom: 0px; font-size: 40px"";>&ensp;</p>","-","viewing","0","3","12B,20B,23B,27C,29C","","","","","","","","","","","","","","","","","","",""
"","","","","","html-slider-response","103","319297","0.0-17.0-1.28","76a1ad7d-b5cb-4968-abdb-e4fbe5079a2c","3048","
                  <p style=""text-align: center;"">₪4
                                                <br>75%</p>
                  <p id=""wtp"" style=""text-align:center; margin-top: 0px; margin-bottom: 0px; font-size: 40px"";>מוכנים לשלם: <span id=""c_p_y""></span></p>","2","evaluation","79","3","12B,20B,23B,27C,29C","75","4","3","","","","","","","","","","","","","","","",""
"","","","","","html-keyboard-response","104","320280","0.0-17.0-2.28","76a1ad7d-b5cb-4968-abdb-e4fbe5079a2c","null","<p style=""text-align: center;"">+</p>","null","fixation","","","","","","","","","","","","","","","","","","","","","",""
"","","","","","html-slider-response","105","321282","0.0-17.0-0.29","76a1ad7d-b5cb-4968-abdb-e4fbe5079a2c","1000","
                  <p style=""text-align: center;"">₪58
                                                <br>45%</p>
                  <p id=""wtp"" style=""text-align:center; margin-top: 0px; margin-bottom: 0px; font-size: 40px"";>&ensp;</p>","-","viewing","0","21","11C,18C,25A","","","","","","","","","","","","","","","","","","",""
"","","","","","html-slider-response","106","325138","0.0-17.0-1.29","76a1ad7d-b5cb-4968-abdb-e4fbe5079a2c","3855","
                  <p style=""text-align: center;"">₪58
                                                <br>45%</p>
                  <p id=""wtp"" style=""text-align:center; margin-top: 0px; margin-bottom: 0px; font-size: 40px"";>מוכנים לשלם: <span id=""c_p_y""></span></p>","20","evaluation","6","21","11C,18C,25A","45","58","21","","","","","","","","","","","","","","","",""
"","","","","","html-keyboard-response","107","326082","0.0-17.0-2.29","76a1ad7d-b5cb-4968-abdb-e4fbe5079a2c","null","<p style=""text-align: center;"">+</p>","null","fixation","","","","","","","","","","","","","","","","","","","","","",""
"","","","","","html-slider-response","108","327085","0.0-17.0-0.30","76a1ad7d-b5cb-4968-abdb-e4fbe5079a2c","1000","
                  <p style=""text-align: center;"">₪11
                                                <br>75%</p>
                  <p id=""wtp"" style=""text-align:center; margin-top: 0px; margin-bottom: 0px; font-size: 40px"";>&ensp;</p>","-","viewing","0","7","6B,18B,22C,24C,29A","","","","","","","","","","","","","","","","","","",""
"","","","","","html-slider-response","109","328498","0.0-17.0-1.30","76a1ad7d-b5cb-4968-abdb-e4fbe5079a2c","1412","
                  <p style=""text-align: center;"">₪11
                                                <br>75%</p>
                  <p id=""wtp"" style=""text-align:center; margin-top: 0px; margin-bottom: 0px; font-size: 40px"";>מוכנים לשלם: <span id=""c_p_y""></span></p>","19","evaluation","66","7","6B,18B,22C,24C,29A","75","11","20","","","","","","","","","","","","","","","",""
"","","","","","html-keyboard-response","110","329255","0.0-17.0-2.30","76a1ad7d-b5cb-4968-abdb-e4fbe5079a2c","null","<p style=""text-align: center;"">+</p>","null","fixation","","","","","","","","","","","","","","","","","","","","","",""
"","","","","","html-keyboard-response","111","330271","0.0-18.0","76a1ad7d-b5cb-4968-abdb-e4fbe5079a2c","null","<p style=""text-align: center;"">+</p>","null","fixation","","","","","","","","","","","","","","","","","","","","","",""
"","","","","","html-keyboard-response","112","335185","0.0-19.0","76a1ad7d-b5cb-4968-abdb-e4fbe5079a2c","null","<p>הפסקה.
          <br>לחצו כדי להמשיך.</p>","1","scan_wait","","","","","","","","","","","","","","","","","","","","","",""
"","","","","","html-keyboard-response","113","336188","0.0-20.0","76a1ad7d-b5cb-4968-abdb-e4fbe5079a2c","null","<p style=""text-align: center;"">+</p>","null","fixation","","","","","","","","","","","","","","","","","","","","","",""
"","","","","","html-slider-response","114","337191","0.0-21.0-0.0","76a1ad7d-b5cb-4968-abdb-e4fbe5079a2c","1000","
                  <p style=""text-align: center;"">₪4
                                                <br>25%</p>
                  <p id=""wtp"" style=""text-align:center; margin-top: 0px; margin-bottom: 0px; font-size: 40px"";>&ensp;</p>","-","viewing","0","1","6C,29B,30C","","","","","","","","","","","","","","","","","","",""
"","","","","","html-slider-response","115","340338","0.0-21.0-1.0","76a1ad7d-b5cb-4968-abdb-e4fbe5079a2c","3146","
                  <p style=""text-align: center;"">₪4
                                                <br>25%</p>
                  <p id=""wtp"" style=""text-align:center; margin-top: 0px; margin-bottom: 0px; font-size: 40px"";>מוכנים לשלם: <span id=""c_p_y""></span></p>","1","evaluation","15","1","6C,29B,30C","25","4","2","","","","","","","","","","","","","","","",""
"","","","","","html-keyboard-response","116","341106","0.0-21.0-2.0","76a1ad7d-b5cb-4968-abdb-e4fbe5079a2c","null","<p style=""text-align: center;"">+</p>","null","fixation","","","","","","","","","","","","","","","","","","","","","",""
"","","","","","html-slider-response","117","342114","0.0-21.0-0.1","76a1ad7d-b5cb-4968-abdb-e4fbe5079a2c","1000","
                  <p style=""text-align: center;"">₪71
                                                <br>55%</p>
                  <p id=""wtp"" style=""text-align:center; margin-top: 0px; margin-bottom: 0px; font-size: 40px"";>&ensp;</p>","-","viewing","0","27","5B,18A","","","","","","","","","","","","","","","","","","",""
"","","","","","html-slider-response","118","344081","0.0-21.0-1.1","76a1ad7d-b5cb-4968-abdb-e4fbe5079a2c","1966","
                  <p style=""text-align: center;"">₪71
                                                <br>55%</p>
                  <p id=""wtp"" style=""text-align:center; margin-top: 0px; margin-bottom: 0px; font-size: 40px"";>מוכנים לשלם: <span id=""c_p_y""></span></p>","20","evaluation","62","27","5B,18A","55","71","20","","","","","","","","","","","","","","","",""
"","","","","","html-keyboard-response","119","345129","0.0-21.0-2.1","76a1ad7d-b5cb-4968-abdb-e4fbe5079a2c","null","<p style=""text-align: center;"">+</p>","null","fixation","","","","","","","","","","","","","","","","","","","","","",""
"","","","","","html-slider-response","120","346140","0.0-21.0-0.2","76a1ad7d-b5cb-4968-abdb-e4fbe5079a2c","1000","
                  <p style=""text-align: center;"">₪16
                                                <br>20%</p>
                  <p id=""wtp"" style=""text-align:center; margin-top: 0px; margin-bottom: 0px; font-size: 40px"";>&ensp;</p>","-","viewing","0","8","14C,17A,20C,27A","","","","","","","","","","","","","","","","","","",""
"","","","","","html-slider-response","121","347322","0.0-21.0-1.2","76a1ad7d-b5cb-4968-abdb-e4fbe5079a2c","1181","
                  <p style=""text-align: center;"">₪16
                                                <br>20%</p>
                  <p id=""wtp"" style=""text-align:center; margin-top: 0px; margin-bottom: 0px; font-size: 40px"";>מוכנים לשלם: <span id=""c_p_y""></span></p>","2","evaluation","44","8","14C,17A,20C,27A","20","16","3","","","","","","","","","","","","","","","",""
"","","","","","html-keyboard-response","122","348028","0.0-21.0-2.2","76a1ad7d-b5cb-4968-abdb-e4fbe5079a2c","null","<p style=""text-align: center;"">+</p>","null","fixation","","","","","","","","","","","","","","","","","","","","","",""
"","","","","","html-slider-response","123","349030","0.0-21.0-0.3","76a1ad7d-b5cb-4968-abdb-e4fbe5079a2c","1000","
                  <p style=""text-align: center;"">₪11
                                                <br>20%</p>
                  <p id=""wtp"" style=""text-align:center; margin-top: 0px; margin-bottom: 0px; font-size: 40px"";>&ensp;</p>","-","viewing","0","4","12C,17C,23C,28C","","","","","","","","","","","","","","","","","","",""
"","","","","","html-slider-response","124","349978","0.0-21.0-1.3","76a1ad7d-b5cb-4968-abdb-e4fbe5079a2c","946","
                  <p style=""text-align: center;"">₪11
                                                <br>20%</p>
                  <p id=""wtp"" style=""text-align:center; margin-top: 0px; margin-bottom: 0px; font-size: 40px"";>מוכנים לשלם: <span id=""c_p_y""></span></p>","5","evaluation","46","4","12C,17C,23C,28C","20","11","6","","","","","","","","","","","","","","","",""
"","","","","","html-keyboard-response","125","350493","0.0-21.0-2.3","76a1ad7d-b5cb-4968-abdb-e4fbe5079a2c","null","<p style=""text-align: center;"">+</p>","null","fixation","","","","","","","","","","","","","","","","","","","","","",""
"","","","","","html-slider-response","126","351500","0.0-21.0-0.4","76a1ad7d-b5cb-4968-abdb-e4fbe5079a2c","1000","
                  <p style=""text-align: center;"">₪58
                                                <br>40%</p>
                  <p id=""wtp"" style=""text-align:center; margin-top: 0px; margin-bottom: 0px; font-size: 40px"";>&ensp;</p>","-","viewing","0","20","10C,13A,19C,21B","","","","","","","","","","","","","","","","","","",""
"","","","","","html-slider-response","127","353938","0.0-21.0-1.4","76a1ad7d-b5cb-4968-abdb-e4fbe5079a2c","2436","
                  <p style=""text-align: center;"">₪58
                                                <br>40%</p>
                  <p id=""wtp"" style=""text-align:center; margin-top: 0px; margin-bottom: 0px; font-size: 40px"";>מוכנים לשלם: <span id=""c_p_y""></span></p>","19","evaluation","39","20","10C,13A,19C,21B","40","58","20","","","","","","","","","","","","","","","",""
"","","","","","html-keyboard-response","128","355165","0.0-21.0-2.4","76a1ad7d-b5cb-4968-abdb-e4fbe5079a2c","null","<p style=""text-align: center;"">+</p>","null","fixation","","","","","","","","","","","","","","","","","","","","","",""
"","","","","","html-slider-response","129","356171","0.0-21.0-0.5","76a1ad7d-b5cb-4968-abdb-e4fbe5079a2c","1000","
                  <p style=""text-align: center;"">₪58
                                                <br>45%</p>
                  <p id=""wtp"" style=""text-align:center; margin-top: 0px; margin-bottom: 0px; font-size: 40px"";>&ensp;</p>","-","viewing","0","21","11C,18C,25A","","","","","","","","","","","","","","","","","","",""
"","","","","","html-slider-response","130","358370","0.0-21.0-1.5","76a1ad7d-b5cb-4968-abdb-e4fbe5079a2c","2197","
                  <p style=""text-align: center;"">₪58
                                                <br>45%</p>
                  <p id=""wtp"" style=""text-align:center; margin-top: 0px; margin-bottom: 0px; font-size: 40px"";>מוכנים לשלם: <span id=""c_p_y""></span></p>","10","evaluation","34","21","11C,18C,25A","45","58","10","","","","","","","","","","","","","","","",""
"","","","","","html-keyboard-response","131","359393","0.0-21.0-2.5","76a1ad7d-b5cb-4968-abdb-e4fbe5079a2c","null","<p style=""text-align: center;"">+</p>","null","fixation","","","","","","","","","","","","","","","","","","","","","",""
"","","","","","html-slider-response","132","360395","0.0-21.0-0.6","76a1ad7d-b5cb-4968-abdb-e4fbe5079a2c","1000","
                  <p style=""text-align: center;"">₪71
                                                <br>45%</p>
                  <p id=""wtp"" style=""text-align:center; margin-top: 0px; margin-bottom: 0px; font-size: 40px"";>&ensp;</p>","-","viewing","0","26","2B,16A","","","","","","","","","","","","","","","","","","",""
"","","","","","html-slider-response","133","362106","0.0-21.0-1.6","76a1ad7d-b5cb-4968-abdb-e4fbe5079a2c","1708","
                  <p style=""text-align: center;"">₪71
                                                <br>45%</p>
                  <p id=""wtp"" style=""text-align:center; margin-top: 0px; margin-bottom: 0px; font-size: 40px"";>מוכנים לשלם: <span id=""c_p_y""></span></p>","20","evaluation","23","26","2B,16A","45","71","20","","","","","","","","","","","","","","","",""
"","","","","","html-keyboard-response","134","363595","0.0-21.0-2.6","76a1ad7d-b5cb-4968-abdb-e4fbe5079a2c","null","<p style=""text-align: center;"">+</p>","null","fixation","","","","","","","","","","","","","","","","","","","","","",""
"","","","","","html-slider-response","135","364598","0.0-21.0-0.7","76a1ad7d-b5cb-4968-abdb-e4fbe5079a2c","1000","
                  <p style=""text-align: center;"">₪64
                                                <br>50%</p>
                  <p id=""wtp"" style=""text-align:center; margin-top: 0px; margin-bottom: 0px; font-size: 40px"";>&ensp;</p>","-","viewing","0","25","1B,3B,4A","","","","","","","","","","","","","","","","","","",""
"","","","","","html-slider-response","136","367306","0.0-21.0-1.7","76a1ad7d-b5cb-4968-abdb-e4fbe5079a2c","2706","
                  <p style=""text-align: center;"">₪64
                                                <br>50%</p>
                  <p id=""wtp"" style=""text-align:center; margin-top: 0px; margin-bottom: 0px; font-size: 40px"";>מוכנים לשלם: <span id=""c_p_y""></span></p>","26","evaluation","72","25","1B,3B,4A","50","64","26","","","","","","","","","","","","","","","",""
"","","","","","html-keyboard-response","137","368543","0.0-21.0-2.7","76a1ad7d-b5cb-4968-abdb-e4fbe5079a2c","null","<p style=""text-align: center;"">+</p>","null","fixation","","","","","","","","","","","","","","","","","","","","","",""
"","","","","","html-slider-response","138","369546","0.0-21.0-0.8","76a1ad7d-b5cb-4968-abdb-e4fbe5079a2c","1000","
                  <p style=""text-align: center;"">₪64
                                                <br>25%</p>
                  <p id=""wtp"" style=""text-align:center; margin-top: 0px; margin-bottom: 0px; font-size: 40px"";>&ensp;</p>","-","viewing","0","24","6A,21A","","","","","","","","","","","","","","","","","","",""
"","","","","","html-slider-response","139","371986","0.0-21.0-1.8","76a1ad7d-b5cb-4968-abdb-e4fbe5079a2c","2438","
                  <p style=""text-align: center;"">₪64
                                                <br>25%</p>
                  <p id=""wtp"" style=""text-align:center; margin-top: 0px; margin-bottom: 0px; font-size: 40px"";>מוכנים לשלם: <span id=""c_p_y""></span></p>","6","evaluation","39","24","6A,21A","25","64","7","","","","","","","","","","","","","","","",""
"","","","","","html-keyboard-response","140","373460","0.0-21.0-2.8","76a1ad7d-b5cb-4968-abdb-e4fbe5079a2c","null","<p style=""text-align: center;"">+</p>","null","fixation","","","","","","","","","","","","","","","","","","","","","",""
"","","","","","html-slider-response","141","374463","0.0-21.0-0.9","76a1ad7d-b5cb-4968-abdb-e4fbe5079a2c","1000","
                  <p style=""text-align: center;"">₪39
                                                <br>65%</p>
                  <p id=""wtp"" style=""text-align:center; margin-top: 0px; margin-bottom: 0px; font-size: 40px"";>&ensp;</p>","-","viewing","0","16","1A,15A,26C","","","","","","","","","","","","","","","","","","",""
"","","","","","html-slider-response","142","377801","0.0-21.0-1.9","76a1ad7d-b5cb-4968-abdb-e4fbe5079a2c","3337","
                  <p style=""text-align: center;"">₪39
                                                <br>65%</p>
                  <p id=""wtp"" style=""text-align:center; margin-top: 0px; margin-bottom: 0px; font-size: 40px"";>מוכנים לשלם: <span id=""c_p_y""></span></p>","23","evaluation","36","16","1A,15A,26C","65","39","23","","","","","","","","","","","","","","","",""
"","","","","","html-keyboard-response","143","378582","0.0-21.0-2.9","76a1ad7d-b5cb-4968-abdb-e4fbe5079a2c","null","<p style=""text-align: center;"">+</p>","null","fixation","","","","","","","","","","","","","","","","","","","","","",""
"","","","","","html-slider-response","144","379590","0.0-21.0-0.10","76a1ad7d-b5cb-4968-abdb-e4fbe5079a2c","1000","
                  <p style=""text-align: center;"">₪36
                                                <br>70%</p>
                  <p id=""wtp"" style=""text-align:center; margin-top: 0px; margin-bottom: 0px; font-size: 40px"";>&ensp;</p>","-","viewing","0","13","3A,5C,10B","","","","","","","","","","","","","","","","","","",""
"","","","","","html-slider-response","145","383596","0.0-21.0-1.10","76a1ad7d-b5cb-4968-abdb-e4fbe5079a2c","null","
                  <p style=""text-align: center;"">₪36
                                                <br>70%</p>
                  <p id=""wtp"" style=""text-align:center; margin-top: 0px; margin-bottom: 0px; font-size: 40px"";>מוכנים לשלם: <span id=""c_p_y""></span></p>","null","evaluation","61","13","3A,5C,10B","70","36","19","","","","","","","","","","","","","","","",""
"","","","","","html-keyboard-response","146","384475","0.0-21.0-2.10","76a1ad7d-b5cb-4968-abdb-e4fbe5079a2c","null","<p style=""text-align: center;"">+</p>","null","fixation","","","","","","","","","","","","","","","","","","","","","",""
"","","","","","html-slider-response","147","385491","0.0-21.0-0.11","76a1ad7d-b5cb-4968-abdb-e4fbe5079a2c","1000","
                  <p style=""text-align: center;"">₪61
                                                <br>55%</p>
                  <p id=""wtp"" style=""text-align:center; margin-top: 0px; margin-bottom: 0px; font-size: 40px"";>&ensp;</p>","-","viewing","0","23","7B,26B","","","","","","","","","","","","","","","","","","",""
"","","","","","html-slider-response","148","388186","0.0-21.0-1.11","76a1ad7d-b5cb-4968-abdb-e4fbe5079a2c","2693","
                  <p style=""text-align: center;"">₪61
                                                <br>55%</p>
                  <p id=""wtp"" style=""text-align:center; margin-top: 0px; margin-bottom: 0px; font-size: 40px"";>מוכנים לשלם: <span id=""c_p_y""></span></p>","24","evaluation","36","23","7B,26B","55","61","24","","","","","","","","","","","","","","","",""
"","","","","","html-keyboard-response","149","388962","0.0-21.0-2.11","76a1ad7d-b5cb-4968-abdb-e4fbe5079a2c","null","<p style=""text-align: center;"">+</p>","null","fixation","","","","","","","","","","","","","","","","","","","","","",""
"","","","","","html-slider-response","150","389964","0.0-21.0-0.12","76a1ad7d-b5cb-4968-abdb-e4fbe5079a2c","1000","
                  <p style=""text-align: center;"">₪61
                                                <br>45%</p>
                  <p id=""wtp"" style=""text-align:center; margin-top: 0px; margin-bottom: 0px; font-size: 40px"";>&ensp;</p>","-","viewing","0","22","10A,11A","","","","","","","","","","","","","","","","","","",""
"","","","","","html-slider-response","151","391858","0.0-21.0-1.12","76a1ad7d-b5cb-4968-abdb-e4fbe5079a2c","1892","
                  <p style=""text-align: center;"">₪61
                                                <br>45%</p>
                  <p id=""wtp"" style=""text-align:center; margin-top: 0px; margin-bottom: 0px; font-size: 40px"";>מוכנים לשלם: <span id=""c_p_y""></span></p>","21","evaluation","57","22","10A,11A","45","61","22","","","","","","","","","","","","","","","",""
"","","","","","html-keyboard-response","152","393128","0.0-21.0-2.12","76a1ad7d-b5cb-4968-abdb-e4fbe5079a2c","null","<p style=""text-align: center;"">+</p>","null","fixation","","","","","","","","","","","","","","","","","","","","","",""
"","","","","","html-slider-response","153","394136","0.0-21.0-0.13","76a1ad7d-b5cb-4968-abdb-e4fbe5079a2c","1000","
                  <p style=""text-align: center;"">₪39
                                                <br>60%</p>
                  <p id=""wtp"" style=""text-align:center; margin-top: 0px; margin-bottom: 0px; font-size: 40px"";>&ensp;</p>","-","viewing","0","15","9C,25B","","","","","","","","","","","","","","","","","","",""
"","","","","","html-slider-response","154","395866","0.0-21.0-1.13","76a1ad7d-b5cb-4968-abdb-e4fbe5079a2c","1728","
                  <p style=""text-align: center;"">₪39
                                                <br>60%</p>
                  <p id=""wtp"" style=""text-align:center; margin-top: 0px; margin-bottom: 0px; font-size: 40px"";>מוכנים לשלם: <span id=""c_p_y""></span></p>","20","evaluation","29","15","9C,25B","60","39","20","","","","","","","","","","","","","","","",""
"","","","","","html-keyboard-response","155","396783","0.0-21.0-2.13","76a1ad7d-b5cb-4968-abdb-e4fbe5079a2c","null","<p style=""text-align: center;"">+</p>","null","fixation","","","","","","","","","","","","","","","","","","","","","",""
"","","","","","html-slider-response","156","397785","0.0-21.0-0.14","76a1ad7d-b5cb-4968-abdb-e4fbe5079a2c","1000","
                  <p style=""text-align: center;"">₪4
                                                <br>50%</p>
                  <p id=""wtp"" style=""text-align:center; margin-top: 0px; margin-bottom: 0px; font-size: 40px"";>&ensp;</p>","-","viewing","0","2","4C,17B","","","","","","","","","","","","","","","","","","",""
"","","","","","html-slider-response","157","399506","0.0-21.0-1.14","76a1ad7d-b5cb-4968-abdb-e4fbe5079a2c","1720","
                  <p style=""text-align: center;"">₪4
                                                <br>50%</p>
                  <p id=""wtp"" style=""text-align:center; margin-top: 0px; margin-bottom: 0px; font-size: 40px"";>מוכנים לשלם: <span id=""c_p_y""></span></p>","2","evaluation","5","2","4C,17B","50","4","3","","","","","","","","","","","","","","","",""
"","","","","","html-keyboard-response","158","400478","0.0-21.0-2.14","76a1ad7d-b5cb-4968-abdb-e4fbe5079a2c","null","<p style=""text-align: center;"">+</p>","null","fixation","","","","","","","","","","","","","","","","","","","","","",""
"","","","","","html-slider-response","159","401480","0.0-21.0-0.15","76a1ad7d-b5cb-4968-abdb-e4fbe5079a2c","1000","
                  <p style=""text-align: center;"">₪76
                                                <br>65%</p>
                  <p id=""wtp"" style=""text-align:center; margin-top: 0px; margin-bottom: 0px; font-size: 40px"";>&ensp;</p>","-","viewing","0","29","8C,19A,24B","","","","","","","","","","","","","","","","","","",""
"","","","","","html-slider-response","160","405483","0.0-21.0-1.15","76a1ad7d-b5cb-4968-abdb-e4fbe5079a2c","null","
                  <p style=""text-align: center;"">₪76
                                                <br>65%</p>
                  <p id=""wtp"" style=""text-align:center; margin-top: 0px; margin-bottom: 0px; font-size: 40px"";>מוכנים לשלם: <span id=""c_p_y""></span></p>","null","evaluation","7","29","8C,19A,24B","65","76","24","","","","","","","","","","","","","","","",""
"","","","","","html-keyboard-response","161","406529","0.0-21.0-2.15","76a1ad7d-b5cb-4968-abdb-e4fbe5079a2c","null","<p style=""text-align: center;"">+</p>","null","fixation","","","","","","","","","","","","","","","","","","","","","",""
"","","","","","html-slider-response","162","407532","0.0-21.0-0.16","76a1ad7d-b5cb-4968-abdb-e4fbe5079a2c","1000","
                  <p style=""text-align: center;"">₪58
                                                <br>30%</p>
                  <p id=""wtp"" style=""text-align:center; margin-top: 0px; margin-bottom: 0px; font-size: 40px"";>&ensp;</p>","-","viewing","0","19","13C,30A","","","","","","","","","","","","","","","","","","",""
"","","","","","html-slider-response","163","410418","0.0-21.0-1.16","76a1ad7d-b5cb-4968-abdb-e4fbe5079a2c","2884","
                  <p style=""text-align: center;"">₪58
                                                <br>30%</p>
                  <p id=""wtp"" style=""text-align:center; margin-top: 0px; margin-bottom: 0px; font-size: 40px"";>מוכנים לשלם: <span id=""c_p_y""></span></p>","11","evaluation","2","19","13C,30A","30","58","11","","","","","","","","","","","","","","","",""
"","","","","","html-keyboard-response","164","411687","0.0-21.0-2.16","76a1ad7d-b5cb-4968-abdb-e4fbe5079a2c","null","<p style=""text-align: center;"">+</p>","null","fixation","","","","","","","","","","","","","","","","","","","","","",""
"","","","","","html-slider-response","165","412690","0.0-21.0-0.17","76a1ad7d-b5cb-4968-abdb-e4fbe5079a2c","1000","
                  <p style=""text-align: center;"">₪18
                                                <br>25%</p>
                  <p id=""wtp"" style=""text-align:center; margin-top: 0px; margin-bottom: 0px; font-size: 40px"";>&ensp;</p>","-","viewing","0","9","14A,23A","","","","","","","","","","","","","","","","","","",""
"","","","","","html-slider-response","166","414673","0.0-21.0-1.17","76a1ad7d-b5cb-4968-abdb-e4fbe5079a2c","1982","
                  <p style=""text-align: center;"">₪18
                                                <br>25%</p>
                  <p id=""wtp"" style=""text-align:center; margin-top: 0px; margin-bottom: 0px; font-size: 40px"";>מוכנים לשלם: <span id=""c_p_y""></span></p>","5","evaluation","38","9","14A,23A","25","18","5","","","","","","","","","","","","","","","",""
"","","","","","html-keyboard-response","167","415229","0.0-21.0-2.17","76a1ad7d-b5cb-4968-abdb-e4fbe5079a2c","null","<p style=""text-align: center;"">+</p>","null","fixation","","","","","","","","","","","","","","","","","","","","","",""
"","","","","","html-slider-response","168","416232","0.0-21.0-0.18","76a1ad7d-b5cb-4968-abdb-e4fbe5079a2c","1000","
                  <p style=""text-align: center;"">₪79
                                                <br>40%</p>
                  <p id=""wtp"" style=""text-align:center; margin-top: 0px; margin-bottom: 0px; font-size: 40px"";>&ensp;</p>","-","viewing","0","30","9B","","","","","","","","","","","","","","","","","","",""
"","","","","","html-slider-response","169","417426","0.0-21.0-1.18","76a1ad7d-b5cb-4968-abdb-e4fbe5079a2c","1192","
                  <p style=""text-align: center;"">₪79
                                                <br>40%</p>
                  <p id=""wtp"" style=""text-align:center; margin-top: 0px; margin-bottom: 0px; font-size: 40px"";>מוכנים לשלם: <span id=""c_p_y""></span></p>","19","evaluation","13","30","9B","40","79","19","","","","","","","","","","","","","","","",""
"","","","","","html-keyboard-response","170","418635","0.0-21.0-2.18","76a1ad7d-b5cb-4968-abdb-e4fbe5079a2c","null","<p style=""text-align: center;"">+</p>","null","fixation","","","","","","","","","","","","","","","","","","","","","",""
"","","","","","html-slider-response","171","419640","0.0-21.0-0.19","76a1ad7d-b5cb-4968-abdb-e4fbe5079a2c","1000","
                  <p style=""text-align: center;"">₪36
                                                <br>30%</p>
                  <p id=""wtp"" style=""text-align:center; margin-top: 0px; margin-bottom: 0px; font-size: 40px"";>&ensp;</p>","-","viewing","0","11","3C,20A,22A","","","","","","","","","","","","","","","","","","",""
"","","","","","html-slider-response","172","421673","0.0-21.0-1.19","76a1ad7d-b5cb-4968-abdb-e4fbe5079a2c","2031","
                  <p style=""text-align: center;"">₪36
                                                <br>30%</p>
                  <p id=""wtp"" style=""text-align:center; margin-top: 0px; margin-bottom: 0px; font-size: 40px"";>מוכנים לשלם: <span id=""c_p_y""></span></p>","8","evaluation","18","11","3C,20A,22A","30","36","8","","","","","","","","","","","","","","","",""
"","","","","","html-keyboard-response","173","423103","0.0-21.0-2.19","76a1ad7d-b5cb-4968-abdb-e4fbe5079a2c","null","<p style=""text-align: center;"">+</p>","null","fixation","","","","","","","","","","","","","","","","","","","","","",""
"","","","","","html-slider-response","174","424105","0.0-21.0-0.20","76a1ad7d-b5cb-4968-abdb-e4fbe5079a2c","1000","
                  <p style=""text-align: center;"">₪4
                                                <br>75%</p>
                  <p id=""wtp"" style=""text-align:center; margin-top: 0px; margin-bottom: 0px; font-size: 40px"";>&ensp;</p>","-","viewing","0","3","12B,20B,23B,27C,29C","","","","","","","","","","","","","","","","","","",""
"","","","","","html-slider-response","175","427289","0.0-21.0-1.20","76a1ad7d-b5cb-4968-abdb-e4fbe5079a2c","3183","
                  <p style=""text-align: center;"">₪4
                                                <br>75%</p>
                  <p id=""wtp"" style=""text-align:center; margin-top: 0px; margin-bottom: 0px; font-size: 40px"";>מוכנים לשלם: <span id=""c_p_y""></span></p>","0","evaluation","61","3","12B,20B,23B,27C,29C","75","4","0","","","","","","","","","","","","","","","",""
"","","","","","html-keyboard-response","176","428543","0.0-21.0-2.20","76a1ad7d-b5cb-4968-abdb-e4fbe5079a2c","null","<p style=""text-align: center;"">+</p>","null","fixation","","","","","","","","","","","","","","","","","","","","","",""
"","","","","","html-slider-response","177","429545","0.0-21.0-0.21","76a1ad7d-b5cb-4968-abdb-e4fbe5079a2c","1000","
                  <p style=""text-align: center;"">₪11
                                                <br>25%</p>
                  <p id=""wtp"" style=""text-align:center; margin-top: 0px; margin-bottom: 0px; font-size: 40px"";>&ensp;</p>","-","viewing","0","5","12A,27B,28B,30B","","","","","","","","","","","","","","","","","","",""
"","","","","","html-slider-response","178","432521","0.0-21.0-1.21","76a1ad7d-b5cb-4968-abdb-e4fbe5079a2c","2974","
                  <p style=""text-align: center;"">₪11
                                                <br>25%</p>
                  <p id=""wtp"" style=""text-align:center; margin-top: 0px; margin-bottom: 0px; font-size: 40px"";>מוכנים לשלם: <span id=""c_p_y""></span></p>","7","evaluation","32","5","12A,27B,28B,30B","25","11","7","","","","","","","","","","","","","","","",""
"","","","","","html-keyboard-response","179","433677","0.0-21.0-2.21","76a1ad7d-b5cb-4968-abdb-e4fbe5079a2c","null","<p style=""text-align: center;"">+</p>","null","fixation","","","","","","","","","","","","","","","","","","","","","",""
"","","","","","html-slider-response","180","434693","0.0-21.0-0.22","76a1ad7d-b5cb-4968-abdb-e4fbe5079a2c","1000","
                  <p style=""text-align: center;"">₪11
                                                <br>75%</p>
                  <p id=""wtp"" style=""text-align:center; margin-top: 0px; margin-bottom: 0px; font-size: 40px"";>&ensp;</p>","-","viewing","0","7","6B,18B,22C,24C,29A","","","","","","","","","","","","","","","","","","",""
"","","","","","html-slider-response","181","436153","0.0-21.0-1.22","76a1ad7d-b5cb-4968-abdb-e4fbe5079a2c","1458","
                  <p style=""text-align: center;"">₪11
                                                <br>75%</p>
                  <p id=""wtp"" style=""text-align:center; margin-top: 0px; margin-bottom: 0px; font-size: 40px"";>מוכנים לשלם: <span id=""c_p_y""></span></p>","8","evaluation","47","7","6B,18B,22C,24C,29A","75","11","8","","","","","","","","","","","","","","","",""
"","","","","","html-keyboard-response","182","437616","0.0-21.0-2.22","76a1ad7d-b5cb-4968-abdb-e4fbe5079a2c","null","<p style=""text-align: center;"">+</p>","null","fixation","","","","","","","","","","","","","","","","","","","","","",""
"","","","","","html-slider-response","183","438618","0.0-21.0-0.23","76a1ad7d-b5cb-4968-abdb-e4fbe5079a2c","1000","
                  <p style=""text-align: center;"">₪43
                                                <br>60%</p>
                  <p id=""wtp"" style=""text-align:center; margin-top: 0px; margin-bottom: 0px; font-size: 40px"";>&ensp;</p>","-","viewing","0","17","2A,7A,9A,15B","","","","","","","","","","","","","","","","","","",""
"","","","","","html-slider-response","184","440913","0.0-21.0-1.23","76a1ad7d-b5cb-4968-abdb-e4fbe5079a2c","2293","
                  <p style=""text-align: center;"">₪43
                                                <br>60%</p>
                  <p id=""wtp"" style=""text-align:center; margin-top: 0px; margin-bottom: 0px; font-size: 40px"";>מוכנים לשלם: <span id=""c_p_y""></span></p>","14","evaluation","49","17","2A,7A,9A,15B","60","43","14","","","","","","","","","","","","","","","",""
"","","","","","html-keyboard-response","185","441515","0.0-21.0-2.23","76a1ad7d-b5cb-4968-abdb-e4fbe5079a2c","null","<p style=""text-align: center;"">+</p>","null","fixation","","","","","","","","","","","","","","","","","","","","","",""
"","","","","","html-slider-response","186","442518","0.0-21.0-0.24","76a1ad7d-b5cb-4968-abdb-e4fbe5079a2c","1000","
                  <p style=""text-align: center;"">₪36
                                                <br>60%</p>
                  <p id=""wtp"" style=""text-align:center; margin-top: 0px; margin-bottom: 0px; font-size: 40px"";>&ensp;</p>","-","viewing","0","12","1C,7C,15C","","","","","","","","","","","","","","","","","","",""
"","","","","","html-slider-response","187","444585","0.0-21.0-1.24","76a1ad7d-b5cb-4968-abdb-e4fbe5079a2c","2066","
                  <p style=""text-align: center;"">₪36
                                                <br>60%</p>
                  <p id=""wtp"" style=""text-align:center; margin-top: 0px; margin-bottom: 0px; font-size: 40px"";>מוכנים לשלם: <span id=""c_p_y""></span></p>","20","evaluation","32","12","1C,7C,15C","60","36","20","","","","","","","","","","","","","","","",""
"","","","","","html-keyboard-response","188","445733","0.0-21.0-2.24","76a1ad7d-b5cb-4968-abdb-e4fbe5079a2c","null","<p style=""text-align: center;"">+</p>","null","fixation","","","","","","","","","","","","","","","","","","","","","",""
"","","","","","html-slider-response","189","446750","0.0-21.0-0.25","76a1ad7d-b5cb-4968-abdb-e4fbe5079a2c","1000","
                  <p style=""text-align: center;"">₪36
                                                <br>75%</p>
                  <p id=""wtp"" style=""text-align:center; margin-top: 0px; margin-bottom: 0px; font-size: 40px"";>&ensp;</p>","-","viewing","0","14","4B,5A,13B,16B","","","","","","","","","","","","","","","","","","",""
"","","","","","html-slider-response","190","450129","0.0-21.0-1.25","76a1ad7d-b5cb-4968-abdb-e4fbe5079a2c","3378","
                  <p style=""text-align: center;"">₪36
                                                <br>75%</p>
                  <p id=""wtp"" style=""text-align:center; margin-top: 0px; margin-bottom: 0px; font-size: 40px"";>מוכנים לשלם: <span id=""c_p_y""></span></p>","30","evaluation","8","14","4B,5A,13B,16B","75","36","30","","","","","","","","","","","","","","","",""
"","","","","","html-keyboard-response","191","451359","0.0-21.0-2.25","76a1ad7d-b5cb-4968-abdb-e4fbe5079a2c","null","<p style=""text-align: center;"">+</p>","null","fixation","","","","","","","","","","","","","","","","","","","","","",""
"","","","","","html-slider-response","192","452373","0.0-21.0-0.26","76a1ad7d-b5cb-4968-abdb-e4fbe5079a2c","1000","
                  <p style=""text-align: center;"">₪43
                                                <br>75%</p>
                  <p id=""wtp"" style=""text-align:center; margin-top: 0px; margin-bottom: 0px; font-size: 40px"";>&ensp;</p>","-","viewing","0","18","11B,19B,24A,26A","","","","","","","","","","","","","","","","","","",""
"","","","","","html-slider-response","193","454521","0.0-21.0-1.26","76a1ad7d-b5cb-4968-abdb-e4fbe5079a2c","2147","
                  <p style=""text-align: center;"">₪43
                                                <br>75%</p>
                  <p id=""wtp"" style=""text-align:center; margin-top: 0px; margin-bottom: 0px; font-size: 40px"";>מוכנים לשלם: <span id=""c_p_y""></span></p>","29","evaluation","42","18","11B,19B,24A,26A","75","43","29","","","","","","","","","","","","","","","",""
"","","","","","html-keyboard-response","194","455867","0.0-21.0-2.26","76a1ad7d-b5cb-4968-abdb-e4fbe5079a2c","null","<p style=""text-align: center;"">+</p>","null","fixation","","","","","","","","","","","","","","","","","","","","","",""
"","","","","","html-slider-response","195","456883","0.0-21.0-0.27","76a1ad7d-b5cb-4968-abdb-e4fbe5079a2c","1000","
                  <p style=""text-align: center;"">₪18
                                                <br>50%</p>
                  <p id=""wtp"" style=""text-align:center; margin-top: 0px; margin-bottom: 0px; font-size: 40px"";>&ensp;</p>","-","viewing","0","10","2C,16C,22B,28A","","","","","","","","","","","","","","","","","","",""
"","","","","","html-slider-response","196","460809","0.0-21.0-1.27","76a1ad7d-b5cb-4968-abdb-e4fbe5079a2c","3924","
                  <p style=""text-align: center;"">₪18
                                                <br>50%</p>
                  <p id=""wtp"" style=""text-align:center; margin-top: 0px; margin-bottom: 0px; font-size: 40px"";>מוכנים לשלם: <span id=""c_p_y""></span></p>","8","evaluation","19","10","2C,16C,22B,28A","50","18","9","","","","","","","","","","","","","","","",""
"","","","","","html-keyboard-response","197","461994","0.0-21.0-2.27","76a1ad7d-b5cb-4968-abdb-e4fbe5079a2c","null","<p style=""text-align: center;"">+</p>","null","fixation","","","","","","","","","","","","","","","","","","","","","",""
"","","","","","html-slider-response","198","462995","0.0-21.0-0.28","76a1ad7d-b5cb-4968-abdb-e4fbe5079a2c","1000","
                  <p style=""text-align: center;"">₪79
                                                <br>65%</p>
                  <p id=""wtp"" style=""text-align:center; margin-top: 0px; margin-bottom: 0px; font-size: 40px"";>&ensp;</p>","-","viewing","0","31","8A","","","","","","","","","","","","","","","","","","",""
"","","","","","html-slider-response","199","466417","0.0-21.0-1.28","76a1ad7d-b5cb-4968-abdb-e4fbe5079a2c","3421","
                  <p style=""text-align: center;"">₪79
                                                <br>65%</p>
                  <p id=""wtp"" style=""text-align:center; margin-top: 0px; margin-bottom: 0px; font-size: 40px"";>מוכנים לשלם: <span id=""c_p_y""></span></p>","41","evaluation","45","31","8A","65","79","41","","","","","","","","","","","","","","","",""
"","","","","","html-keyboard-response","200","466959","0.0-21.0-2.28","76a1ad7d-b5cb-4968-abdb-e4fbe5079a2c","null","<p style=""text-align: center;"">+</p>","null","fixation","","","","","","","","","","","","","","","","","","","","","",""
"","","","","","html-slider-response","201","467970","0.0-21.0-0.29","76a1ad7d-b5cb-4968-abdb-e4fbe5079a2c","1000","
                  <p style=""text-align: center;"">₪11
                                                <br>45%</p>
                  <p id=""wtp"" style=""text-align:center; margin-top: 0px; margin-bottom: 0px; font-size: 40px"";>&ensp;</p>","-","viewing","0","6","14B,21C,25C","","","","","","","","","","","","","","","","","","",""
"","","","","","html-slider-response","202","469953","0.0-21.0-1.29","76a1ad7d-b5cb-4968-abdb-e4fbe5079a2c","1982","
                  <p style=""text-align: center;"">₪11
                                                <br>45%</p>
                  <p id=""wtp"" style=""text-align:center; margin-top: 0px; margin-bottom: 0px; font-size: 40px"";>מוכנים לשלם: <span id=""c_p_y""></span></p>","4","evaluation","35","6","14B,21C,25C","45","11","5","","","","","","","","","","","","","","","",""
"","","","","","html-keyboard-response","203","470876","0.0-21.0-2.29","76a1ad7d-b5cb-4968-abdb-e4fbe5079a2c","null","<p style=""text-align: center;"">+</p>","null","fixation","","","","","","","","","","","","","","","","","","","","","",""
"","","","","","html-slider-response","204","471893","0.0-21.0-0.30","76a1ad7d-b5cb-4968-abdb-e4fbe5079a2c","1000","
                  <p style=""text-align: center;"">₪71
                                                <br>75%</p>
                  <p id=""wtp"" style=""text-align:center; margin-top: 0px; margin-bottom: 0px; font-size: 40px"";>&ensp;</p>","-","viewing","0","28","8B","","","","","","","","","","","","","","","","","","",""
"","","","","","html-slider-response","205","474409","0.0-21.0-1.30","76a1ad7d-b5cb-4968-abdb-e4fbe5079a2c","2516","
                  <p style=""text-align: center;"">₪71
                                                <br>75%</p>
                  <p id=""wtp"" style=""text-align:center; margin-top: 0px; margin-bottom: 0px; font-size: 40px"";>מוכנים לשלם: <span id=""c_p_y""></span></p>","35","evaluation","13","28","8B","75","71","35","","","","","","","","","","","","","","","",""
"","","","","","html-keyboard-response","206","475076","0.0-21.0-2.30","76a1ad7d-b5cb-4968-abdb-e4fbe5079a2c","null","<p style=""text-align: center;"">+</p>","null","fixation","","","","","","","","","","","","","","","","","","","","","",""
"","","","","","html-keyboard-response","207","476077","0.0-22.0","76a1ad7d-b5cb-4968-abdb-e4fbe5079a2c","null","<p style=""text-align: center;"">+</p>","null","fixation","","","","","","","","","","","","","","","","","","","","","",""
"","","","","","html-keyboard-response","208","483569","0.0-23.0","76a1ad7d-b5cb-4968-abdb-e4fbe5079a2c","null","<p>הפסקה.
          <br>לחצו כדי להמשיך.</p>","1","scan_wait","","","","","","","","","","","","","","","","","","","","","",""
"","","","","","html-keyboard-response","209","484571","0.0-24.0","76a1ad7d-b5cb-4968-abdb-e4fbe5079a2c","null","<p style=""text-align: center;"">+</p>","null","fixation","","","","","","","","","","","","","","","","","","","","","",""
"","","","","","html-slider-response","210","485579","0.0-25.0-0.0","76a1ad7d-b5cb-4968-abdb-e4fbe5079a2c","1000","
                  <p style=""text-align: center;"">₪43
                                                <br>60%</p>
                  <p id=""wtp"" style=""text-align:center; margin-top: 0px; margin-bottom: 0px; font-size: 40px"";>&ensp;</p>","-","viewing","0","17","2A,7A,9A,15B","","","","","","","","","","","","","","","","","","",""
"","","","","","html-slider-response","211","487962","0.0-25.0-1.0","76a1ad7d-b5cb-4968-abdb-e4fbe5079a2c","2381","
                  <p style=""text-align: center;"">₪43
                                                <br>60%</p>
                  <p id=""wtp"" style=""text-align:center; margin-top: 0px; margin-bottom: 0px; font-size: 40px"";>מוכנים לשלם: <span id=""c_p_y""></span></p>","30","evaluation","58","17","2A,7A,9A,15B","60","43","30","","","","","","","","","","","","","","","",""
"","","","","","html-keyboard-response","212","488822","0.0-25.0-2.0","76a1ad7d-b5cb-4968-abdb-e4fbe5079a2c","null","<p style=""text-align: center;"">+</p>","null","fixation","","","","","","","","","","","","","","","","","","","","","",""
"","","","","","html-slider-response","213","489829","0.0-25.0-0.1","76a1ad7d-b5cb-4968-abdb-e4fbe5079a2c","1000","
                  <p style=""text-align: center;"">₪64
                                                <br>25%</p>
                  <p id=""wtp"" style=""text-align:center; margin-top: 0px; margin-bottom: 0px; font-size: 40px"";>&ensp;</p>","-","viewing","0","24","6A,21A","","","","","","","","","","","","","","","","","","",""
"","","","","","html-slider-response","214","491810","0.0-25.0-1.1","76a1ad7d-b5cb-4968-abdb-e4fbe5079a2c","1980","
                  <p style=""text-align: center;"">₪64
                                                <br>25%</p>
                  <p id=""wtp"" style=""text-align:center; margin-top: 0px; margin-bottom: 0px; font-size: 40px"";>מוכנים לשלם: <span id=""c_p_y""></span></p>","15","evaluation","67","24","6A,21A","25","64","15","","","","","","","","","","","","","","","",""
"","","","","","html-keyboard-response","215","492679","0.0-25.0-2.1","76a1ad7d-b5cb-4968-abdb-e4fbe5079a2c","null","<p style=""text-align: center;"">+</p>","null","fixation","","","","","","","","","","","","","","","","","","","","","",""
"","","","","","html-slider-response","216","493695","0.0-25.0-0.2","76a1ad7d-b5cb-4968-abdb-e4fbe5079a2c","1000","
                  <p style=""text-align: center;"">₪11
                                                <br>75%</p>
                  <p id=""wtp"" style=""text-align:center; margin-top: 0px; margin-bottom: 0px; font-size: 40px"";>&ensp;</p>","-","viewing","0","7","6B,18B,22C,24C,29A","","","","","","","","","","","","","","","","","","",""
"","","","","","html-slider-response","217","496594","0.0-25.0-1.2","76a1ad7d-b5cb-4968-abdb-e4fbe5079a2c","2898","
                  <p style=""text-align: center;"">₪11
                                                <br>75%</p>
                  <p id=""wtp"" style=""text-align:center; margin-top: 0px; margin-bottom: 0px; font-size: 40px"";>מוכנים לשלם: <span id=""c_p_y""></span></p>","7","evaluation","47","7","6B,18B,22C,24C,29A","75","11","7","","","","","","","","","","","","","","","",""
"","","","","","html-keyboard-response","218","497879","0.0-25.0-2.2","76a1ad7d-b5cb-4968-abdb-e4fbe5079a2c","null","<p style=""text-align: center;"">+</p>","null","fixation","","","","","","","","","","","","","","","","","","","","","",""
"","","","","","html-slider-response","219","498881","0.0-25.0-0.3","76a1ad7d-b5cb-4968-abdb-e4fbe5079a2c","1000","
                  <p style=""text-align: center;"">₪58
                                                <br>40%</p>
                  <p id=""wtp"" style=""text-align:center; margin-top: 0px; margin-bottom: 0px; font-size: 40px"";>&ensp;</p>","-","viewing","0","20","10C,13A,19C,21B","","","","","","","","","","","","","","","","","","",""
"","","","","","html-slider-response","220","502018","0.0-25.0-1.3","76a1ad7d-b5cb-4968-abdb-e4fbe5079a2c","3136","
                  <p style=""text-align: center;"">₪58
                                                <br>40%</p>
                  <p id=""wtp"" style=""text-align:center; margin-top: 0px; margin-bottom: 0px; font-size: 40px"";>מוכנים לשלם: <span id=""c_p_y""></span></p>","11","evaluation","47","20","10C,13A,19C,21B","40","58","12","","","","","","","","","","","","","","","",""
"","","","","","html-keyboard-response","221","502799","0.0-25.0-2.3","76a1ad7d-b5cb-4968-abdb-e4fbe5079a2c","null","<p style=""text-align: center;"">+</p>","null","fixation","","","","","","","","","","","","","","","","","","","","","",""
"","","","","","html-slider-response","222","503803","0.0-25.0-0.4","76a1ad7d-b5cb-4968-abdb-e4fbe5079a2c","1000","
                  <p style=""text-align: center;"">₪61
                                                <br>45%</p>
                  <p id=""wtp"" style=""text-align:center; margin-top: 0px; margin-bottom: 0px; font-size: 40px"";>&ensp;</p>","-","viewing","0","22","10A,11A","","","","","","","","","","","","","","","","","","",""
"","","","","","html-slider-response","223","505898","0.0-25.0-1.4","76a1ad7d-b5cb-4968-abdb-e4fbe5079a2c","2093","
                  <p style=""text-align: center;"">₪61
                                                <br>45%</p>
                  <p id=""wtp"" style=""text-align:center; margin-top: 0px; margin-bottom: 0px; font-size: 40px"";>מוכנים לשלם: <span id=""c_p_y""></span></p>","12","evaluation","47","22","10A,11A","45","61","12","","","","","","","","","","","","","","","",""
"","","","","","html-keyboard-response","224","507062","0.0-25.0-2.4","76a1ad7d-b5cb-4968-abdb-e4fbe5079a2c","null","<p style=""text-align: center;"">+</p>","null","fixation","","","","","","","","","","","","","","","","","","","","","",""
"","","","","","html-slider-response","225","508064","0.0-25.0-0.5","76a1ad7d-b5cb-4968-abdb-e4fbe5079a2c","1000","
                  <p style=""text-align: center;"">₪58
                                                <br>30%</p>
                  <p id=""wtp"" style=""text-align:center; margin-top: 0px; margin-bottom: 0px; font-size: 40px"";>&ensp;</p>","-","viewing","0","19","13C,30A","","","","","","","","","","","","","","","","","","",""
"","","","","","html-slider-response","226","509642","0.0-25.0-1.5","76a1ad7d-b5cb-4968-abdb-e4fbe5079a2c","1577","
                  <p style=""text-align: center;"">₪58
                                                <br>30%</p>
                  <p id=""wtp"" style=""text-align:center; margin-top: 0px; margin-bottom: 0px; font-size: 40px"";>מוכנים לשלם: <span id=""c_p_y""></span></p>","16","evaluation","54","19","13C,30A","30","58","17","","","","","","","","","","","","","","","",""
"","","","","","html-keyboard-response","227","510538","0.0-25.0-2.5","76a1ad7d-b5cb-4968-abdb-e4fbe5079a2c","null","<p style=""text-align: center;"">+</p>","null","fixation","","","","","","","","","","","","","","","","","","","","","",""
"","","","","","html-slider-response","228","511540","0.0-25.0-0.6","76a1ad7d-b5cb-4968-abdb-e4fbe5079a2c","1000","
                  <p style=""text-align: center;"">₪39
                                                <br>65%</p>
                  <p id=""wtp"" style=""text-align:center; margin-top: 0px; margin-bottom: 0px; font-size: 40px"";>&ensp;</p>","-","viewing","0","16","1A,15A,26C","","","","","","","","","","","","","","","","","","",""
"","","","","","html-slider-response","229","514442","0.0-25.0-1.6","76a1ad7d-b5cb-4968-abdb-e4fbe5079a2c","2901","
                  <p style=""text-align: center;"">₪39
                                                <br>65%</p>
                  <p id=""wtp"" style=""text-align:center; margin-top: 0px; margin-bottom: 0px; font-size: 40px"";>מוכנים לשלם: <span id=""c_p_y""></span></p>","27","evaluation","29","16","1A,15A,26C","65","39","27","","","","","","","","","","","","","","","",""
"","","","","","html-keyboard-response","230","515812","0.0-25.0-2.6","76a1ad7d-b5cb-4968-abdb-e4fbe5079a2c","null","<p style=""text-align: center;"">+</p>","null","fixation","","","","","","","","","","","","","","","","","","","","","",""
"","","","","","html-slider-response","231","516814","0.0-25.0-0.7","76a1ad7d-b5cb-4968-abdb-e4fbe5079a2c","1000","
                  <p style=""text-align: center;"">₪71
                                                <br>55%</p>
                  <p id=""wtp"" style=""text-align:center; margin-top: 0px; margin-bottom: 0px; font-size: 40px"";>&ensp;</p>","-","viewing","0","27","5B,18A","","","","","","","","","","","","","","","","","","",""
"","","","","","html-slider-response","232","519930","0.0-25.0-1.7","76a1ad7d-b5cb-4968-abdb-e4fbe5079a2c","3114","
                  <p style=""text-align: center;"">₪71
                                                <br>55%</p>
                  <p id=""wtp"" style=""text-align:center; margin-top: 0px; margin-bottom: 0px; font-size: 40px"";>מוכנים לשלם: <span id=""c_p_y""></span></p>","38","evaluation","19","27","5B,18A","55","71","38","","","","","","","","","","","","","","","",""
"","","","","","html-keyboard-response","233","520986","0.0-25.0-2.7","76a1ad7d-b5cb-4968-abdb-e4fbe5079a2c","null","<p style=""text-align: center;"">+</p>","null","fixation","","","","","","","","","","","","","","","","","","","","","",""
"","","","","","html-slider-response","234","521995","0.0-25.0-0.8","76a1ad7d-b5cb-4968-abdb-e4fbe5079a2c","1000","
                  <p style=""text-align: center;"">₪61
                                                <br>55%</p>
                  <p id=""wtp"" style=""text-align:center; margin-top: 0px; margin-bottom: 0px; font-size: 40px"";>&ensp;</p>","-","viewing","0","23","7B,26B","","","","","","","","","","","","","","","","","","",""
"","","","","","html-slider-response","235","524458","0.0-25.0-1.8","76a1ad7d-b5cb-4968-abdb-e4fbe5079a2c","2460","
                  <p style=""text-align: center;"">₪61
                                                <br>55%</p>
                  <p id=""wtp"" style=""text-align:center; margin-top: 0px; margin-bottom: 0px; font-size: 40px"";>מוכנים לשלם: <span id=""c_p_y""></span></p>","32","evaluation","24","23","7B,26B","55","61","32","","","","","","","","","","","","","","","",""
"","","","","","html-keyboard-response","236","525041","0.0-25.0-2.8","76a1ad7d-b5cb-4968-abdb-e4fbe5079a2c","null","<p style=""text-align: center;"">+</p>","null","fixation","","","","","","","","","","","","","","","","","","","","","",""
"","","","","","html-slider-response","237","526058","0.0-25.0-0.9","76a1ad7d-b5cb-4968-abdb-e4fbe5079a2c","1000","
                  <p style=""text-align: center;"">₪71
                                                <br>45%</p>
                  <p id=""wtp"" style=""text-align:center; margin-top: 0px; margin-bottom: 0px; font-size: 40px"";>&ensp;</p>","-","viewing","0","26","2B,16A","","","","","","","","","","","","","","","","","","",""
"","","","","","html-slider-response","238","526826","0.0-25.0-1.9","76a1ad7d-b5cb-4968-abdb-e4fbe5079a2c","767","
                  <p style=""text-align: center;"">₪71
                                                <br>45%</p>
                  <p id=""wtp"" style=""text-align:center; margin-top: 0px; margin-bottom: 0px; font-size: 40px"";>מוכנים לשלם: <span id=""c_p_y""></span></p>","21","evaluation","37","26","2B,16A","45","71","21","","","","","","","","","","","","","","","",""
"","","","","","html-keyboard-response","239","527740","0.0-25.0-2.9","76a1ad7d-b5cb-4968-abdb-e4fbe5079a2c","null","<p style=""text-align: center;"">+</p>","null","fixation","","","","","","","","","","","","","","","","","","","","","",""
"","","","","","html-slider-response","240","528743","0.0-25.0-0.10","76a1ad7d-b5cb-4968-abdb-e4fbe5079a2c","1000","
                  <p style=""text-align: center;"">₪76
                                                <br>65%</p>
                  <p id=""wtp"" style=""text-align:center; margin-top: 0px; margin-bottom: 0px; font-size: 40px"";>&ensp;</p>","-","viewing","0","29","8C,19A,24B","","","","","","","","","","","","","","","","","","",""
"","","","","","html-slider-response","241","531210","0.0-25.0-1.10","76a1ad7d-b5cb-4968-abdb-e4fbe5079a2c","2466","
                  <p style=""text-align: center;"">₪76
                                                <br>65%</p>
                  <p id=""wtp"" style=""text-align:center; margin-top: 0px; margin-bottom: 0px; font-size: 40px"";>מוכנים לשלם: <span id=""c_p_y""></span></p>","35","evaluation","21","29","8C,19A,24B","65","76","35","","","","","","","","","","","","","","","",""
"","","","","","html-keyboard-response","242","531901","0.0-25.0-2.10","76a1ad7d-b5cb-4968-abdb-e4fbe5079a2c","null","<p style=""text-align: center;"">+</p>","null","fixation","","","","","","","","","","","","","","","","","","","","","",""
"","","","","","html-slider-response","243","532914","0.0-25.0-0.11","76a1ad7d-b5cb-4968-abdb-e4fbe5079a2c","1000","
                  <p style=""text-align: center;"">₪4
                                                <br>25%</p>
                  <p id=""wtp"" style=""text-align:center; margin-top: 0px; margin-bottom: 0px; font-size: 40px"";>&ensp;</p>","-","viewing","0","1","6C,29B,30C","","","","","","","","","","","","","","","","","","",""
"","","","","","html-slider-response","244","535347","0.0-25.0-1.11","76a1ad7d-b5cb-4968-abdb-e4fbe5079a2c","2431","
                  <p style=""text-align: center;"">₪4
                                                <br>25%</p>
                  <p id=""wtp"" style=""text-align:center; margin-top: 0px; margin-bottom: 0px; font-size: 40px"";>מוכנים לשלם: <span id=""c_p_y""></span></p>","3","evaluation","42","1","6C,29B,30C","25","4","3","","","","","","","","","","","","","","","",""
"","","","","","html-keyboard-response","245","536697","0.0-25.0-2.11","76a1ad7d-b5cb-4968-abdb-e4fbe5079a2c","null","<p style=""text-align: center;"">+</p>","null","fixation","","","","","","","","","","","","","","","","","","","","","",""
"","","","","","html-slider-response","246","537707","0.0-25.0-0.12","76a1ad7d-b5cb-4968-abdb-e4fbe5079a2c","1000","
                  <p style=""text-align: center;"">₪71
                                                <br>75%</p>
                  <p id=""wtp"" style=""text-align:center; margin-top: 0px; margin-bottom: 0px; font-size: 40px"";>&ensp;</p>","-","viewing","0","28","8B","","","","","","","","","","","","","","","","","","",""
"","","","","","html-slider-response","247","540330","0.0-25.0-1.12","76a1ad7d-b5cb-4968-abdb-e4fbe5079a2c","2621","
                  <p style=""text-align: center;"">₪71
                                                <br>75%</p>
                  <p id=""wtp"" style=""text-align:center; margin-top: 0px; margin-bottom: 0px; font-size: 40px"";>מוכנים לשלם: <span id=""c_p_y""></span></p>","37","evaluation","44","28","8B","75","71","37","","","","","","","","","","","","","","","",""
"","","","","","html-keyboard-response","248","541580","0.0-25.0-2.12","76a1ad7d-b5cb-4968-abdb-e4fbe5079a2c","null","<p style=""text-align: center;"">+</p>","null","fixation","","","","","","","","","","","","","","","","","","","","","",""
"","","","","","html-slider-response","249","542584","0.0-25.0-0.13","76a1ad7d-b5cb-4968-abdb-e4fbe5079a2c","1000","
                  <p style=""text-align: center;"">₪4
                                                <br>75%</p>
                  <p id=""wtp"" style=""text-align:center; margin-top: 0px; margin-bottom: 0px; font-size: 40px"";>&ensp;</p>","-","viewing","0","3","12B,20B,23B,27C,29C","","","","","","","","","","","","","","","","","","",""
"","","","","","html-slider-response","250","545483","0.0-25.0-1.13","76a1ad7d-b5cb-4968-abdb-e4fbe5079a2c","2897","
                  <p style=""text-align: center;"">₪4
                                                <br>75%</p>
