"success","timeout","failed_images","failed_audio","failed_video","trial_type","trial_index","time_elapsed","internal_node_id","subject_id","rt","stimulus","response","part","slider_start","ID","set_ID","prob","amount","last_location","actual_choice","actual_EV","binary_id","trinary_id","catch","A_key","D_key","choice_prob","choice_amount","won_prize","potential_prize_amount","potential_prize_prob","total_prize","accuracy"
"true","false","[]","[]","[]","preload","0","12","0.0-0.0","d4838bb8-cd69-4a4f-a16a-088457a5191f","","","","","","","","","","","","","","","","","","","","","","","",""
"","","","","","html-keyboard-response","1","30721","0.0-1.0","d4838bb8-cd69-4a4f-a16a-088457a5191f","null","
          <h1>שלום וברוכים הבאים!</h1>
          <p>לפניכם ניסוי בקבלת החלטות עם שני חלקים.
          <br><br>לחצו על העכבר כדי להמשיך.</p>","0","example","","","","","","","","","","","","","","","","","","","",""
"","","","","","html-keyboard-response","2","41848","0.0-2.0","d4838bb8-cd69-4a4f-a16a-088457a5191f","null","
        <h1>חלק 1</h1>
        <p>בקרוב יוצגו בפניכם הגרלות.
        <br>עליכם לבחור את המחיר המירבי שתהיו מוכנים לשלם כדי להשתתף בהגרלה שתוצג.
        <br>יש לכם תקציב של ₪80 לכל הגרלה. 
        <br>נסו להעריך כל הגרלה בנפרד ולחשוב כמה היא שווה עבורכם, ₪80 זמינים לכל הגרלה בנפרד.
        <br><br>לחצו על העכבר כדי להמשיך.</p>","1","instructions","","","","","","","","","","","","","","","","","","","",""
"","","","","","html-keyboard-response","3","57320","0.0-3.0","d4838bb8-cd69-4a4f-a16a-088457a5191f","null","
        <p>בסוף הניסוי, המחשב יבחר את אחת ההגרלות ויקבע מחיר לכרטיס עבורה. 
        <br>במידה והמחיר שבחרתם נמוך מהמחיר שנבחר על ידי המחשב, לא תשתתפו בהגרלה ותשארו עם מלוא התקציב.
        <br>במידה והמחיר שבחרתם גבוה מהמחיר שנבחר על ידי המחשב, תשלמו את המחיר שנקבע ותשתתפו בהגרלה.
        <br><br>לחצו על העכבר כדי להמשיך.</p>","1","instructions","","","","","","","","","","","","","","","","","","","",""
"","","","","","html-slider-response","4","74024","0.0-4.0","d4838bb8-cd69-4a4f-a16a-088457a5191f","16598","
        <p style=""font-size: 42px;"">נתחיל עם דוגמא: 
        <br>ההגרלה מטה מציעה 65% סיכוי לזכות ב-₪40 
        <br>&emsp;&emsp;&emsp;&emsp;&emsp;&emsp;&emsp;&emsp;&ensp;35% סיכוי לזכות ב-₪0.
        <br><br>מה המחיר המירבי שתהיו מוכנים לשלם על כרטיס להגרלה זו בין 0 ל-₪80?
        <br>הזיזו את העכבר על פני המלבן ולחצו כדי לבצע בחירה.</p>
        
        <p style=""text-align: center;"">₪40<br>65%</p>

        <p id=""wtp"" style=""text-align:center; margin-top: 0px; margin-bottom: 0px; font-size: 40px"";>מוכנים לשלם: <span id=""c_p_y""></span></p>","16","example","29","","","","","","","","","","","","","","","","","","",""
"","","","","","html-keyboard-response","5","81624","0.0-5.0","d4838bb8-cd69-4a4f-a16a-088457a5191f","null","<p>יפה מאוד!
                <br> בחרתם שתהיו מוכנים לשלם ₪16 כדי להשתתף בהגרלה:
                <br><p style=""text-align: center;"">₪40<br>65%</p>
                <p>נשמע נכון?
                <br>נניח שהגרלה זו נבחרה בסוף הניסוי.
                <br>כעת המחשב יקבע מחיר עבורה באקראי.
                <br>לחצו על העכבר להמשך.</p>","1","example","","","","","","","","","","","","","","","","","","","",""
"","","","","","html-keyboard-response","6","92528","0.0-6.0","d4838bb8-cd69-4a4f-a16a-088457a5191f","null","<p>המחשב קבע מחיר: ₪47
                <br>ואתם בחרתם לשלם לכל היותר: ₪16
                <br><br>מכיוון שהמחיר שבחרתם נמוך מהמחיר שנקבע, לא תתשתתפו בהגרלה.
                <br>במקרה כזה, בסוף הניסוי תקבלו את כל התקציב ההתחלתי של ₪80.
                <br><br>לחצו על העכבר להמשך.</p>","1","example","","","","","","","","","","","","","","","","","","","",""
"","","","","","html-slider-response","7","98384","0.0-7.0","d4838bb8-cd69-4a4f-a16a-088457a5191f","5595","<p style=""font-size: 42px;"">הנה עוד דוגמא:
                <br>ההגרלה מטה מציעה 35% סיכוי לזכות ב-₪18 
                <br>&emsp;&emsp;&emsp;&emsp;&emsp;&emsp;&emsp;&emsp;&ensp;65% סיכוי לזכות ב-₪0.</p>
        
                <p style=""text-align: center;"">₪18<br>35%</p>
                <p id=""wtp"" style=""text-align:center; margin-top: 0px; margin-bottom: 0px; font-size: 40px"";>מוכנים לשלם: <span id=""c_p_y""></span></p>","7","example","13","","","","","","","","","","","","","","","","","","",""
"","","","","","html-keyboard-response","8","102304","0.0-8.0","d4838bb8-cd69-4a4f-a16a-088457a5191f","null","<p>הייתם מוכנים לשלם  ₪7 כדי להשתתף בהגרלה:
                <p style=""text-align: center;"">₪18<br>35%</p>
                <p>כעת נניח שהמחשב בחר את ההגרלה הזו בסוף הניסוי, וקבע עבורה מחיר.
                <br><br>לחצו על העכבר כדי להמשיך.</p>","1","instructions","","","","","","","","","","","","","","","","","","","",""
"","","","","","html-keyboard-response","9","113096","0.0-9.0","d4838bb8-cd69-4a4f-a16a-088457a5191f","null","<p>המחשב קבע מחיר להגרלה: ₪6<br>ואתם בחרתם לשלם לכל היותר: ₪7
                <br><br>כעת המחיר שנקבע נמוך מזה שבחרתם, אז תשלמו את המחיר שקבע המחשב (₪6) ותשתתפו בהגרלה.
                <br>במקרה כזה, תסיימו את הניסוי עם תקציב של ₪74 ועם סיכוי לזכות ב-₪18 נוספים מההגרלה.
                <br>כלומר, תוכלו לקבל ₪74 אם לא תזכו בהגרלה, או ₪92 אם תזכו בהגרלה.
                <br><br>לחצו על העכבר להמשך.</p>","1","example","","","","","","","","","","","","","","","","","","","",""
"","","","","","html-keyboard-response","10","120472","0.0-10.0","d4838bb8-cd69-4a4f-a16a-088457a5191f","null","<p>במהלך הניסוי, קודם תראו את ההגרלה ורק לאחר מכן תוכלו לבחור.
                <p>כמו כן, יהיו לכם מספר שניות מוגבל להגיב.
                <p>בואו ננסה זאת עם ההגרלה הקודמת.
                <br>לחצו על העכבר כדי להמשיך.</p>","1","instructions","","","","","","","","","","","","","","","","","","","",""
"","","","","","html-slider-response","11","121747","0.0-11.0","d4838bb8-cd69-4a4f-a16a-088457a5191f","1000","
                    <p style=""text-align: center;"">₪18<br>35%</p>
                    <p id=""wtp"" style=""text-align:center; margin-top: 0px; margin-bottom: 0px; font-size: 40px"";>&ensp;</p>","30","instructions","0","","","","","","","","","","","","","","","","","","",""
"","","","","","html-slider-response","12","123640","0.0-12.0","d4838bb8-cd69-4a4f-a16a-088457a5191f","1626","
                    <p style=""text-align: center;"">₪18<br>35%</p>
                    <p id=""wtp"" style=""text-align:center; margin-top: 0px; margin-bottom: 0px; font-size: 40px"";>מוכנים לשלם: <span id=""c_p_y""></span></p>","7","instructions","75","","","","","","","","","","","","","","","","","","",""
"","","","","","html-keyboard-response","13","126408","0.0-13.0","d4838bb8-cd69-4a4f-a16a-088457a5191f","null","<p>יפה. הפעם בחרתם לשלם לכל היותר ₪7.
                <br><br>לחצו על העכבר כדי להמשיך.</p>","1","instructions","","","","","","","","","","","","","","","","","","","",""
"","","","","","html-keyboard-response","14","134096","0.0-15.0","d4838bb8-cd69-4a4f-a16a-088457a5191f","null","<p>כעת נתחיל את הניסוי.
                <br><br>אתם תראו הגרלות ותתבקשו לבחור כמה תהיו מוכנים לשלם כדי להשתתף בהן.
                <br>יש לכם תקציב של ₪80 עבור כל הגרלה.
                <br>בסוף הניסוי הגרלה אחת תבחר באקראי ותשוחק.
                <br><br>לחצו על העכבר כדי להתחיל את הניסוי.</p>","1","instructions","","","","","","","","","","","","","","","","","","","",""
"","","","","","html-keyboard-response","15","135355","0.0-16.0","d4838bb8-cd69-4a4f-a16a-088457a5191f","null","<p style=""text-align: center;"">+</p>","null","fixation","","","","","","","","","","","","","","","","","","","",""
"","","","","","html-slider-response","16","136367","0.0-17.0-0.0","d4838bb8-cd69-4a4f-a16a-088457a5191f","1000","
                  <p style=""text-align: center;"">₪61
                                                <br>45%</p>
                  <p id=""wtp"" style=""text-align:center; margin-top: 0px; margin-bottom: 0px; font-size: 40px"";>&ensp;</p>","-","viewing","0","22","10A,11A","","","","","","","","","","","","","","","","",""
"","","","","","html-slider-response","17","137504","0.0-17.0-1.0","d4838bb8-cd69-4a4f-a16a-088457a5191f","1135","
                  <p style=""text-align: center;"">₪61
                                                <br>45%</p>
                  <p id=""wtp"" style=""text-align:center; margin-top: 0px; margin-bottom: 0px; font-size: 40px"";>מוכנים לשלם: <span id=""c_p_y""></span></p>","9","evaluation","72","22","10A,11A","45","61","9","","","","","","","","","","","","","",""
"","","","","","html-keyboard-response","18","138697","0.0-17.0-2.0","d4838bb8-cd69-4a4f-a16a-088457a5191f","null","<p style=""text-align: center;"">+</p>","null","fixation","","","","","","","","","","","","","","","","","","","",""
"","","","","","html-slider-response","19","139699","0.0-17.0-0.1","d4838bb8-cd69-4a4f-a16a-088457a5191f","1000","
                  <p style=""text-align: center;"">₪11
                                                <br>75%</p>
                  <p id=""wtp"" style=""text-align:center; margin-top: 0px; margin-bottom: 0px; font-size: 40px"";>&ensp;</p>","-","viewing","0","7","6B,18B,22C,24C,29A","","","","","","","","","","","","","","","","",""
"","","","","","html-slider-response","20","141128","0.0-17.0-1.1","d4838bb8-cd69-4a4f-a16a-088457a5191f","1427","
                  <p style=""text-align: center;"">₪11
                                                <br>75%</p>
                  <p id=""wtp"" style=""text-align:center; margin-top: 0px; margin-bottom: 0px; font-size: 40px"";>מוכנים לשלם: <span id=""c_p_y""></span></p>","8","evaluation","3","7","6B,18B,22C,24C,29A","75","11","8","","","","","","","","","","","","","",""
"","","","","","html-keyboard-response","21","141960","0.0-17.0-2.1","d4838bb8-cd69-4a4f-a16a-088457a5191f","null","<p style=""text-align: center;"">+</p>","null","fixation","","","","","","","","","","","","","","","","","","","",""
"","","","","","html-slider-response","22","142963","0.0-17.0-0.2","d4838bb8-cd69-4a4f-a16a-088457a5191f","1000","
                  <p style=""text-align: center;"">₪4
                                                <br>25%</p>
                  <p id=""wtp"" style=""text-align:center; margin-top: 0px; margin-bottom: 0px; font-size: 40px"";>&ensp;</p>","-","viewing","0","1","6C,29B,30C","","","","","","","","","","","","","","","","",""
"","","","","","html-slider-response","23","144632","0.0-17.0-1.2","d4838bb8-cd69-4a4f-a16a-088457a5191f","1668","
                  <p style=""text-align: center;"">₪4
                                                <br>25%</p>
                  <p id=""wtp"" style=""text-align:center; margin-top: 0px; margin-bottom: 0px; font-size: 40px"";>מוכנים לשלם: <span id=""c_p_y""></span></p>","2","evaluation","55","1","6C,29B,30C","25","4","2","","","","","","","","","","","","","",""
"","","","","","html-keyboard-response","24","145229","0.0-17.0-2.2","d4838bb8-cd69-4a4f-a16a-088457a5191f","null","<p style=""text-align: center;"">+</p>","null","fixation","","","","","","","","","","","","","","","","","","","",""
"","","","","","html-slider-response","25","146239","0.0-17.0-0.3","d4838bb8-cd69-4a4f-a16a-088457a5191f","1000","
                  <p style=""text-align: center;"">₪36
                                                <br>75%</p>
                  <p id=""wtp"" style=""text-align:center; margin-top: 0px; margin-bottom: 0px; font-size: 40px"";>&ensp;</p>","-","viewing","0","14","4B,5A,13B,16B","","","","","","","","","","","","","","","","",""
"","","","","","html-slider-response","26","147648","0.0-17.0-1.3","d4838bb8-cd69-4a4f-a16a-088457a5191f","1408","
                  <p style=""text-align: center;"">₪36
                                                <br>75%</p>
                  <p id=""wtp"" style=""text-align:center; margin-top: 0px; margin-bottom: 0px; font-size: 40px"";>מוכנים לשלם: <span id=""c_p_y""></span></p>","13","evaluation","35","14","4B,5A,13B,16B","75","36","14","","","","","","","","","","","","","",""
"","","","","","html-keyboard-response","27","148174","0.0-17.0-2.3","d4838bb8-cd69-4a4f-a16a-088457a5191f","null","<p style=""text-align: center;"">+</p>","null","fixation","","","","","","","","","","","","","","","","","","","",""
"","","","","","html-slider-response","28","149177","0.0-17.0-0.4","d4838bb8-cd69-4a4f-a16a-088457a5191f","1000","
                  <p style=""text-align: center;"">₪71
                                                <br>45%</p>
                  <p id=""wtp"" style=""text-align:center; margin-top: 0px; margin-bottom: 0px; font-size: 40px"";>&ensp;</p>","-","viewing","0","26","2B,16A","","","","","","","","","","","","","","","","",""
"","","","","","html-slider-response","29","150272","0.0-17.0-1.4","d4838bb8-cd69-4a4f-a16a-088457a5191f","1094","
                  <p style=""text-align: center;"">₪71
                                                <br>45%</p>
                  <p id=""wtp"" style=""text-align:center; margin-top: 0px; margin-bottom: 0px; font-size: 40px"";>מוכנים לשלם: <span id=""c_p_y""></span></p>","21","evaluation","39","26","2B,16A","45","71","21","","","","","","","","","","","","","",""
"","","","","","html-keyboard-response","30","150985","0.0-17.0-2.4","d4838bb8-cd69-4a4f-a16a-088457a5191f","null","<p style=""text-align: center;"">+</p>","null","fixation","","","","","","","","","","","","","","","","","","","",""
"","","","","","html-slider-response","31","152002","0.0-17.0-0.5","d4838bb8-cd69-4a4f-a16a-088457a5191f","1000","
                  <p style=""text-align: center;"">₪36
                                                <br>60%</p>
                  <p id=""wtp"" style=""text-align:center; margin-top: 0px; margin-bottom: 0px; font-size: 40px"";>&ensp;</p>","-","viewing","0","12","1C,7C,15C","","","","","","","","","","","","","","","","",""
"","","","","","html-slider-response","32","153656","0.0-17.0-1.5","d4838bb8-cd69-4a4f-a16a-088457a5191f","1653","
                  <p style=""text-align: center;"">₪36
                                                <br>60%</p>
                  <p id=""wtp"" style=""text-align:center; margin-top: 0px; margin-bottom: 0px; font-size: 40px"";>מוכנים לשלם: <span id=""c_p_y""></span></p>","17","evaluation","22","12","1C,7C,15C","60","36","17","","","","","","","","","","","","","",""
"","","","","","html-keyboard-response","33","155076","0.0-17.0-2.5","d4838bb8-cd69-4a4f-a16a-088457a5191f","null","<p style=""text-align: center;"">+</p>","null","fixation","","","","","","","","","","","","","","","","","","","",""
"","","","","","html-slider-response","34","156079","0.0-17.0-0.6","d4838bb8-cd69-4a4f-a16a-088457a5191f","1000","
                  <p style=""text-align: center;"">₪61
                                                <br>55%</p>
                  <p id=""wtp"" style=""text-align:center; margin-top: 0px; margin-bottom: 0px; font-size: 40px"";>&ensp;</p>","-","viewing","0","23","7B,26B","","","","","","","","","","","","","","","","",""
"","","","","","html-slider-response","35","158104","0.0-17.0-1.6","d4838bb8-cd69-4a4f-a16a-088457a5191f","2025","
                  <p style=""text-align: center;"">₪61
                                                <br>55%</p>
                  <p id=""wtp"" style=""text-align:center; margin-top: 0px; margin-bottom: 0px; font-size: 40px"";>מוכנים לשלם: <span id=""c_p_y""></span></p>","20","evaluation","77","23","7B,26B","55","61","20","","","","","","","","","","","","","",""
"","","","","","html-keyboard-response","36","158992","0.0-17.0-2.6","d4838bb8-cd69-4a4f-a16a-088457a5191f","null","<p style=""text-align: center;"">+</p>","null","fixation","","","","","","","","","","","","","","","","","","","",""
"","","","","","html-slider-response","37","160003","0.0-17.0-0.7","d4838bb8-cd69-4a4f-a16a-088457a5191f","1000","
                  <p style=""text-align: center;"">₪39
                                                <br>60%</p>
                  <p id=""wtp"" style=""text-align:center; margin-top: 0px; margin-bottom: 0px; font-size: 40px"";>&ensp;</p>","-","viewing","0","15","9C,25B","","","","","","","","","","","","","","","","",""
"","","","","","html-slider-response","38","162336","0.0-17.0-1.7","d4838bb8-cd69-4a4f-a16a-088457a5191f","2332","
                  <p style=""text-align: center;"">₪39
                                                <br>60%</p>
                  <p id=""wtp"" style=""text-align:center; margin-top: 0px; margin-bottom: 0px; font-size: 40px"";>מוכנים לשלם: <span id=""c_p_y""></span></p>","18","evaluation","68","15","9C,25B","60","39","18","","","","","","","","","","","","","",""
"","","","","","html-keyboard-response","39","163122","0.0-17.0-2.7","d4838bb8-cd69-4a4f-a16a-088457a5191f","null","<p style=""text-align: center;"">+</p>","null","fixation","","","","","","","","","","","","","","","","","","","",""
"","","","","","html-slider-response","40","164131","0.0-17.0-0.8","d4838bb8-cd69-4a4f-a16a-088457a5191f","1000","
                  <p style=""text-align: center;"">₪58
                                                <br>45%</p>
                  <p id=""wtp"" style=""text-align:center; margin-top: 0px; margin-bottom: 0px; font-size: 40px"";>&ensp;</p>","-","viewing","0","21","11C,18C,25A","","","","","","","","","","","","","","","","",""
"","","","","","html-slider-response","41","166064","0.0-17.0-1.8","d4838bb8-cd69-4a4f-a16a-088457a5191f","1932","
                  <p style=""text-align: center;"">₪58
                                                <br>45%</p>
                  <p id=""wtp"" style=""text-align:center; margin-top: 0px; margin-bottom: 0px; font-size: 40px"";>מוכנים לשלם: <span id=""c_p_y""></span></p>","18","evaluation","45","21","11C,18C,25A","45","58","19","","","","","","","","","","","","","",""
"","","","","","html-keyboard-response","42","167237","0.0-17.0-2.8","d4838bb8-cd69-4a4f-a16a-088457a5191f","null","<p style=""text-align: center;"">+</p>","null","fixation","","","","","","","","","","","","","","","","","","","",""
"","","","","","html-slider-response","43","168252","0.0-17.0-0.9","d4838bb8-cd69-4a4f-a16a-088457a5191f","1000","
                  <p style=""text-align: center;"">₪76
                                                <br>65%</p>
                  <p id=""wtp"" style=""text-align:center; margin-top: 0px; margin-bottom: 0px; font-size: 40px"";>&ensp;</p>","-","viewing","0","29","8C,19A,24B","","","","","","","","","","","","","","","","",""
"","","","","","html-slider-response","44","170280","0.0-17.0-1.9","d4838bb8-cd69-4a4f-a16a-088457a5191f","2027","
                  <p style=""text-align: center;"">₪76
                                                <br>65%</p>
                  <p id=""wtp"" style=""text-align:center; margin-top: 0px; margin-bottom: 0px; font-size: 40px"";>מוכנים לשלם: <span id=""c_p_y""></span></p>","42","evaluation","47","29","8C,19A,24B","65","76","42","","","","","","","","","","","","","",""
"","","","","","html-keyboard-response","45","171066","0.0-17.0-2.9","d4838bb8-cd69-4a4f-a16a-088457a5191f","null","<p style=""text-align: center;"">+</p>","null","fixation","","","","","","","","","","","","","","","","","","","",""
"","","","","","html-slider-response","46","172068","0.0-17.0-0.10","d4838bb8-cd69-4a4f-a16a-088457a5191f","1000","
                  <p style=""text-align: center;"">₪79
                                                <br>65%</p>
                  <p id=""wtp"" style=""text-align:center; margin-top: 0px; margin-bottom: 0px; font-size: 40px"";>&ensp;</p>","-","viewing","0","31","8A","","","","","","","","","","","","","","","","",""
"","","","","","html-slider-response","47","173128","0.0-17.0-1.10","d4838bb8-cd69-4a4f-a16a-088457a5191f","1058","
                  <p style=""text-align: center;"">₪79
                                                <br>65%</p>
                  <p id=""wtp"" style=""text-align:center; margin-top: 0px; margin-bottom: 0px; font-size: 40px"";>מוכנים לשלם: <span id=""c_p_y""></span></p>","45","evaluation","77","31","8A","65","79","45","","","","","","","","","","","","","",""
"","","","","","html-keyboard-response","48","174472","0.0-17.0-2.10","d4838bb8-cd69-4a4f-a16a-088457a5191f","null","<p style=""text-align: center;"">+</p>","null","fixation","","","","","","","","","","","","","","","","","","","",""
"","","","","","html-slider-response","49","175473","0.0-17.0-0.11","d4838bb8-cd69-4a4f-a16a-088457a5191f","1000","
                  <p style=""text-align: center;"">₪4
                                                <br>75%</p>
                  <p id=""wtp"" style=""text-align:center; margin-top: 0px; margin-bottom: 0px; font-size: 40px"";>&ensp;</p>","-","viewing","0","3","12B,20B,23B,27C,29C","","","","","","","","","","","","","","","","",""
"","","","","","html-slider-response","50","177016","0.0-17.0-1.11","d4838bb8-cd69-4a4f-a16a-088457a5191f","1541","
                  <p style=""text-align: center;"">₪4
                                                <br>75%</p>
                  <p id=""wtp"" style=""text-align:center; margin-top: 0px; margin-bottom: 0px; font-size: 40px"";>מוכנים לשלם: <span id=""c_p_y""></span></p>","0","evaluation","79","3","12B,20B,23B,27C,29C","75","4","1","","","","","","","","","","","","","",""
"","","","","","html-keyboard-response","51","178423","0.0-17.0-2.11","d4838bb8-cd69-4a4f-a16a-088457a5191f","null","<p style=""text-align: center;"">+</p>","null","fixation","","","","","","","","","","","","","","","","","","","",""
"","","","","","html-slider-response","52","179425","0.0-17.0-0.12","d4838bb8-cd69-4a4f-a16a-088457a5191f","1000","
                  <p style=""text-align: center;"">₪64
                                                <br>50%</p>
                  <p id=""wtp"" style=""text-align:center; margin-top: 0px; margin-bottom: 0px; font-size: 40px"";>&ensp;</p>","-","viewing","0","25","1B,3B,4A","","","","","","","","","","","","","","","","",""
"","","","","","html-slider-response","53","181569","0.0-17.0-1.12","d4838bb8-cd69-4a4f-a16a-088457a5191f","2143","
                  <p style=""text-align: center;"">₪64
                                                <br>50%</p>
                  <p id=""wtp"" style=""text-align:center; margin-top: 0px; margin-bottom: 0px; font-size: 40px"";>מוכנים לשלם: <span id=""c_p_y""></span></p>","38","evaluation","66","25","1B,3B,4A","50","64","38","","","","","","","","","","","","","",""
"","","","","","html-keyboard-response","54","182565","0.0-17.0-2.12","d4838bb8-cd69-4a4f-a16a-088457a5191f","null","<p style=""text-align: center;"">+</p>","null","fixation","","","","","","","","","","","","","","","","","","","",""
"","","","","","html-slider-response","55","183570","0.0-17.0-0.13","d4838bb8-cd69-4a4f-a16a-088457a5191f","1000","
                  <p style=""text-align: center;"">₪11
                                                <br>45%</p>
                  <p id=""wtp"" style=""text-align:center; margin-top: 0px; margin-bottom: 0px; font-size: 40px"";>&ensp;</p>","-","viewing","0","6","14B,21C,25C","","","","","","","","","","","","","","","","",""
"","","","","","html-slider-response","56","184904","0.0-17.0-1.13","d4838bb8-cd69-4a4f-a16a-088457a5191f","1333","
                  <p style=""text-align: center;"">₪11
                                                <br>45%</p>
                  <p id=""wtp"" style=""text-align:center; margin-top: 0px; margin-bottom: 0px; font-size: 40px"";>מוכנים לשלם: <span id=""c_p_y""></span></p>","6","evaluation","56","6","14B,21C,25C","45","11","7","","","","","","","","","","","","","",""
"","","","","","html-keyboard-response","57","185560","0.0-17.0-2.13","d4838bb8-cd69-4a4f-a16a-088457a5191f","null","<p style=""text-align: center;"">+</p>","null","fixation","","","","","","","","","","","","","","","","","","","",""
"","","","","","html-slider-response","58","186564","0.0-17.0-0.14","d4838bb8-cd69-4a4f-a16a-088457a5191f","1000","
                  <p style=""text-align: center;"">₪36
                                                <br>30%</p>
                  <p id=""wtp"" style=""text-align:center; margin-top: 0px; margin-bottom: 0px; font-size: 40px"";>&ensp;</p>","-","viewing","0","11","3C,20A,22A","","","","","","","","","","","","","","","","",""
"","","","","","html-slider-response","59","187905","0.0-17.0-1.14","d4838bb8-cd69-4a4f-a16a-088457a5191f","1340","
                  <p style=""text-align: center;"">₪36
                                                <br>30%</p>
                  <p id=""wtp"" style=""text-align:center; margin-top: 0px; margin-bottom: 0px; font-size: 40px"";>מוכנים לשלם: <span id=""c_p_y""></span></p>","10","evaluation","61","11","3C,20A,22A","30","36","11","","","","","","","","","","","","","",""
"","","","","","html-keyboard-response","60","189148","0.0-17.0-2.14","d4838bb8-cd69-4a4f-a16a-088457a5191f","null","<p style=""text-align: center;"">+</p>","null","fixation","","","","","","","","","","","","","","","","","","","",""
"","","","","","html-slider-response","61","190150","0.0-17.0-0.15","d4838bb8-cd69-4a4f-a16a-088457a5191f","1000","
                  <p style=""text-align: center;"">₪43
                                                <br>75%</p>
                  <p id=""wtp"" style=""text-align:center; margin-top: 0px; margin-bottom: 0px; font-size: 40px"";>&ensp;</p>","-","viewing","0","18","11B,19B,24A,26A","","","","","","","","","","","","","","","","",""
"","","","","","html-slider-response","62","191520","0.0-17.0-1.15","d4838bb8-cd69-4a4f-a16a-088457a5191f","1368","
                  <p style=""text-align: center;"">₪43
                                                <br>75%</p>
                  <p id=""wtp"" style=""text-align:center; margin-top: 0px; margin-bottom: 0px; font-size: 40px"";>מוכנים לשלם: <span id=""c_p_y""></span></p>","14","evaluation","71","18","11B,19B,24A,26A","75","43","14","","","","","","","","","","","","","",""
"","","","","","html-keyboard-response","63","192284","0.0-17.0-2.15","d4838bb8-cd69-4a4f-a16a-088457a5191f","null","<p style=""text-align: center;"">+</p>","null","fixation","","","","","","","","","","","","","","","","","","","",""
"","","","","","html-slider-response","64","193300","0.0-17.0-0.16","d4838bb8-cd69-4a4f-a16a-088457a5191f","1000","
                  <p style=""text-align: center;"">₪18
                                                <br>25%</p>
                  <p id=""wtp"" style=""text-align:center; margin-top: 0px; margin-bottom: 0px; font-size: 40px"";>&ensp;</p>","-","viewing","0","9","14A,23A","","","","","","","","","","","","","","","","",""
"","","","","","html-slider-response","65","195008","0.0-17.0-1.16","d4838bb8-cd69-4a4f-a16a-088457a5191f","1707","
                  <p style=""text-align: center;"">₪18
                                                <br>25%</p>
                  <p id=""wtp"" style=""text-align:center; margin-top: 0px; margin-bottom: 0px; font-size: 40px"";>מוכנים לשלם: <span id=""c_p_y""></span></p>","6","evaluation","58","9","14A,23A","25","18","7","","","","","","","","","","","","","",""
"","","","","","html-keyboard-response","66","196290","0.0-17.0-2.16","d4838bb8-cd69-4a4f-a16a-088457a5191f","null","<p style=""text-align: center;"">+</p>","null","fixation","","","","","","","","","","","","","","","","","","","",""
"","","","","","html-slider-response","67","197302","0.0-17.0-0.17","d4838bb8-cd69-4a4f-a16a-088457a5191f","1000","
                  <p style=""text-align: center;"">₪18
                                                <br>50%</p>
                  <p id=""wtp"" style=""text-align:center; margin-top: 0px; margin-bottom: 0px; font-size: 40px"";>&ensp;</p>","-","viewing","0","10","2C,16C,22B,28A","","","","","","","","","","","","","","","","",""
"","","","","","html-slider-response","68","198864","0.0-17.0-1.17","d4838bb8-cd69-4a4f-a16a-088457a5191f","1561","
                  <p style=""text-align: center;"">₪18
                                                <br>50%</p>
                  <p id=""wtp"" style=""text-align:center; margin-top: 0px; margin-bottom: 0px; font-size: 40px"";>מוכנים לשלם: <span id=""c_p_y""></span></p>","8","evaluation","34","10","2C,16C,22B,28A","50","18","8","","","","","","","","","","","","","",""
"","","","","","html-keyboard-response","69","199654","0.0-17.0-2.17","d4838bb8-cd69-4a4f-a16a-088457a5191f","null","<p style=""text-align: center;"">+</p>","null","fixation","","","","","","","","","","","","","","","","","","","",""
"","","","","","html-slider-response","70","200670","0.0-17.0-0.18","d4838bb8-cd69-4a4f-a16a-088457a5191f","1000","
                  <p style=""text-align: center;"">₪71
                                                <br>75%</p>
                  <p id=""wtp"" style=""text-align:center; margin-top: 0px; margin-bottom: 0px; font-size: 40px"";>&ensp;</p>","-","viewing","0","28","8B","","","","","","","","","","","","","","","","",""
"","","","","","html-slider-response","71","202560","0.0-17.0-1.18","d4838bb8-cd69-4a4f-a16a-088457a5191f","1888","
                  <p style=""text-align: center;"">₪71
                                                <br>75%</p>
                  <p id=""wtp"" style=""text-align:center; margin-top: 0px; margin-bottom: 0px; font-size: 40px"";>מוכנים לשלם: <span id=""c_p_y""></span></p>","40","evaluation","0","28","8B","75","71","40","","","","","","","","","","","","","",""
"","","","","","html-keyboard-response","72","204005","0.0-17.0-2.18","d4838bb8-cd69-4a4f-a16a-088457a5191f","null","<p style=""text-align: center;"">+</p>","null","fixation","","","","","","","","","","","","","","","","","","","",""
"","","","","","html-slider-response","73","205010","0.0-17.0-0.19","d4838bb8-cd69-4a4f-a16a-088457a5191f","1000","
                  <p style=""text-align: center;"">₪11
                                                <br>25%</p>
                  <p id=""wtp"" style=""text-align:center; margin-top: 0px; margin-bottom: 0px; font-size: 40px"";>&ensp;</p>","-","viewing","0","5","12A,27B,28B,30B","","","","","","","","","","","","","","","","",""
"","","","","","html-slider-response","74","206560","0.0-17.0-1.19","d4838bb8-cd69-4a4f-a16a-088457a5191f","1548","
                  <p style=""text-align: center;"">₪11
                                                <br>25%</p>
                  <p id=""wtp"" style=""text-align:center; margin-top: 0px; margin-bottom: 0px; font-size: 40px"";>מוכנים לשלם: <span id=""c_p_y""></span></p>","4","evaluation","25","5","12A,27B,28B,30B","25","11","4","","","","","","","","","","","","","",""
"","","","","","html-keyboard-response","75","208038","0.0-17.0-2.19","d4838bb8-cd69-4a4f-a16a-088457a5191f","null","<p style=""text-align: center;"">+</p>","null","fixation","","","","","","","","","","","","","","","","","","","",""
"","","","","","html-slider-response","76","209041","0.0-17.0-0.20","d4838bb8-cd69-4a4f-a16a-088457a5191f","1000","
                  <p style=""text-align: center;"">₪16
                                                <br>20%</p>
                  <p id=""wtp"" style=""text-align:center; margin-top: 0px; margin-bottom: 0px; font-size: 40px"";>&ensp;</p>","-","viewing","0","8","14C,17A,20C,27A","","","","","","","","","","","","","","","","",""
"","","","","","html-slider-response","77","210304","0.0-17.0-1.20","d4838bb8-cd69-4a4f-a16a-088457a5191f","1261","
                  <p style=""text-align: center;"">₪16
                                                <br>20%</p>
                  <p id=""wtp"" style=""text-align:center; margin-top: 0px; margin-bottom: 0px; font-size: 40px"";>מוכנים לשלם: <span id=""c_p_y""></span></p>","5","evaluation","68","8","14C,17A,20C,27A","20","16","5","","","","","","","","","","","","","",""
"","","","","","html-keyboard-response","78","211369","0.0-17.0-2.20","d4838bb8-cd69-4a4f-a16a-088457a5191f","null","<p style=""text-align: center;"">+</p>","null","fixation","","","","","","","","","","","","","","","","","","","",""
"","","","","","html-slider-response","79","212376","0.0-17.0-0.21","d4838bb8-cd69-4a4f-a16a-088457a5191f","1000","
                  <p style=""text-align: center;"">₪58
                                                <br>30%</p>
                  <p id=""wtp"" style=""text-align:center; margin-top: 0px; margin-bottom: 0px; font-size: 40px"";>&ensp;</p>","-","viewing","0","19","13C,30A","","","","","","","","","","","","","","","","",""
"","","","","","html-slider-response","80","213312","0.0-17.0-1.21","d4838bb8-cd69-4a4f-a16a-088457a5191f","934","
                  <p style=""text-align: center;"">₪58
                                                <br>30%</p>
                  <p id=""wtp"" style=""text-align:center; margin-top: 0px; margin-bottom: 0px; font-size: 40px"";>מוכנים לשלם: <span id=""c_p_y""></span></p>","11","evaluation","7","19","13C,30A","30","58","12","","","","","","","","","","","","","",""
"","","","","","html-keyboard-response","81","214365","0.0-17.0-2.21","d4838bb8-cd69-4a4f-a16a-088457a5191f","null","<p style=""text-align: center;"">+</p>","null","fixation","","","","","","","","","","","","","","","","","","","",""
"","","","","","html-slider-response","82","215366","0.0-17.0-0.22","d4838bb8-cd69-4a4f-a16a-088457a5191f","1000","
                  <p style=""text-align: center;"">₪39
                                                <br>65%</p>
                  <p id=""wtp"" style=""text-align:center; margin-top: 0px; margin-bottom: 0px; font-size: 40px"";>&ensp;</p>","-","viewing","0","16","1A,15A,26C","","","","","","","","","","","","","","","","",""
"","","","","","html-slider-response","83","216616","0.0-17.0-1.22","d4838bb8-cd69-4a4f-a16a-088457a5191f","1248","
                  <p style=""text-align: center;"">₪39
                                                <br>65%</p>
                  <p id=""wtp"" style=""text-align:center; margin-top: 0px; margin-bottom: 0px; font-size: 40px"";>מוכנים לשלם: <span id=""c_p_y""></span></p>","11","evaluation","2","16","1A,15A,26C","65","39","11","","","","","","","","","","","","","",""
"","","","","","html-keyboard-response","84","217873","0.0-17.0-2.22","d4838bb8-cd69-4a4f-a16a-088457a5191f","null","<p style=""text-align: center;"">+</p>","null","fixation","","","","","","","","","","","","","","","","","","","",""
"","","","","","html-slider-response","85","218877","0.0-17.0-0.23","d4838bb8-cd69-4a4f-a16a-088457a5191f","1000","
                  <p style=""text-align: center;"">₪71
                                                <br>55%</p>
                  <p id=""wtp"" style=""text-align:center; margin-top: 0px; margin-bottom: 0px; font-size: 40px"";>&ensp;</p>","-","viewing","0","27","5B,18A","","","","","","","","","","","","","","","","",""
"","","","","","html-slider-response","86","219904","0.0-17.0-1.23","d4838bb8-cd69-4a4f-a16a-088457a5191f","1026","
                  <p style=""text-align: center;"">₪71
                                                <br>55%</p>
                  <p id=""wtp"" style=""text-align:center; margin-top: 0px; margin-bottom: 0px; font-size: 40px"";>מוכנים לשלם: <span id=""c_p_y""></span></p>","34","evaluation","1","27","5B,18A","55","71","34","","","","","","","","","","","","","",""
"","","","","","html-keyboard-response","87","220622","0.0-17.0-2.23","d4838bb8-cd69-4a4f-a16a-088457a5191f","null","<p style=""text-align: center;"">+</p>","null","fixation","","","","","","","","","","","","","","","","","","","",""
"","","","","","html-slider-response","88","221624","0.0-17.0-0.24","d4838bb8-cd69-4a4f-a16a-088457a5191f","1000","
                  <p style=""text-align: center;"">₪58
                                                <br>40%</p>
                  <p id=""wtp"" style=""text-align:center; margin-top: 0px; margin-bottom: 0px; font-size: 40px"";>&ensp;</p>","-","viewing","0","20","10C,13A,19C,21B","","","","","","","","","","","","","","","","",""
"","","","","","html-slider-response","89","223168","0.0-17.0-1.24","d4838bb8-cd69-4a4f-a16a-088457a5191f","1542","
                  <p style=""text-align: center;"">₪58
                                                <br>40%</p>
                  <p id=""wtp"" style=""text-align:center; margin-top: 0px; margin-bottom: 0px; font-size: 40px"";>מוכנים לשלם: <span id=""c_p_y""></span></p>","21","evaluation","51","20","10C,13A,19C,21B","40","58","21","","","","","","","","","","","","","",""
"","","","","","html-keyboard-response","90","224553","0.0-17.0-2.24","d4838bb8-cd69-4a4f-a16a-088457a5191f","null","<p style=""text-align: center;"">+</p>","null","fixation","","","","","","","","","","","","","","","","","","","",""
"","","","","","html-slider-response","91","225555","0.0-17.0-0.25","d4838bb8-cd69-4a4f-a16a-088457a5191f","1000","
                  <p style=""text-align: center;"">₪11
                                                <br>20%</p>
                  <p id=""wtp"" style=""text-align:center; margin-top: 0px; margin-bottom: 0px; font-size: 40px"";>&ensp;</p>","-","viewing","0","4","12C,17C,23C,28C","","","","","","","","","","","","","","","","",""
"","","","","","html-slider-response","92","226600","0.0-17.0-1.25","d4838bb8-cd69-4a4f-a16a-088457a5191f","1043","
                  <p style=""text-align: center;"">₪11
                                                <br>20%</p>
                  <p id=""wtp"" style=""text-align:center; margin-top: 0px; margin-bottom: 0px; font-size: 40px"";>מוכנים לשלם: <span id=""c_p_y""></span></p>","4","evaluation","4","4","12C,17C,23C,28C","20","11","4","","","","","","","","","","","","","",""
"","","","","","html-keyboard-response","93","227761","0.0-17.0-2.25","d4838bb8-cd69-4a4f-a16a-088457a5191f","null","<p style=""text-align: center;"">+</p>","null","fixation","","","","","","","","","","","","","","","","","","","",""
"","","","","","html-slider-response","94","228766","0.0-17.0-0.26","d4838bb8-cd69-4a4f-a16a-088457a5191f","1000","
                  <p style=""text-align: center;"">₪36
                                                <br>70%</p>
                  <p id=""wtp"" style=""text-align:center; margin-top: 0px; margin-bottom: 0px; font-size: 40px"";>&ensp;</p>","-","viewing","0","13","3A,5C,10B","","","","","","","","","","","","","","","","",""
"","","","","","html-slider-response","95","230984","0.0-17.0-1.26","d4838bb8-cd69-4a4f-a16a-088457a5191f","2216","
                  <p style=""text-align: center;"">₪36
                                                <br>70%</p>
                  <p id=""wtp"" style=""text-align:center; margin-top: 0px; margin-bottom: 0px; font-size: 40px"";>מוכנים לשלם: <span id=""c_p_y""></span></p>","28","evaluation","9","13","3A,5C,10B","70","36","28","","","","","","","","","","","","","",""
"","","","","","html-keyboard-response","96","231518","0.0-17.0-2.26","d4838bb8-cd69-4a4f-a16a-088457a5191f","null","<p style=""text-align: center;"">+</p>","null","fixation","","","","","","","","","","","","","","","","","","","",""
"","","","","","html-slider-response","97","232519","0.0-17.0-0.27","d4838bb8-cd69-4a4f-a16a-088457a5191f","1000","
                  <p style=""text-align: center;"">₪64
                                                <br>25%</p>
                  <p id=""wtp"" style=""text-align:center; margin-top: 0px; margin-bottom: 0px; font-size: 40px"";>&ensp;</p>","-","viewing","0","24","6A,21A","","","","","","","","","","","","","","","","",""
"","","","","","html-slider-response","98","233784","0.0-17.0-1.27","d4838bb8-cd69-4a4f-a16a-088457a5191f","1263","
                  <p style=""text-align: center;"">₪64
                                                <br>25%</p>
                  <p id=""wtp"" style=""text-align:center; margin-top: 0px; margin-bottom: 0px; font-size: 40px"";>מוכנים לשלם: <span id=""c_p_y""></span></p>","12","evaluation","11","24","6A,21A","25","64","12","","","","","","","","","","","","","",""
"","","","","","html-keyboard-response","99","234560","0.0-17.0-2.27","d4838bb8-cd69-4a4f-a16a-088457a5191f","null","<p style=""text-align: center;"">+</p>","null","fixation","","","","","","","","","","","","","","","","","","","",""
"","","","","","html-slider-response","100","235573","0.0-17.0-0.28","d4838bb8-cd69-4a4f-a16a-088457a5191f","1000","
                  <p style=""text-align: center;"">₪43
                                                <br>60%</p>
                  <p id=""wtp"" style=""text-align:center; margin-top: 0px; margin-bottom: 0px; font-size: 40px"";>&ensp;</p>","-","viewing","0","17","2A,7A,9A,15B","","","","","","","","","","","","","","","","",""
"","","","","","html-slider-response","101","236784","0.0-17.0-1.28","d4838bb8-cd69-4a4f-a16a-088457a5191f","1210","
                  <p style=""text-align: center;"">₪43
                                                <br>60%</p>
                  <p id=""wtp"" style=""text-align:center; margin-top: 0px; margin-bottom: 0px; font-size: 40px"";>מוכנים לשלם: <span id=""c_p_y""></span></p>","24","evaluation","49","17","2A,7A,9A,15B","60","43","24","","","","","","","","","","","","","",""
"","","","","","html-keyboard-response","102","237388","0.0-17.0-2.28","d4838bb8-cd69-4a4f-a16a-088457a5191f","null","<p style=""text-align: center;"">+</p>","null","fixation","","","","","","","","","","","","","","","","","","","",""
"","","","","","html-slider-response","103","238390","0.0-17.0-0.29","d4838bb8-cd69-4a4f-a16a-088457a5191f","1000","
                  <p style=""text-align: center;"">₪4
                                                <br>50%</p>
                  <p id=""wtp"" style=""text-align:center; margin-top: 0px; margin-bottom: 0px; font-size: 40px"";>&ensp;</p>","-","viewing","0","2","4C,17B","","","","","","","","","","","","","","","","",""
"","","","","","html-slider-response","104","239848","0.0-17.0-1.29","d4838bb8-cd69-4a4f-a16a-088457a5191f","1456","
                  <p style=""text-align: center;"">₪4
                                                <br>50%</p>
                  <p id=""wtp"" style=""text-align:center; margin-top: 0px; margin-bottom: 0px; font-size: 40px"";>מוכנים לשלם: <span id=""c_p_y""></span></p>","3","evaluation","10","2","4C,17B","50","4","3","","","","","","","","","","","","","",""
"","","","","","html-keyboard-response","105","241241","0.0-17.0-2.29","d4838bb8-cd69-4a4f-a16a-088457a5191f","null","<p style=""text-align: center;"">+</p>","null","fixation","","","","","","","","","","","","","","","","","","","",""
"","","","","","html-slider-response","106","242243","0.0-17.0-0.30","d4838bb8-cd69-4a4f-a16a-088457a5191f","1000","
                  <p style=""text-align: center;"">₪79
                                                <br>40%</p>
                  <p id=""wtp"" style=""text-align:center; margin-top: 0px; margin-bottom: 0px; font-size: 40px"";>&ensp;</p>","-","viewing","0","30","9B","","","","","","","","","","","","","","","","",""
"","","","","","html-slider-response","107","243640","0.0-17.0-1.30","d4838bb8-cd69-4a4f-a16a-088457a5191f","1396","
                  <p style=""text-align: center;"">₪79
                                                <br>40%</p>
                  <p id=""wtp"" style=""text-align:center; margin-top: 0px; margin-bottom: 0px; font-size: 40px"";>מוכנים לשלם: <span id=""c_p_y""></span></p>","28","evaluation","31","30","9B","40","79","28","","","","","","","","","","","","","",""
"","","","","","html-keyboard-response","108","245019","0.0-17.0-2.30","d4838bb8-cd69-4a4f-a16a-088457a5191f","null","<p style=""text-align: center;"">+</p>","null","fixation","","","","","","","","","","","","","","","","","","","",""
"","","","","","html-keyboard-response","109","246030","0.0-18.0","d4838bb8-cd69-4a4f-a16a-088457a5191f","null","<p style=""text-align: center;"">+</p>","null","fixation","","","","","","","","","","","","","","","","","","","",""
"","","","","","html-keyboard-response","110","250440","0.0-19.0","d4838bb8-cd69-4a4f-a16a-088457a5191f","null","<p>הפסקה.
          <br>לחצו כדי להמשיך.</p>","1","scan_wait","","","","","","","","","","","","","","","","","","","",""
"","","","","","html-keyboard-response","111","251440","0.0-20.0","d4838bb8-cd69-4a4f-a16a-088457a5191f","null","<p style=""text-align: center;"">+</p>","null","fixation","","","","","","","","","","","","","","","","","","","",""
"","","","","","html-slider-response","112","252444","0.0-21.0-0.0","d4838bb8-cd69-4a4f-a16a-088457a5191f","1000","
                  <p style=""text-align: center;"">₪76
                                                <br>65%</p>
                  <p id=""wtp"" style=""text-align:center; margin-top: 0px; margin-bottom: 0px; font-size: 40px"";>&ensp;</p>","-","viewing","0","29","8C,19A,24B","","","","","","","","","","","","","","","","",""
"","","","","","html-slider-response","113","253552","0.0-21.0-1.0","d4838bb8-cd69-4a4f-a16a-088457a5191f","1106","
                  <p style=""text-align: center;"">₪76
                                                <br>65%</p>
                  <p id=""wtp"" style=""text-align:center; margin-top: 0px; margin-bottom: 0px; font-size: 40px"";>מוכנים לשלם: <span id=""c_p_y""></span></p>","30","evaluation","18","29","8C,19A,24B","65","76","30","","","","","","","","","","","","","",""
"","","","","","html-keyboard-response","114","254305","0.0-21.0-2.0","d4838bb8-cd69-4a4f-a16a-088457a5191f","null","<p style=""text-align: center;"">+</p>","null","fixation","","","","","","","","","","","","","","","","","","","",""
"","","","","","html-slider-response","115","255307","0.0-21.0-0.1","d4838bb8-cd69-4a4f-a16a-088457a5191f","1000","
                  <p style=""text-align: center;"">₪36
                                                <br>70%</p>
                  <p id=""wtp"" style=""text-align:center; margin-top: 0px; margin-bottom: 0px; font-size: 40px"";>&ensp;</p>","-","viewing","0","13","3A,5C,10B","","","","","","","","","","","","","","","","",""
"","","","","","html-slider-response","116","256680","0.0-21.0-1.1","d4838bb8-cd69-4a4f-a16a-088457a5191f","1371","
                  <p style=""text-align: center;"">₪36
                                                <br>70%</p>
                  <p id=""wtp"" style=""text-align:center; margin-top: 0px; margin-bottom: 0px; font-size: 40px"";>מוכנים לשלם: <span id=""c_p_y""></span></p>","22","evaluation","80","13","3A,5C,10B","70","36","22","","","","","","","","","","","","","",""
"","","","","","html-keyboard-response","117","257956","0.0-21.0-2.1","d4838bb8-cd69-4a4f-a16a-088457a5191f","null","<p style=""text-align: center;"">+</p>","null","fixation","","","","","","","","","","","","","","","","","","","",""
"","","","","","html-slider-response","118","258969","0.0-21.0-0.2","d4838bb8-cd69-4a4f-a16a-088457a5191f","1000","
                  <p style=""text-align: center;"">₪61
                                                <br>55%</p>
                  <p id=""wtp"" style=""text-align:center; margin-top: 0px; margin-bottom: 0px; font-size: 40px"";>&ensp;</p>","-","viewing","0","23","7B,26B","","","","","","","","","","","","","","","","",""
"","","","","","html-slider-response","119","260104","0.0-21.0-1.2","d4838bb8-cd69-4a4f-a16a-088457a5191f","1133","
                  <p style=""text-align: center;"">₪61
                                                <br>55%</p>
                  <p id=""wtp"" style=""text-align:center; margin-top: 0px; margin-bottom: 0px; font-size: 40px"";>מוכנים לשלם: <span id=""c_p_y""></span></p>","24","evaluation","75","23","7B,26B","55","61","24","","","","","","","","","","","","","",""
"","","","","","html-keyboard-response","120","261459","0.0-21.0-2.2","d4838bb8-cd69-4a4f-a16a-088457a5191f","null","<p style=""text-align: center;"">+</p>","null","fixation","","","","","","","","","","","","","","","","","","","",""
"","","","","","html-slider-response","121","262461","0.0-21.0-0.3","d4838bb8-cd69-4a4f-a16a-088457a5191f","1000","
                  <p style=""text-align: center;"">₪39
                                                <br>65%</p>
                  <p id=""wtp"" style=""text-align:center; margin-top: 0px; margin-bottom: 0px; font-size: 40px"";>&ensp;</p>","-","viewing","0","16","1A,15A,26C","","","","","","","","","","","","","","","","",""
"","","","","","html-slider-response","122","263648","0.0-21.0-1.3","d4838bb8-cd69-4a4f-a16a-088457a5191f","1185","
                  <p style=""text-align: center;"">₪39
                                                <br>65%</p>
                  <p id=""wtp"" style=""text-align:center; margin-top: 0px; margin-bottom: 0px; font-size: 40px"";>מוכנים לשלם: <span id=""c_p_y""></span></p>","19","evaluation","76","16","1A,15A,26C","65","39","19","","","","","","","","","","","","","",""
"","","","","","html-keyboard-response","123","264475","0.0-21.0-2.3","d4838bb8-cd69-4a4f-a16a-088457a5191f","null","<p style=""text-align: center;"">+</p>","null","fixation","","","","","","","","","","","","","","","","","","","",""
"","","","","","html-slider-response","124","265479","0.0-21.0-0.4","d4838bb8-cd69-4a4f-a16a-088457a5191f","1000","
                  <p style=""text-align: center;"">₪18
                                                <br>50%</p>
                  <p id=""wtp"" style=""text-align:center; margin-top: 0px; margin-bottom: 0px; font-size: 40px"";>&ensp;</p>","-","viewing","0","10","2C,16C,22B,28A","","","","","","","","","","","","","","","","",""
"","","","","","html-slider-response","125","267048","0.0-21.0-1.4","d4838bb8-cd69-4a4f-a16a-088457a5191f","1568","
                  <p style=""text-align: center;"">₪18
                                                <br>50%</p>
                  <p id=""wtp"" style=""text-align:center; margin-top: 0px; margin-bottom: 0px; font-size: 40px"";>מוכנים לשלם: <span id=""c_p_y""></span></p>","7","evaluation","10","10","2C,16C,22B,28A","50","18","7","","","","","","","","","","","","","",""
"","","","","","html-keyboard-response","126","267757","0.0-21.0-2.4","d4838bb8-cd69-4a4f-a16a-088457a5191f","null","<p style=""text-align: center;"">+</p>","null","fixation","","","","","","","","","","","","","","","","","","","",""
"","","","","","html-slider-response","127","268774","0.0-21.0-0.5","d4838bb8-cd69-4a4f-a16a-088457a5191f","1000","
                  <p style=""text-align: center;"">₪64
                                                <br>25%</p>
                  <p id=""wtp"" style=""text-align:center; margin-top: 0px; margin-bottom: 0px; font-size: 40px"";>&ensp;</p>","-","viewing","0","24","6A,21A","","","","","","","","","","","","","","","","",""
"","","","","","html-slider-response","128","269904","0.0-21.0-1.5","d4838bb8-cd69-4a4f-a16a-088457a5191f","1128","
                  <p style=""text-align: center;"">₪64
                                                <br>25%</p>
                  <p id=""wtp"" style=""text-align:center; margin-top: 0px; margin-bottom: 0px; font-size: 40px"";>מוכנים לשלם: <span id=""c_p_y""></span></p>","11","evaluation","64","24","6A,21A","25","64","12","","","","","","","","","","","","","",""
"","","","","","html-keyboard-response","129","271321","0.0-21.0-2.5","d4838bb8-cd69-4a4f-a16a-088457a5191f","null","<p style=""text-align: center;"">+</p>","null","fixation","","","","","","","","","","","","","","","","","","","",""
"","","","","","html-slider-response","130","272333","0.0-21.0-0.6","d4838bb8-cd69-4a4f-a16a-088457a5191f","1000","
                  <p style=""text-align: center;"">₪11
                                                <br>20%</p>
                  <p id=""wtp"" style=""text-align:center; margin-top: 0px; margin-bottom: 0px; font-size: 40px"";>&ensp;</p>","-","viewing","0","4","12C,17C,23C,28C","","","","","","","","","","","","","","","","",""
"","","","","","html-slider-response","131","273136","0.0-21.0-1.6","d4838bb8-cd69-4a4f-a16a-088457a5191f","801","
                  <p style=""text-align: center;"">₪11
                                                <br>20%</p>
                  <p id=""wtp"" style=""text-align:center; margin-top: 0px; margin-bottom: 0px; font-size: 40px"";>מוכנים לשלם: <span id=""c_p_y""></span></p>","2","evaluation","45","4","12C,17C,23C,28C","20","11","3","","","","","","","","","","","","","",""
"","","","","","html-keyboard-response","132","274317","0.0-21.0-2.6","d4838bb8-cd69-4a4f-a16a-088457a5191f","null","<p style=""text-align: center;"">+</p>","null","fixation","","","","","","","","","","","","","","","","","","","",""
"","","","","","html-slider-response","133","275324","0.0-21.0-0.7","d4838bb8-cd69-4a4f-a16a-088457a5191f","1000","
                  <p style=""text-align: center;"">₪36
                                                <br>75%</p>
                  <p id=""wtp"" style=""text-align:center; margin-top: 0px; margin-bottom: 0px; font-size: 40px"";>&ensp;</p>","-","viewing","0","14","4B,5A,13B,16B","","","","","","","","","","","","","","","","",""
"","","","","","html-slider-response","134","276744","0.0-21.0-1.7","d4838bb8-cd69-4a4f-a16a-088457a5191f","1419","
                  <p style=""text-align: center;"">₪36
                                                <br>75%</p>
                  <p id=""wtp"" style=""text-align:center; margin-top: 0px; margin-bottom: 0px; font-size: 40px"";>מוכנים לשלם: <span id=""c_p_y""></span></p>","23","evaluation","4","14","4B,5A,13B,16B","75","36","23","","","","","","","","","","","","","",""
"","","","","","html-keyboard-response","135","277783","0.0-21.0-2.7","d4838bb8-cd69-4a4f-a16a-088457a5191f","null","<p style=""text-align: center;"">+</p>","null","fixation","","","","","","","","","","","","","","","","","","","",""
"","","","","","html-slider-response","136","278786","0.0-21.0-0.8","d4838bb8-cd69-4a4f-a16a-088457a5191f","1000","
                  <p style=""text-align: center;"">₪58
                                                <br>45%</p>
                  <p id=""wtp"" style=""text-align:center; margin-top: 0px; margin-bottom: 0px; font-size: 40px"";>&ensp;</p>","-","viewing","0","21","11C,18C,25A","","","","","","","","","","","","","","","","",""
"","","","","","html-slider-response","137","279536","0.0-21.0-1.8","d4838bb8-cd69-4a4f-a16a-088457a5191f","749","
                  <p style=""text-align: center;"">₪58
                                                <br>45%</p>
                  <p id=""wtp"" style=""text-align:center; margin-top: 0px; margin-bottom: 0px; font-size: 40px"";>מוכנים לשלם: <span id=""c_p_y""></span></p>","20","evaluation","12","21","11C,18C,25A","45","58","21","","","","","","","","","","","","","",""
"","","","","","html-keyboard-response","138","280734","0.0-21.0-2.8","d4838bb8-cd69-4a4f-a16a-088457a5191f","null","<p style=""text-align: center;"">+</p>","null","fixation","","","","","","","","","","","","","","","","","","","",""
"","","","","","html-slider-response","139","281735","0.0-21.0-0.9","d4838bb8-cd69-4a4f-a16a-088457a5191f","1000","
                  <p style=""text-align: center;"">₪36
                                                <br>60%</p>
                  <p id=""wtp"" style=""text-align:center; margin-top: 0px; margin-bottom: 0px; font-size: 40px"";>&ensp;</p>","-","viewing","0","12","1C,7C,15C","","","","","","","","","","","","","","","","",""
"","","","","","html-slider-response","140","283008","0.0-21.0-1.9","d4838bb8-cd69-4a4f-a16a-088457a5191f","1272","
                  <p style=""text-align: center;"">₪36
                                                <br>60%</p>
                  <p id=""wtp"" style=""text-align:center; margin-top: 0px; margin-bottom: 0px; font-size: 40px"";>מוכנים לשלם: <span id=""c_p_y""></span></p>","18","evaluation","15","12","1C,7C,15C","60","36","18","","","","","","","","","","","","","",""
"","","","","","html-keyboard-response","141","283587","0.0-21.0-2.9","d4838bb8-cd69-4a4f-a16a-088457a5191f","null","<p style=""text-align: center;"">+</p>","null","fixation","","","","","","","","","","","","","","","","","","","",""
"","","","","","html-slider-response","142","284588","0.0-21.0-0.10","d4838bb8-cd69-4a4f-a16a-088457a5191f","1000","
                  <p style=""text-align: center;"">₪11
                                                <br>75%</p>
                  <p id=""wtp"" style=""text-align:center; margin-top: 0px; margin-bottom: 0px; font-size: 40px"";>&ensp;</p>","-","viewing","0","7","6B,18B,22C,24C,29A","","","","","","","","","","","","","","","","",""
"","","","","","html-slider-response","143","286232","0.0-21.0-1.10","d4838bb8-cd69-4a4f-a16a-088457a5191f","1643","
                  <p style=""text-align: center;"">₪11
                                                <br>75%</p>
                  <p id=""wtp"" style=""text-align:center; margin-top: 0px; margin-bottom: 0px; font-size: 40px"";>מוכנים לשלם: <span id=""c_p_y""></span></p>","7","evaluation","17","7","6B,18B,22C,24C,29A","75","11","7","","","","","","","","","","","","","",""
"","","","","","html-keyboard-response","144","287055","0.0-21.0-2.10","d4838bb8-cd69-4a4f-a16a-088457a5191f","null","<p style=""text-align: center;"">+</p>","null","fixation","","","","","","","","","","","","","","","","","","","",""
"","","","","","html-slider-response","145","288057","0.0-21.0-0.11","d4838bb8-cd69-4a4f-a16a-088457a5191f","1000","
                  <p style=""text-align: center;"">₪39
                                                <br>60%</p>
                  <p id=""wtp"" style=""text-align:center; margin-top: 0px; margin-bottom: 0px; font-size: 40px"";>&ensp;</p>","-","viewing","0","15","9C,25B","","","","","","","","","","","","","","","","",""
"","","","","","html-slider-response","146","289023","0.0-21.0-1.11","d4838bb8-cd69-4a4f-a16a-088457a5191f","965","
                  <p style=""text-align: center;"">₪39
                                                <br>60%</p>
                  <p id=""wtp"" style=""text-align:center; margin-top: 0px; margin-bottom: 0px; font-size: 40px"";>מוכנים לשלם: <span id=""c_p_y""></span></p>","27","evaluation","57","15","9C,25B","60","39","27","","","","","","","","","","","","","",""
"","","","","","html-keyboard-response","147","290516","0.0-21.0-2.11","d4838bb8-cd69-4a4f-a16a-088457a5191f","null","<p style=""text-align: center;"">+</p>","null","fixation","","","","","","","","","","","","","","","","","","","",""
"","","","","","html-slider-response","148","291518","0.0-21.0-0.12","d4838bb8-cd69-4a4f-a16a-088457a5191f","1000","
                  <p style=""text-align: center;"">₪36
                                                <br>30%</p>
                  <p id=""wtp"" style=""text-align:center; margin-top: 0px; margin-bottom: 0px; font-size: 40px"";>&ensp;</p>","-","viewing","0","11","3C,20A,22A","","","","","","","","","","","","","","","","",""
"","","","","","html-slider-response","149","292872","0.0-21.0-1.12","d4838bb8-cd69-4a4f-a16a-088457a5191f","1352","
                  <p style=""text-align: center;"">₪36
                                                <br>30%</p>
                  <p id=""wtp"" style=""text-align:center; margin-top: 0px; margin-bottom: 0px; font-size: 40px"";>מוכנים לשלם: <span id=""c_p_y""></span></p>","5","evaluation","7","11","3C,20A,22A","30","36","5","","","","","","","","","","","","","",""
"","","","","","html-keyboard-response","150","293507","0.0-21.0-2.12","d4838bb8-cd69-4a4f-a16a-088457a5191f","null","<p style=""text-align: center;"">+</p>","null","fixation","","","","","","","","","","","","","","","","","","","",""
"","","","","","html-slider-response","151","294513","0.0-21.0-0.13","d4838bb8-cd69-4a4f-a16a-088457a5191f","1000","
                  <p style=""text-align: center;"">₪79
                                                <br>65%</p>
                  <p id=""wtp"" style=""text-align:center; margin-top: 0px; margin-bottom: 0px; font-size: 40px"";>&ensp;</p>","-","viewing","0","31","8A","","","","","","","","","","","","","","","","",""
"","","","","","html-slider-response","152","296216","0.0-21.0-1.13","d4838bb8-cd69-4a4f-a16a-088457a5191f","1701","
                  <p style=""text-align: center;"">₪79
                                                <br>65%</p>
                  <p id=""wtp"" style=""text-align:center; margin-top: 0px; margin-bottom: 0px; font-size: 40px"";>מוכנים לשלם: <span id=""c_p_y""></span></p>","36","evaluation","67","31","8A","65","79","36","","","","","","","","","","","","","",""
"","","","","","html-keyboard-response","153","297133","0.0-21.0-2.13","d4838bb8-cd69-4a4f-a16a-088457a5191f","null","<p style=""text-align: center;"">+</p>","null","fixation","","","","","","","","","","","","","","","","","","","",""
"","","","","","html-slider-response","154","298135","0.0-21.0-0.14","d4838bb8-cd69-4a4f-a16a-088457a5191f","1000","
                  <p style=""text-align: center;"">₪58
                                                <br>30%</p>
                  <p id=""wtp"" style=""text-align:center; margin-top: 0px; margin-bottom: 0px; font-size: 40px"";>&ensp;</p>","-","viewing","0","19","13C,30A","","","","","","","","","","","","","","","","",""
"","","","","","html-slider-response","155","299752","0.0-21.0-1.14","d4838bb8-cd69-4a4f-a16a-088457a5191f","1615","
                  <p style=""text-align: center;"">₪58
                                                <br>30%</p>
                  <p id=""wtp"" style=""text-align:center; margin-top: 0px; margin-bottom: 0px; font-size: 40px"";>מוכנים לשלם: <span id=""c_p_y""></span></p>","15","evaluation","11","19","13C,30A","30","58","15","","","","","","","","","","","","","",""
"","","","","","html-keyboard-response","156","300873","0.0-21.0-2.14","d4838bb8-cd69-4a4f-a16a-088457a5191f","null","<p style=""text-align: center;"">+</p>","null","fixation","","","","","","","","","","","","","","","","","","","",""
"","","","","","html-slider-response","157","301888","0.0-21.0-0.15","d4838bb8-cd69-4a4f-a16a-088457a5191f","1000","
                  <p style=""text-align: center;"">₪18
                                                <br>25%</p>
                  <p id=""wtp"" style=""text-align:center; margin-top: 0px; margin-bottom: 0px; font-size: 40px"";>&ensp;</p>","-","viewing","0","9","14A,23A","","","","","","","","","","","","","","","","",""
"","","","","","html-slider-response","158","303136","0.0-21.0-1.15","d4838bb8-cd69-4a4f-a16a-088457a5191f","1246","
                  <p style=""text-align: center;"">₪18
                                                <br>25%</p>
                  <p id=""wtp"" style=""text-align:center; margin-top: 0px; margin-bottom: 0px; font-size: 40px"";>מוכנים לשלם: <span id=""c_p_y""></span></p>","4","evaluation","13","9","14A,23A","25","18","5","","","","","","","","","","","","","",""
"","","","","","html-keyboard-response","159","303985","0.0-21.0-2.15","d4838bb8-cd69-4a4f-a16a-088457a5191f","null","<p style=""text-align: center;"">+</p>","null","fixation","","","","","","","","","","","","","","","","","","","",""
"","","","","","html-slider-response","160","304986","0.0-21.0-0.16","d4838bb8-cd69-4a4f-a16a-088457a5191f","1000","
                  <p style=""text-align: center;"">₪71
                                                <br>55%</p>
                  <p id=""wtp"" style=""text-align:center; margin-top: 0px; margin-bottom: 0px; font-size: 40px"";>&ensp;</p>","-","viewing","0","27","5B,18A","","","","","","","","","","","","","","","","",""
"","","","","","html-slider-response","161","306280","0.0-21.0-1.16","d4838bb8-cd69-4a4f-a16a-088457a5191f","1292","
                  <p style=""text-align: center;"">₪71
                                                <br>55%</p>
                  <p id=""wtp"" style=""text-align:center; margin-top: 0px; margin-bottom: 0px; font-size: 40px"";>מוכנים לשלם: <span id=""c_p_y""></span></p>","30","evaluation","7","27","5B,18A","55","71","30","","","","","","","","","","","","","",""
"","","","","","html-keyboard-response","162","307742","0.0-21.0-2.16","d4838bb8-cd69-4a4f-a16a-088457a5191f","null","<p style=""text-align: center;"">+</p>","null","fixation","","","","","","","","","","","","","","","","","","","",""
"","","","","","html-slider-response","163","308745","0.0-21.0-0.17","d4838bb8-cd69-4a4f-a16a-088457a5191f","1000","
                  <p style=""text-align: center;"">₪64
                                                <br>50%</p>
                  <p id=""wtp"" style=""text-align:center; margin-top: 0px; margin-bottom: 0px; font-size: 40px"";>&ensp;</p>","-","viewing","0","25","1B,3B,4A","","","","","","","","","","","","","","","","",""
"","","","","","html-slider-response","164","309744","0.0-21.0-1.17","d4838bb8-cd69-4a4f-a16a-088457a5191f","997","
                  <p style=""text-align: center;"">₪64
                                                <br>50%</p>
                  <p id=""wtp"" style=""text-align:center; margin-top: 0px; margin-bottom: 0px; font-size: 40px"";>מוכנים לשלם: <span id=""c_p_y""></span></p>","31","evaluation","26","25","1B,3B,4A","50","64","31","","","","","","","","","","","","","",""
"","","","","","html-keyboard-response","165","311149","0.0-21.0-2.17","d4838bb8-cd69-4a4f-a16a-088457a5191f","null","<p style=""text-align: center;"">+</p>","null","fixation","","","","","","","","","","","","","","","","","","","",""
"","","","","","html-slider-response","166","312166","0.0-21.0-0.18","d4838bb8-cd69-4a4f-a16a-088457a5191f","1000","
                  <p style=""text-align: center;"">₪71
                                                <br>75%</p>
                  <p id=""wtp"" style=""text-align:center; margin-top: 0px; margin-bottom: 0px; font-size: 40px"";>&ensp;</p>","-","viewing","0","28","8B","","","","","","","","","","","","","","","","",""
"","","","","","html-slider-response","167","313481","0.0-21.0-1.18","d4838bb8-cd69-4a4f-a16a-088457a5191f","1314","
                  <p style=""text-align: center;"">₪71
                                                <br>75%</p>
                  <p id=""wtp"" style=""text-align:center; margin-top: 0px; margin-bottom: 0px; font-size: 40px"";>מוכנים לשלם: <span id=""c_p_y""></span></p>","53","evaluation","3","28","8B","75","71","53","","","","","","","","","","","","","",""
"","","","","","html-keyboard-response","168","314214","0.0-21.0-2.18","d4838bb8-cd69-4a4f-a16a-088457a5191f","null","<p style=""text-align: center;"">+</p>","null","fixation","","","","","","","","","","","","","","","","","","","",""
"","","","","","html-slider-response","169","315225","0.0-21.0-0.19","d4838bb8-cd69-4a4f-a16a-088457a5191f","1000","
                  <p style=""text-align: center;"">₪58
                                                <br>40%</p>
                  <p id=""wtp"" style=""text-align:center; margin-top: 0px; margin-bottom: 0px; font-size: 40px"";>&ensp;</p>","-","viewing","0","20","10C,13A,19C,21B","","","","","","","","","","","","","","","","",""
"","","","","","html-slider-response","170","316728","0.0-21.0-1.19","d4838bb8-cd69-4a4f-a16a-088457a5191f","1502","
                  <p style=""text-align: center;"">₪58
                                                <br>40%</p>
                  <p id=""wtp"" style=""text-align:center; margin-top: 0px; margin-bottom: 0px; font-size: 40px"";>מוכנים לשלם: <span id=""c_p_y""></span></p>","21","evaluation","9","20","10C,13A,19C,21B","40","58","21","","","","","","","","","","","","","",""
"","","","","","html-keyboard-response","171","317362","0.0-21.0-2.19","d4838bb8-cd69-4a4f-a16a-088457a5191f","null","<p style=""text-align: center;"">+</p>","null","fixation","","","","","","","","","","","","","","","","","","","",""
"","","","","","html-slider-response","172","318378","0.0-21.0-0.20","d4838bb8-cd69-4a4f-a16a-088457a5191f","1000","
                  <p style=""text-align: center;"">₪79
                                                <br>40%</p>
                  <p id=""wtp"" style=""text-align:center; margin-top: 0px; margin-bottom: 0px; font-size: 40px"";>&ensp;</p>","-","viewing","0","30","9B","","","","","","","","","","","","","","","","",""
"","","","","","html-slider-response","173","319488","0.0-21.0-1.20","d4838bb8-cd69-4a4f-a16a-088457a5191f","1108","
                  <p style=""text-align: center;"">₪79
                                                <br>40%</p>
                  <p id=""wtp"" style=""text-align:center; margin-top: 0px; margin-bottom: 0px; font-size: 40px"";>מוכנים לשלם: <span id=""c_p_y""></span></p>","22","evaluation","38","30","9B","40","79","22","","","","","","","","","","","","","",""
"","","","","","html-keyboard-response","174","320903","0.0-21.0-2.20","d4838bb8-cd69-4a4f-a16a-088457a5191f","null","<p style=""text-align: center;"">+</p>","null","fixation","","","","","","","","","","","","","","","","","","","",""
"","","","","","html-slider-response","175","321907","0.0-21.0-0.21","d4838bb8-cd69-4a4f-a16a-088457a5191f","1000","
                  <p style=""text-align: center;"">₪43
                                                <br>60%</p>
                  <p id=""wtp"" style=""text-align:center; margin-top: 0px; margin-bottom: 0px; font-size: 40px"";>&ensp;</p>","-","viewing","0","17","2A,7A,9A,15B","","","","","","","","","","","","","","","","",""
"","","","","","html-slider-response","176","323232","0.0-21.0-1.21","d4838bb8-cd69-4a4f-a16a-088457a5191f","1323","
                  <p style=""text-align: center;"">₪43
                                                <br>60%</p>
                  <p id=""wtp"" style=""text-align:center; margin-top: 0px; margin-bottom: 0px; font-size: 40px"";>מוכנים לשלם: <span id=""c_p_y""></span></p>","27","evaluation","11","17","2A,7A,9A,15B","60","43","27","","","","","","","","","","","","","",""
"","","","","","html-keyboard-response","177","324083","0.0-21.0-2.21","d4838bb8-cd69-4a4f-a16a-088457a5191f","null","<p style=""text-align: center;"">+</p>","null","fixation","","","","","","","","","","","","","","","","","","","",""
"","","","","","html-slider-response","178","325095","0.0-21.0-0.22","d4838bb8-cd69-4a4f-a16a-088457a5191f","1000","
                  <p style=""text-align: center;"">₪11
                                                <br>25%</p>
                  <p id=""wtp"" style=""text-align:center; margin-top: 0px; margin-bottom: 0px; font-size: 40px"";>&ensp;</p>","-","viewing","0","5","12A,27B,28B,30B","","","","","","","","","","","","","","","","",""
"","","","","","html-slider-response","179","326024","0.0-21.0-1.22","d4838bb8-cd69-4a4f-a16a-088457a5191f","928","
                  <p style=""text-align: center;"">₪11
                                                <br>25%</p>
                  <p id=""wtp"" style=""text-align:center; margin-top: 0px; margin-bottom: 0px; font-size: 40px"";>מוכנים לשלם: <span id=""c_p_y""></span></p>","2","evaluation","6","5","12A,27B,28B,30B","25","11","2","","","","","","","","","","","","","",""
"","","","","","html-keyboard-response","180","327349","0.0-21.0-2.22","d4838bb8-cd69-4a4f-a16a-088457a5191f","null","<p style=""text-align: center;"">+</p>","null","fixation","","","","","","","","","","","","","","","","","","","",""
"","","","","","html-slider-response","181","328351","0.0-21.0-0.23","d4838bb8-cd69-4a4f-a16a-088457a5191f","1000","
                  <p style=""text-align: center;"">₪4
                                                <br>75%</p>
                  <p id=""wtp"" style=""text-align:center; margin-top: 0px; margin-bottom: 0px; font-size: 40px"";>&ensp;</p>","-","viewing","0","3","12B,20B,23B,27C,29C","","","","","","","","","","","","","","","","",""
"","","","","","html-slider-response","182","329192","0.0-21.0-1.23","d4838bb8-cd69-4a4f-a16a-088457a5191f","840","
                  <p style=""text-align: center;"">₪4
                                                <br>75%</p>
                  <p id=""wtp"" style=""text-align:center; margin-top: 0px; margin-bottom: 0px; font-size: 40px"";>מוכנים לשלם: <span id=""c_p_y""></span></p>","1","evaluation","48","3","12B,20B,23B,27C,29C","75","4","2","","","","","","","","","","","","","",""
"","","","","","html-keyboard-response","183","330184","0.0-21.0-2.23","d4838bb8-cd69-4a4f-a16a-088457a5191f","null","<p style=""text-align: center;"">+</p>","null","fixation","","","","","","","","","","","","","","","","","","","",""
"","","","","","html-slider-response","184","331197","0.0-21.0-0.24","d4838bb8-cd69-4a4f-a16a-088457a5191f","1000","
                  <p style=""text-align: center;"">₪11
                                                <br>45%</p>
                  <p id=""wtp"" style=""text-align:center; margin-top: 0px; margin-bottom: 0px; font-size: 40px"";>&ensp;</p>","-","viewing","0","6","14B,21C,25C","","","","","","","","","","","","","","","","",""
"","","","","","html-slider-response","185","332872","0.0-21.0-1.24","d4838bb8-cd69-4a4f-a16a-088457a5191f","1674","
                  <p style=""text-align: center;"">₪11
                                                <br>45%</p>
                  <p id=""wtp"" style=""text-align:center; margin-top: 0px; margin-bottom: 0px; font-size: 40px"";>מוכנים לשלם: <span id=""c_p_y""></span></p>","5","evaluation","47","6","14B,21C,25C","45","11","5","","","","","","","","","","","","","",""
"","","","","","html-keyboard-response","186","333524","0.0-21.0-2.24","d4838bb8-cd69-4a4f-a16a-088457a5191f","null","<p style=""text-align: center;"">+</p>","null","fixation","","","","","","","","","","","","","","","","","","","",""
"","","","","","html-slider-response","187","334527","0.0-21.0-0.25","d4838bb8-cd69-4a4f-a16a-088457a5191f","1000","
                  <p style=""text-align: center;"">₪4
                                                <br>25%</p>
                  <p id=""wtp"" style=""text-align:center; margin-top: 0px; margin-bottom: 0px; font-size: 40px"";>&ensp;</p>","-","viewing","0","1","6C,29B,30C","","","","","","","","","","","","","","","","",""
"","","","","","html-slider-response","188","335472","0.0-21.0-1.25","d4838bb8-cd69-4a4f-a16a-088457a5191f","943","
                  <p style=""text-align: center;"">₪4
                                                <br>25%</p>
                  <p id=""wtp"" style=""text-align:center; margin-top: 0px; margin-bottom: 0px; font-size: 40px"";>מוכנים לשלם: <span id=""c_p_y""></span></p>","0","evaluation","19","1","6C,29B,30C","25","4","0","","","","","","","","","","","","","",""
"","","","","","html-keyboard-response","189","336969","0.0-21.0-2.25","d4838bb8-cd69-4a4f-a16a-088457a5191f","null","<p style=""text-align: center;"">+</p>","null","fixation","","","","","","","","","","","","","","","","","","","",""
"","","","","","html-slider-response","190","337976","0.0-21.0-0.26","d4838bb8-cd69-4a4f-a16a-088457a5191f","1000","
                  <p style=""text-align: center;"">₪16
                                                <br>20%</p>
                  <p id=""wtp"" style=""text-align:center; margin-top: 0px; margin-bottom: 0px; font-size: 40px"";>&ensp;</p>","-","viewing","0","8","14C,17A,20C,27A","","","","","","","","","","","","","","","","",""
"","","","","","html-slider-response","191","339432","0.0-21.0-1.26","d4838bb8-cd69-4a4f-a16a-088457a5191f","1455","
                  <p style=""text-align: center;"">₪16
                                                <br>20%</p>
                  <p id=""wtp"" style=""text-align:center; margin-top: 0px; margin-bottom: 0px; font-size: 40px"";>מוכנים לשלם: <span id=""c_p_y""></span></p>","3","evaluation","49","8","14C,17A,20C,27A","20","16","3","","","","","","","","","","","","","",""
"","","","","","html-keyboard-response","192","340510","0.0-21.0-2.26","d4838bb8-cd69-4a4f-a16a-088457a5191f","null","<p style=""text-align: center;"">+</p>","null","fixation","","","","","","","","","","","","","","","","","","","",""
"","","","","","html-slider-response","193","341513","0.0-21.0-0.27","d4838bb8-cd69-4a4f-a16a-088457a5191f","1000","
                  <p style=""text-align: center;"">₪43
                                                <br>75%</p>
                  <p id=""wtp"" style=""text-align:center; margin-top: 0px; margin-bottom: 0px; font-size: 40px"";>&ensp;</p>","-","viewing","0","18","11B,19B,24A,26A","","","","","","","","","","","","","","","","",""
"","","","","","html-slider-response","194","342736","0.0-21.0-1.27","d4838bb8-cd69-4a4f-a16a-088457a5191f","1222","
                  <p style=""text-align: center;"">₪43
                                                <br>75%</p>
                  <p id=""wtp"" style=""text-align:center; margin-top: 0px; margin-bottom: 0px; font-size: 40px"";>מוכנים לשלם: <span id=""c_p_y""></span></p>","33","evaluation","11","18","11B,19B,24A,26A","75","43","33","","","","","","","","","","","","","",""
"","","","","","html-keyboard-response","195","343425","0.0-21.0-2.27","d4838bb8-cd69-4a4f-a16a-088457a5191f","null","<p style=""text-align: center;"">+</p>","null","fixation","","","","","","","","","","","","","","","","","","","",""
"","","","","","html-slider-response","196","344426","0.0-21.0-0.28","d4838bb8-cd69-4a4f-a16a-088457a5191f","1000","
                  <p style=""text-align: center;"">₪71
                                                <br>45%</p>
                  <p id=""wtp"" style=""text-align:center; margin-top: 0px; margin-bottom: 0px; font-size: 40px"";>&ensp;</p>","-","viewing","0","26","2B,16A","","","","","","","","","","","","","","","","",""
"","","","","","html-slider-response","197","345672","0.0-21.0-1.28","d4838bb8-cd69-4a4f-a16a-088457a5191f","1245","
                  <p style=""text-align: center;"">₪71
                                                <br>45%</p>
                  <p id=""wtp"" style=""text-align:center; margin-top: 0px; margin-bottom: 0px; font-size: 40px"";>מוכנים לשלם: <span id=""c_p_y""></span></p>","42","evaluation","32","26","2B,16A","45","71","42","","","","","","","","","","","","","",""
"","","","","","html-keyboard-response","198","346265","0.0-21.0-2.28","d4838bb8-cd69-4a4f-a16a-088457a5191f","null","<p style=""text-align: center;"">+</p>","null","fixation","","","","","","","","","","","","","","","","","","","",""
"","","","","","html-slider-response","199","347267","0.0-21.0-0.29","d4838bb8-cd69-4a4f-a16a-088457a5191f","1000","
                  <p style=""text-align: center;"">₪4
                                                <br>50%</p>
                  <p id=""wtp"" style=""text-align:center; margin-top: 0px; margin-bottom: 0px; font-size: 40px"";>&ensp;</p>","-","viewing","0","2","4C,17B","","","","","","","","","","","","","","","","",""
"","","","","","html-slider-response","200","348344","0.0-21.0-1.29","d4838bb8-cd69-4a4f-a16a-088457a5191f","1075","
                  <p style=""text-align: center;"">₪4
                                                <br>50%</p>
                  <p id=""wtp"" style=""text-align:center; margin-top: 0px; margin-bottom: 0px; font-size: 40px"";>מוכנים לשלם: <span id=""c_p_y""></span></p>","2","evaluation","58","2","4C,17B","50","4","2","","","","","","","","","","","","","",""
"","","","","","html-keyboard-response","201","349788","0.0-21.0-2.29","d4838bb8-cd69-4a4f-a16a-088457a5191f","null","<p style=""text-align: center;"">+</p>","null","fixation","","","","","","","","","","","","","","","","","","","",""
"","","","","","html-slider-response","202","350793","0.0-21.0-0.30","d4838bb8-cd69-4a4f-a16a-088457a5191f","1000","
                  <p style=""text-align: center;"">₪61
                                                <br>45%</p>
                  <p id=""wtp"" style=""text-align:center; margin-top: 0px; margin-bottom: 0px; font-size: 40px"";>&ensp;</p>","-","viewing","0","22","10A,11A","","","","","","","","","","","","","","","","",""
"","","","","","html-slider-response","203","352224","0.0-21.0-1.30","d4838bb8-cd69-4a4f-a16a-088457a5191f","1431","
                  <p style=""text-align: center;"">₪61
                                                <br>45%</p>
                  <p id=""wtp"" style=""text-align:center; margin-top: 0px; margin-bottom: 0px; font-size: 40px"";>מוכנים לשלם: <span id=""c_p_y""></span></p>","25","evaluation","30","22","10A,11A","45","61","25","","","","","","","","","","","","","",""
"","","","","","html-keyboard-response","204","353154","0.0-21.0-2.30","d4838bb8-cd69-4a4f-a16a-088457a5191f","null","<p style=""text-align: center;"">+</p>","null","fixation","","","","","","","","","","","","","","","","","","","",""
"","","","","","html-keyboard-response","205","354156","0.0-22.0","d4838bb8-cd69-4a4f-a16a-088457a5191f","null","<p style=""text-align: center;"">+</p>","null","fixation","","","","","","","","","","","","","","","","","","","",""
"","","","","","html-keyboard-response","206","359408","0.0-23.0","d4838bb8-cd69-4a4f-a16a-088457a5191f","null","<p>הפסקה.
          <br>לחצו כדי להמשיך.</p>","1","scan_wait","","","","","","","","","","","","","","","","","","","",""
"","","","","","html-keyboard-response","207","360418","0.0-24.0","d4838bb8-cd69-4a4f-a16a-088457a5191f","null","<p style=""text-align: center;"">+</p>","null","fixation","","","","","","","","","","","","","","","","","","","",""
"","","","","","html-slider-response","208","361419","0.0-25.0-0.0","d4838bb8-cd69-4a4f-a16a-088457a5191f","1000","
                  <p style=""text-align: center;"">₪71
                                                <br>45%</p>
                  <p id=""wtp"" style=""text-align:center; margin-top: 0px; margin-bottom: 0px; font-size: 40px"";>&ensp;</p>","-","viewing","0","26","2B,16A","","","","","","","","","","","","","","","","",""
"","","","","","html-slider-response","209","362392","0.0-25.0-1.0","d4838bb8-cd69-4a4f-a16a-088457a5191f","971","
                  <p style=""text-align: center;"">₪71
                                                <br>45%</p>
                  <p id=""wtp"" style=""text-align:center; margin-top: 0px; margin-bottom: 0px; font-size: 40px"";>מוכנים לשלם: <span id=""c_p_y""></span></p>","23","evaluation","56","26","2B,16A","45","71","23","","","","","","","","","","","","","",""
"","","","","","html-keyboard-response","210","362997","0.0-25.0-2.0","d4838bb8-cd69-4a4f-a16a-088457a5191f","null","<p style=""text-align: center;"">+</p>","null","fixation","","","","","","","","","","","","","","","","","","","",""
"","","","","","html-slider-response","211","364000","0.0-25.0-0.1","d4838bb8-cd69-4a4f-a16a-088457a5191f","1000","
                  <p style=""text-align: center;"">₪11
                                                <br>25%</p>
                  <p id=""wtp"" style=""text-align:center; margin-top: 0px; margin-bottom: 0px; font-size: 40px"";>&ensp;</p>","-","viewing","0","5","12A,27B,28B,30B","","","","","","","","","","","","","","","","",""
"","","","","","html-slider-response","212","365106","0.0-25.0-1.1","d4838bb8-cd69-4a4f-a16a-088457a5191f","1105","
                  <p style=""text-align: center;"">₪11
                                                <br>25%</p>
                  <p id=""wtp"" style=""text-align:center; margin-top: 0px; margin-bottom: 0px; font-size: 40px"";>מוכנים לשלם: <span id=""c_p_y""></span></p>","3","evaluation","43","5","12A,27B,28B,30B","25","11","4","","","","","","","","","","","","","",""
"","","","","","html-keyboard-response","213","366148","0.0-25.0-2.1","d4838bb8-cd69-4a4f-a16a-088457a5191f","null","<p style=""text-align: center;"">+</p>","null","fixation","","","","","","","","","","","","","","","","","","","",""
"","","","","","html-slider-response","214","367150","0.0-25.0-0.2","d4838bb8-cd69-4a4f-a16a-088457a5191f","1000","
                  <p style=""text-align: center;"">₪36
                                                <br>75%</p>
                  <p id=""wtp"" style=""text-align:center; margin-top: 0px; margin-bottom: 0px; font-size: 40px"";>&ensp;</p>","-","viewing","0","14","4B,5A,13B,16B","","","","","","","","","","","","","","","","",""
"","","","","","html-slider-response","215","368232","0.0-25.0-1.2","d4838bb8-cd69-4a4f-a16a-088457a5191f","1081","
                  <p style=""text-align: center;"">₪36
                                                <br>75%</p>
                  <p id=""wtp"" style=""text-align:center; margin-top: 0px; margin-bottom: 0px; font-size: 40px"";>מוכנים לשלם: <span id=""c_p_y""></span></p>","26","evaluation","24","14","4B,5A,13B,16B","75","36","26","","","","","","","","","","","","","",""
"","","","","","html-keyboard-response","216","369192","0.0-25.0-2.2","d4838bb8-cd69-4a4f-a16a-088457a5191f","null","<p style=""text-align: center;"">+</p>","null","fixation","","","","","","","","","","","","","","","","","","","",""
"","","","","","html-slider-response","217","370196","0.0-25.0-0.3","d4838bb8-cd69-4a4f-a16a-088457a5191f","1000","
                  <p style=""text-align: center;"">₪11
                                                <br>45%</p>
                  <p id=""wtp"" style=""text-align:center; margin-top: 0px; margin-bottom: 0px; font-size: 40px"";>&ensp;</p>","-","viewing","0","6","14B,21C,25C","","","","","","","","","","","","","","","","",""
"","","","","","html-slider-response","218","371064","0.0-25.0-1.3","d4838bb8-cd69-4a4f-a16a-088457a5191f","867","
                  <p style=""text-align: center;"">₪11
                                                <br>45%</p>
                  <p id=""wtp"" style=""text-align:center; margin-top: 0px; margin-bottom: 0px; font-size: 40px"";>מוכנים לשלם: <span id=""c_p_y""></span></p>","3","evaluation","54","6","14B,21C,25C","45","11","4","","","","","","","","","","","","","",""
"","","","","","html-keyboard-response","219","372205","0.0-25.0-2.3","d4838bb8-cd69-4a4f-a16a-088457a5191f","null","<p style=""text-align: center;"">+</p>","null","fixation","","","","","","","","","","","","","","","","","","","",""
"","","","","","html-slider-response","220","373207","0.0-25.0-0.4","d4838bb8-cd69-4a4f-a16a-088457a5191f","1000","
                  <p style=""text-align: center;"">₪36
                                                <br>70%</p>
                  <p id=""wtp"" style=""text-align:center; margin-top: 0px; margin-bottom: 0px; font-size: 40px"";>&ensp;</p>","-","viewing","0","13","3A,5C,10B","","","","","","","","","","","","","","","","",""
"","","","","","html-slider-response","221","374336","0.0-25.0-1.4","d4838bb8-cd69-4a4f-a16a-088457a5191f","1126","
                  <p style=""text-align: center;"">₪36
                                                <br>70%</p>
                  <p id=""wtp"" style=""text-align:center; margin-top: 0px; margin-bottom: 0px; font-size: 40px"";>מוכנים לשלם: <span id=""c_p_y""></span></p>","14","evaluation","31","13","3A,5C,10B","70","36","14","","","","","","","","","","","","","",""
"","","","","","html-keyboard-response","222","375528","0.0-25.0-2.4","d4838bb8-cd69-4a4f-a16a-088457a5191f","null","<p style=""text-align: center;"">+</p>","null","fixation","","","","","","","","","","","","","","","","","","","",""
"","","","","","html-slider-response","223","376531","0.0-25.0-0.5","d4838bb8-cd69-4a4f-a16a-088457a5191f","1000","
                  <p style=""text-align: center;"">₪39
                                                <br>65%</p>
                  <p id=""wtp"" style=""text-align:center; margin-top: 0px; margin-bottom: 0px; font-size: 40px"";>&ensp;</p>","-","viewing","0","16","1A,15A,26C","","","","","","","","","","","","","","","","",""
"","","","","","html-slider-response","224","377937","0.0-25.0-1.5","d4838bb8-cd69-4a4f-a16a-088457a5191f","1404","
                  <p style=""text-align: center;"">₪39
                                                <br>65%</p>
                  <p id=""wtp"" style=""text-align:center; margin-top: 0px; margin-bottom: 0px; font-size: 40px"";>מוכנים לשלם: <span id=""c_p_y""></span></p>","14","evaluation","47","16","1A,15A,26C","65","39","14","","","","","","","","","","","","","",""
"","","","","","html-keyboard-response","225","379017","0.0-25.0-2.5","d4838bb8-cd69-4a4f-a16a-088457a5191f","null","<p style=""text-align: center;"">+</p>","null","fixation","","","","","","","","","","","","","","","","","","","",""
"","","","","","html-slider-response","226","380022","0.0-25.0-0.6","d4838bb8-cd69-4a4f-a16a-088457a5191f","1000","
                  <p style=""text-align: center;"">₪58
                                                <br>30%</p>
                  <p id=""wtp"" style=""text-align:center; margin-top: 0px; margin-bottom: 0px; font-size: 40px"";>&ensp;</p>","-","viewing","0","19","13C,30A","","","","","","","","","","","","","","","","",""
"","","","","","html-slider-response","227","381480","0.0-25.0-1.6","d4838bb8-cd69-4a4f-a16a-088457a5191f","1457","
                  <p style=""text-align: center;"">₪58
                                                <br>30%</p>
                  <p id=""wtp"" style=""text-align:center; margin-top: 0px; margin-bottom: 0px; font-size: 40px"";>מוכנים לשלם: <span id=""c_p_y""></span></p>","8","evaluation","21","19","13C,30A","30","58","8","","","","","","","","","","","","","",""
"","","","","","html-keyboard-response","228","382859","0.0-25.0-2.6","d4838bb8-cd69-4a4f-a16a-088457a5191f","null","<p style=""text-align: center;"">+</p>","null","fixation","","","","","","","","","","","","","","","","","","","",""
"","","","","","html-slider-response","229","383861","0.0-25.0-0.7","d4838bb8-cd69-4a4f-a16a-088457a5191f","1000","
                  <p style=""text-align: center;"">₪61
                                                <br>45%</p>
                  <p id=""wtp"" style=""text-align:center; margin-top: 0px; margin-bottom: 0px; font-size: 40px"";>&ensp;</p>","-","viewing","0","22","10A,11A","","","","","","","","","","","","","","","","",""
"","","","","","html-slider-response","230","385417","0.0-25.0-1.7","d4838bb8-cd69-4a4f-a16a-088457a5191f","1555","
                  <p style=""text-align: center;"">₪61
                                                <br>45%</p>
                  <p id=""wtp"" style=""text-align:center; margin-top: 0px; margin-bottom: 0px; font-size: 40px"";>מוכנים לשלם: <span id=""c_p_y""></span></p>","21","evaluation","41","22","10A,11A","45","61","21","","","","","","","","","","","","","",""
"","","","","","html-keyboard-response","231","386114","0.0-25.0-2.7","d4838bb8-cd69-4a4f-a16a-088457a5191f","null","<p style=""text-align: center;"">+</p>","null","fixation","","","","","","","","","","","","","","","","","","","",""
"","","","","","html-slider-response","232","387116","0.0-25.0-0.8","d4838bb8-cd69-4a4f-a16a-088457a5191f","1000","
                  <p style=""text-align: center;"">₪36
                                                <br>30%</p>
                  <p id=""wtp"" style=""text-align:center; margin-top: 0px; margin-bottom: 0px; font-size: 40px"";>&ensp;</p>","-","viewing","0","11","3C,20A,22A","","","","","","","","","","","","","","","","",""
"","","","","","html-slider-response","233","388000","0.0-25.0-1.8","d4838bb8-cd69-4a4f-a16a-088457a5191f","883","
                  <p style=""text-align: center;"">₪36
                                                <br>30%</p>
                  <p id=""wtp"" style=""text-align:center; margin-top: 0px; margin-bottom: 0px; font-size: 40px"";>מוכנים לשלם: <span id=""c_p_y""></span></p>","8","evaluation","58","11","3C,20A,22A","30","36","9","","","","","","","","","","","","","",""
"","","","","","html-keyboard-response","234","388601","0.0-25.0-2.8","d4838bb8-cd69-4a4f-a16a-088457a5191f","null","<p style=""text-align: center;"">+</p>","null","fixation","","","","","","","","","","","","","","","","","","","",""
"","","","","","html-slider-response","235","389602","0.0-25.0-0.9","d4838bb8-cd69-4a4f-a16a-088457a5191f","1000","
                  <p style=""text-align: center;"">₪43
                                                <br>75%</p>
                  <p id=""wtp"" style=""text-align:center; margin-top: 0px; margin-bottom: 0px; font-size: 40px"";>&ensp;</p>","-","viewing","0","18","11B,19B,24A,26A","","","","","","","","","","","","","","","","",""
"","","","","","html-slider-response","236","390865","0.0-25.0-1.9","d4838bb8-cd69-4a4f-a16a-088457a5191f","1261","
                  <p style=""text-align: center;"">₪43
                                                <br>75%</p>
                  <p id=""wtp"" style=""text-align:center; margin-top: 0px; margin-bottom: 0px; font-size: 40px"";>מוכנים לשלם: <span id=""c_p_y""></span></p>","34","evaluation","66","18","11B,19B,24A,26A","75","43","34","","","","","","","","","","","","","",""
"","","","","","html-keyboard-response","237","391672","0.0-25.0-2.9","d4838bb8-cd69-4a4f-a16a-088457a5191f","null","<p style=""text-align: center;"">+</p>","null","fixation","","","","","","","","","","","","","","","","","","","",""
"","","","","","html-slider-response","238","392679","0.0-25.0-0.10","d4838bb8-cd69-4a4f-a16a-088457a5191f","1000","
                  <p style=""text-align: center;"">₪64
                                                <br>50%</p>
                  <p id=""wtp"" style=""text-align:center; margin-top: 0px; margin-bottom: 0px; font-size: 40px"";>&ensp;</p>","-","viewing","0","25","1B,3B,4A","","","","","","","","","","","","","","","","",""
"","","","","","html-slider-response","239","393521","0.0-25.0-1.10","d4838bb8-cd69-4a4f-a16a-088457a5191f","840","
                  <p style=""text-align: center;"">₪64
                                                <br>50%</p>
                  <p id=""wtp"" style=""text-align:center; margin-top: 0px; margin-bottom: 0px; font-size: 40px"";>מוכנים לשלם: <span id=""c_p_y""></span></p>","14","evaluation","72","25","1B,3B,4A","50","64","14","","","","","","","","","","","","","",""
"","","","","","html-keyboard-response","240","394356","0.0-25.0-2.10","d4838bb8-cd69-4a4f-a16a-088457a5191f","null","<p style=""text-align: center;"">+</p>","null","fixation","","","","","","","","","","","","","","","","","","","",""
"","","","","","html-slider-response","241","395358","0.0-25.0-0.11","d4838bb8-cd69-4a4f-a16a-088457a5191f","1000","
                  <p style=""text-align: center;"">₪58
                                                <br>45%</p>
                  <p id=""wtp"" style=""text-align:center; margin-top: 0px; margin-bottom: 0px; font-size: 40px"";>&ensp;</p>","-","viewing","0","21","11C,18C,25A","","","","","","","","","","","","","","","","",""
"","","","","","html-slider-response","242","396688","0.0-25.0-1.11","d4838bb8-cd69-4a4f-a16a-088457a5191f","1328","
                  <p style=""text-align: center;"">₪58
                                                <br>45%</p>
                  <p id=""wtp"" style=""text-align:center; margin-top: 0px; margin-bottom: 0px; font-size: 40px"";>מוכנים לשלם: <span id=""c_p_y""></span></p>","20","evaluation","32","21","11C,18C,25A","45","58","20","","","","","","","","","","","","","",""
"","","","","","html-keyboard-response","243","397654","0.0-25.0-2.11","d4838bb8-cd69-4a4f-a16a-088457a5191f","null","<p style=""text-align: center;"">+</p>","null","fixation","","","","","","","","","","","","","","","","","","","",""
"","","","","","html-slider-response","244","398657","0.0-25.0-0.12","d4838bb8-cd69-4a4f-a16a-088457a5191f","1000","
                  <p style=""text-align: center;"">₪18
                                                <br>25%</p>
                  <p id=""wtp"" style=""text-align:center; margin-top: 0px; margin-bottom: 0px; font-size: 40px"";>&ensp;</p>","-","viewing","0","9","14A,23A","","","","","","","","","","","","","","","","",""
"","","","","","html-slider-response","245","399505","0.0-25.0-1.12","d4838bb8-cd69-4a4f-a16a-088457a5191f","846","
                  <p style=""text-align: center;"">₪18
                                                <br>25%</p>
                  <p id=""wtp"" style=""text-align:center; margin-top: 0px; margin-bottom: 0px; font-size: 40px"";>מוכנים לשלם: <span id=""c_p_y""></span></p>","5","evaluation","7","9","14A,23A","25","18","5","","","","","","","","","","","","","",""
"","","","","","html-keyboard-response","246","400034","0.0-25.0-2.12","d4838bb8-cd69-4a4f-a16a-088457a5191f","null","<p style=""text-align: center;"">+</p>","null","fixation","","","","","","","","","","","","","","","","","","","",""
"","","","","","html-slider-response","247","401045","0.0-25.0-0.13","d4838bb8-cd69-4a4f-a16a-088457a5191f","1000","
                  <p style=""text-align: center;"">₪71
                                                <br>75%</p>
                  <p id=""wtp"" style=""text-align:center; margin-top: 0px; margin-bottom: 0px; font-size: 40px"";>&ensp;</p>","-","viewing","0","28","8B","","","","","","","","","","","","","","","","",""
"","","","","","html-slider-response","248","402145","0.0-25.0-1.13","d4838bb8-cd69-4a4f-a16a-088457a5191f","1099","
                  <p style=""text-align: center;"">₪71
                                                <br>75%</p>
                  <p id=""wtp"" style=""text-align:center; margin-top: 0px; margin-bottom: 0px; font-size: 40px"";>מוכנים לשלם: <span id=""c_p_y""></span></p>","57","evaluation","1","28","8B","75","71","57","","","","","","","","","","","","","",""
"","","","","","html-keyboard-response","249","402848","0.0-25.0-2.13","d4838bb8-cd69-4a4f-a16a-088457a5191f","null","<p style=""text-align: center;"">+</p>","null","fixation","","","","","","","","","","","","","","","","","","","",""
"","","","","","html-slider-response","250","403862","0.0-25.0-0.14","d4838bb8-cd69-4a4f-a16a-088457a5191f","1000","
                  <p style=""text-align: center;"">₪4
                                                <br>50%</p>
                  <p id=""wtp"" style=""text-align:center; margin-top: 0px; margin-bottom: 0px; font-size: 40px"";>&ensp;</p>","-","viewing","0","2","4C,17B","","","","","","","","","","","","","","","","",""
"","","","","","html-slider-response","251","404938","0.0-25.0-1.14","d4838bb8-cd69-4a4f-a16a-088457a5191f","1075","
                  <p style=""text-align: center;"">₪4
                                                <br>50%</p>
                  <p id=""wtp"" style=""text-align:center; margin-top: 0px; margin-bottom: 0px; font-size: 40px"";>מוכנים לשלם: <span id=""c_p_y""></span></p>","0","evaluation","57","2","4C,17B","50","4","1","","","","","","","","","","","","","",""
"","","","","","html-keyboard-response","252","405531","0.0-25.0-2.14","d4838bb8-cd69-4a4f-a16a-088457a5191f","null","<p style=""text-align: center;"">+</p>","null","fixation","","","","","","","","","","","","","","","","","","","",""
"","","","","","html-slider-response","253","406541","0.0-25.0-0.15","d4838bb8-cd69-4a4f-a16a-088457a5191f","1000","
                  <p style=""text-align: center;"">₪64
                                                <br>25%</p>
                  <p id=""wtp"" style=""text-align:center; margin-top: 0px; margin-bottom: 0px; font-size: 40px"";>&ensp;</p>","-","viewing","0","24","6A,21A","","","","","","","","","","","","","","","","",""
"","","","","","html-slider-response","254","407666","0.0-25.0-1.15","d4838bb8-cd69-4a4f-a16a-088457a5191f","1123","
                  <p style=""text-align: center;"">₪64
                                                <br>25%</p>
                  <p id=""wtp"" style=""text-align:center; margin-top: 0px; margin-bottom: 0px; font-size: 40px"";>מוכנים לשלם: <span id=""c_p_y""></span></p>","8","evaluation","68","24","6A,21A","25","64","8","","","","","","","","","","","","","",""
