"success","timeout","failed_images","failed_audio","failed_video","trial_type","trial_index","time_elapsed","internal_node_id","subject_id","rt","stimulus","response","part","slider_start","ID","set_ID","prob","amount","last_location","actual_choice","actual_EV","binary_id","trinary_id","catch","direction","A_key","S_key","D_key","choice_prob","choice_amount","won_prize","potential_prize_amount","potential_prize_prob","total_prize","accuracy"
"true","false","[]","[]","[]","preload","0","4","0.0-0.0","2d71d909-c794-45d2-b9f9-73e5bc957960","","","","","","","","","","","","","","","","","","","","","","","","","",""
"","","","","","html-keyboard-response","1","12743","0.0-1.0","2d71d909-c794-45d2-b9f9-73e5bc957960","null","
          <h1>שלום וברוכים הבאים!</h1>
          <p>לפניכם ניסוי בקבלת החלטות עם שני חלקים.
          <br><br>לחצו על העכבר כדי להמשיך.</p>","0","example","","","","","","","","","","","","","","","","","","","","","",""
"","","","","","html-keyboard-response","2","24279","0.0-2.0","2d71d909-c794-45d2-b9f9-73e5bc957960","null","
        <h1>חלק 1</h1>
        <p>בקרוב יוצגו בפניכם הגרלות.
        <br>עליכם לבחור את המחיר המירבי שתהיו מוכנים לשלם כדי להשתתף בהגרלה שתוצג.
        <br>יש לכם תקציב של ₪80 לכל הגרלה. 
        <br>נסו להעריך כל הגרלה בנפרד ולחשוב כמה היא שווה עבורכם, ₪80 זמינים לכל הגרלה בנפרד.
        <br><br>לחצו על העכבר כדי להמשיך.</p>","1","instructions","","","","","","","","","","","","","","","","","","","","","",""
"","","","","","html-keyboard-response","3","41311","0.0-3.0","2d71d909-c794-45d2-b9f9-73e5bc957960","null","
        <p>בסוף הניסוי, המחשב יבחר את אחת ההגרלות ויקבע מחיר לכרטיס עבורה. 
        <br>במידה והמחיר שבחרתם נמוך מהמחיר שנבחר על ידי המחשב, לא תשתתפו בהגרלה ותשארו עם מלוא התקציב.
        <br>במידה והמחיר שבחרתם גבוה מהמחיר שנבחר על ידי המחשב, תשלמו את המחיר שנקבע ותשתתפו בהגרלה.
        <br><br>לחצו על העכבר כדי להמשיך.</p>","1","instructions","","","","","","","","","","","","","","","","","","","","","",""
"","","","","","html-slider-response","4","62680","0.0-4.0","2d71d909-c794-45d2-b9f9-73e5bc957960","21251","
        <p style=""font-size: 42px;"">נתחיל עם דוגמא: 
        <br>ההגרלה מטה מציעה 65% סיכוי לזכות ב-₪40 
        <br>&emsp;&emsp;&emsp;&emsp;&emsp;&emsp;&emsp;&emsp;&ensp;35% סיכוי לזכות ב-₪0.
        <br><br>מה המחיר המירבי שתהיו מוכנים לשלם על כרטיס להגרלה זו בין 0 ל-₪80?
        <br>הזיזו את העכבר על פני המלבן ולחצו כדי לבצע בחירה.</p>
        
        <p style=""text-align: center;"">₪40<br>65%</p>

        <p id=""wtp"" style=""text-align:center; margin-top: 0px; margin-bottom: 0px; font-size: 40px"";>מוכנים לשלם: <span id=""c_p_y""></span></p>","50","example","65","","","","","","","","","","","","","","","","","","","","",""
"","","","","","html-keyboard-response","5","82223","0.0-5.0","2d71d909-c794-45d2-b9f9-73e5bc957960","null","<p>יפה מאוד!
                <br> בחרתם שתהיו מוכנים לשלם ₪50 כדי להשתתף בהגרלה:
                <br><p style=""text-align: center;"">₪40<br>65%</p>
                <p>נשמע נכון?
                <br>נניח שהגרלה זו נבחרה בסוף הניסוי.
                <br>כעת המחשב יקבע מחיר עבורה באקראי.
                <br>לחצו על העכבר להמשך.</p>","1","example","","","","","","","","","","","","","","","","","","","","","",""
"","","","","","html-keyboard-response","6","92815","0.0-6.0","2d71d909-c794-45d2-b9f9-73e5bc957960","null","<p>המחשב קבע מחיר: ₪58
                <br>ואתם בחרתם לשלם לכל היותר: ₪50
                <br><br>מכיוון שהמחיר שבחרתם נמוך מהמחיר שנקבע, לא תתשתתפו בהגרלה.
                <br>במקרה כזה, בסוף הניסוי תקבלו את כל התקציב ההתחלתי של ₪80.
                <br><br>לחצו על העכבר להמשך.</p>","1","example","","","","","","","","","","","","","","","","","","","","","",""
"","","","","","html-slider-response","7","102303","0.0-7.0","2d71d909-c794-45d2-b9f9-73e5bc957960","9230","<p style=""font-size: 42px;"">הנה עוד דוגמא:
                <br>ההגרלה מטה מציעה 35% סיכוי לזכות ב-₪18 
                <br>&emsp;&emsp;&emsp;&emsp;&emsp;&emsp;&emsp;&emsp;&ensp;65% סיכוי לזכות ב-₪0.</p>
        
                <p style=""text-align: center;"">₪18<br>35%</p>
                <p id=""wtp"" style=""text-align:center; margin-top: 0px; margin-bottom: 0px; font-size: 40px"";>מוכנים לשלם: <span id=""c_p_y""></span></p>","15","example","27","","","","","","","","","","","","","","","","","","","","",""
"","","","","","html-keyboard-response","8","111135","0.0-8.0","2d71d909-c794-45d2-b9f9-73e5bc957960","null","<p>הייתם מוכנים לשלם  ₪15 כדי להשתתף בהגרלה:
                <p style=""text-align: center;"">₪18<br>35%</p>
                <p>כעת נניח שהמחשב בחר את ההגרלה הזו בסוף הניסוי, וקבע עבורה מחיר.
                <br><br>לחצו על העכבר כדי להמשיך.</p>","1","instructions","","","","","","","","","","","","","","","","","","","","","",""
"","","","","","html-keyboard-response","9","124343","0.0-9.0","2d71d909-c794-45d2-b9f9-73e5bc957960","null","<p>המחשב קבע מחיר להגרלה: ₪5<br>ואתם בחרתם לשלם לכל היותר: ₪15
                <br><br>כעת המחיר שנקבע נמוך מזה שבחרתם, אז תשלמו את המחיר שקבע המחשב (₪5) ותשתתפו בהגרלה.
                <br>במקרה כזה, תסיימו את הניסוי עם תקציב של ₪75 ועם סיכוי לזכות ב-₪18 נוספים מההגרלה.
                <br>כלומר, תוכלו לקבל ₪75 אם לא תזכו בהגרלה, או ₪93 אם תזכו בהגרלה.
                <br><br>לחצו על העכבר להמשך.</p>","1","example","","","","","","","","","","","","","","","","","","","","","",""
"","","","","","html-keyboard-response","10","135319","0.0-10.0","2d71d909-c794-45d2-b9f9-73e5bc957960","null","<p>במהלך הניסוי, קודם תראו את ההגרלה ורק לאחר מכן תוכלו לבחור.
                <p>כמו כן, יהיו לכם מספר שניות מוגבל להגיב.
                <p>בואו ננסה זאת עם ההגרלה הקודמת.
                <br>לחצו על העכבר כדי להמשיך.</p>","1","instructions","","","","","","","","","","","","","","","","","","","","","",""
"","","","","","html-slider-response","11","136592","0.0-11.0","2d71d909-c794-45d2-b9f9-73e5bc957960","1000","
                    <p style=""text-align: center;"">₪18<br>35%</p>
                    <p id=""wtp"" style=""text-align:center; margin-top: 0px; margin-bottom: 0px; font-size: 40px"";>&ensp;</p>","36","instructions","0","","","","","","","","","","","","","","","","","","","","",""
"","","","","","html-slider-response","12","140865","0.0-12.0","2d71d909-c794-45d2-b9f9-73e5bc957960","null","
                    <p style=""text-align: center;"">₪18<br>35%</p>
                    <p id=""wtp"" style=""text-align:center; margin-top: 0px; margin-bottom: 0px; font-size: 40px"";>מוכנים לשלם: <span id=""c_p_y""></span></p>","null","instructions","32","","","","","","","","","","","","","","","","","","","","",""
"","","","","","html-keyboard-response","13","141295","0.0-13.0","2d71d909-c794-45d2-b9f9-73e5bc957960","null","<p>לא הגבתם בזמן המוקצב לתגובה. 
                <br>נסו להגיב מהר יותר בפעם הבאה.
                <br><br>לחצו על העכבר כדי להמשיך.</p>","1","instructions","","","","","","","","","","","","","","","","","","","","","",""
"","","","","","html-slider-response","14","145303","0.0-14.0-0.0","2d71d909-c794-45d2-b9f9-73e5bc957960","3751","
                    <p style=""text-align: center;"">₪40<br>65%</p>
                    <p id=""wtp"" style=""text-align:center; margin-top: 0px; margin-bottom: 0px; font-size: 40px"";>מוכנים לשלם: <span id=""c_p_y""></span></p>","22","instructions","27","","","","","","","","","","","","","","","","","","","","",""
"","","","","","html-keyboard-response","15","148927","0.0-14.0-1.0","2d71d909-c794-45d2-b9f9-73e5bc957960","null","<p>יפה. הפעם בחרתם לשלם לכל היותר ₪22.
                <br><br>לחצו על העכבר כדי להמשיך.</p>","1","instructions","","","","","","","","","","","","","","","","","","","","","",""
"","","","","","html-keyboard-response","16","153983","0.0-15.0","2d71d909-c794-45d2-b9f9-73e5bc957960","null","<p>כעת נתחיל את הניסוי.
                <br><br>אתם תראו הגרלות ותתבקשו לבחור כמה תהיו מוכנים לשלם כדי להשתתף בהן.
                <br>יש לכם תקציב של ₪80 עבור כל הגרלה.
                <br>בסוף הניסוי הגרלה אחת תבחר באקראי ותשוחק.
                <br><br>לחצו על העכבר כדי להתחיל את הניסוי.</p>","1","instructions","","","","","","","","","","","","","","","","","","","","","",""
"","","","","","html-keyboard-response","17","155236","0.0-16.0","2d71d909-c794-45d2-b9f9-73e5bc957960","null","<p style=""text-align: center;"">+</p>","null","fixation","","","","","","","","","","","","","","","","","","","","","",""
"","","","","","html-slider-response","18","156246","0.0-17.0-0.0","2d71d909-c794-45d2-b9f9-73e5bc957960","1000","
                  <p style=""text-align: center;"">₪4
                                                <br>50%</p>
                  <p id=""wtp"" style=""text-align:center; margin-top: 0px; margin-bottom: 0px; font-size: 40px"";>&ensp;</p>","-","viewing","0","2","4C,17B","","","","","","","","","","","","","","","","","","",""
"","","","","","html-slider-response","19","158991","0.0-17.0-1.0","2d71d909-c794-45d2-b9f9-73e5bc957960","2744","
                  <p style=""text-align: center;"">₪4
                                                <br>50%</p>
                  <p id=""wtp"" style=""text-align:center; margin-top: 0px; margin-bottom: 0px; font-size: 40px"";>מוכנים לשלם: <span id=""c_p_y""></span></p>","1","evaluation","69","2","4C,17B","50","4","2","","","","","","","","","","","","","","","",""
"","","","","","html-keyboard-response","20","160087","0.0-17.0-2.0","2d71d909-c794-45d2-b9f9-73e5bc957960","null","<p style=""text-align: center;"">+</p>","null","fixation","","","","","","","","","","","","","","","","","","","","","",""
"","","","","","html-slider-response","21","161097","0.0-17.0-0.1","2d71d909-c794-45d2-b9f9-73e5bc957960","1000","
                  <p style=""text-align: center;"">₪61
                                                <br>55%</p>
                  <p id=""wtp"" style=""text-align:center; margin-top: 0px; margin-bottom: 0px; font-size: 40px"";>&ensp;</p>","-","viewing","0","23","7B,26B","","","","","","","","","","","","","","","","","","",""
"","","","","","html-slider-response","22","164599","0.0-17.0-1.1","2d71d909-c794-45d2-b9f9-73e5bc957960","3501","
                  <p style=""text-align: center;"">₪61
                                                <br>55%</p>
                  <p id=""wtp"" style=""text-align:center; margin-top: 0px; margin-bottom: 0px; font-size: 40px"";>מוכנים לשלם: <span id=""c_p_y""></span></p>","32","evaluation","29","23","7B,26B","55","61","32","","","","","","","","","","","","","","","",""
"","","","","","html-keyboard-response","23","165937","0.0-17.0-2.1","2d71d909-c794-45d2-b9f9-73e5bc957960","null","<p style=""text-align: center;"">+</p>","null","fixation","","","","","","","","","","","","","","","","","","","","","",""
"","","","","","html-slider-response","24","166955","0.0-17.0-0.2","2d71d909-c794-45d2-b9f9-73e5bc957960","1000","
                  <p style=""text-align: center;"">₪11
                                                <br>45%</p>
                  <p id=""wtp"" style=""text-align:center; margin-top: 0px; margin-bottom: 0px; font-size: 40px"";>&ensp;</p>","-","viewing","0","6","14B,21C,25C","","","","","","","","","","","","","","","","","","",""
"","","","","","html-slider-response","25","169303","0.0-17.0-1.2","2d71d909-c794-45d2-b9f9-73e5bc957960","2347","
                  <p style=""text-align: center;"">₪11
                                                <br>45%</p>
                  <p id=""wtp"" style=""text-align:center; margin-top: 0px; margin-bottom: 0px; font-size: 40px"";>מוכנים לשלם: <span id=""c_p_y""></span></p>","4","evaluation","22","6","14B,21C,25C","45","11","4","","","","","","","","","","","","","","","",""
"","","","","","html-keyboard-response","26","170593","0.0-17.0-2.2","2d71d909-c794-45d2-b9f9-73e5bc957960","null","<p style=""text-align: center;"">+</p>","null","fixation","","","","","","","","","","","","","","","","","","","","","",""
"","","","","","html-slider-response","27","171603","0.0-17.0-0.3","2d71d909-c794-45d2-b9f9-73e5bc957960","1000","
                  <p style=""text-align: center;"">₪4
                                                <br>75%</p>
                  <p id=""wtp"" style=""text-align:center; margin-top: 0px; margin-bottom: 0px; font-size: 40px"";>&ensp;</p>","-","viewing","0","3","12B,20B,23B,27C,29C","","","","","","","","","","","","","","","","","","",""
"","","","","","html-slider-response","28","175614","0.0-17.0-1.3","2d71d909-c794-45d2-b9f9-73e5bc957960","null","
                  <p style=""text-align: center;"">₪4
                                                <br>75%</p>
                  <p id=""wtp"" style=""text-align:center; margin-top: 0px; margin-bottom: 0px; font-size: 40px"";>מוכנים לשלם: <span id=""c_p_y""></span></p>","null","evaluation","62","3","12B,20B,23B,27C,29C","75","4","3","","","","","","","","","","","","","","","",""
"","","","","","html-keyboard-response","29","177037","0.0-17.0-2.3","2d71d909-c794-45d2-b9f9-73e5bc957960","null","<p style=""text-align: center;"">+</p>","null","fixation","","","","","","","","","","","","","","","","","","","","","",""
"","","","","","html-slider-response","30","178042","0.0-17.0-0.4","2d71d909-c794-45d2-b9f9-73e5bc957960","1000","
                  <p style=""text-align: center;"">₪4
                                                <br>25%</p>
                  <p id=""wtp"" style=""text-align:center; margin-top: 0px; margin-bottom: 0px; font-size: 40px"";>&ensp;</p>","-","viewing","0","1","6C,29B,30C","","","","","","","","","","","","","","","","","","",""
"","","","","","html-slider-response","31","179591","0.0-17.0-1.4","2d71d909-c794-45d2-b9f9-73e5bc957960","1548","
                  <p style=""text-align: center;"">₪4
                                                <br>25%</p>
                  <p id=""wtp"" style=""text-align:center; margin-top: 0px; margin-bottom: 0px; font-size: 40px"";>מוכנים לשלם: <span id=""c_p_y""></span></p>","0","evaluation","46","1","6C,29B,30C","25","4","1","","","","","","","","","","","","","","","",""
"","","","","","html-keyboard-response","32","180319","0.0-17.0-2.4","2d71d909-c794-45d2-b9f9-73e5bc957960","null","<p style=""text-align: center;"">+</p>","null","fixation","","","","","","","","","","","","","","","","","","","","","",""
"","","","","","html-slider-response","33","181322","0.0-17.0-0.5","2d71d909-c794-45d2-b9f9-73e5bc957960","1000","
                  <p style=""text-align: center;"">₪11
                                                <br>75%</p>
                  <p id=""wtp"" style=""text-align:center; margin-top: 0px; margin-bottom: 0px; font-size: 40px"";>&ensp;</p>","-","viewing","0","7","6B,18B,22C,24C,29A","","","","","","","","","","","","","","","","","","",""
"","","","","","html-slider-response","34","183751","0.0-17.0-1.5","2d71d909-c794-45d2-b9f9-73e5bc957960","2428","
                  <p style=""text-align: center;"">₪11
                                                <br>75%</p>
                  <p id=""wtp"" style=""text-align:center; margin-top: 0px; margin-bottom: 0px; font-size: 40px"";>מוכנים לשלם: <span id=""c_p_y""></span></p>","7","evaluation","59","7","6B,18B,22C,24C,29A","75","11","8","","","","","","","","","","","","","","","",""
"","","","","","html-keyboard-response","35","184611","0.0-17.0-2.5","2d71d909-c794-45d2-b9f9-73e5bc957960","null","<p style=""text-align: center;"">+</p>","null","fixation","","","","","","","","","","","","","","","","","","","","","",""
"","","","","","html-slider-response","36","185623","0.0-17.0-0.6","2d71d909-c794-45d2-b9f9-73e5bc957960","1000","
                  <p style=""text-align: center;"">₪18
                                                <br>25%</p>
                  <p id=""wtp"" style=""text-align:center; margin-top: 0px; margin-bottom: 0px; font-size: 40px"";>&ensp;</p>","-","viewing","0","9","14A,23A","","","","","","","","","","","","","","","","","","",""
"","","","","","html-slider-response","37","188319","0.0-17.0-1.6","2d71d909-c794-45d2-b9f9-73e5bc957960","2695","
                  <p style=""text-align: center;"">₪18
                                                <br>25%</p>
                  <p id=""wtp"" style=""text-align:center; margin-top: 0px; margin-bottom: 0px; font-size: 40px"";>מוכנים לשלם: <span id=""c_p_y""></span></p>","8","evaluation","16","9","14A,23A","25","18","8","","","","","","","","","","","","","","","",""
"","","","","","html-keyboard-response","38","189549","0.0-17.0-2.6","2d71d909-c794-45d2-b9f9-73e5bc957960","null","<p style=""text-align: center;"">+</p>","null","fixation","","","","","","","","","","","","","","","","","","","","","",""
"","","","","","html-slider-response","39","190552","0.0-17.0-0.7","2d71d909-c794-45d2-b9f9-73e5bc957960","1000","
                  <p style=""text-align: center;"">₪71
                                                <br>55%</p>
                  <p id=""wtp"" style=""text-align:center; margin-top: 0px; margin-bottom: 0px; font-size: 40px"";>&ensp;</p>","-","viewing","0","27","5B,18A","","","","","","","","","","","","","","","","","","",""
"","","","","","html-slider-response","40","192287","0.0-17.0-1.7","2d71d909-c794-45d2-b9f9-73e5bc957960","1734","
                  <p style=""text-align: center;"">₪71
                                                <br>55%</p>
                  <p id=""wtp"" style=""text-align:center; margin-top: 0px; margin-bottom: 0px; font-size: 40px"";>מוכנים לשלם: <span id=""c_p_y""></span></p>","40","evaluation","47","27","5B,18A","55","71","40","","","","","","","","","","","","","","","",""
"","","","","","html-keyboard-response","41","193636","0.0-17.0-2.7","2d71d909-c794-45d2-b9f9-73e5bc957960","null","<p style=""text-align: center;"">+</p>","null","fixation","","","","","","","","","","","","","","","","","","","","","",""
"","","","","","html-slider-response","42","194637","0.0-17.0-0.8","2d71d909-c794-45d2-b9f9-73e5bc957960","1000","
                  <p style=""text-align: center;"">₪11
                                                <br>25%</p>
                  <p id=""wtp"" style=""text-align:center; margin-top: 0px; margin-bottom: 0px; font-size: 40px"";>&ensp;</p>","-","viewing","0","5","12A,27B,28B,30B","","","","","","","","","","","","","","","","","","",""
"","","","","","html-slider-response","43","196479","0.0-17.0-1.8","2d71d909-c794-45d2-b9f9-73e5bc957960","1840","
                  <p style=""text-align: center;"">₪11
                                                <br>25%</p>
                  <p id=""wtp"" style=""text-align:center; margin-top: 0px; margin-bottom: 0px; font-size: 40px"";>מוכנים לשלם: <span id=""c_p_y""></span></p>","8","evaluation","24","5","12A,27B,28B,30B","25","11","8","","","","","","","","","","","","","","","",""
"","","","","","html-keyboard-response","44","197706","0.0-17.0-2.8","2d71d909-c794-45d2-b9f9-73e5bc957960","null","<p style=""text-align: center;"">+</p>","null","fixation","","","","","","","","","","","","","","","","","","","","","",""
"","","","","","html-slider-response","45","198716","0.0-17.0-0.9","2d71d909-c794-45d2-b9f9-73e5bc957960","1000","
                  <p style=""text-align: center;"">₪16
                                                <br>20%</p>
                  <p id=""wtp"" style=""text-align:center; margin-top: 0px; margin-bottom: 0px; font-size: 40px"";>&ensp;</p>","-","viewing","0","8","14C,17A,20C,27A","","","","","","","","","","","","","","","","","","",""
"","","","","","html-slider-response","46","200383","0.0-17.0-1.9","2d71d909-c794-45d2-b9f9-73e5bc957960","1665","
                  <p style=""text-align: center;"">₪16
                                                <br>20%</p>
                  <p id=""wtp"" style=""text-align:center; margin-top: 0px; margin-bottom: 0px; font-size: 40px"";>מוכנים לשלם: <span id=""c_p_y""></span></p>","1","evaluation","70","8","14C,17A,20C,27A","20","16","1","","","","","","","","","","","","","","","",""
"","","","","","html-keyboard-response","47","201139","0.0-17.0-2.9","2d71d909-c794-45d2-b9f9-73e5bc957960","null","<p style=""text-align: center;"">+</p>","null","fixation","","","","","","","","","","","","","","","","","","","","","",""
"","","","","","html-slider-response","48","202141","0.0-17.0-0.10","2d71d909-c794-45d2-b9f9-73e5bc957960","1000","
                  <p style=""text-align: center;"">₪64
                                                <br>50%</p>
                  <p id=""wtp"" style=""text-align:center; margin-top: 0px; margin-bottom: 0px; font-size: 40px"";>&ensp;</p>","-","viewing","0","25","1B,3B,4A","","","","","","","","","","","","","","","","","","",""
"","","","","","html-slider-response","49","204375","0.0-17.0-1.10","2d71d909-c794-45d2-b9f9-73e5bc957960","2231","
                  <p style=""text-align: center;"">₪64
                                                <br>50%</p>
                  <p id=""wtp"" style=""text-align:center; margin-top: 0px; margin-bottom: 0px; font-size: 40px"";>מוכנים לשלם: <span id=""c_p_y""></span></p>","29","evaluation","23","25","1B,3B,4A","50","64","29","","","","","","","","","","","","","","","",""
"","","","","","html-keyboard-response","50","205712","0.0-17.0-2.10","2d71d909-c794-45d2-b9f9-73e5bc957960","null","<p style=""text-align: center;"">+</p>","null","fixation","","","","","","","","","","","","","","","","","","","","","",""
"","","","","","html-slider-response","51","206718","0.0-17.0-0.11","2d71d909-c794-45d2-b9f9-73e5bc957960","1000","
                  <p style=""text-align: center;"">₪39
                                                <br>65%</p>
                  <p id=""wtp"" style=""text-align:center; margin-top: 0px; margin-bottom: 0px; font-size: 40px"";>&ensp;</p>","-","viewing","0","16","1A,15A,26C","","","","","","","","","","","","","","","","","","",""
"","","","","","html-slider-response","52","209503","0.0-17.0-1.11","2d71d909-c794-45d2-b9f9-73e5bc957960","2784","
                  <p style=""text-align: center;"">₪39
                                                <br>65%</p>
                  <p id=""wtp"" style=""text-align:center; margin-top: 0px; margin-bottom: 0px; font-size: 40px"";>מוכנים לשלם: <span id=""c_p_y""></span></p>","25","evaluation","67","16","1A,15A,26C","65","39","26","","","","","","","","","","","","","","","",""
"","","","","","html-keyboard-response","53","210496","0.0-17.0-2.11","2d71d909-c794-45d2-b9f9-73e5bc957960","null","<p style=""text-align: center;"">+</p>","null","fixation","","","","","","","","","","","","","","","","","","","","","",""
"","","","","","html-slider-response","54","211512","0.0-17.0-0.12","2d71d909-c794-45d2-b9f9-73e5bc957960","1000","
                  <p style=""text-align: center;"">₪36
                                                <br>60%</p>
                  <p id=""wtp"" style=""text-align:center; margin-top: 0px; margin-bottom: 0px; font-size: 40px"";>&ensp;</p>","-","viewing","0","12","1C,7C,15C","","","","","","","","","","","","","","","","","","",""
"","","","","","html-slider-response","55","213551","0.0-17.0-1.12","2d71d909-c794-45d2-b9f9-73e5bc957960","2038","
                  <p style=""text-align: center;"">₪36
                                                <br>60%</p>
                  <p id=""wtp"" style=""text-align:center; margin-top: 0px; margin-bottom: 0px; font-size: 40px"";>מוכנים לשלם: <span id=""c_p_y""></span></p>","28","evaluation","51","12","1C,7C,15C","60","36","29","","","","","","","","","","","","","","","",""
"","","","","","html-keyboard-response","56","214101","0.0-17.0-2.12","2d71d909-c794-45d2-b9f9-73e5bc957960","null","<p style=""text-align: center;"">+</p>","null","fixation","","","","","","","","","","","","","","","","","","","","","",""
"","","","","","html-slider-response","57","215118","0.0-17.0-0.13","2d71d909-c794-45d2-b9f9-73e5bc957960","1000","
                  <p style=""text-align: center;"">₪43
                                                <br>75%</p>
                  <p id=""wtp"" style=""text-align:center; margin-top: 0px; margin-bottom: 0px; font-size: 40px"";>&ensp;</p>","-","viewing","0","18","11B,19B,24A,26A","","","","","","","","","","","","","","","","","","",""
"","","","","","html-slider-response","58","216855","0.0-17.0-1.13","2d71d909-c794-45d2-b9f9-73e5bc957960","1736","
                  <p style=""text-align: center;"">₪43
                                                <br>75%</p>
                  <p id=""wtp"" style=""text-align:center; margin-top: 0px; margin-bottom: 0px; font-size: 40px"";>מוכנים לשלם: <span id=""c_p_y""></span></p>","42","evaluation","11","18","11B,19B,24A,26A","75","43","42","","","","","","","","","","","","","","","",""
"","","","","","html-keyboard-response","59","217915","0.0-17.0-2.13","2d71d909-c794-45d2-b9f9-73e5bc957960","null","<p style=""text-align: center;"">+</p>","null","fixation","","","","","","","","","","","","","","","","","","","","","",""
"","","","","","html-slider-response","60","218918","0.0-17.0-0.14","2d71d909-c794-45d2-b9f9-73e5bc957960","1000","
                  <p style=""text-align: center;"">₪58
                                                <br>30%</p>
                  <p id=""wtp"" style=""text-align:center; margin-top: 0px; margin-bottom: 0px; font-size: 40px"";>&ensp;</p>","-","viewing","0","19","13C,30A","","","","","","","","","","","","","","","","","","",""
"","","","","","html-slider-response","61","221391","0.0-17.0-1.14","2d71d909-c794-45d2-b9f9-73e5bc957960","2472","
                  <p style=""text-align: center;"">₪58
                                                <br>30%</p>
                  <p id=""wtp"" style=""text-align:center; margin-top: 0px; margin-bottom: 0px; font-size: 40px"";>מוכנים לשלם: <span id=""c_p_y""></span></p>","21","evaluation","13","19","13C,30A","30","58","21","","","","","","","","","","","","","","","",""
"","","","","","html-keyboard-response","62","222666","0.0-17.0-2.14","2d71d909-c794-45d2-b9f9-73e5bc957960","null","<p style=""text-align: center;"">+</p>","null","fixation","","","","","","","","","","","","","","","","","","","","","",""
"","","","","","html-slider-response","63","223676","0.0-17.0-0.15","2d71d909-c794-45d2-b9f9-73e5bc957960","1000","
                  <p style=""text-align: center;"">₪11
                                                <br>20%</p>
                  <p id=""wtp"" style=""text-align:center; margin-top: 0px; margin-bottom: 0px; font-size: 40px"";>&ensp;</p>","-","viewing","0","4","12C,17C,23C,28C","","","","","","","","","","","","","","","","","","",""
"","","","","","html-slider-response","64","225063","0.0-17.0-1.15","2d71d909-c794-45d2-b9f9-73e5bc957960","1385","
                  <p style=""text-align: center;"">₪11
                                                <br>20%</p>
                  <p id=""wtp"" style=""text-align:center; margin-top: 0px; margin-bottom: 0px; font-size: 40px"";>מוכנים לשלם: <span id=""c_p_y""></span></p>","1","evaluation","37","4","12C,17C,23C,28C","20","11","2","","","","","","","","","","","","","","","",""
"","","","","","html-keyboard-response","65","226244","0.0-17.0-2.15","2d71d909-c794-45d2-b9f9-73e5bc957960","null","<p style=""text-align: center;"">+</p>","null","fixation","","","","","","","","","","","","","","","","","","","","","",""
"","","","","","html-slider-response","66","227258","0.0-17.0-0.16","2d71d909-c794-45d2-b9f9-73e5bc957960","1000","
                  <p style=""text-align: center;"">₪64
                                                <br>25%</p>
                  <p id=""wtp"" style=""text-align:center; margin-top: 0px; margin-bottom: 0px; font-size: 40px"";>&ensp;</p>","-","viewing","0","24","6A,21A","","","","","","","","","","","","","","","","","","",""
"","","","","","html-slider-response","67","228711","0.0-17.0-1.16","2d71d909-c794-45d2-b9f9-73e5bc957960","1451","
                  <p style=""text-align: center;"">₪64
                                                <br>25%</p>
                  <p id=""wtp"" style=""text-align:center; margin-top: 0px; margin-bottom: 0px; font-size: 40px"";>מוכנים לשלם: <span id=""c_p_y""></span></p>","13","evaluation","48","24","6A,21A","25","64","13","","","","","","","","","","","","","","","",""
"","","","","","html-keyboard-response","68","230029","0.0-17.0-2.16","2d71d909-c794-45d2-b9f9-73e5bc957960","null","<p style=""text-align: center;"">+</p>","null","fixation","","","","","","","","","","","","","","","","","","","","","",""
"","","","","","html-slider-response","69","231042","0.0-17.0-0.17","2d71d909-c794-45d2-b9f9-73e5bc957960","1000","
                  <p style=""text-align: center;"">₪76
                                                <br>65%</p>
                  <p id=""wtp"" style=""text-align:center; margin-top: 0px; margin-bottom: 0px; font-size: 40px"";>&ensp;</p>","-","viewing","0","29","8C,19A,24B","","","","","","","","","","","","","","","","","","",""
"","","","","","html-slider-response","70","232407","0.0-17.0-1.17","2d71d909-c794-45d2-b9f9-73e5bc957960","1364","
                  <p style=""text-align: center;"">₪76
                                                <br>65%</p>
                  <p id=""wtp"" style=""text-align:center; margin-top: 0px; margin-bottom: 0px; font-size: 40px"";>מוכנים לשלם: <span id=""c_p_y""></span></p>","38","evaluation","79","29","8C,19A,24B","65","76","38","","","","","","","","","","","","","","","",""
"","","","","","html-keyboard-response","71","233901","0.0-17.0-2.17","2d71d909-c794-45d2-b9f9-73e5bc957960","null","<p style=""text-align: center;"">+</p>","null","fixation","","","","","","","","","","","","","","","","","","","","","",""
"","","","","","html-slider-response","72","234905","0.0-17.0-0.18","2d71d909-c794-45d2-b9f9-73e5bc957960","1000","
                  <p style=""text-align: center;"">₪71
                                                <br>75%</p>
                  <p id=""wtp"" style=""text-align:center; margin-top: 0px; margin-bottom: 0px; font-size: 40px"";>&ensp;</p>","-","viewing","0","28","8B","","","","","","","","","","","","","","","","","","",""
"","","","","","html-slider-response","73","237679","0.0-17.0-1.18","2d71d909-c794-45d2-b9f9-73e5bc957960","2772","
                  <p style=""text-align: center;"">₪71
                                                <br>75%</p>
                  <p id=""wtp"" style=""text-align:center; margin-top: 0px; margin-bottom: 0px; font-size: 40px"";>מוכנים לשלם: <span id=""c_p_y""></span></p>","61","evaluation","30","28","8B","75","71","60","","","","","","","","","","","","","","","",""
"","","","","","html-keyboard-response","74","238998","0.0-17.0-2.18","2d71d909-c794-45d2-b9f9-73e5bc957960","null","<p style=""text-align: center;"">+</p>","null","fixation","","","","","","","","","","","","","","","","","","","","","",""
"","","","","","html-slider-response","75","240001","0.0-17.0-0.19","2d71d909-c794-45d2-b9f9-73e5bc957960","1000","
                  <p style=""text-align: center;"">₪79
                                                <br>40%</p>
                  <p id=""wtp"" style=""text-align:center; margin-top: 0px; margin-bottom: 0px; font-size: 40px"";>&ensp;</p>","-","viewing","0","30","9B","","","","","","","","","","","","","","","","","","",""
"","","","","","html-slider-response","76","243247","0.0-17.0-1.19","2d71d909-c794-45d2-b9f9-73e5bc957960","3245","
                  <p style=""text-align: center;"">₪79
                                                <br>40%</p>
                  <p id=""wtp"" style=""text-align:center; margin-top: 0px; margin-bottom: 0px; font-size: 40px"";>מוכנים לשלם: <span id=""c_p_y""></span></p>","26","evaluation","29","30","9B","40","79","26","","","","","","","","","","","","","","","",""
"","","","","","html-keyboard-response","77","244471","0.0-17.0-2.19","2d71d909-c794-45d2-b9f9-73e5bc957960","null","<p style=""text-align: center;"">+</p>","null","fixation","","","","","","","","","","","","","","","","","","","","","",""
"","","","","","html-slider-response","78","245480","0.0-17.0-0.20","2d71d909-c794-45d2-b9f9-73e5bc957960","1000","
                  <p style=""text-align: center;"">₪18
                                                <br>50%</p>
                  <p id=""wtp"" style=""text-align:center; margin-top: 0px; margin-bottom: 0px; font-size: 40px"";>&ensp;</p>","-","viewing","0","10","2C,16C,22B,28A","","","","","","","","","","","","","","","","","","",""
"","","","","","html-slider-response","79","246871","0.0-17.0-1.20","2d71d909-c794-45d2-b9f9-73e5bc957960","1390","
                  <p style=""text-align: center;"">₪18
                                                <br>50%</p>
                  <p id=""wtp"" style=""text-align:center; margin-top: 0px; margin-bottom: 0px; font-size: 40px"";>מוכנים לשלם: <span id=""c_p_y""></span></p>","7","evaluation","64","10","2C,16C,22B,28A","50","18","7","","","","","","","","","","","","","","","",""
"","","","","","html-keyboard-response","80","247907","0.0-17.0-2.20","2d71d909-c794-45d2-b9f9-73e5bc957960","null","<p style=""text-align: center;"">+</p>","null","fixation","","","","","","","","","","","","","","","","","","","","","",""
"","","","","","html-slider-response","81","248920","0.0-17.0-0.21","2d71d909-c794-45d2-b9f9-73e5bc957960","1000","
                  <p style=""text-align: center;"">₪36
                                                <br>70%</p>
                  <p id=""wtp"" style=""text-align:center; margin-top: 0px; margin-bottom: 0px; font-size: 40px"";>&ensp;</p>","-","viewing","0","13","3A,5C,10B","","","","","","","","","","","","","","","","","","",""
"","","","","","html-slider-response","82","249991","0.0-17.0-1.21","2d71d909-c794-45d2-b9f9-73e5bc957960","1069","
                  <p style=""text-align: center;"">₪36
                                                <br>70%</p>
                  <p id=""wtp"" style=""text-align:center; margin-top: 0px; margin-bottom: 0px; font-size: 40px"";>מוכנים לשלם: <span id=""c_p_y""></span></p>","20","evaluation","29","13","3A,5C,10B","70","36","20","","","","","","","","","","","","","","","",""
"","","","","","html-keyboard-response","83","250626","0.0-17.0-2.21","2d71d909-c794-45d2-b9f9-73e5bc957960","null","<p style=""text-align: center;"">+</p>","null","fixation","","","","","","","","","","","","","","","","","","","","","",""
"","","","","","html-slider-response","84","251635","0.0-17.0-0.22","2d71d909-c794-45d2-b9f9-73e5bc957960","1000","
                  <p style=""text-align: center;"">₪58
                                                <br>45%</p>
                  <p id=""wtp"" style=""text-align:center; margin-top: 0px; margin-bottom: 0px; font-size: 40px"";>&ensp;</p>","-","viewing","0","21","11C,18C,25A","","","","","","","","","","","","","","","","","","",""
"","","","","","html-slider-response","85","254639","0.0-17.0-1.22","2d71d909-c794-45d2-b9f9-73e5bc957960","3003","
                  <p style=""text-align: center;"">₪58
                                                <br>45%</p>
                  <p id=""wtp"" style=""text-align:center; margin-top: 0px; margin-bottom: 0px; font-size: 40px"";>מוכנים לשלם: <span id=""c_p_y""></span></p>","38","evaluation","12","21","11C,18C,25A","45","58","38","","","","","","","","","","","","","","","",""
"","","","","","html-keyboard-response","86","256040","0.0-17.0-2.22","2d71d909-c794-45d2-b9f9-73e5bc957960","null","<p style=""text-align: center;"">+</p>","null","fixation","","","","","","","","","","","","","","","","","","","","","",""
"","","","","","html-slider-response","87","257057","0.0-17.0-0.23","2d71d909-c794-45d2-b9f9-73e5bc957960","1000","
                  <p style=""text-align: center;"">₪79
                                                <br>65%</p>
                  <p id=""wtp"" style=""text-align:center; margin-top: 0px; margin-bottom: 0px; font-size: 40px"";>&ensp;</p>","-","viewing","0","31","8A","","","","","","","","","","","","","","","","","","",""
"","","","","","html-slider-response","88","259023","0.0-17.0-1.23","2d71d909-c794-45d2-b9f9-73e5bc957960","1965","
                  <p style=""text-align: center;"">₪79
                                                <br>65%</p>
                  <p id=""wtp"" style=""text-align:center; margin-top: 0px; margin-bottom: 0px; font-size: 40px"";>מוכנים לשלם: <span id=""c_p_y""></span></p>","40","evaluation","80","31","8A","65","79","40","","","","","","","","","","","","","","","",""
"","","","","","html-keyboard-response","89","260088","0.0-17.0-2.23","2d71d909-c794-45d2-b9f9-73e5bc957960","null","<p style=""text-align: center;"">+</p>","null","fixation","","","","","","","","","","","","","","","","","","","","","",""
"","","","","","html-slider-response","90","261089","0.0-17.0-0.24","2d71d909-c794-45d2-b9f9-73e5bc957960","1000","
                  <p style=""text-align: center;"">₪58
                                                <br>40%</p>
                  <p id=""wtp"" style=""text-align:center; margin-top: 0px; margin-bottom: 0px; font-size: 40px"";>&ensp;</p>","-","viewing","0","20","10C,13A,19C,21B","","","","","","","","","","","","","","","","","","",""
"","","","","","html-slider-response","91","263207","0.0-17.0-1.24","2d71d909-c794-45d2-b9f9-73e5bc957960","2117","
                  <p style=""text-align: center;"">₪58
                                                <br>40%</p>
                  <p id=""wtp"" style=""text-align:center; margin-top: 0px; margin-bottom: 0px; font-size: 40px"";>מוכנים לשלם: <span id=""c_p_y""></span></p>","28","evaluation","23","20","10C,13A,19C,21B","40","58","28","","","","","","","","","","","","","","","",""
"","","","","","html-keyboard-response","92","264176","0.0-17.0-2.24","2d71d909-c794-45d2-b9f9-73e5bc957960","null","<p style=""text-align: center;"">+</p>","null","fixation","","","","","","","","","","","","","","","","","","","","","",""
"","","","","","html-slider-response","93","265190","0.0-17.0-0.25","2d71d909-c794-45d2-b9f9-73e5bc957960","1000","
                  <p style=""text-align: center;"">₪61
                                                <br>45%</p>
                  <p id=""wtp"" style=""text-align:center; margin-top: 0px; margin-bottom: 0px; font-size: 40px"";>&ensp;</p>","-","viewing","0","22","10A,11A","","","","","","","","","","","","","","","","","","",""
"","","","","","html-slider-response","94","267254","0.0-17.0-1.25","2d71d909-c794-45d2-b9f9-73e5bc957960","2064","
                  <p style=""text-align: center;"">₪61
                                                <br>45%</p>
                  <p id=""wtp"" style=""text-align:center; margin-top: 0px; margin-bottom: 0px; font-size: 40px"";>מוכנים לשלם: <span id=""c_p_y""></span></p>","34","evaluation","2","22","10A,11A","45","61","34","","","","","","","","","","","","","","","",""
"","","","","","html-keyboard-response","95","267954","0.0-17.0-2.25","2d71d909-c794-45d2-b9f9-73e5bc957960","null","<p style=""text-align: center;"">+</p>","null","fixation","","","","","","","","","","","","","","","","","","","","","",""
"","","","","","html-slider-response","96","268966","0.0-17.0-0.26","2d71d909-c794-45d2-b9f9-73e5bc957960","1000","
                  <p style=""text-align: center;"">₪36
                                                <br>30%</p>
                  <p id=""wtp"" style=""text-align:center; margin-top: 0px; margin-bottom: 0px; font-size: 40px"";>&ensp;</p>","-","viewing","0","11","3C,20A,22A","","","","","","","","","","","","","","","","","","",""
"","","","","","html-slider-response","97","270293","0.0-17.0-1.26","2d71d909-c794-45d2-b9f9-73e5bc957960","1326","
                  <p style=""text-align: center;"">₪36
                                                <br>30%</p>
                  <p id=""wtp"" style=""text-align:center; margin-top: 0px; margin-bottom: 0px; font-size: 40px"";>מוכנים לשלם: <span id=""c_p_y""></span></p>","15","evaluation","52","11","3C,20A,22A","30","36","15","","","","","","","","","","","","","","","",""
"","","","","","html-keyboard-response","98","271426","0.0-17.0-2.26","2d71d909-c794-45d2-b9f9-73e5bc957960","null","<p style=""text-align: center;"">+</p>","null","fixation","","","","","","","","","","","","","","","","","","","","","",""
"","","","","","html-slider-response","99","272429","0.0-17.0-0.27","2d71d909-c794-45d2-b9f9-73e5bc957960","1000","
                  <p style=""text-align: center;"">₪39
                                                <br>60%</p>
                  <p id=""wtp"" style=""text-align:center; margin-top: 0px; margin-bottom: 0px; font-size: 40px"";>&ensp;</p>","-","viewing","0","15","9C,25B","","","","","","","","","","","","","","","","","","",""
"","","","","","html-slider-response","100","273262","0.0-17.0-1.27","2d71d909-c794-45d2-b9f9-73e5bc957960","832","
                  <p style=""text-align: center;"">₪39
                                                <br>60%</p>
                  <p id=""wtp"" style=""text-align:center; margin-top: 0px; margin-bottom: 0px; font-size: 40px"";>מוכנים לשלם: <span id=""c_p_y""></span></p>","28","evaluation","6","15","9C,25B","60","39","28","","","","","","","","","","","","","","","",""
"","","","","","html-keyboard-response","101","274027","0.0-17.0-2.27","2d71d909-c794-45d2-b9f9-73e5bc957960","null","<p style=""text-align: center;"">+</p>","null","fixation","","","","","","","","","","","","","","","","","","","","","",""
"","","","","","html-slider-response","102","275032","0.0-17.0-0.28","2d71d909-c794-45d2-b9f9-73e5bc957960","1000","
                  <p style=""text-align: center;"">₪36
                                                <br>75%</p>
                  <p id=""wtp"" style=""text-align:center; margin-top: 0px; margin-bottom: 0px; font-size: 40px"";>&ensp;</p>","-","viewing","0","14","4B,5A,13B,16B","","","","","","","","","","","","","","","","","","",""
"","","","","","html-slider-response","103","275790","0.0-17.0-1.28","2d71d909-c794-45d2-b9f9-73e5bc957960","756","
                  <p style=""text-align: center;"">₪36
                                                <br>75%</p>
                  <p id=""wtp"" style=""text-align:center; margin-top: 0px; margin-bottom: 0px; font-size: 40px"";>מוכנים לשלם: <span id=""c_p_y""></span></p>","23","evaluation","47","14","4B,5A,13B,16B","75","36","23","","","","","","","","","","","","","","","",""
"","","","","","html-keyboard-response","104","276682","0.0-17.0-2.28","2d71d909-c794-45d2-b9f9-73e5bc957960","null","<p style=""text-align: center;"">+</p>","null","fixation","","","","","","","","","","","","","","","","","","","","","",""
"","","","","","html-slider-response","105","277691","0.0-17.0-0.29","2d71d909-c794-45d2-b9f9-73e5bc957960","1000","
                  <p style=""text-align: center;"">₪43
                                                <br>60%</p>
                  <p id=""wtp"" style=""text-align:center; margin-top: 0px; margin-bottom: 0px; font-size: 40px"";>&ensp;</p>","-","viewing","0","17","2A,7A,9A,15B","","","","","","","","","","","","","","","","","","",""
"","","","","","html-slider-response","106","279310","0.0-17.0-1.29","2d71d909-c794-45d2-b9f9-73e5bc957960","1618","
                  <p style=""text-align: center;"">₪43
                                                <br>60%</p>
                  <p id=""wtp"" style=""text-align:center; margin-top: 0px; margin-bottom: 0px; font-size: 40px"";>מוכנים לשלם: <span id=""c_p_y""></span></p>","21","evaluation","44","17","2A,7A,9A,15B","60","43","21","","","","","","","","","","","","","","","",""
"","","","","","html-keyboard-response","107","280076","0.0-17.0-2.29","2d71d909-c794-45d2-b9f9-73e5bc957960","null","<p style=""text-align: center;"">+</p>","null","fixation","","","","","","","","","","","","","","","","","","","","","",""
"","","","","","html-slider-response","108","281079","0.0-17.0-0.30","2d71d909-c794-45d2-b9f9-73e5bc957960","1000","
                  <p style=""text-align: center;"">₪71
                                                <br>45%</p>
                  <p id=""wtp"" style=""text-align:center; margin-top: 0px; margin-bottom: 0px; font-size: 40px"";>&ensp;</p>","-","viewing","0","26","2B,16A","","","","","","","","","","","","","","","","","","",""
"","","","","","html-slider-response","109","283806","0.0-17.0-1.30","2d71d909-c794-45d2-b9f9-73e5bc957960","2725","
                  <p style=""text-align: center;"">₪71
                                                <br>45%</p>
                  <p id=""wtp"" style=""text-align:center; margin-top: 0px; margin-bottom: 0px; font-size: 40px"";>מוכנים לשלם: <span id=""c_p_y""></span></p>","31","evaluation","41","26","2B,16A","45","71","31","","","","","","","","","","","","","","","",""
"","","","","","html-keyboard-response","110","284368","0.0-17.0-2.30","2d71d909-c794-45d2-b9f9-73e5bc957960","null","<p style=""text-align: center;"">+</p>","null","fixation","","","","","","","","","","","","","","","","","","","","","",""
"","","","","","html-keyboard-response","111","285371","0.0-18.0","2d71d909-c794-45d2-b9f9-73e5bc957960","null","<p style=""text-align: center;"">+</p>","null","fixation","","","","","","","","","","","","","","","","","","","","","",""
"","","","","","html-keyboard-response","112","288909","0.0-19.0","2d71d909-c794-45d2-b9f9-73e5bc957960","null","<p>הפסקה.
          <br>לחצו כדי להמשיך.</p>","1","scan_wait","","","","","","","","","","","","","","","","","","","","","",""
"","","","","","html-keyboard-response","113","289911","0.0-20.0","2d71d909-c794-45d2-b9f9-73e5bc957960","null","<p style=""text-align: center;"">+</p>","null","fixation","","","","","","","","","","","","","","","","","","","","","",""
"","","","","","html-slider-response","114","290913","0.0-21.0-0.0","2d71d909-c794-45d2-b9f9-73e5bc957960","1000","
                  <p style=""text-align: center;"">₪71
                                                <br>75%</p>
                  <p id=""wtp"" style=""text-align:center; margin-top: 0px; margin-bottom: 0px; font-size: 40px"";>&ensp;</p>","-","viewing","0","28","8B","","","","","","","","","","","","","","","","","","",""
"","","","","","html-slider-response","115","292438","0.0-21.0-1.0","2d71d909-c794-45d2-b9f9-73e5bc957960","1523","
                  <p style=""text-align: center;"">₪71
                                                <br>75%</p>
                  <p id=""wtp"" style=""text-align:center; margin-top: 0px; margin-bottom: 0px; font-size: 40px"";>מוכנים לשלם: <span id=""c_p_y""></span></p>","53","evaluation","78","28","8B","75","71","52","","","","","","","","","","","","","","","",""
"","","","","","html-keyboard-response","116","293624","0.0-21.0-2.0","2d71d909-c794-45d2-b9f9-73e5bc957960","null","<p style=""text-align: center;"">+</p>","null","fixation","","","","","","","","","","","","","","","","","","","","","",""
"","","","","","html-slider-response","117","294640","0.0-21.0-0.1","2d71d909-c794-45d2-b9f9-73e5bc957960","1000","
                  <p style=""text-align: center;"">₪71
                                                <br>55%</p>
                  <p id=""wtp"" style=""text-align:center; margin-top: 0px; margin-bottom: 0px; font-size: 40px"";>&ensp;</p>","-","viewing","0","27","5B,18A","","","","","","","","","","","","","","","","","","",""
"","","","","","html-slider-response","118","295894","0.0-21.0-1.1","2d71d909-c794-45d2-b9f9-73e5bc957960","1253","
                  <p style=""text-align: center;"">₪71
                                                <br>55%</p>
                  <p id=""wtp"" style=""text-align:center; margin-top: 0px; margin-bottom: 0px; font-size: 40px"";>מוכנים לשלם: <span id=""c_p_y""></span></p>","44","evaluation","32","27","5B,18A","55","71","44","","","","","","","","","","","","","","","",""
"","","","","","html-keyboard-response","119","297099","0.0-21.0-2.1","2d71d909-c794-45d2-b9f9-73e5bc957960","null","<p style=""text-align: center;"">+</p>","null","fixation","","","","","","","","","","","","","","","","","","","","","",""
"","","","","","html-slider-response","120","298106","0.0-21.0-0.2","2d71d909-c794-45d2-b9f9-73e5bc957960","1000","
                  <p style=""text-align: center;"">₪61
                                                <br>55%</p>
                  <p id=""wtp"" style=""text-align:center; margin-top: 0px; margin-bottom: 0px; font-size: 40px"";>&ensp;</p>","-","viewing","0","23","7B,26B","","","","","","","","","","","","","","","","","","",""
"","","","","","html-slider-response","121","299510","0.0-21.0-1.2","2d71d909-c794-45d2-b9f9-73e5bc957960","1402","
                  <p style=""text-align: center;"">₪61
                                                <br>55%</p>
                  <p id=""wtp"" style=""text-align:center; margin-top: 0px; margin-bottom: 0px; font-size: 40px"";>מוכנים לשלם: <span id=""c_p_y""></span></p>","36","evaluation","3","23","7B,26B","55","61","36","","","","","","","","","","","","","","","",""
"","","","","","html-keyboard-response","122","300764","0.0-21.0-2.2","2d71d909-c794-45d2-b9f9-73e5bc957960","null","<p style=""text-align: center;"">+</p>","null","fixation","","","","","","","","","","","","","","","","","","","","","",""
"","","","","","html-slider-response","123","301772","0.0-21.0-0.3","2d71d909-c794-45d2-b9f9-73e5bc957960","1000","
                  <p style=""text-align: center;"">₪76
                                                <br>65%</p>
                  <p id=""wtp"" style=""text-align:center; margin-top: 0px; margin-bottom: 0px; font-size: 40px"";>&ensp;</p>","-","viewing","0","29","8C,19A,24B","","","","","","","","","","","","","","","","","","",""
"","","","","","html-slider-response","124","303814","0.0-21.0-1.3","2d71d909-c794-45d2-b9f9-73e5bc957960","2040","
                  <p style=""text-align: center;"">₪76
                                                <br>65%</p>
                  <p id=""wtp"" style=""text-align:center; margin-top: 0px; margin-bottom: 0px; font-size: 40px"";>מוכנים לשלם: <span id=""c_p_y""></span></p>","38","evaluation","32","29","8C,19A,24B","65","76","38","","","","","","","","","","","","","","","",""
"","","","","","html-keyboard-response","125","304472","0.0-21.0-2.3","2d71d909-c794-45d2-b9f9-73e5bc957960","null","<p style=""text-align: center;"">+</p>","null","fixation","","","","","","","","","","","","","","","","","","","","","",""
"","","","","","html-slider-response","126","305481","0.0-21.0-0.4","2d71d909-c794-45d2-b9f9-73e5bc957960","1000","
                  <p style=""text-align: center;"">₪71
                                                <br>45%</p>
                  <p id=""wtp"" style=""text-align:center; margin-top: 0px; margin-bottom: 0px; font-size: 40px"";>&ensp;</p>","-","viewing","0","26","2B,16A","","","","","","","","","","","","","","","","","","",""
"","","","","","html-slider-response","127","306422","0.0-21.0-1.4","2d71d909-c794-45d2-b9f9-73e5bc957960","939","
                  <p style=""text-align: center;"">₪71
                                                <br>45%</p>
                  <p id=""wtp"" style=""text-align:center; margin-top: 0px; margin-bottom: 0px; font-size: 40px"";>מוכנים לשלם: <span id=""c_p_y""></span></p>","41","evaluation","80","26","2B,16A","45","71","41","","","","","","","","","","","","","","","",""
"","","","","","html-keyboard-response","128","307032","0.0-21.0-2.4","2d71d909-c794-45d2-b9f9-73e5bc957960","null","<p style=""text-align: center;"">+</p>","null","fixation","","","","","","","","","","","","","","","","","","","","","",""
"","","","","","html-slider-response","129","308039","0.0-21.0-0.5","2d71d909-c794-45d2-b9f9-73e5bc957960","1000","
                  <p style=""text-align: center;"">₪64
                                                <br>25%</p>
                  <p id=""wtp"" style=""text-align:center; margin-top: 0px; margin-bottom: 0px; font-size: 40px"";>&ensp;</p>","-","viewing","0","24","6A,21A","","","","","","","","","","","","","","","","","","",""
"","","","","","html-slider-response","130","309798","0.0-21.0-1.5","2d71d909-c794-45d2-b9f9-73e5bc957960","1757","
                  <p style=""text-align: center;"">₪64
                                                <br>25%</p>
                  <p id=""wtp"" style=""text-align:center; margin-top: 0px; margin-bottom: 0px; font-size: 40px"";>מוכנים לשלם: <span id=""c_p_y""></span></p>","13","evaluation","2","24","6A,21A","25","64","13","","","","","","","","","","","","","","","",""
"","","","","","html-keyboard-response","131","310594","0.0-21.0-2.5","2d71d909-c794-45d2-b9f9-73e5bc957960","null","<p style=""text-align: center;"">+</p>","null","fixation","","","","","","","","","","","","","","","","","","","","","",""
"","","","","","html-slider-response","132","311597","0.0-21.0-0.6","2d71d909-c794-45d2-b9f9-73e5bc957960","1000","
                  <p style=""text-align: center;"">₪36
                                                <br>30%</p>
                  <p id=""wtp"" style=""text-align:center; margin-top: 0px; margin-bottom: 0px; font-size: 40px"";>&ensp;</p>","-","viewing","0","11","3C,20A,22A","","","","","","","","","","","","","","","","","","",""
"","","","","","html-slider-response","133","312518","0.0-21.0-1.6","2d71d909-c794-45d2-b9f9-73e5bc957960","919","
                  <p style=""text-align: center;"">₪36
                                                <br>30%</p>
                  <p id=""wtp"" style=""text-align:center; margin-top: 0px; margin-bottom: 0px; font-size: 40px"";>מוכנים לשלם: <span id=""c_p_y""></span></p>","16","evaluation","42","11","3C,20A,22A","30","36","16","","","","","","","","","","","","","","","",""
"","","","","","html-keyboard-response","134","313376","0.0-21.0-2.6","2d71d909-c794-45d2-b9f9-73e5bc957960","null","<p style=""text-align: center;"">+</p>","null","fixation","","","","","","","","","","","","","","","","","","","","","",""
"","","","","","html-slider-response","135","314378","0.0-21.0-0.7","2d71d909-c794-45d2-b9f9-73e5bc957960","1000","
                  <p style=""text-align: center;"">₪11
                                                <br>45%</p>
                  <p id=""wtp"" style=""text-align:center; margin-top: 0px; margin-bottom: 0px; font-size: 40px"";>&ensp;</p>","-","viewing","0","6","14B,21C,25C","","","","","","","","","","","","","","","","","","",""
"","","","","","html-slider-response","136","316397","0.0-21.0-1.7","2d71d909-c794-45d2-b9f9-73e5bc957960","2018","
                  <p style=""text-align: center;"">₪11
                                                <br>45%</p>
                  <p id=""wtp"" style=""text-align:center; margin-top: 0px; margin-bottom: 0px; font-size: 40px"";>מוכנים לשלם: <span id=""c_p_y""></span></p>","1","evaluation","46","6","14B,21C,25C","45","11","2","","","","","","","","","","","","","","","",""
"","","","","","html-keyboard-response","137","317755","0.0-21.0-2.7","2d71d909-c794-45d2-b9f9-73e5bc957960","null","<p style=""text-align: center;"">+</p>","null","fixation","","","","","","","","","","","","","","","","","","","","","",""
"","","","","","html-slider-response","138","318771","0.0-21.0-0.8","2d71d909-c794-45d2-b9f9-73e5bc957960","1000","
                  <p style=""text-align: center;"">₪11
                                                <br>75%</p>
                  <p id=""wtp"" style=""text-align:center; margin-top: 0px; margin-bottom: 0px; font-size: 40px"";>&ensp;</p>","-","viewing","0","7","6B,18B,22C,24C,29A","","","","","","","","","","","","","","","","","","",""
"","","","","","html-slider-response","139","320662","0.0-21.0-1.8","2d71d909-c794-45d2-b9f9-73e5bc957960","1890","
                  <p style=""text-align: center;"">₪11
                                                <br>75%</p>
                  <p id=""wtp"" style=""text-align:center; margin-top: 0px; margin-bottom: 0px; font-size: 40px"";>מוכנים לשלם: <span id=""c_p_y""></span></p>","8","evaluation","62","7","6B,18B,22C,24C,29A","75","11","9","","","","","","","","","","","","","","","",""
"","","","","","html-keyboard-response","140","321290","0.0-21.0-2.8","2d71d909-c794-45d2-b9f9-73e5bc957960","null","<p style=""text-align: center;"">+</p>","null","fixation","","","","","","","","","","","","","","","","","","","","","",""
"","","","","","html-slider-response","141","322303","0.0-21.0-0.9","2d71d909-c794-45d2-b9f9-73e5bc957960","1000","
                  <p style=""text-align: center;"">₪79
                                                <br>40%</p>
                  <p id=""wtp"" style=""text-align:center; margin-top: 0px; margin-bottom: 0px; font-size: 40px"";>&ensp;</p>","-","viewing","0","30","9B","","","","","","","","","","","","","","","","","","",""
"","","","","","html-slider-response","142","325599","0.0-21.0-1.9","2d71d909-c794-45d2-b9f9-73e5bc957960","3293","
                  <p style=""text-align: center;"">₪79
                                                <br>40%</p>
                  <p id=""wtp"" style=""text-align:center; margin-top: 0px; margin-bottom: 0px; font-size: 40px"";>מוכנים לשלם: <span id=""c_p_y""></span></p>","37","evaluation","77","30","9B","40","79","37","","","","","","","","","","","","","","","",""
"","","","","","html-keyboard-response","143","326609","0.0-21.0-2.9","2d71d909-c794-45d2-b9f9-73e5bc957960","null","<p style=""text-align: center;"">+</p>","null","fixation","","","","","","","","","","","","","","","","","","","","","",""
"","","","","","html-slider-response","144","327618","0.0-21.0-0.10","2d71d909-c794-45d2-b9f9-73e5bc957960","1000","
                  <p style=""text-align: center;"">₪11
                                                <br>20%</p>
                  <p id=""wtp"" style=""text-align:center; margin-top: 0px; margin-bottom: 0px; font-size: 40px"";>&ensp;</p>","-","viewing","0","4","12C,17C,23C,28C","","","","","","","","","","","","","","","","","","",""
"","","","","","html-slider-response","145","329287","0.0-21.0-1.10","2d71d909-c794-45d2-b9f9-73e5bc957960","1668","
                  <p style=""text-align: center;"">₪11
                                                <br>20%</p>
                  <p id=""wtp"" style=""text-align:center; margin-top: 0px; margin-bottom: 0px; font-size: 40px"";>מוכנים לשלם: <span id=""c_p_y""></span></p>","9","evaluation","42","4","12C,17C,23C,28C","20","11","10","","","","","","","","","","","","","","","",""
"","","","","","html-keyboard-response","146","330158","0.0-21.0-2.10","2d71d909-c794-45d2-b9f9-73e5bc957960","null","<p style=""text-align: center;"">+</p>","null","fixation","","","","","","","","","","","","","","","","","","","","","",""
"","","","","","html-slider-response","147","331174","0.0-21.0-0.11","2d71d909-c794-45d2-b9f9-73e5bc957960","1000","
                  <p style=""text-align: center;"">₪39
                                                <br>60%</p>
                  <p id=""wtp"" style=""text-align:center; margin-top: 0px; margin-bottom: 0px; font-size: 40px"";>&ensp;</p>","-","viewing","0","15","9C,25B","","","","","","","","","","","","","","","","","","",""
"","","","","","html-slider-response","148","333727","0.0-21.0-1.11","2d71d909-c794-45d2-b9f9-73e5bc957960","2552","
                  <p style=""text-align: center;"">₪39
                                                <br>60%</p>
                  <p id=""wtp"" style=""text-align:center; margin-top: 0px; margin-bottom: 0px; font-size: 40px"";>מוכנים לשלם: <span id=""c_p_y""></span></p>","9","evaluation","64","15","9C,25B","60","39","10","","","","","","","","","","","","","","","",""
"","","","","","html-keyboard-response","149","335074","0.0-21.0-2.11","2d71d909-c794-45d2-b9f9-73e5bc957960","null","<p style=""text-align: center;"">+</p>","null","fixation","","","","","","","","","","","","","","","","","","","","","",""
"","","","","","html-slider-response","150","336090","0.0-21.0-0.12","2d71d909-c794-45d2-b9f9-73e5bc957960","1000","
                  <p style=""text-align: center;"">₪58
                                                <br>30%</p>
                  <p id=""wtp"" style=""text-align:center; margin-top: 0px; margin-bottom: 0px; font-size: 40px"";>&ensp;</p>","-","viewing","0","19","13C,30A","","","","","","","","","","","","","","","","","","",""
"","","","","","html-slider-response","151","337335","0.0-21.0-1.12","2d71d909-c794-45d2-b9f9-73e5bc957960","1244","
                  <p style=""text-align: center;"">₪58
                                                <br>30%</p>
                  <p id=""wtp"" style=""text-align:center; margin-top: 0px; margin-bottom: 0px; font-size: 40px"";>מוכנים לשלם: <span id=""c_p_y""></span></p>","15","evaluation","65","19","13C,30A","30","58","15","","","","","","","","","","","","","","","",""
"","","","","","html-keyboard-response","152","338241","0.0-21.0-2.12","2d71d909-c794-45d2-b9f9-73e5bc957960","null","<p style=""text-align: center;"">+</p>","null","fixation","","","","","","","","","","","","","","","","","","","","","",""
"","","","","","html-slider-response","153","339242","0.0-21.0-0.13","2d71d909-c794-45d2-b9f9-73e5bc957960","1000","
                  <p style=""text-align: center;"">₪43
                                                <br>75%</p>
                  <p id=""wtp"" style=""text-align:center; margin-top: 0px; margin-bottom: 0px; font-size: 40px"";>&ensp;</p>","-","viewing","0","18","11B,19B,24A,26A","","","","","","","","","","","","","","","","","","",""
"","","","","","html-slider-response","154","340839","0.0-21.0-1.13","2d71d909-c794-45d2-b9f9-73e5bc957960","1596","
                  <p style=""text-align: center;"">₪43
                                                <br>75%</p>
                  <p id=""wtp"" style=""text-align:center; margin-top: 0px; margin-bottom: 0px; font-size: 40px"";>מוכנים לשלם: <span id=""c_p_y""></span></p>","27","evaluation","79","18","11B,19B,24A,26A","75","43","28","","","","","","","","","","","","","","","",""
"","","","","","html-keyboard-response","155","341615","0.0-21.0-2.13","2d71d909-c794-45d2-b9f9-73e5bc957960","null","<p style=""text-align: center;"">+</p>","null","fixation","","","","","","","","","","","","","","","","","","","","","",""
"","","","","","html-slider-response","156","342621","0.0-21.0-0.14","2d71d909-c794-45d2-b9f9-73e5bc957960","1000","
                  <p style=""text-align: center;"">₪11
                                                <br>25%</p>
                  <p id=""wtp"" style=""text-align:center; margin-top: 0px; margin-bottom: 0px; font-size: 40px"";>&ensp;</p>","-","viewing","0","5","12A,27B,28B,30B","","","","","","","","","","","","","","","","","","",""
"","","","","","html-slider-response","157","344279","0.0-21.0-1.14","2d71d909-c794-45d2-b9f9-73e5bc957960","1657","
                  <p style=""text-align: center;"">₪11
                                                <br>25%</p>
                  <p id=""wtp"" style=""text-align:center; margin-top: 0px; margin-bottom: 0px; font-size: 40px"";>מוכנים לשלם: <span id=""c_p_y""></span></p>","1","evaluation","39","5","12A,27B,28B,30B","25","11","1","","","","","","","","","","","","","","","",""
"","","","","","html-keyboard-response","158","345622","0.0-21.0-2.14","2d71d909-c794-45d2-b9f9-73e5bc957960","null","<p style=""text-align: center;"">+</p>","null","fixation","","","","","","","","","","","","","","","","","","","","","",""
"","","","","","html-slider-response","159","346632","0.0-21.0-0.15","2d71d909-c794-45d2-b9f9-73e5bc957960","1000","
                  <p style=""text-align: center;"">₪61
                                                <br>45%</p>
                  <p id=""wtp"" style=""text-align:center; margin-top: 0px; margin-bottom: 0px; font-size: 40px"";>&ensp;</p>","-","viewing","0","22","10A,11A","","","","","","","","","","","","","","","","","","",""
"","","","","","html-slider-response","160","350031","0.0-21.0-1.15","2d71d909-c794-45d2-b9f9-73e5bc957960","3398","
                  <p style=""text-align: center;"">₪61
                                                <br>45%</p>
                  <p id=""wtp"" style=""text-align:center; margin-top: 0px; margin-bottom: 0px; font-size: 40px"";>מוכנים לשלם: <span id=""c_p_y""></span></p>","25","evaluation","20","22","10A,11A","45","61","26","","","","","","","","","","","","","","","",""
"","","","","","html-keyboard-response","161","350899","0.0-21.0-2.15","2d71d909-c794-45d2-b9f9-73e5bc957960","null","<p style=""text-align: center;"">+</p>","null","fixation","","","","","","","","","","","","","","","","","","","","","",""
"","","","","","html-slider-response","162","351910","0.0-21.0-0.16","2d71d909-c794-45d2-b9f9-73e5bc957960","1000","
                  <p style=""text-align: center;"">₪39
                                                <br>65%</p>
                  <p id=""wtp"" style=""text-align:center; margin-top: 0px; margin-bottom: 0px; font-size: 40px"";>&ensp;</p>","-","viewing","0","16","1A,15A,26C","","","","","","","","","","","","","","","","","","",""
"","","","","","html-slider-response","163","353447","0.0-21.0-1.16","2d71d909-c794-45d2-b9f9-73e5bc957960","1535","
                  <p style=""text-align: center;"">₪39
                                                <br>65%</p>
                  <p id=""wtp"" style=""text-align:center; margin-top: 0px; margin-bottom: 0px; font-size: 40px"";>מוכנים לשלם: <span id=""c_p_y""></span></p>","26","evaluation","43","16","1A,15A,26C","65","39","26","","","","","","","","","","","","","","","",""
"","","","","","html-keyboard-response","164","354557","0.0-21.0-2.16","2d71d909-c794-45d2-b9f9-73e5bc957960","null","<p style=""text-align: center;"">+</p>","null","fixation","","","","","","","","","","","","","","","","","","","","","",""
"","","","","","html-slider-response","165","355558","0.0-21.0-0.17","2d71d909-c794-45d2-b9f9-73e5bc957960","1000","
                  <p style=""text-align: center;"">₪16
                                                <br>20%</p>
                  <p id=""wtp"" style=""text-align:center; margin-top: 0px; margin-bottom: 0px; font-size: 40px"";>&ensp;</p>","-","viewing","0","8","14C,17A,20C,27A","","","","","","","","","","","","","","","","","","",""
"","","","","","html-slider-response","166","358711","0.0-21.0-1.17","2d71d909-c794-45d2-b9f9-73e5bc957960","3152","
                  <p style=""text-align: center;"">₪16
                                                <br>20%</p>
                  <p id=""wtp"" style=""text-align:center; margin-top: 0px; margin-bottom: 0px; font-size: 40px"";>מוכנים לשלם: <span id=""c_p_y""></span></p>","2","evaluation","4","8","14C,17A,20C,27A","20","16","3","","","","","","","","","","","","","","","",""
"","","","","","html-keyboard-response","167","359829","0.0-21.0-2.17","2d71d909-c794-45d2-b9f9-73e5bc957960","null","<p style=""text-align: center;"">+</p>","null","fixation","","","","","","","","","","","","","","","","","","","","","",""
"","","","","","html-slider-response","168","360843","0.0-21.0-0.18","2d71d909-c794-45d2-b9f9-73e5bc957960","1000","
                  <p style=""text-align: center;"">₪4
                                                <br>25%</p>
                  <p id=""wtp"" style=""text-align:center; margin-top: 0px; margin-bottom: 0px; font-size: 40px"";>&ensp;</p>","-","viewing","0","1","6C,29B,30C","","","","","","","","","","","","","","","","","","",""
"","","","","","html-slider-response","169","361727","0.0-21.0-1.18","2d71d909-c794-45d2-b9f9-73e5bc957960","883","
                  <p style=""text-align: center;"">₪4
                                                <br>25%</p>
                  <p id=""wtp"" style=""text-align:center; margin-top: 0px; margin-bottom: 0px; font-size: 40px"";>מוכנים לשלם: <span id=""c_p_y""></span></p>","0","evaluation","17","1","6C,29B,30C","25","4","0","","","","","","","","","","","","","","","",""
"","","","","","html-keyboard-response","170","362484","0.0-21.0-2.18","2d71d909-c794-45d2-b9f9-73e5bc957960","null","<p style=""text-align: center;"">+</p>","null","fixation","","","","","","","","","","","","","","","","","","","","","",""
"","","","","","html-slider-response","171","363496","0.0-21.0-0.19","2d71d909-c794-45d2-b9f9-73e5bc957960","1000","
                  <p style=""text-align: center;"">₪64
                                                <br>50%</p>
                  <p id=""wtp"" style=""text-align:center; margin-top: 0px; margin-bottom: 0px; font-size: 40px"";>&ensp;</p>","-","viewing","0","25","1B,3B,4A","","","","","","","","","","","","","","","","","","",""
"","","","","","html-slider-response","172","365143","0.0-21.0-1.19","2d71d909-c794-45d2-b9f9-73e5bc957960","1646","
                  <p style=""text-align: center;"">₪64
                                                <br>50%</p>
                  <p id=""wtp"" style=""text-align:center; margin-top: 0px; margin-bottom: 0px; font-size: 40px"";>מוכנים לשלם: <span id=""c_p_y""></span></p>","30","evaluation","33","25","1B,3B,4A","50","64","30","","","","","","","","","","","","","","","",""
"","","","","","html-keyboard-response","173","366008","0.0-21.0-2.19","2d71d909-c794-45d2-b9f9-73e5bc957960","null","<p style=""text-align: center;"">+</p>","null","fixation","","","","","","","","","","","","","","","","","","","","","",""
"","","","","","html-slider-response","174","367019","0.0-21.0-0.20","2d71d909-c794-45d2-b9f9-73e5bc957960","1000","
                  <p style=""text-align: center;"">₪4
                                                <br>50%</p>
                  <p id=""wtp"" style=""text-align:center; margin-top: 0px; margin-bottom: 0px; font-size: 40px"";>&ensp;</p>","-","viewing","0","2","4C,17B","","","","","","","","","","","","","","","","","","",""
"","","","","","html-slider-response","175","369247","0.0-21.0-1.20","2d71d909-c794-45d2-b9f9-73e5bc957960","2227","
                  <p style=""text-align: center;"">₪4
                                                <br>50%</p>
                  <p id=""wtp"" style=""text-align:center; margin-top: 0px; margin-bottom: 0px; font-size: 40px"";>מוכנים לשלם: <span id=""c_p_y""></span></p>","0","evaluation","31","2","4C,17B","50","4","1","","","","","","","","","","","","","","","",""
"","","","","","html-keyboard-response","176","369821","0.0-21.0-2.20","2d71d909-c794-45d2-b9f9-73e5bc957960","null","<p style=""text-align: center;"">+</p>","null","fixation","","","","","","","","","","","","","","","","","","","","","",""
"","","","","","html-slider-response","177","370823","0.0-21.0-0.21","2d71d909-c794-45d2-b9f9-73e5bc957960","1000","
                  <p style=""text-align: center;"">₪58
                                                <br>45%</p>
                  <p id=""wtp"" style=""text-align:center; margin-top: 0px; margin-bottom: 0px; font-size: 40px"";>&ensp;</p>","-","viewing","0","21","11C,18C,25A","","","","","","","","","","","","","","","","","","",""
"","","","","","html-slider-response","178","371727","0.0-21.0-1.21","2d71d909-c794-45d2-b9f9-73e5bc957960","903","
                  <p style=""text-align: center;"">₪58
                                                <br>45%</p>
                  <p id=""wtp"" style=""text-align:center; margin-top: 0px; margin-bottom: 0px; font-size: 40px"";>מוכנים לשלם: <span id=""c_p_y""></span></p>","21","evaluation","37","21","11C,18C,25A","45","58","21","","","","","","","","","","","","","","","",""
"","","","","","html-keyboard-response","179","373189","0.0-21.0-2.21","2d71d909-c794-45d2-b9f9-73e5bc957960","null","<p style=""text-align: center;"">+</p>","null","fixation","","","","","","","","","","","","","","","","","","","","","",""
"","","","","","html-slider-response","180","374198","0.0-21.0-0.22","2d71d909-c794-45d2-b9f9-73e5bc957960","1000","
                  <p style=""text-align: center;"">₪79
                                                <br>65%</p>
                  <p id=""wtp"" style=""text-align:center; margin-top: 0px; margin-bottom: 0px; font-size: 40px"";>&ensp;</p>","-","viewing","0","31","8A","","","","","","","","","","","","","","","","","","",""
"","","","","","html-slider-response","181","376591","0.0-21.0-1.22","2d71d909-c794-45d2-b9f9-73e5bc957960","2391","
                  <p style=""text-align: center;"">₪79
                                                <br>65%</p>
                  <p id=""wtp"" style=""text-align:center; margin-top: 0px; margin-bottom: 0px; font-size: 40px"";>מוכנים לשלם: <span id=""c_p_y""></span></p>","35","evaluation","66","31","8A","65","79","35","","","","","","","","","","","","","","","",""
"","","","","","html-keyboard-response","182","377231","0.0-21.0-2.22","2d71d909-c794-45d2-b9f9-73e5bc957960","null","<p style=""text-align: center;"">+</p>","null","fixation","","","","","","","","","","","","","","","","","","","","","",""
"","","","","","html-slider-response","183","378235","0.0-21.0-0.23","2d71d909-c794-45d2-b9f9-73e5bc957960","1000","
                  <p style=""text-align: center;"">₪43
                                                <br>60%</p>
                  <p id=""wtp"" style=""text-align:center; margin-top: 0px; margin-bottom: 0px; font-size: 40px"";>&ensp;</p>","-","viewing","0","17","2A,7A,9A,15B","","","","","","","","","","","","","","","","","","",""
"","","","","","html-slider-response","184","382167","0.0-21.0-1.23","2d71d909-c794-45d2-b9f9-73e5bc957960","3932","
                  <p style=""text-align: center;"">₪43
                                                <br>60%</p>
                  <p id=""wtp"" style=""text-align:center; margin-top: 0px; margin-bottom: 0px; font-size: 40px"";>מוכנים לשלם: <span id=""c_p_y""></span></p>","26","evaluation","34","17","2A,7A,9A,15B","60","43","26","","","","","","","","","","","","","","","",""
"","","","","","html-keyboard-response","185","383638","0.0-21.0-2.23","2d71d909-c794-45d2-b9f9-73e5bc957960","null","<p style=""text-align: center;"">+</p>","null","fixation","","","","","","","","","","","","","","","","","","","","","",""
"","","","","","html-slider-response","186","384645","0.0-21.0-0.24","2d71d909-c794-45d2-b9f9-73e5bc957960","1000","
                  <p style=""text-align: center;"">₪58
                                                <br>40%</p>
                  <p id=""wtp"" style=""text-align:center; margin-top: 0px; margin-bottom: 0px; font-size: 40px"";>&ensp;</p>","-","viewing","0","20","10C,13A,19C,21B","","","","","","","","","","","","","","","","","","",""
"","","","","","html-slider-response","187","385823","0.0-21.0-1.24","2d71d909-c794-45d2-b9f9-73e5bc957960","1177","
                  <p style=""text-align: center;"">₪58
                                                <br>40%</p>
                  <p id=""wtp"" style=""text-align:center; margin-top: 0px; margin-bottom: 0px; font-size: 40px"";>מוכנים לשלם: <span id=""c_p_y""></span></p>","26","evaluation","76","20","10C,13A,19C,21B","40","58","26","","","","","","","","","","","","","","","",""
"","","","","","html-keyboard-response","188","386387","0.0-21.0-2.24","2d71d909-c794-45d2-b9f9-73e5bc957960","null","<p style=""text-align: center;"">+</p>","null","fixation","","","","","","","","","","","","","","","","","","","","","",""
"","","","","","html-slider-response","189","387392","0.0-21.0-0.25","2d71d909-c794-45d2-b9f9-73e5bc957960","1000","
                  <p style=""text-align: center;"">₪36
                                                <br>70%</p>
                  <p id=""wtp"" style=""text-align:center; margin-top: 0px; margin-bottom: 0px; font-size: 40px"";>&ensp;</p>","-","viewing","0","13","3A,5C,10B","","","","","","","","","","","","","","","","","","",""
"","","","","","html-slider-response","190","389607","0.0-21.0-1.25","2d71d909-c794-45d2-b9f9-73e5bc957960","2213","
                  <p style=""text-align: center;"">₪36
                                                <br>70%</p>
                  <p id=""wtp"" style=""text-align:center; margin-top: 0px; margin-bottom: 0px; font-size: 40px"";>מוכנים לשלם: <span id=""c_p_y""></span></p>","28","evaluation","42","13","3A,5C,10B","70","36","28","","","","","","","","","","","","","","","",""
"","","","","","html-keyboard-response","191","390328","0.0-21.0-2.25","2d71d909-c794-45d2-b9f9-73e5bc957960","null","<p style=""text-align: center;"">+</p>","null","fixation","","","","","","","","","","","","","","","","","","","","","",""
"","","","","","html-slider-response","192","391331","0.0-21.0-0.26","2d71d909-c794-45d2-b9f9-73e5bc957960","1000","
                  <p style=""text-align: center;"">₪18
                                                <br>25%</p>
                  <p id=""wtp"" style=""text-align:center; margin-top: 0px; margin-bottom: 0px; font-size: 40px"";>&ensp;</p>","-","viewing","0","9","14A,23A","","","","","","","","","","","","","","","","","","",""
"","","","","","html-slider-response","193","392823","0.0-21.0-1.26","2d71d909-c794-45d2-b9f9-73e5bc957960","1490","
                  <p style=""text-align: center;"">₪18
                                                <br>25%</p>
                  <p id=""wtp"" style=""text-align:center; margin-top: 0px; margin-bottom: 0px; font-size: 40px"";>מוכנים לשלם: <span id=""c_p_y""></span></p>","4","evaluation","35","9","14A,23A","25","18","5","","","","","","","","","","","","","","","",""
"","","","","","html-keyboard-response","194","393759","0.0-21.0-2.26","2d71d909-c794-45d2-b9f9-73e5bc957960","null","<p style=""text-align: center;"">+</p>","null","fixation","","","","","","","","","","","","","","","","","","","","","",""
"","","","","","html-slider-response","195","394764","0.0-21.0-0.27","2d71d909-c794-45d2-b9f9-73e5bc957960","1000","
                  <p style=""text-align: center;"">₪4
                                                <br>75%</p>
                  <p id=""wtp"" style=""text-align:center; margin-top: 0px; margin-bottom: 0px; font-size: 40px"";>&ensp;</p>","-","viewing","0","3","12B,20B,23B,27C,29C","","","","","","","","","","","","","","","","","","",""
"","","","","","html-slider-response","196","396384","0.0-21.0-1.27","2d71d909-c794-45d2-b9f9-73e5bc957960","1617","
                  <p style=""text-align: center;"">₪4
                                                <br>75%</p>
                  <p id=""wtp"" style=""text-align:center; margin-top: 0px; margin-bottom: 0px; font-size: 40px"";>מוכנים לשלם: <span id=""c_p_y""></span></p>","2","evaluation","5","3","12B,20B,23B,27C,29C","75","4","3","","","","","","","","","","","","","","","",""
"","","","","","html-keyboard-response","197","397513","0.0-21.0-2.27","2d71d909-c794-45d2-b9f9-73e5bc957960","null","<p style=""text-align: center;"">+</p>","null","fixation","","","","","","","","","","","","","","","","","","","","","",""
"","","","","","html-slider-response","198","398530","0.0-21.0-0.28","2d71d909-c794-45d2-b9f9-73e5bc957960","1000","
                  <p style=""text-align: center;"">₪18
                                                <br>50%</p>
                  <p id=""wtp"" style=""text-align:center; margin-top: 0px; margin-bottom: 0px; font-size: 40px"";>&ensp;</p>","-","viewing","0","10","2C,16C,22B,28A","","","","","","","","","","","","","","","","","","",""
"","","","","","html-slider-response","199","401263","0.0-21.0-1.28","2d71d909-c794-45d2-b9f9-73e5bc957960","2731","
                  <p style=""text-align: center;"">₪18
                                                <br>50%</p>
                  <p id=""wtp"" style=""text-align:center; margin-top: 0px; margin-bottom: 0px; font-size: 40px"";>מוכנים לשלם: <span id=""c_p_y""></span></p>","10","evaluation","44","10","2C,16C,22B,28A","50","18","10","","","","","","","","","","","","","","","",""
"","","","","","html-keyboard-response","200","402042","0.0-21.0-2.28","2d71d909-c794-45d2-b9f9-73e5bc957960","null","<p style=""text-align: center;"">+</p>","null","fixation","","","","","","","","","","","","","","","","","","","","","",""
"","","","","","html-slider-response","201","403060","0.0-21.0-0.29","2d71d909-c794-45d2-b9f9-73e5bc957960","1000","
                  <p style=""text-align: center;"">₪36
                                                <br>60%</p>
                  <p id=""wtp"" style=""text-align:center; margin-top: 0px; margin-bottom: 0px; font-size: 40px"";>&ensp;</p>","-","viewing","0","12","1C,7C,15C","","","","","","","","","","","","","","","","","","",""
"","","","","","html-slider-response","202","405679","0.0-21.0-1.29","2d71d909-c794-45d2-b9f9-73e5bc957960","2618","
                  <p style=""text-align: center;"">₪36
                                                <br>60%</p>
                  <p id=""wtp"" style=""text-align:center; margin-top: 0px; margin-bottom: 0px; font-size: 40px"";>מוכנים לשלם: <span id=""c_p_y""></span></p>","17","evaluation","61","12","1C,7C,15C","60","36","18","","","","","","","","","","","","","","","",""
"","","","","","html-keyboard-response","203","406903","0.0-21.0-2.29","2d71d909-c794-45d2-b9f9-73e5bc957960","null","<p style=""text-align: center;"">+</p>","null","fixation","","","","","","","","","","","","","","","","","","","","","",""
"","","","","","html-slider-response","204","407910","0.0-21.0-0.30","2d71d909-c794-45d2-b9f9-73e5bc957960","1000","
                  <p style=""text-align: center;"">₪36
                                                <br>75%</p>
                  <p id=""wtp"" style=""text-align:center; margin-top: 0px; margin-bottom: 0px; font-size: 40px"";>&ensp;</p>","-","viewing","0","14","4B,5A,13B,16B","","","","","","","","","","","","","","","","","","",""
"","","","","","html-slider-response","205","408959","0.0-21.0-1.30","2d71d909-c794-45d2-b9f9-73e5bc957960","1047","
                  <p style=""text-align: center;"">₪36
                                                <br>75%</p>
                  <p id=""wtp"" style=""text-align:center; margin-top: 0px; margin-bottom: 0px; font-size: 40px"";>מוכנים לשלם: <span id=""c_p_y""></span></p>","20","evaluation","23","14","4B,5A,13B,16B","75","36","20","","","","","","","","","","","","","","","",""
"","","","","","html-keyboard-response","206","409693","0.0-21.0-2.30","2d71d909-c794-45d2-b9f9-73e5bc957960","null","<p style=""text-align: center;"">+</p>","null","fixation","","","","","","","","","","","","","","","","","","","","","",""
"","","","","","html-keyboard-response","207","410706","0.0-22.0","2d71d909-c794-45d2-b9f9-73e5bc957960","null","<p style=""text-align: center;"">+</p>","null","fixation","","","","","","","","","","","","","","","","","","","","","",""
"","","","","","html-keyboard-response","208","412326","0.0-23.0","2d71d909-c794-45d2-b9f9-73e5bc957960","null","<p>הפסקה.
          <br>לחצו כדי להמשיך.</p>","1","scan_wait","","","","","","","","","","","","","","","","","","","","","",""
"","","","","","html-keyboard-response","209","413328","0.0-24.0","2d71d909-c794-45d2-b9f9-73e5bc957960","null","<p style=""text-align: center;"">+</p>","null","fixation","","","","","","","","","","","","","","","","","","","","","",""
"","","","","","html-slider-response","210","414334","0.0-25.0-0.0","2d71d909-c794-45d2-b9f9-73e5bc957960","1000","
                  <p style=""text-align: center;"">₪64
                                                <br>50%</p>
                  <p id=""wtp"" style=""text-align:center; margin-top: 0px; margin-bottom: 0px; font-size: 40px"";>&ensp;</p>","-","viewing","0","25","1B,3B,4A","","","","","","","","","","","","","","","","","","",""
"","","","","","html-slider-response","211","417567","0.0-25.0-1.0","2d71d909-c794-45d2-b9f9-73e5bc957960","3232","
                  <p style=""text-align: center;"">₪64
                                                <br>50%</p>
                  <p id=""wtp"" style=""text-align:center; margin-top: 0px; margin-bottom: 0px; font-size: 40px"";>מוכנים לשלם: <span id=""c_p_y""></span></p>","33","evaluation","77","25","1B,3B,4A","50","64","33","","","","","","","","","","","","","","","",""
"","","","","","html-keyboard-response","212","418985","0.0-25.0-2.0","2d71d909-c794-45d2-b9f9-73e5bc957960","null","<p style=""text-align: center;"">+</p>","null","fixation","","","","","","","","","","","","","","","","","","","","","",""
"","","","","","html-slider-response","213","419998","0.0-25.0-0.1","2d71d909-c794-45d2-b9f9-73e5bc957960","1000","
                  <p style=""text-align: center;"">₪79
                                                <br>65%</p>
                  <p id=""wtp"" style=""text-align:center; margin-top: 0px; margin-bottom: 0px; font-size: 40px"";>&ensp;</p>","-","viewing","0","31","8A","","","","","","","","","","","","","","","","","","",""
"","","","","","html-slider-response","214","421751","0.0-25.0-1.1","2d71d909-c794-45d2-b9f9-73e5bc957960","1751","
                  <p style=""text-align: center;"">₪79
                                                <br>65%</p>
                  <p id=""wtp"" style=""text-align:center; margin-top: 0px; margin-bottom: 0px; font-size: 40px"";>מוכנים לשלם: <span id=""c_p_y""></span></p>","38","evaluation","66","31","8A","65","79","38","","","","","","","","","","","","","","","",""
"","","","","","html-keyboard-response","215","422721","0.0-25.0-2.1","2d71d909-c794-45d2-b9f9-73e5bc957960","null","<p style=""text-align: center;"">+</p>","null","fixation","","","","","","","","","","","","","","","","","","","","","",""
"","","","","","html-slider-response","216","423728","0.0-25.0-0.2","2d71d909-c794-45d2-b9f9-73e5bc957960","1000","
                  <p style=""text-align: center;"">₪36
                                                <br>75%</p>
                  <p id=""wtp"" style=""text-align:center; margin-top: 0px; margin-bottom: 0px; font-size: 40px"";>&ensp;</p>","-","viewing","0","14","4B,5A,13B,16B","","","","","","","","","","","","","","","","","","",""
"","","","","","html-slider-response","217","427127","0.0-25.0-1.2","2d71d909-c794-45d2-b9f9-73e5bc957960","3397","
                  <p style=""text-align: center;"">₪36
                                                <br>75%</p>
                  <p id=""wtp"" style=""text-align:center; margin-top: 0px; margin-bottom: 0px; font-size: 40px"";>מוכנים לשלם: <span id=""c_p_y""></span></p>","23","evaluation","75","14","4B,5A,13B,16B","75","36","23","","","","","","","","","","","","","","","",""
"","","","","","html-keyboard-response","218","427880","0.0-25.0-2.2","2d71d909-c794-45d2-b9f9-73e5bc957960","null","<p style=""text-align: center;"">+</p>","null","fixation","","","","","","","","","","","","","","","","","","","","","",""
"","","","","","html-slider-response","219","428882","0.0-25.0-0.3","2d71d909-c794-45d2-b9f9-73e5bc957960","1000","
                  <p style=""text-align: center;"">₪71
                                                <br>75%</p>
                  <p id=""wtp"" style=""text-align:center; margin-top: 0px; margin-bottom: 0px; font-size: 40px"";>&ensp;</p>","-","viewing","0","28","8B","","","","","","","","","","","","","","","","","","",""
"","","","","","html-slider-response","220","431775","0.0-25.0-1.3","2d71d909-c794-45d2-b9f9-73e5bc957960","2891","
                  <p style=""text-align: center;"">₪71
                                                <br>75%</p>
                  <p id=""wtp"" style=""text-align:center; margin-top: 0px; margin-bottom: 0px; font-size: 40px"";>מוכנים לשלם: <span id=""c_p_y""></span></p>","42","evaluation","16","28","8B","75","71","42","","","","","","","","","","","","","","","",""
"","","","","","html-keyboard-response","221","433077","0.0-25.0-2.3","2d71d909-c794-45d2-b9f9-73e5bc957960","null","<p style=""text-align: center;"">+</p>","null","fixation","","","","","","","","","","","","","","","","","","","","","",""
"","","","","","html-slider-response","222","434084","0.0-25.0-0.4","2d71d909-c794-45d2-b9f9-73e5bc957960","1000","
                  <p style=""text-align: center;"">₪18
                                                <br>25%</p>
                  <p id=""wtp"" style=""text-align:center; margin-top: 0px; margin-bottom: 0px; font-size: 40px"";>&ensp;</p>","-","viewing","0","9","14A,23A","","","","","","","","","","","","","","","","","","",""
"","","","","","html-slider-response","223","436199","0.0-25.0-1.4","2d71d909-c794-45d2-b9f9-73e5bc957960","2113","
                  <p style=""text-align: center;"">₪18
                                                <br>25%</p>
                  <p id=""wtp"" style=""text-align:center; margin-top: 0px; margin-bottom: 0px; font-size: 40px"";>מוכנים לשלם: <span id=""c_p_y""></span></p>","3","evaluation","5","9","14A,23A","25","18","4","","","","","","","","","","","","","","","",""
"","","","","","html-keyboard-response","224","437383","0.0-25.0-2.4","2d71d909-c794-45d2-b9f9-73e5bc957960","null","<p style=""text-align: center;"">+</p>","null","fixation","","","","","","","","","","","","","","","","","","","","","",""
"","","","","","html-slider-response","225","438385","0.0-25.0-0.5","2d71d909-c794-45d2-b9f9-73e5bc957960","1000","
                  <p style=""text-align: center;"">₪36
                                                <br>30%</p>
                  <p id=""wtp"" style=""text-align:center; margin-top: 0px; margin-bottom: 0px; font-size: 40px"";>&ensp;</p>","-","viewing","0","11","3C,20A,22A","","","","","","","","","","","","","","","","","","",""
"","","","","","html-slider-response","226","439798","0.0-25.0-1.5","2d71d909-c794-45d2-b9f9-73e5bc957960","1412","
                  <p style=""text-align: center;"">₪36
                                                <br>30%</p>
                  <p id=""wtp"" style=""text-align:center; margin-top: 0px; margin-bottom: 0px; font-size: 40px"";>מוכנים לשלם: <span id=""c_p_y""></span></p>","11","evaluation","74","11","3C,20A,22A","30","36","11","","","","","","","","","","","","","","","",""
"","","","","","html-keyboard-response","227","440760","0.0-25.0-2.5","2d71d909-c794-45d2-b9f9-73e5bc957960","null","<p style=""text-align: center;"">+</p>","null","fixation","","","","","","","","","","","","","","","","","","","","","",""
"","","","","","html-slider-response","228","441776","0.0-25.0-0.6","2d71d909-c794-45d2-b9f9-73e5bc957960","1000","
                  <p style=""text-align: center;"">₪61
                                                <br>55%</p>
                  <p id=""wtp"" style=""text-align:center; margin-top: 0px; margin-bottom: 0px; font-size: 40px"";>&ensp;</p>","-","viewing","0","23","7B,26B","","","","","","","","","","","","","","","","","","",""
"","","","","","html-slider-response","229","444583","0.0-25.0-1.6","2d71d909-c794-45d2-b9f9-73e5bc957960","2805","
                  <p style=""text-align: center;"">₪61
                                                <br>55%</p>
                  <p id=""wtp"" style=""text-align:center; margin-top: 0px; margin-bottom: 0px; font-size: 40px"";>מוכנים לשלם: <span id=""c_p_y""></span></p>","29","evaluation","3","23","7B,26B","55","61","29","","","","","","","","","","","","","","","",""
"","","","","","html-keyboard-response","230","445773","0.0-25.0-2.6","2d71d909-c794-45d2-b9f9-73e5bc957960","null","<p style=""text-align: center;"">+</p>","null","fixation","","","","","","","","","","","","","","","","","","","","","",""
"","","","","","html-slider-response","231","446778","0.0-25.0-0.7","2d71d909-c794-45d2-b9f9-73e5bc957960","1000","
                  <p style=""text-align: center;"">₪58
                                                <br>40%</p>
                  <p id=""wtp"" style=""text-align:center; margin-top: 0px; margin-bottom: 0px; font-size: 40px"";>&ensp;</p>","-","viewing","0","20","10C,13A,19C,21B","","","","","","","","","","","","","","","","","","",""
"","","","","","html-slider-response","232","450399","0.0-25.0-1.7","2d71d909-c794-45d2-b9f9-73e5bc957960","3620","
                  <p style=""text-align: center;"">₪58
                                                <br>40%</p>
                  <p id=""wtp"" style=""text-align:center; margin-top: 0px; margin-bottom: 0px; font-size: 40px"";>מוכנים לשלם: <span id=""c_p_y""></span></p>","19","evaluation","41","20","10C,13A,19C,21B","40","58","20","","","","","","","","","","","","","","","",""
"","","","","","html-keyboard-response","233","451075","0.0-25.0-2.7","2d71d909-c794-45d2-b9f9-73e5bc957960","null","<p style=""text-align: center;"">+</p>","null","fixation","","","","","","","","","","","","","","","","","","","","","",""
"","","","","","html-slider-response","234","452078","0.0-25.0-0.8","2d71d909-c794-45d2-b9f9-73e5bc957960","1000","
                  <p style=""text-align: center;"">₪58
                                                <br>30%</p>
                  <p id=""wtp"" style=""text-align:center; margin-top: 0px; margin-bottom: 0px; font-size: 40px"";>&ensp;</p>","-","viewing","0","19","13C,30A","","","","","","","","","","","","","","","","","","",""
"","","","","","html-slider-response","235","453495","0.0-25.0-1.8","2d71d909-c794-45d2-b9f9-73e5bc957960","1416","
                  <p style=""text-align: center;"">₪58
                                                <br>30%</p>
                  <p id=""wtp"" style=""text-align:center; margin-top: 0px; margin-bottom: 0px; font-size: 40px"";>מוכנים לשלם: <span id=""c_p_y""></span></p>","20","evaluation","30","19","13C,30A","30","58","21","","","","","","","","","","","","","","","",""
"","","","","","html-keyboard-response","236","454036","0.0-25.0-2.8","2d71d909-c794-45d2-b9f9-73e5bc957960","null","<p style=""text-align: center;"">+</p>","null","fixation","","","","","","","","","","","","","","","","","","","","","",""
"","","","","","html-slider-response","237","455040","0.0-25.0-0.9","2d71d909-c794-45d2-b9f9-73e5bc957960","1000","
                  <p style=""text-align: center;"">₪4
                                                <br>25%</p>
                  <p id=""wtp"" style=""text-align:center; margin-top: 0px; margin-bottom: 0px; font-size: 40px"";>&ensp;</p>","-","viewing","0","1","6C,29B,30C","","","","","","","","","","","","","","","","","","",""
"","","","","","html-slider-response","238","456567","0.0-25.0-1.9","2d71d909-c794-45d2-b9f9-73e5bc957960","1526","
                  <p style=""text-align: center;"">₪4
                                                <br>25%</p>
                  <p id=""wtp"" style=""text-align:center; margin-top: 0px; margin-bottom: 0px; font-size: 40px"";>מוכנים לשלם: <span id=""c_p_y""></span></p>","0","evaluation","50","1","6C,29B,30C","25","4","1","","","","","","","","","","","","","","","",""
"","","","","","html-keyboard-response","239","457109","0.0-25.0-2.9","2d71d909-c794-45d2-b9f9-73e5bc957960","null","<p style=""text-align: center;"">+</p>","null","fixation","","","","","","","","","","","","","","","","","","","","","",""
"","","","","","html-slider-response","240","458119","0.0-25.0-0.10","2d71d909-c794-45d2-b9f9-73e5bc957960","1000","
                  <p style=""text-align: center;"">₪11
                                                <br>20%</p>
                  <p id=""wtp"" style=""text-align:center; margin-top: 0px; margin-bottom: 0px; font-size: 40px"";>&ensp;</p>","-","viewing","0","4","12C,17C,23C,28C","","","","","","","","","","","","","","","","","","",""
"","","","","","html-slider-response","241","459879","0.0-25.0-1.10","2d71d909-c794-45d2-b9f9-73e5bc957960","1759","
                  <p style=""text-align: center;"">₪11
                                                <br>20%</p>
                  <p id=""wtp"" style=""text-align:center; margin-top: 0px; margin-bottom: 0px; font-size: 40px"";>מוכנים לשלם: <span id=""c_p_y""></span></p>","2","evaluation","36","4","12C,17C,23C,28C","20","11","3","","","","","","","","","","","","","","","",""
"","","","","","html-keyboard-response","242","460547","0.0-25.0-2.10","2d71d909-c794-45d2-b9f9-73e5bc957960","null","<p style=""text-align: center;"">+</p>","null","fixation","","","","","","","","","","","","","","","","","","","","","",""
"","","","","","html-slider-response","243","461562","0.0-25.0-0.11","2d71d909-c794-45d2-b9f9-73e5bc957960","1000","
                  <p style=""text-align: center;"">₪71
                                                <br>45%</p>
                  <p id=""wtp"" style=""text-align:center; margin-top: 0px; margin-bottom: 0px; font-size: 40px"";>&ensp;</p>","-","viewing","0","26","2B,16A","","","","","","","","","","","","","","","","","","",""
"","","","","","html-slider-response","244","463823","0.0-25.0-1.11","2d71d909-c794-45d2-b9f9-73e5bc957960","2260","
                  <p style=""text-align: center;"">₪71
                                                <br>45%</p>
                  <p id=""wtp"" style=""text-align:center; margin-top: 0px; margin-bottom: 0px; font-size: 40px"";>מוכנים לשלם: <span id=""c_p_y""></span></p>","6","evaluation","5","26","2B,16A","45","71","6","","","","","","","","","","","","","","","",""
"","","","","","html-keyboard-response","245","464568","0.0-25.0-2.11","2d71d909-c794-45d2-b9f9-73e5bc957960","null","<p style=""text-align: center;"">+</p>","null","fixation","","","","","","","","","","","","","","","","","","","","","",""
"","","","","","html-slider-response","246","465572","0.0-25.0-0.12","2d71d909-c794-45d2-b9f9-73e5bc957960","1000","
                  <p style=""text-align: center;"">₪36
                                                <br>70%</p>
                  <p id=""wtp"" style=""text-align:center; margin-top: 0px; margin-bottom: 0px; font-size: 40px"";>&ensp;</p>","-","viewing","0","13","3A,5C,10B","","","","","","","","","","","","","","","","","","",""
"","","","","","html-slider-response","247","466767","0.0-25.0-1.12","2d71d909-c794-45d2-b9f9-73e5bc957960","1194","
                  <p style=""text-align: center;"">₪36
                                                <br>70%</p>
                  <p id=""wtp"" style=""text-align:center; margin-top: 0px; margin-bottom: 0px; font-size: 40px"";>מוכנים לשלם: <span id=""c_p_y""></span></p>","8","evaluation","31","13","3A,5C,10B","70","36","9","","","","","","","","","","","","","","","",""
"","","","","","html-keyboard-response","248","467633","0.0-25.0-2.12","2d71d909-c794-45d2-b9f9-73e5bc957960","null","<p style=""text-align: center;"">+</p>","null","fixation","","","","","","","","","","","","","","","","","","","","","",""
"","","","","","html-slider-response","249","468651","0.0-25.0-0.13","2d71d909-c794-45d2-b9f9-73e5bc957960","1000","
                  <p style=""text-align: center;"">₪11
                                                <br>25%</p>
                  <p id=""wtp"" style=""text-align:center; margin-top: 0px; margin-bottom: 0px; font-size: 40px"";>&ensp;</p>","-","viewing","0","5","12A,27B,28B,30B","","","","","","","","","","","","","","","","","","",""
"","","","","","html-slider-response","250","469791","0.0-25.0-1.13","2d71d909-c794-45d2-b9f9-73e5bc957960","1139","
                  <p style=""text-align: center;"">₪11
                                                <br>25%</p>
                  <p id=""wtp"" style=""text-align:center; margin-top: 0px; margin-bottom: 0px; font-size: 40px"";>מוכנים לשלם: <span id=""c_p_y""></span></p>","0","evaluation","59","5","12A,27B,28B,30B","25","11","1","","","","","","","","","","","","","","","",""
