"success","timeout","failed_images","failed_audio","failed_video","trial_type","trial_index","time_elapsed","internal_node_id","subject_id","rt","stimulus","response","part","slider_start","ID","set_ID","prob","amount","last_location","actual_choice","actual_EV","binary_id","trinary_id","catch","A_key","D_key","choice_prob","choice_amount","chosen_part","won_prize","potential_prize_amount","potential_prize_prob","total_prize","accuracy"
"true","false","[]","[]","[]","preload","0","182","0.0-0.0","bdd1be3f-9c7d-4cdd-9dfc-a2efeeb49c85","","","","","","","","","","","","","","","","","","","","","","","","",""
"","","","","","html-keyboard-response","1","419780","0.0-1.0","bdd1be3f-9c7d-4cdd-9dfc-a2efeeb49c85","null","
          <h1>שלום וברוכים הבאים!</h1>
          <p>לפניכם ניסוי בקבלת החלטות עם שני חלקים.
          <br><br>לחצו על העכבר כדי להמשיך.</p>","0","example","","","","","","","","","","","","","","","","","","","","",""
"","","","","","html-keyboard-response","2","425516","0.0-2.0","bdd1be3f-9c7d-4cdd-9dfc-a2efeeb49c85","null","
        <h1>חלק 1</h1>
        <p>בקרוב יוצגו בפניכם הגרלות.
        <br>עליכם לבחור את המחיר המירבי שתהיו מוכנים לשלם כדי להשתתף בהגרלה שתוצג.
        <br>יש לכם תקציב של ₪80 לכל הגרלה. 
        <br>נסו להעריך כל הגרלה בנפרד ולחשוב כמה היא שווה עבורכם, ₪80 זמינים לכל הגרלה בנפרד.
        <br><br>לחצו על העכבר כדי להמשיך.</p>","1","instructions","","","","","","","","","","","","","","","","","","","","",""
"","","","","","html-keyboard-response","3","434572","0.0-3.0","bdd1be3f-9c7d-4cdd-9dfc-a2efeeb49c85","null","
        <p>בסוף הניסוי, המחשב יבחר את אחת ההגרלות ויקבע מחיר לכרטיס עבורה. 
        <br>במידה והמחיר שבחרתם נמוך מהמחיר שנבחר על ידי המחשב, לא תשתתפו בהגרלה ותשארו עם מלוא התקציב.
        <br>במידה והמחיר שבחרתם גבוה מהמחיר שנבחר על ידי המחשב, תשלמו את המחיר שנקבע ותשתתפו בהגרלה.
        <br><br>לחצו על העכבר כדי להמשיך.</p>","1","instructions","","","","","","","","","","","","","","","","","","","","",""
"","","","","","html-slider-response","4","444084","0.0-4.0","bdd1be3f-9c7d-4cdd-9dfc-a2efeeb49c85","9397","
        <p style=""font-size: 42px;"">נתחיל עם דוגמא: 
        <br>ההגרלה מטה מציעה 65% סיכוי לזכות ב-₪40 
        <br>&emsp;&emsp;&emsp;&emsp;&emsp;&emsp;&emsp;&emsp;&ensp;35% סיכוי לזכות ב-₪0.
        <br><br>מה המחיר המירבי שתהיו מוכנים לשלם על כרטיס להגרלה זו בין 0 ל-₪80?
        <br>הזיזו את העכבר על פני המלבן ולחצו כדי לבצע בחירה.</p>
        
        <p style=""text-align: center;"">₪40<br>65%</p>

        <p id=""wtp"" style=""text-align:center; margin-top: 0px; margin-bottom: 0px; font-size: 40px"";>מוכנים לשלם: <span id=""c_p_y""></span></p>","32","example","69","","","","","","","","","","","","","","","","","","","",""
"","","","","","html-keyboard-response","5","453292","0.0-5.0","bdd1be3f-9c7d-4cdd-9dfc-a2efeeb49c85","null","<p>יפה מאוד!
                <br> בחרתם שתהיו מוכנים לשלם ₪32 כדי להשתתף בהגרלה:
                <br><p style=""text-align: center;"">₪40<br>65%</p>
                <p>נשמע נכון?
                <br>נניח שהגרלה זו נבחרה בסוף הניסוי.
                <br>כעת המחשב יקבע מחיר עבורה באקראי.
                <br>לחצו על העכבר להמשך.</p>","1","example","","","","","","","","","","","","","","","","","","","","",""
"","","","","","html-keyboard-response","6","475236","0.0-6.0","bdd1be3f-9c7d-4cdd-9dfc-a2efeeb49c85","null","<p>המחשב קבע מחיר: ₪34
                <br>ואתם בחרתם לשלם לכל היותר: ₪32
                <br><br>מכיוון שהמחיר שבחרתם נמוך מהמחיר שנקבע, לא תתשתתפו בהגרלה.
                <br>במקרה כזה, בסוף הניסוי תקבלו את כל התקציב ההתחלתי של ₪80.
                <br><br>לחצו על העכבר להמשך.</p>","1","example","","","","","","","","","","","","","","","","","","","","",""
"","","","","","html-slider-response","7","483180","0.0-7.0","bdd1be3f-9c7d-4cdd-9dfc-a2efeeb49c85","7693","<p style=""font-size: 42px;"">הנה עוד דוגמא:
                <br>ההגרלה מטה מציעה 35% סיכוי לזכות ב-₪18 
                <br>&emsp;&emsp;&emsp;&emsp;&emsp;&emsp;&emsp;&emsp;&ensp;65% סיכוי לזכות ב-₪0.</p>
        
                <p style=""text-align: center;"">₪18<br>35%</p>
                <p id=""wtp"" style=""text-align:center; margin-top: 0px; margin-bottom: 0px; font-size: 40px"";>מוכנים לשלם: <span id=""c_p_y""></span></p>","4","example","58","","","","","","","","","","","","","","","","","","","",""
"","","","","","html-keyboard-response","8","484803","0.0-8.0","bdd1be3f-9c7d-4cdd-9dfc-a2efeeb49c85","null","<p>הייתם מוכנים לשלם  ₪4 כדי להשתתף בהגרלה:
                <p style=""text-align: center;"">₪18<br>35%</p>
                <p>כעת נניח שהמחשב בחר את ההגרלה הזו בסוף הניסוי, וקבע עבורה מחיר.
                <br><br>לחצו על העכבר כדי להמשיך.</p>","1","instructions","","","","","","","","","","","","","","","","","","","","",""
"","","","","","html-keyboard-response","9","496731","0.0-9.0","bdd1be3f-9c7d-4cdd-9dfc-a2efeeb49c85","null","<p>המחשב קבע מחיר להגרלה: ₪3<br>ואתם בחרתם לשלם לכל היותר: ₪4
                <br><br>כעת המחיר שנקבע נמוך מזה שבחרתם, אז תשלמו את המחיר שקבע המחשב (₪3) ותשתתפו בהגרלה.
                <br>במקרה כזה, תסיימו את הניסוי עם תקציב של ₪77 ועם סיכוי לזכות ב-₪18 נוספים מההגרלה.
                <br>כלומר, תוכלו לקבל ₪77 אם לא תזכו בהגרלה, או ₪95 אם תזכו בהגרלה.
                <br><br>לחצו על העכבר להמשך.</p>","1","example","","","","","","","","","","","","","","","","","","","","",""
"","","","","","html-keyboard-response","10","504107","0.0-10.0","bdd1be3f-9c7d-4cdd-9dfc-a2efeeb49c85","null","<p>במהלך הניסוי, קודם תראו את ההגרלה ורק לאחר מכן תוכלו לבחור.
                <p>כמו כן, יהיו לכם מספר שניות מוגבל להגיב.
                <p>בואו ננסה זאת עם ההגרלה הקודמת.
                <br>לחצו על העכבר כדי להמשיך.</p>","1","instructions","","","","","","","","","","","","","","","","","","","","",""
"","","","","","html-slider-response","11","505376","0.0-11.0","bdd1be3f-9c7d-4cdd-9dfc-a2efeeb49c85","1000","
                    <p style=""text-align: center;"">₪18<br>35%</p>
                    <p id=""wtp"" style=""text-align:center; margin-top: 0px; margin-bottom: 0px; font-size: 40px"";>&ensp;</p>","13","instructions","0","","","","","","","","","","","","","","","","","","","",""
"","","","","","html-slider-response","12","508228","0.0-12.0","bdd1be3f-9c7d-4cdd-9dfc-a2efeeb49c85","2584","
                    <p style=""text-align: center;"">₪18<br>35%</p>
                    <p id=""wtp"" style=""text-align:center; margin-top: 0px; margin-bottom: 0px; font-size: 40px"";>מוכנים לשלם: <span id=""c_p_y""></span></p>","3","instructions","44","","","","","","","","","","","","","","","","","","","",""
"","","","","","html-keyboard-response","13","512091","0.0-13.0","bdd1be3f-9c7d-4cdd-9dfc-a2efeeb49c85","null","<p>יפה. הפעם בחרתם לשלם לכל היותר ₪3.
                <br><br>לחצו על העכבר כדי להמשיך.</p>","1","instructions","","","","","","","","","","","","","","","","","","","","",""
"","","","","","html-keyboard-response","14","519059","0.0-15.0","bdd1be3f-9c7d-4cdd-9dfc-a2efeeb49c85","null","<p>כעת נתחיל את הניסוי.
                <br><br>אתם תראו הגרלות ותתבקשו לבחור כמה תהיו מוכנים לשלם כדי להשתתף בהן.
                <br>יש לכם תקציב של ₪80 עבור כל הגרלה.
                <br>בסוף הניסוי הגרלה אחת תבחר באקראי ותשוחק.
                <br><br>לחצו על העכבר כדי להתחיל את הניסוי.</p>","1","instructions","","","","","","","","","","","","","","","","","","","","",""
"","","","","","html-keyboard-response","15","520326","0.0-16.0","bdd1be3f-9c7d-4cdd-9dfc-a2efeeb49c85","null","<p style=""text-align: center;"">+</p>","null","fixation","","","","","","","","","","","","","","","","","","","","",""
"","","","","","html-slider-response","16","521340","0.0-17.0-0.0","bdd1be3f-9c7d-4cdd-9dfc-a2efeeb49c85","1000","
                  <p style=""text-align: center;"">₪64
                                                <br>50%</p>
                  <p id=""wtp"" style=""text-align:center; margin-top: 0px; margin-bottom: 0px; font-size: 40px"";>&ensp;</p>","-","viewing","0","25","1B,3B,4A","","","","","","","","","","","","","","","","","",""
"","","","","","html-slider-response","17","523924","0.0-17.0-1.0","bdd1be3f-9c7d-4cdd-9dfc-a2efeeb49c85","2582","
                  <p style=""text-align: center;"">₪64
                                                <br>50%</p>
                  <p id=""wtp"" style=""text-align:center; margin-top: 0px; margin-bottom: 0px; font-size: 40px"";>מוכנים לשלם: <span id=""c_p_y""></span></p>","35","evaluation","8","25","1B,3B,4A","50","64","35","","","","","","","","","","","","","","",""
"","","","","","html-keyboard-response","18","524744","0.0-17.0-2.0","bdd1be3f-9c7d-4cdd-9dfc-a2efeeb49c85","null","<p style=""text-align: center;"">+</p>","null","fixation","","","","","","","","","","","","","","","","","","","","",""
"","","","","","html-slider-response","19","525758","0.0-17.0-0.1","bdd1be3f-9c7d-4cdd-9dfc-a2efeeb49c85","1000","
                  <p style=""text-align: center;"">₪36
                                                <br>60%</p>
                  <p id=""wtp"" style=""text-align:center; margin-top: 0px; margin-bottom: 0px; font-size: 40px"";>&ensp;</p>","-","viewing","0","12","1C,7C,15C","","","","","","","","","","","","","","","","","",""
"","","","","","html-slider-response","20","529011","0.0-17.0-1.1","bdd1be3f-9c7d-4cdd-9dfc-a2efeeb49c85","3252","
                  <p style=""text-align: center;"">₪36
                                                <br>60%</p>
                  <p id=""wtp"" style=""text-align:center; margin-top: 0px; margin-bottom: 0px; font-size: 40px"";>מוכנים לשלם: <span id=""c_p_y""></span></p>","29","evaluation","1","12","1C,7C,15C","60","36","29","","","","","","","","","","","","","","",""
"","","","","","html-keyboard-response","21","530362","0.0-17.0-2.1","bdd1be3f-9c7d-4cdd-9dfc-a2efeeb49c85","null","<p style=""text-align: center;"">+</p>","null","fixation","","","","","","","","","","","","","","","","","","","","",""
"","","","","","html-slider-response","22","531369","0.0-17.0-0.2","bdd1be3f-9c7d-4cdd-9dfc-a2efeeb49c85","1000","
                  <p style=""text-align: center;"">₪11
                                                <br>75%</p>
                  <p id=""wtp"" style=""text-align:center; margin-top: 0px; margin-bottom: 0px; font-size: 40px"";>&ensp;</p>","-","viewing","0","7","6B,18B,22C,24C,29A","","","","","","","","","","","","","","","","","",""
"","","","","","html-slider-response","23","535324","0.0-17.0-1.2","bdd1be3f-9c7d-4cdd-9dfc-a2efeeb49c85","3954","
                  <p style=""text-align: center;"">₪11
                                                <br>75%</p>
                  <p id=""wtp"" style=""text-align:center; margin-top: 0px; margin-bottom: 0px; font-size: 40px"";>מוכנים לשלם: <span id=""c_p_y""></span></p>","10","evaluation","45","7","6B,18B,22C,24C,29A","75","11","10","","","","","","","","","","","","","","",""
"","","","","","html-keyboard-response","24","536606","0.0-17.0-2.2","bdd1be3f-9c7d-4cdd-9dfc-a2efeeb49c85","null","<p style=""text-align: center;"">+</p>","null","fixation","","","","","","","","","","","","","","","","","","","","",""
"","","","","","html-slider-response","25","537610","0.0-17.0-0.3","bdd1be3f-9c7d-4cdd-9dfc-a2efeeb49c85","1000","
                  <p style=""text-align: center;"">₪36
                                                <br>70%</p>
                  <p id=""wtp"" style=""text-align:center; margin-top: 0px; margin-bottom: 0px; font-size: 40px"";>&ensp;</p>","-","viewing","0","13","3A,5C,10B","","","","","","","","","","","","","","","","","",""
"","","","","","html-slider-response","26","541619","0.0-17.0-1.3","bdd1be3f-9c7d-4cdd-9dfc-a2efeeb49c85","null","
                  <p style=""text-align: center;"">₪36
                                                <br>70%</p>
                  <p id=""wtp"" style=""text-align:center; margin-top: 0px; margin-bottom: 0px; font-size: 40px"";>מוכנים לשלם: <span id=""c_p_y""></span></p>","null","evaluation","65","13","3A,5C,10B","70","36","33","","","","","","","","","","","","","","",""
"","","","","","html-keyboard-response","27","542945","0.0-17.0-2.3","bdd1be3f-9c7d-4cdd-9dfc-a2efeeb49c85","null","<p style=""text-align: center;"">+</p>","null","fixation","","","","","","","","","","","","","","","","","","","","",""
"","","","","","html-slider-response","28","543961","0.0-17.0-0.4","bdd1be3f-9c7d-4cdd-9dfc-a2efeeb49c85","1000","
                  <p style=""text-align: center;"">₪79
                                                <br>40%</p>
                  <p id=""wtp"" style=""text-align:center; margin-top: 0px; margin-bottom: 0px; font-size: 40px"";>&ensp;</p>","-","viewing","0","30","9B","","","","","","","","","","","","","","","","","",""
"","","","","","html-slider-response","29","547218","0.0-17.0-1.4","bdd1be3f-9c7d-4cdd-9dfc-a2efeeb49c85","3257","
                  <p style=""text-align: center;"">₪79
                                                <br>40%</p>
                  <p id=""wtp"" style=""text-align:center; margin-top: 0px; margin-bottom: 0px; font-size: 40px"";>מוכנים לשלם: <span id=""c_p_y""></span></p>","50","evaluation","69","30","9B","40","79","50","","","","","","","","","","","","","","",""
"","","","","","html-keyboard-response","30","548324","0.0-17.0-2.4","bdd1be3f-9c7d-4cdd-9dfc-a2efeeb49c85","null","<p style=""text-align: center;"">+</p>","null","fixation","","","","","","","","","","","","","","","","","","","","",""
"","","","","","html-slider-response","31","549332","0.0-17.0-0.5","bdd1be3f-9c7d-4cdd-9dfc-a2efeeb49c85","1000","
                  <p style=""text-align: center;"">₪71
                                                <br>55%</p>
                  <p id=""wtp"" style=""text-align:center; margin-top: 0px; margin-bottom: 0px; font-size: 40px"";>&ensp;</p>","-","viewing","0","27","5B,18A","","","","","","","","","","","","","","","","","",""
"","","","","","html-slider-response","32","552842","0.0-17.0-1.5","bdd1be3f-9c7d-4cdd-9dfc-a2efeeb49c85","3510","
                  <p style=""text-align: center;"">₪71
                                                <br>55%</p>
                  <p id=""wtp"" style=""text-align:center; margin-top: 0px; margin-bottom: 0px; font-size: 40px"";>מוכנים לשלם: <span id=""c_p_y""></span></p>","36","evaluation","47","27","5B,18A","55","71","36","","","","","","","","","","","","","","",""
"","","","","","html-keyboard-response","33","553353","0.0-17.0-2.5","bdd1be3f-9c7d-4cdd-9dfc-a2efeeb49c85","null","<p style=""text-align: center;"">+</p>","null","fixation","","","","","","","","","","","","","","","","","","","","",""
"","","","","","html-slider-response","34","554365","0.0-17.0-0.6","bdd1be3f-9c7d-4cdd-9dfc-a2efeeb49c85","1000","
                  <p style=""text-align: center;"">₪61
                                                <br>55%</p>
                  <p id=""wtp"" style=""text-align:center; margin-top: 0px; margin-bottom: 0px; font-size: 40px"";>&ensp;</p>","-","viewing","0","23","7B,26B","","","","","","","","","","","","","","","","","",""
"","","","","","html-slider-response","35","556994","0.0-17.0-1.6","bdd1be3f-9c7d-4cdd-9dfc-a2efeeb49c85","2628","
                  <p style=""text-align: center;"">₪61
                                                <br>55%</p>
                  <p id=""wtp"" style=""text-align:center; margin-top: 0px; margin-bottom: 0px; font-size: 40px"";>מוכנים לשלם: <span id=""c_p_y""></span></p>","43","evaluation","80","23","7B,26B","55","61","43","","","","","","","","","","","","","","",""
"","","","","","html-keyboard-response","36","557527","0.0-17.0-2.6","bdd1be3f-9c7d-4cdd-9dfc-a2efeeb49c85","null","<p style=""text-align: center;"">+</p>","null","fixation","","","","","","","","","","","","","","","","","","","","",""
"","","","","","html-slider-response","37","558545","0.0-17.0-0.7","bdd1be3f-9c7d-4cdd-9dfc-a2efeeb49c85","1000","
                  <p style=""text-align: center;"">₪71
                                                <br>75%</p>
                  <p id=""wtp"" style=""text-align:center; margin-top: 0px; margin-bottom: 0px; font-size: 40px"";>&ensp;</p>","-","viewing","0","28","8B","","","","","","","","","","","","","","","","","",""
"","","","","","html-slider-response","38","560810","0.0-17.0-1.7","bdd1be3f-9c7d-4cdd-9dfc-a2efeeb49c85","2264","
                  <p style=""text-align: center;"">₪71
                                                <br>75%</p>
                  <p id=""wtp"" style=""text-align:center; margin-top: 0px; margin-bottom: 0px; font-size: 40px"";>מוכנים לשלם: <span id=""c_p_y""></span></p>","65","evaluation","53","28","8B","75","71","65","","","","","","","","","","","","","","",""
"","","","","","html-keyboard-response","39","561331","0.0-17.0-2.7","bdd1be3f-9c7d-4cdd-9dfc-a2efeeb49c85","null","<p style=""text-align: center;"">+</p>","null","fixation","","","","","","","","","","","","","","","","","","","","",""
"","","","","","html-slider-response","40","562348","0.0-17.0-0.8","bdd1be3f-9c7d-4cdd-9dfc-a2efeeb49c85","1000","
                  <p style=""text-align: center;"">₪71
                                                <br>45%</p>
                  <p id=""wtp"" style=""text-align:center; margin-top: 0px; margin-bottom: 0px; font-size: 40px"";>&ensp;</p>","-","viewing","0","26","2B,16A","","","","","","","","","","","","","","","","","",""
"","","","","","html-slider-response","41","565410","0.0-17.0-1.8","bdd1be3f-9c7d-4cdd-9dfc-a2efeeb49c85","3061","
                  <p style=""text-align: center;"">₪71
                                                <br>45%</p>
                  <p id=""wtp"" style=""text-align:center; margin-top: 0px; margin-bottom: 0px; font-size: 40px"";>מוכנים לשלם: <span id=""c_p_y""></span></p>","22","evaluation","17","26","2B,16A","45","71","22","","","","","","","","","","","","","","",""
"","","","","","html-keyboard-response","42","566908","0.0-17.0-2.8","bdd1be3f-9c7d-4cdd-9dfc-a2efeeb49c85","null","<p style=""text-align: center;"">+</p>","null","fixation","","","","","","","","","","","","","","","","","","","","",""
"","","","","","html-slider-response","43","567921","0.0-17.0-0.9","bdd1be3f-9c7d-4cdd-9dfc-a2efeeb49c85","1000","
                  <p style=""text-align: center;"">₪11
                                                <br>45%</p>
                  <p id=""wtp"" style=""text-align:center; margin-top: 0px; margin-bottom: 0px; font-size: 40px"";>&ensp;</p>","-","viewing","0","6","14B,21C,25C","","","","","","","","","","","","","","","","","",""
"","","","","","html-slider-response","44","570082","0.0-17.0-1.9","bdd1be3f-9c7d-4cdd-9dfc-a2efeeb49c85","2161","
                  <p style=""text-align: center;"">₪11
                                                <br>45%</p>
                  <p id=""wtp"" style=""text-align:center; margin-top: 0px; margin-bottom: 0px; font-size: 40px"";>מוכנים לשלם: <span id=""c_p_y""></span></p>","5","evaluation","74","6","14B,21C,25C","45","11","5","","","","","","","","","","","","","","",""
"","","","","","html-keyboard-response","45","571059","0.0-17.0-2.9","bdd1be3f-9c7d-4cdd-9dfc-a2efeeb49c85","null","<p style=""text-align: center;"">+</p>","null","fixation","","","","","","","","","","","","","","","","","","","","",""
"","","","","","html-slider-response","46","572075","0.0-17.0-0.10","bdd1be3f-9c7d-4cdd-9dfc-a2efeeb49c85","1000","
                  <p style=""text-align: center;"">₪18
                                                <br>25%</p>
                  <p id=""wtp"" style=""text-align:center; margin-top: 0px; margin-bottom: 0px; font-size: 40px"";>&ensp;</p>","-","viewing","0","9","14A,23A","","","","","","","","","","","","","","","","","",""
"","","","","","html-slider-response","47","573738","0.0-17.0-1.10","bdd1be3f-9c7d-4cdd-9dfc-a2efeeb49c85","1663","
                  <p style=""text-align: center;"">₪18
                                                <br>25%</p>
                  <p id=""wtp"" style=""text-align:center; margin-top: 0px; margin-bottom: 0px; font-size: 40px"";>מוכנים לשלם: <span id=""c_p_y""></span></p>","8","evaluation","70","9","14A,23A","25","18","9","","","","","","","","","","","","","","",""
"","","","","","html-keyboard-response","48","574635","0.0-17.0-2.10","bdd1be3f-9c7d-4cdd-9dfc-a2efeeb49c85","null","<p style=""text-align: center;"">+</p>","null","fixation","","","","","","","","","","","","","","","","","","","","",""
"","","","","","html-slider-response","49","575642","0.0-17.0-0.11","bdd1be3f-9c7d-4cdd-9dfc-a2efeeb49c85","1000","
                  <p style=""text-align: center;"">₪43
                                                <br>75%</p>
                  <p id=""wtp"" style=""text-align:center; margin-top: 0px; margin-bottom: 0px; font-size: 40px"";>&ensp;</p>","-","viewing","0","18","11B,19B,24A,26A","","","","","","","","","","","","","","","","","",""
"","","","","","html-slider-response","50","578938","0.0-17.0-1.11","bdd1be3f-9c7d-4cdd-9dfc-a2efeeb49c85","3295","
                  <p style=""text-align: center;"">₪43
                                                <br>75%</p>
                  <p id=""wtp"" style=""text-align:center; margin-top: 0px; margin-bottom: 0px; font-size: 40px"";>מוכנים לשלם: <span id=""c_p_y""></span></p>","34","evaluation","13","18","11B,19B,24A,26A","75","43","34","","","","","","","","","","","","","","",""
"","","","","","html-keyboard-response","51","580419","0.0-17.0-2.11","bdd1be3f-9c7d-4cdd-9dfc-a2efeeb49c85","null","<p style=""text-align: center;"">+</p>","null","fixation","","","","","","","","","","","","","","","","","","","","",""
"","","","","","html-slider-response","52","581434","0.0-17.0-0.12","bdd1be3f-9c7d-4cdd-9dfc-a2efeeb49c85","1000","
                  <p style=""text-align: center;"">₪18
                                                <br>50%</p>
                  <p id=""wtp"" style=""text-align:center; margin-top: 0px; margin-bottom: 0px; font-size: 40px"";>&ensp;</p>","-","viewing","0","10","2C,16C,22B,28A","","","","","","","","","","","","","","","","","",""
"","","","","","html-slider-response","53","584490","0.0-17.0-1.12","bdd1be3f-9c7d-4cdd-9dfc-a2efeeb49c85","3055","
                  <p style=""text-align: center;"">₪18
                                                <br>50%</p>
                  <p id=""wtp"" style=""text-align:center; margin-top: 0px; margin-bottom: 0px; font-size: 40px"";>מוכנים לשלם: <span id=""c_p_y""></span></p>","5","evaluation","75","10","2C,16C,22B,28A","50","18","5","","","","","","","","","","","","","","",""
"","","","","","html-keyboard-response","54","585364","0.0-17.0-2.12","bdd1be3f-9c7d-4cdd-9dfc-a2efeeb49c85","null","<p style=""text-align: center;"">+</p>","null","fixation","","","","","","","","","","","","","","","","","","","","",""
"","","","","","html-slider-response","55","586371","0.0-17.0-0.13","bdd1be3f-9c7d-4cdd-9dfc-a2efeeb49c85","1000","
                  <p style=""text-align: center;"">₪16
                                                <br>20%</p>
                  <p id=""wtp"" style=""text-align:center; margin-top: 0px; margin-bottom: 0px; font-size: 40px"";>&ensp;</p>","-","viewing","0","8","14C,17A,20C,27A","","","","","","","","","","","","","","","","","",""
"","","","","","html-slider-response","56","589962","0.0-17.0-1.13","bdd1be3f-9c7d-4cdd-9dfc-a2efeeb49c85","3590","
                  <p style=""text-align: center;"">₪16
                                                <br>20%</p>
                  <p id=""wtp"" style=""text-align:center; margin-top: 0px; margin-bottom: 0px; font-size: 40px"";>מוכנים לשלם: <span id=""c_p_y""></span></p>","9","evaluation","17","8","14C,17A,20C,27A","20","16","10","","","","","","","","","","","","","","",""
"","","","","","html-keyboard-response","57","590587","0.0-17.0-2.13","bdd1be3f-9c7d-4cdd-9dfc-a2efeeb49c85","null","<p style=""text-align: center;"">+</p>","null","fixation","","","","","","","","","","","","","","","","","","","","",""
"","","","","","html-slider-response","58","591595","0.0-17.0-0.14","bdd1be3f-9c7d-4cdd-9dfc-a2efeeb49c85","1000","
                  <p style=""text-align: center;"">₪4
                                                <br>75%</p>
                  <p id=""wtp"" style=""text-align:center; margin-top: 0px; margin-bottom: 0px; font-size: 40px"";>&ensp;</p>","-","viewing","0","3","12B,20B,23B,27C,29C","","","","","","","","","","","","","","","","","",""
"","","","","","html-slider-response","59","594778","0.0-17.0-1.14","bdd1be3f-9c7d-4cdd-9dfc-a2efeeb49c85","3182","
                  <p style=""text-align: center;"">₪4
                                                <br>75%</p>
                  <p id=""wtp"" style=""text-align:center; margin-top: 0px; margin-bottom: 0px; font-size: 40px"";>מוכנים לשלם: <span id=""c_p_y""></span></p>","1","evaluation","56","3","12B,20B,23B,27C,29C","75","4","2","","","","","","","","","","","","","","",""
"","","","","","html-keyboard-response","60","596184","0.0-17.0-2.14","bdd1be3f-9c7d-4cdd-9dfc-a2efeeb49c85","null","<p style=""text-align: center;"">+</p>","null","fixation","","","","","","","","","","","","","","","","","","","","",""
"","","","","","html-slider-response","61","597200","0.0-17.0-0.15","bdd1be3f-9c7d-4cdd-9dfc-a2efeeb49c85","1000","
                  <p style=""text-align: center;"">₪4
                                                <br>50%</p>
                  <p id=""wtp"" style=""text-align:center; margin-top: 0px; margin-bottom: 0px; font-size: 40px"";>&ensp;</p>","-","viewing","0","2","4C,17B","","","","","","","","","","","","","","","","","",""
"","","","","","html-slider-response","62","600985","0.0-17.0-1.15","bdd1be3f-9c7d-4cdd-9dfc-a2efeeb49c85","3784","
                  <p style=""text-align: center;"">₪4
                                                <br>50%</p>
                  <p id=""wtp"" style=""text-align:center; margin-top: 0px; margin-bottom: 0px; font-size: 40px"";>מוכנים לשלם: <span id=""c_p_y""></span></p>","5","evaluation","74","2","4C,17B","50","4","5","","","","","","","","","","","","","","",""
"","","","","","html-keyboard-response","63","602395","0.0-17.0-2.15","bdd1be3f-9c7d-4cdd-9dfc-a2efeeb49c85","null","<p style=""text-align: center;"">+</p>","null","fixation","","","","","","","","","","","","","","","","","","","","",""
"","","","","","html-slider-response","64","603406","0.0-17.0-0.16","bdd1be3f-9c7d-4cdd-9dfc-a2efeeb49c85","1000","
                  <p style=""text-align: center;"">₪11
                                                <br>25%</p>
                  <p id=""wtp"" style=""text-align:center; margin-top: 0px; margin-bottom: 0px; font-size: 40px"";>&ensp;</p>","-","viewing","0","5","12A,27B,28B,30B","","","","","","","","","","","","","","","","","",""
"","","","","","html-slider-response","65","606929","0.0-17.0-1.16","bdd1be3f-9c7d-4cdd-9dfc-a2efeeb49c85","3523","
                  <p style=""text-align: center;"">₪11
                                                <br>25%</p>
                  <p id=""wtp"" style=""text-align:center; margin-top: 0px; margin-bottom: 0px; font-size: 40px"";>מוכנים לשלם: <span id=""c_p_y""></span></p>","6","evaluation","67","5","12A,27B,28B,30B","25","11","6","","","","","","","","","","","","","","",""
"","","","","","html-keyboard-response","66","607865","0.0-17.0-2.16","bdd1be3f-9c7d-4cdd-9dfc-a2efeeb49c85","null","<p style=""text-align: center;"">+</p>","null","fixation","","","","","","","","","","","","","","","","","","","","",""
"","","","","","html-slider-response","67","608878","0.0-17.0-0.17","bdd1be3f-9c7d-4cdd-9dfc-a2efeeb49c85","1000","
                  <p style=""text-align: center;"">₪79
                                                <br>65%</p>
                  <p id=""wtp"" style=""text-align:center; margin-top: 0px; margin-bottom: 0px; font-size: 40px"";>&ensp;</p>","-","viewing","0","31","8A","","","","","","","","","","","","","","","","","",""
"","","","","","html-slider-response","68","612801","0.0-17.0-1.17","bdd1be3f-9c7d-4cdd-9dfc-a2efeeb49c85","3923","
                  <p style=""text-align: center;"">₪79
                                                <br>65%</p>
                  <p id=""wtp"" style=""text-align:center; margin-top: 0px; margin-bottom: 0px; font-size: 40px"";>מוכנים לשלם: <span id=""c_p_y""></span></p>","53","evaluation","4","31","8A","65","79","53","","","","","","","","","","","","","","",""
"","","","","","html-keyboard-response","69","613597","0.0-17.0-2.17","bdd1be3f-9c7d-4cdd-9dfc-a2efeeb49c85","null","<p style=""text-align: center;"">+</p>","null","fixation","","","","","","","","","","","","","","","","","","","","",""
"","","","","","html-slider-response","70","614601","0.0-17.0-0.18","bdd1be3f-9c7d-4cdd-9dfc-a2efeeb49c85","1000","
                  <p style=""text-align: center;"">₪64
                                                <br>25%</p>
                  <p id=""wtp"" style=""text-align:center; margin-top: 0px; margin-bottom: 0px; font-size: 40px"";>&ensp;</p>","-","viewing","0","24","6A,21A","","","","","","","","","","","","","","","","","",""
"","","","","","html-slider-response","71","618617","0.0-17.0-1.18","bdd1be3f-9c7d-4cdd-9dfc-a2efeeb49c85","null","
                  <p style=""text-align: center;"">₪64
                                                <br>25%</p>
                  <p id=""wtp"" style=""text-align:center; margin-top: 0px; margin-bottom: 0px; font-size: 40px"";>מוכנים לשלם: <span id=""c_p_y""></span></p>","null","evaluation","55","24","6A,21A","25","64","16","","","","","","","","","","","","","","",""
"","","","","","html-keyboard-response","72","619436","0.0-17.0-2.18","bdd1be3f-9c7d-4cdd-9dfc-a2efeeb49c85","null","<p style=""text-align: center;"">+</p>","null","fixation","","","","","","","","","","","","","","","","","","","","",""
"","","","","","html-slider-response","73","620448","0.0-17.0-0.19","bdd1be3f-9c7d-4cdd-9dfc-a2efeeb49c85","1000","
                  <p style=""text-align: center;"">₪43
                                                <br>60%</p>
                  <p id=""wtp"" style=""text-align:center; margin-top: 0px; margin-bottom: 0px; font-size: 40px"";>&ensp;</p>","-","viewing","0","17","2A,7A,9A,15B","","","","","","","","","","","","","","","","","",""
"","","","","","html-slider-response","74","622353","0.0-17.0-1.19","bdd1be3f-9c7d-4cdd-9dfc-a2efeeb49c85","1904","
                  <p style=""text-align: center;"">₪43
                                                <br>60%</p>
                  <p id=""wtp"" style=""text-align:center; margin-top: 0px; margin-bottom: 0px; font-size: 40px"";>מוכנים לשלם: <span id=""c_p_y""></span></p>","23","evaluation","27","17","2A,7A,9A,15B","60","43","23","","","","","","","","","","","","","","",""
"","","","","","html-keyboard-response","75","622921","0.0-17.0-2.19","bdd1be3f-9c7d-4cdd-9dfc-a2efeeb49c85","null","<p style=""text-align: center;"">+</p>","null","fixation","","","","","","","","","","","","","","","","","","","","",""
"","","","","","html-slider-response","76","623928","0.0-17.0-0.20","bdd1be3f-9c7d-4cdd-9dfc-a2efeeb49c85","1000","
                  <p style=""text-align: center;"">₪58
                                                <br>30%</p>
                  <p id=""wtp"" style=""text-align:center; margin-top: 0px; margin-bottom: 0px; font-size: 40px"";>&ensp;</p>","-","viewing","0","19","13C,30A","","","","","","","","","","","","","","","","","",""
"","","","","","html-slider-response","77","626033","0.0-17.0-1.20","bdd1be3f-9c7d-4cdd-9dfc-a2efeeb49c85","2105","
                  <p style=""text-align: center;"">₪58
                                                <br>30%</p>
                  <p id=""wtp"" style=""text-align:center; margin-top: 0px; margin-bottom: 0px; font-size: 40px"";>מוכנים לשלם: <span id=""c_p_y""></span></p>","19","evaluation","28","19","13C,30A","30","58","20","","","","","","","","","","","","","","",""
"","","","","","html-keyboard-response","78","626908","0.0-17.0-2.20","bdd1be3f-9c7d-4cdd-9dfc-a2efeeb49c85","null","<p style=""text-align: center;"">+</p>","null","fixation","","","","","","","","","","","","","","","","","","","","",""
"","","","","","html-slider-response","79","627910","0.0-17.0-0.21","bdd1be3f-9c7d-4cdd-9dfc-a2efeeb49c85","1000","
                  <p style=""text-align: center;"">₪39
                                                <br>65%</p>
                  <p id=""wtp"" style=""text-align:center; margin-top: 0px; margin-bottom: 0px; font-size: 40px"";>&ensp;</p>","-","viewing","0","16","1A,15A,26C","","","","","","","","","","","","","","","","","",""
"","","","","","html-slider-response","80","631225","0.0-17.0-1.21","bdd1be3f-9c7d-4cdd-9dfc-a2efeeb49c85","3315","
                  <p style=""text-align: center;"">₪39
                                                <br>65%</p>
                  <p id=""wtp"" style=""text-align:center; margin-top: 0px; margin-bottom: 0px; font-size: 40px"";>מוכנים לשלם: <span id=""c_p_y""></span></p>","27","evaluation","71","16","1A,15A,26C","65","39","27","","","","","","","","","","","","","","",""
"","","","","","html-keyboard-response","81","632658","0.0-17.0-2.21","bdd1be3f-9c7d-4cdd-9dfc-a2efeeb49c85","null","<p style=""text-align: center;"">+</p>","null","fixation","","","","","","","","","","","","","","","","","","","","",""
"","","","","","html-slider-response","82","633670","0.0-17.0-0.22","bdd1be3f-9c7d-4cdd-9dfc-a2efeeb49c85","1000","
                  <p style=""text-align: center;"">₪39
                                                <br>60%</p>
                  <p id=""wtp"" style=""text-align:center; margin-top: 0px; margin-bottom: 0px; font-size: 40px"";>&ensp;</p>","-","viewing","0","15","9C,25B","","","","","","","","","","","","","","","","","",""
"","","","","","html-slider-response","83","635473","0.0-17.0-1.22","bdd1be3f-9c7d-4cdd-9dfc-a2efeeb49c85","1803","
                  <p style=""text-align: center;"">₪39
                                                <br>60%</p>
                  <p id=""wtp"" style=""text-align:center; margin-top: 0px; margin-bottom: 0px; font-size: 40px"";>מוכנים לשלם: <span id=""c_p_y""></span></p>","20","evaluation","58","15","9C,25B","60","39","20","","","","","","","","","","","","","","",""
"","","","","","html-keyboard-response","84","636427","0.0-17.0-2.22","bdd1be3f-9c7d-4cdd-9dfc-a2efeeb49c85","null","<p style=""text-align: center;"">+</p>","null","fixation","","","","","","","","","","","","","","","","","","","","",""
"","","","","","html-slider-response","85","637440","0.0-17.0-0.23","bdd1be3f-9c7d-4cdd-9dfc-a2efeeb49c85","1000","
                  <p style=""text-align: center;"">₪61
                                                <br>45%</p>
                  <p id=""wtp"" style=""text-align:center; margin-top: 0px; margin-bottom: 0px; font-size: 40px"";>&ensp;</p>","-","viewing","0","22","10A,11A","","","","","","","","","","","","","","","","","",""
"","","","","","html-slider-response","86","641089","0.0-17.0-1.23","bdd1be3f-9c7d-4cdd-9dfc-a2efeeb49c85","3648","
                  <p style=""text-align: center;"">₪61
                                                <br>45%</p>
                  <p id=""wtp"" style=""text-align:center; margin-top: 0px; margin-bottom: 0px; font-size: 40px"";>מוכנים לשלם: <span id=""c_p_y""></span></p>","29","evaluation","66","22","10A,11A","45","61","29","","","","","","","","","","","","","","",""
"","","","","","html-keyboard-response","87","642111","0.0-17.0-2.23","bdd1be3f-9c7d-4cdd-9dfc-a2efeeb49c85","null","<p style=""text-align: center;"">+</p>","null","fixation","","","","","","","","","","","","","","","","","","","","",""
"","","","","","html-slider-response","88","643128","0.0-17.0-0.24","bdd1be3f-9c7d-4cdd-9dfc-a2efeeb49c85","1000","
                  <p style=""text-align: center;"">₪4
                                                <br>25%</p>
                  <p id=""wtp"" style=""text-align:center; margin-top: 0px; margin-bottom: 0px; font-size: 40px"";>&ensp;</p>","-","viewing","0","1","6C,29B,30C","","","","","","","","","","","","","","","","","",""
"","","","","","html-slider-response","89","645265","0.0-17.0-1.24","bdd1be3f-9c7d-4cdd-9dfc-a2efeeb49c85","2137","
                  <p style=""text-align: center;"">₪4
                                                <br>25%</p>
                  <p id=""wtp"" style=""text-align:center; margin-top: 0px; margin-bottom: 0px; font-size: 40px"";>מוכנים לשלם: <span id=""c_p_y""></span></p>","0","evaluation","63","1","6C,29B,30C","25","4","0","","","","","","","","","","","","","","",""
"","","","","","html-keyboard-response","90","646527","0.0-17.0-2.24","bdd1be3f-9c7d-4cdd-9dfc-a2efeeb49c85","null","<p style=""text-align: center;"">+</p>","null","fixation","","","","","","","","","","","","","","","","","","","","",""
"","","","","","html-slider-response","91","647542","0.0-17.0-0.25","bdd1be3f-9c7d-4cdd-9dfc-a2efeeb49c85","1000","
                  <p style=""text-align: center;"">₪58
                                                <br>45%</p>
                  <p id=""wtp"" style=""text-align:center; margin-top: 0px; margin-bottom: 0px; font-size: 40px"";>&ensp;</p>","-","viewing","0","21","11C,18C,25A","","","","","","","","","","","","","","","","","",""
"","","","","","html-slider-response","92","650609","0.0-17.0-1.25","bdd1be3f-9c7d-4cdd-9dfc-a2efeeb49c85","3066","
                  <p style=""text-align: center;"">₪58
                                                <br>45%</p>
                  <p id=""wtp"" style=""text-align:center; margin-top: 0px; margin-bottom: 0px; font-size: 40px"";>מוכנים לשלם: <span id=""c_p_y""></span></p>","31","evaluation","4","21","11C,18C,25A","45","58","31","","","","","","","","","","","","","","",""
"","","","","","html-keyboard-response","93","651546","0.0-17.0-2.25","bdd1be3f-9c7d-4cdd-9dfc-a2efeeb49c85","null","<p style=""text-align: center;"">+</p>","null","fixation","","","","","","","","","","","","","","","","","","","","",""
"","","","","","html-slider-response","94","652550","0.0-17.0-0.26","bdd1be3f-9c7d-4cdd-9dfc-a2efeeb49c85","1000","
                  <p style=""text-align: center;"">₪76
                                                <br>65%</p>
                  <p id=""wtp"" style=""text-align:center; margin-top: 0px; margin-bottom: 0px; font-size: 40px"";>&ensp;</p>","-","viewing","0","29","8C,19A,24B","","","","","","","","","","","","","","","","","",""
"","","","","","html-slider-response","95","655649","0.0-17.0-1.26","bdd1be3f-9c7d-4cdd-9dfc-a2efeeb49c85","3098","
                  <p style=""text-align: center;"">₪76
                                                <br>65%</p>
                  <p id=""wtp"" style=""text-align:center; margin-top: 0px; margin-bottom: 0px; font-size: 40px"";>מוכנים לשלם: <span id=""c_p_y""></span></p>","45","evaluation","34","29","8C,19A,24B","65","76","45","","","","","","","","","","","","","","",""
"","","","","","html-keyboard-response","96","656987","0.0-17.0-2.26","bdd1be3f-9c7d-4cdd-9dfc-a2efeeb49c85","null","<p style=""text-align: center;"">+</p>","null","fixation","","","","","","","","","","","","","","","","","","","","",""
"","","","","","html-slider-response","97","657995","0.0-17.0-0.27","bdd1be3f-9c7d-4cdd-9dfc-a2efeeb49c85","1000","
                  <p style=""text-align: center;"">₪36
                                                <br>75%</p>
                  <p id=""wtp"" style=""text-align:center; margin-top: 0px; margin-bottom: 0px; font-size: 40px"";>&ensp;</p>","-","viewing","0","14","4B,5A,13B,16B","","","","","","","","","","","","","","","","","",""
"","","","","","html-slider-response","98","661560","0.0-17.0-1.27","bdd1be3f-9c7d-4cdd-9dfc-a2efeeb49c85","3565","
                  <p style=""text-align: center;"">₪36
                                                <br>75%</p>
                  <p id=""wtp"" style=""text-align:center; margin-top: 0px; margin-bottom: 0px; font-size: 40px"";>מוכנים לשלם: <span id=""c_p_y""></span></p>","26","evaluation","49","14","4B,5A,13B,16B","75","36","26","","","","","","","","","","","","","","",""
"","","","","","html-keyboard-response","99","662721","0.0-17.0-2.27","bdd1be3f-9c7d-4cdd-9dfc-a2efeeb49c85","null","<p style=""text-align: center;"">+</p>","null","fixation","","","","","","","","","","","","","","","","","","","","",""
"","","","","","html-slider-response","100","663732","0.0-17.0-0.28","bdd1be3f-9c7d-4cdd-9dfc-a2efeeb49c85","1000","
                  <p style=""text-align: center;"">₪11
                                                <br>20%</p>
                  <p id=""wtp"" style=""text-align:center; margin-top: 0px; margin-bottom: 0px; font-size: 40px"";>&ensp;</p>","-","viewing","0","4","12C,17C,23C,28C","","","","","","","","","","","","","","","","","",""
"","","","","","html-slider-response","101","667504","0.0-17.0-1.28","bdd1be3f-9c7d-4cdd-9dfc-a2efeeb49c85","3772","
                  <p style=""text-align: center;"">₪11
                                                <br>20%</p>
                  <p id=""wtp"" style=""text-align:center; margin-top: 0px; margin-bottom: 0px; font-size: 40px"";>מוכנים לשלם: <span id=""c_p_y""></span></p>","7","evaluation","0","4","12C,17C,23C,28C","20","11","7","","","","","","","","","","","","","","",""
"","","","","","html-keyboard-response","102","668785","0.0-17.0-2.28","bdd1be3f-9c7d-4cdd-9dfc-a2efeeb49c85","null","<p style=""text-align: center;"">+</p>","null","fixation","","","","","","","","","","","","","","","","","","","","",""
"","","","","","html-slider-response","103","669789","0.0-17.0-0.29","bdd1be3f-9c7d-4cdd-9dfc-a2efeeb49c85","1000","
                  <p style=""text-align: center;"">₪58
                                                <br>40%</p>
                  <p id=""wtp"" style=""text-align:center; margin-top: 0px; margin-bottom: 0px; font-size: 40px"";>&ensp;</p>","-","viewing","0","20","10C,13A,19C,21B","","","","","","","","","","","","","","","","","",""
"","","","","","html-slider-response","104","673120","0.0-17.0-1.29","bdd1be3f-9c7d-4cdd-9dfc-a2efeeb49c85","3331","
                  <p style=""text-align: center;"">₪58
                                                <br>40%</p>
                  <p id=""wtp"" style=""text-align:center; margin-top: 0px; margin-bottom: 0px; font-size: 40px"";>מוכנים לשלם: <span id=""c_p_y""></span></p>","23","evaluation","28","20","10C,13A,19C,21B","40","58","23","","","","","","","","","","","","","","",""
"","","","","","html-keyboard-response","105","674470","0.0-17.0-2.29","bdd1be3f-9c7d-4cdd-9dfc-a2efeeb49c85","null","<p style=""text-align: center;"">+</p>","null","fixation","","","","","","","","","","","","","","","","","","","","",""
"","","","","","html-slider-response","106","675478","0.0-17.0-0.30","bdd1be3f-9c7d-4cdd-9dfc-a2efeeb49c85","1000","
                  <p style=""text-align: center;"">₪36
                                                <br>30%</p>
                  <p id=""wtp"" style=""text-align:center; margin-top: 0px; margin-bottom: 0px; font-size: 40px"";>&ensp;</p>","-","viewing","0","11","3C,20A,22A","","","","","","","","","","","","","","","","","",""
"","","","","","html-slider-response","107","677792","0.0-17.0-1.30","bdd1be3f-9c7d-4cdd-9dfc-a2efeeb49c85","2314","
                  <p style=""text-align: center;"">₪36
                                                <br>30%</p>
                  <p id=""wtp"" style=""text-align:center; margin-top: 0px; margin-bottom: 0px; font-size: 40px"";>מוכנים לשלם: <span id=""c_p_y""></span></p>","10","evaluation","76","11","3C,20A,22A","30","36","11","","","","","","","","","","","","","","",""
"","","","","","html-keyboard-response","108","678792","0.0-17.0-2.30","bdd1be3f-9c7d-4cdd-9dfc-a2efeeb49c85","null","<p style=""text-align: center;"">+</p>","null","fixation","","","","","","","","","","","","","","","","","","","","",""
"","","","","","html-keyboard-response","109","679796","0.0-18.0","bdd1be3f-9c7d-4cdd-9dfc-a2efeeb49c85","null","<p style=""text-align: center;"">+</p>","null","fixation","","","","","","","","","","","","","","","","","","","","",""
"","","","","","html-keyboard-response","110","680920","0.0-19.0","bdd1be3f-9c7d-4cdd-9dfc-a2efeeb49c85","null","<p>הפסקה.
          <br>לחצו כדי להמשיך.</p>","1","scan_wait","","","","","","","","","","","","","","","","","","","","",""
"","","","","","html-keyboard-response","111","681932","0.0-20.0","bdd1be3f-9c7d-4cdd-9dfc-a2efeeb49c85","null","<p style=""text-align: center;"">+</p>","null","fixation","","","","","","","","","","","","","","","","","","","","",""
"","","","","","html-slider-response","112","682935","0.0-21.0-0.0","bdd1be3f-9c7d-4cdd-9dfc-a2efeeb49c85","1000","
                  <p style=""text-align: center;"">₪36
                                                <br>75%</p>
                  <p id=""wtp"" style=""text-align:center; margin-top: 0px; margin-bottom: 0px; font-size: 40px"";>&ensp;</p>","-","viewing","0","14","4B,5A,13B,16B","","","","","","","","","","","","","","","","","",""
"","","","","","html-slider-response","113","685416","0.0-21.0-1.0","bdd1be3f-9c7d-4cdd-9dfc-a2efeeb49c85","2480","
                  <p style=""text-align: center;"">₪36
                                                <br>75%</p>
                  <p id=""wtp"" style=""text-align:center; margin-top: 0px; margin-bottom: 0px; font-size: 40px"";>מוכנים לשלם: <span id=""c_p_y""></span></p>","13","evaluation","3","14","4B,5A,13B,16B","75","36","13","","","","","","","","","","","","","","",""
"","","","","","html-keyboard-response","114","686750","0.0-21.0-2.0","bdd1be3f-9c7d-4cdd-9dfc-a2efeeb49c85","null","<p style=""text-align: center;"">+</p>","null","fixation","","","","","","","","","","","","","","","","","","","","",""
"","","","","","html-slider-response","115","687756","0.0-21.0-0.1","bdd1be3f-9c7d-4cdd-9dfc-a2efeeb49c85","1000","
                  <p style=""text-align: center;"">₪4
                                                <br>50%</p>
                  <p id=""wtp"" style=""text-align:center; margin-top: 0px; margin-bottom: 0px; font-size: 40px"";>&ensp;</p>","-","viewing","0","2","4C,17B","","","","","","","","","","","","","","","","","",""
"","","","","","html-slider-response","116","690112","0.0-21.0-1.1","bdd1be3f-9c7d-4cdd-9dfc-a2efeeb49c85","2355","
                  <p style=""text-align: center;"">₪4
                                                <br>50%</p>
                  <p id=""wtp"" style=""text-align:center; margin-top: 0px; margin-bottom: 0px; font-size: 40px"";>מוכנים לשלם: <span id=""c_p_y""></span></p>","2","evaluation","30","2","4C,17B","50","4","2","","","","","","","","","","","","","","",""
"","","","","","html-keyboard-response","117","691251","0.0-21.0-2.1","bdd1be3f-9c7d-4cdd-9dfc-a2efeeb49c85","null","<p style=""text-align: center;"">+</p>","null","fixation","","","","","","","","","","","","","","","","","","","","",""
"","","","","","html-slider-response","118","692260","0.0-21.0-0.2","bdd1be3f-9c7d-4cdd-9dfc-a2efeeb49c85","1000","
                  <p style=""text-align: center;"">₪11
                                                <br>75%</p>
                  <p id=""wtp"" style=""text-align:center; margin-top: 0px; margin-bottom: 0px; font-size: 40px"";>&ensp;</p>","-","viewing","0","7","6B,18B,22C,24C,29A","","","","","","","","","","","","","","","","","",""
"","","","","","html-slider-response","119","696016","0.0-21.0-1.2","bdd1be3f-9c7d-4cdd-9dfc-a2efeeb49c85","3755","
                  <p style=""text-align: center;"">₪11
                                                <br>75%</p>
                  <p id=""wtp"" style=""text-align:center; margin-top: 0px; margin-bottom: 0px; font-size: 40px"";>מוכנים לשלם: <span id=""c_p_y""></span></p>","5","evaluation","49","7","6B,18B,22C,24C,29A","75","11","6","","","","","","","","","","","","","","",""
"","","","","","html-keyboard-response","120","696859","0.0-21.0-2.2","bdd1be3f-9c7d-4cdd-9dfc-a2efeeb49c85","null","<p style=""text-align: center;"">+</p>","null","fixation","","","","","","","","","","","","","","","","","","","","",""
"","","","","","html-slider-response","121","697865","0.0-21.0-0.3","bdd1be3f-9c7d-4cdd-9dfc-a2efeeb49c85","1000","
                  <p style=""text-align: center;"">₪76
                                                <br>65%</p>
                  <p id=""wtp"" style=""text-align:center; margin-top: 0px; margin-bottom: 0px; font-size: 40px"";>&ensp;</p>","-","viewing","0","29","8C,19A,24B","","","","","","","","","","","","","","","","","",""
"","","","","","html-slider-response","122","701488","0.0-21.0-1.3","bdd1be3f-9c7d-4cdd-9dfc-a2efeeb49c85","3622","
                  <p style=""text-align: center;"">₪76
                                                <br>65%</p>
                  <p id=""wtp"" style=""text-align:center; margin-top: 0px; margin-bottom: 0px; font-size: 40px"";>מוכנים לשלם: <span id=""c_p_y""></span></p>","47","evaluation","59","29","8C,19A,24B","65","76","47","","","","","","","","","","","","","","",""
"","","","","","html-keyboard-response","123","702065","0.0-21.0-2.3","bdd1be3f-9c7d-4cdd-9dfc-a2efeeb49c85","null","<p style=""text-align: center;"">+</p>","null","fixation","","","","","","","","","","","","","","","","","","","","",""
"","","","","","html-slider-response","124","703072","0.0-21.0-0.4","bdd1be3f-9c7d-4cdd-9dfc-a2efeeb49c85","1000","
                  <p style=""text-align: center;"">₪71
                                                <br>75%</p>
                  <p id=""wtp"" style=""text-align:center; margin-top: 0px; margin-bottom: 0px; font-size: 40px"";>&ensp;</p>","-","viewing","0","28","8B","","","","","","","","","","","","","","","","","",""
"","","","","","html-slider-response","125","706616","0.0-21.0-1.4","bdd1be3f-9c7d-4cdd-9dfc-a2efeeb49c85","3542","
                  <p style=""text-align: center;"">₪71
                                                <br>75%</p>
                  <p id=""wtp"" style=""text-align:center; margin-top: 0px; margin-bottom: 0px; font-size: 40px"";>מוכנים לשלם: <span id=""c_p_y""></span></p>","55","evaluation","24","28","8B","75","71","55","","","","","","","","","","","","","","",""
"","","","","","html-keyboard-response","126","707829","0.0-21.0-2.4","bdd1be3f-9c7d-4cdd-9dfc-a2efeeb49c85","null","<p style=""text-align: center;"">+</p>","null","fixation","","","","","","","","","","","","","","","","","","","","",""
"","","","","","html-slider-response","127","708844","0.0-21.0-0.5","bdd1be3f-9c7d-4cdd-9dfc-a2efeeb49c85","1000","
                  <p style=""text-align: center;"">₪36
                                                <br>60%</p>
                  <p id=""wtp"" style=""text-align:center; margin-top: 0px; margin-bottom: 0px; font-size: 40px"";>&ensp;</p>","-","viewing","0","12","1C,7C,15C","","","","","","","","","","","","","","","","","",""
"","","","","","html-slider-response","128","712208","0.0-21.0-1.5","bdd1be3f-9c7d-4cdd-9dfc-a2efeeb49c85","3363","
                  <p style=""text-align: center;"">₪36
                                                <br>60%</p>
                  <p id=""wtp"" style=""text-align:center; margin-top: 0px; margin-bottom: 0px; font-size: 40px"";>מוכנים לשלם: <span id=""c_p_y""></span></p>","35","evaluation","37","12","1C,7C,15C","60","36","35","","","","","","","","","","","","","","",""
"","","","","","html-keyboard-response","129","713417","0.0-21.0-2.5","bdd1be3f-9c7d-4cdd-9dfc-a2efeeb49c85","null","<p style=""text-align: center;"">+</p>","null","fixation","","","","","","","","","","","","","","","","","","","","",""
"","","","","","html-slider-response","130","714432","0.0-21.0-0.6","bdd1be3f-9c7d-4cdd-9dfc-a2efeeb49c85","1000","
                  <p style=""text-align: center;"">₪11
                                                <br>20%</p>
                  <p id=""wtp"" style=""text-align:center; margin-top: 0px; margin-bottom: 0px; font-size: 40px"";>&ensp;</p>","-","viewing","0","4","12C,17C,23C,28C","","","","","","","","","","","","","","","","","",""
"","","","","","html-slider-response","131","717520","0.0-21.0-1.6","bdd1be3f-9c7d-4cdd-9dfc-a2efeeb49c85","3088","
                  <p style=""text-align: center;"">₪11
                                                <br>20%</p>
                  <p id=""wtp"" style=""text-align:center; margin-top: 0px; margin-bottom: 0px; font-size: 40px"";>מוכנים לשלם: <span id=""c_p_y""></span></p>","0","evaluation","61","4","12C,17C,23C,28C","20","11","1","","","","","","","","","","","","","","",""
"","","","","","html-keyboard-response","132","718345","0.0-21.0-2.6","bdd1be3f-9c7d-4cdd-9dfc-a2efeeb49c85","null","<p style=""text-align: center;"">+</p>","null","fixation","","","","","","","","","","","","","","","","","","","","",""
"","","","","","html-slider-response","133","719353","0.0-21.0-0.7","bdd1be3f-9c7d-4cdd-9dfc-a2efeeb49c85","1000","
                  <p style=""text-align: center;"">₪4
                                                <br>75%</p>
                  <p id=""wtp"" style=""text-align:center; margin-top: 0px; margin-bottom: 0px; font-size: 40px"";>&ensp;</p>","-","viewing","0","3","12B,20B,23B,27C,29C","","","","","","","","","","","","","","","","","",""
"","","","","","html-slider-response","134","720855","0.0-21.0-1.7","bdd1be3f-9c7d-4cdd-9dfc-a2efeeb49c85","1503","
                  <p style=""text-align: center;"">₪4
                                                <br>75%</p>
                  <p id=""wtp"" style=""text-align:center; margin-top: 0px; margin-bottom: 0px; font-size: 40px"";>מוכנים לשלם: <span id=""c_p_y""></span></p>","0","evaluation","72","3","12B,20B,23B,27C,29C","75","4","0","","","","","","","","","","","","","","",""
"","","","","","html-keyboard-response","135","721541","0.0-21.0-2.7","bdd1be3f-9c7d-4cdd-9dfc-a2efeeb49c85","null","<p style=""text-align: center;"">+</p>","null","fixation","","","","","","","","","","","","","","","","","","","","",""
"","","","","","html-slider-response","136","722555","0.0-21.0-0.8","bdd1be3f-9c7d-4cdd-9dfc-a2efeeb49c85","1000","
                  <p style=""text-align: center;"">₪58
                                                <br>45%</p>
                  <p id=""wtp"" style=""text-align:center; margin-top: 0px; margin-bottom: 0px; font-size: 40px"";>&ensp;</p>","-","viewing","0","21","11C,18C,25A","","","","","","","","","","","","","","","","","",""
"","","","","","html-slider-response","137","726570","0.0-21.0-1.8","bdd1be3f-9c7d-4cdd-9dfc-a2efeeb49c85","null","
                  <p style=""text-align: center;"">₪58
                                                <br>45%</p>
                  <p id=""wtp"" style=""text-align:center; margin-top: 0px; margin-bottom: 0px; font-size: 40px"";>מוכנים לשלם: <span id=""c_p_y""></span></p>","null","evaluation","32","21","11C,18C,25A","45","58","40","","","","","","","","","","","","","","",""
"","","","","","html-keyboard-response","138","727445","0.0-21.0-2.8","bdd1be3f-9c7d-4cdd-9dfc-a2efeeb49c85","null","<p style=""text-align: center;"">+</p>","null","fixation","","","","","","","","","","","","","","","","","","","","",""
"","","","","","html-slider-response","139","728462","0.0-21.0-0.9","bdd1be3f-9c7d-4cdd-9dfc-a2efeeb49c85","1000","
                  <p style=""text-align: center;"">₪71
                                                <br>55%</p>
                  <p id=""wtp"" style=""text-align:center; margin-top: 0px; margin-bottom: 0px; font-size: 40px"";>&ensp;</p>","-","viewing","0","27","5B,18A","","","","","","","","","","","","","","","","","",""
"","","","","","html-slider-response","140","730751","0.0-21.0-1.9","bdd1be3f-9c7d-4cdd-9dfc-a2efeeb49c85","2288","
                  <p style=""text-align: center;"">₪71
                                                <br>55%</p>
                  <p id=""wtp"" style=""text-align:center; margin-top: 0px; margin-bottom: 0px; font-size: 40px"";>מוכנים לשלם: <span id=""c_p_y""></span></p>","45","evaluation","27","27","5B,18A","55","71","45","","","","","","","","","","","","","","",""
"","","","","","html-keyboard-response","141","731859","0.0-21.0-2.9","bdd1be3f-9c7d-4cdd-9dfc-a2efeeb49c85","null","<p style=""text-align: center;"">+</p>","null","fixation","","","","","","","","","","","","","","","","","","","","",""
"","","","","","html-slider-response","142","732864","0.0-21.0-0.10","bdd1be3f-9c7d-4cdd-9dfc-a2efeeb49c85","1000","
                  <p style=""text-align: center;"">₪11
                                                <br>25%</p>
                  <p id=""wtp"" style=""text-align:center; margin-top: 0px; margin-bottom: 0px; font-size: 40px"";>&ensp;</p>","-","viewing","0","5","12A,27B,28B,30B","","","","","","","","","","","","","","","","","",""
"","","","","","html-slider-response","143","734127","0.0-21.0-1.10","bdd1be3f-9c7d-4cdd-9dfc-a2efeeb49c85","1263","
                  <p style=""text-align: center;"">₪11
                                                <br>25%</p>
                  <p id=""wtp"" style=""text-align:center; margin-top: 0px; margin-bottom: 0px; font-size: 40px"";>מוכנים לשלם: <span id=""c_p_y""></span></p>","2","evaluation","11","5","12A,27B,28B,30B","25","11","3","","","","","","","","","","","","","","",""
"","","","","","html-keyboard-response","144","735333","0.0-21.0-2.10","bdd1be3f-9c7d-4cdd-9dfc-a2efeeb49c85","null","<p style=""text-align: center;"">+</p>","null","fixation","","","","","","","","","","","","","","","","","","","","",""
"","","","","","html-slider-response","145","736349","0.0-21.0-0.11","bdd1be3f-9c7d-4cdd-9dfc-a2efeeb49c85","1000","
                  <p style=""text-align: center;"">₪39
                                                <br>60%</p>
                  <p id=""wtp"" style=""text-align:center; margin-top: 0px; margin-bottom: 0px; font-size: 40px"";>&ensp;</p>","-","viewing","0","15","9C,25B","","","","","","","","","","","","","","","","","",""
"","","","","","html-slider-response","146","738591","0.0-21.0-1.11","bdd1be3f-9c7d-4cdd-9dfc-a2efeeb49c85","2241","
                  <p style=""text-align: center;"">₪39
                                                <br>60%</p>
                  <p id=""wtp"" style=""text-align:center; margin-top: 0px; margin-bottom: 0px; font-size: 40px"";>מוכנים לשלם: <span id=""c_p_y""></span></p>","11","evaluation","64","15","9C,25B","60","39","12","","","","","","","","","","","","","","",""
"","","","","","html-keyboard-response","147","739685","0.0-21.0-2.11","bdd1be3f-9c7d-4cdd-9dfc-a2efeeb49c85","null","<p style=""text-align: center;"">+</p>","null","fixation","","","","","","","","","","","","","","","","","","","","",""
"","","","","","html-slider-response","148","740692","0.0-21.0-0.12","bdd1be3f-9c7d-4cdd-9dfc-a2efeeb49c85","1000","
                  <p style=""text-align: center;"">₪61
                                                <br>55%</p>
                  <p id=""wtp"" style=""text-align:center; margin-top: 0px; margin-bottom: 0px; font-size: 40px"";>&ensp;</p>","-","viewing","0","23","7B,26B","","","","","","","","","","","","","","","","","",""
"","","","","","html-slider-response","149","742343","0.0-21.0-1.12","bdd1be3f-9c7d-4cdd-9dfc-a2efeeb49c85","1650","
                  <p style=""text-align: center;"">₪61
                                                <br>55%</p>
                  <p id=""wtp"" style=""text-align:center; margin-top: 0px; margin-bottom: 0px; font-size: 40px"";>מוכנים לשלם: <span id=""c_p_y""></span></p>","32","evaluation","78","23","7B,26B","55","61","32","","","","","","","","","","","","","","",""
"","","","","","html-keyboard-response","150","743422","0.0-21.0-2.12","bdd1be3f-9c7d-4cdd-9dfc-a2efeeb49c85","null","<p style=""text-align: center;"">+</p>","null","fixation","","","","","","","","","","","","","","","","","","","","",""
"","","","","","html-slider-response","151","744430","0.0-21.0-0.13","bdd1be3f-9c7d-4cdd-9dfc-a2efeeb49c85","1000","
                  <p style=""text-align: center;"">₪61
                                                <br>45%</p>
                  <p id=""wtp"" style=""text-align:center; margin-top: 0px; margin-bottom: 0px; font-size: 40px"";>&ensp;</p>","-","viewing","0","22","10A,11A","","","","","","","","","","","","","","","","","",""
"","","","","","html-slider-response","152","747511","0.0-21.0-1.13","bdd1be3f-9c7d-4cdd-9dfc-a2efeeb49c85","3079","
                  <p style=""text-align: center;"">₪61
                                                <br>45%</p>
                  <p id=""wtp"" style=""text-align:center; margin-top: 0px; margin-bottom: 0px; font-size: 40px"";>מוכנים לשלם: <span id=""c_p_y""></span></p>","40","evaluation","46","22","10A,11A","45","61","40","","","","","","","","","","","","","","",""
"","","","","","html-keyboard-response","153","748798","0.0-21.0-2.13","bdd1be3f-9c7d-4cdd-9dfc-a2efeeb49c85","null","<p style=""text-align: center;"">+</p>","null","fixation","","","","","","","","","","","","","","","","","","","","",""
"","","","","","html-slider-response","154","749815","0.0-21.0-0.14","bdd1be3f-9c7d-4cdd-9dfc-a2efeeb49c85","1000","
                  <p style=""text-align: center;"">₪18
                                                <br>50%</p>
                  <p id=""wtp"" style=""text-align:center; margin-top: 0px; margin-bottom: 0px; font-size: 40px"";>&ensp;</p>","-","viewing","0","10","2C,16C,22B,28A","","","","","","","","","","","","","","","","","",""
"","","","","","html-slider-response","155","752175","0.0-21.0-1.14","bdd1be3f-9c7d-4cdd-9dfc-a2efeeb49c85","2359","
                  <p style=""text-align: center;"">₪18
                                                <br>50%</p>
                  <p id=""wtp"" style=""text-align:center; margin-top: 0px; margin-bottom: 0px; font-size: 40px"";>מוכנים לשלם: <span id=""c_p_y""></span></p>","9","evaluation","1","10","2C,16C,22B,28A","50","18","9","","","","","","","","","","","","","","",""
"","","","","","html-keyboard-response","156","753066","0.0-21.0-2.14","bdd1be3f-9c7d-4cdd-9dfc-a2efeeb49c85","null","<p style=""text-align: center;"">+</p>","null","fixation","","","","","","","","","","","","","","","","","","","","",""
"","","","","","html-slider-response","157","754072","0.0-21.0-0.15","bdd1be3f-9c7d-4cdd-9dfc-a2efeeb49c85","1000","
                  <p style=""text-align: center;"">₪18
                                                <br>25%</p>
                  <p id=""wtp"" style=""text-align:center; margin-top: 0px; margin-bottom: 0px; font-size: 40px"";>&ensp;</p>","-","viewing","0","9","14A,23A","","","","","","","","","","","","","","","","","",""
"","","","","","html-slider-response","158","755671","0.0-21.0-1.15","bdd1be3f-9c7d-4cdd-9dfc-a2efeeb49c85","1598","
                  <p style=""text-align: center;"">₪18
                                                <br>25%</p>
                  <p id=""wtp"" style=""text-align:center; margin-top: 0px; margin-bottom: 0px; font-size: 40px"";>מוכנים לשלם: <span id=""c_p_y""></span></p>","15","evaluation","33","9","14A,23A","25","18","15","","","","","","","","","","","","","","",""
"","","","","","html-keyboard-response","159","756877","0.0-21.0-2.15","bdd1be3f-9c7d-4cdd-9dfc-a2efeeb49c85","null","<p style=""text-align: center;"">+</p>","null","fixation","","","","","","","","","","","","","","","","","","","","",""
"","","","","","html-slider-response","160","757891","0.0-21.0-0.16","bdd1be3f-9c7d-4cdd-9dfc-a2efeeb49c85","1000","
                  <p style=""text-align: center;"">₪43
                                                <br>60%</p>
                  <p id=""wtp"" style=""text-align:center; margin-top: 0px; margin-bottom: 0px; font-size: 40px"";>&ensp;</p>","-","viewing","0","17","2A,7A,9A,15B","","","","","","","","","","","","","","","","","",""
"","","","","","html-slider-response","161","759447","0.0-21.0-1.16","bdd1be3f-9c7d-4cdd-9dfc-a2efeeb49c85","1555","
                  <p style=""text-align: center;"">₪43
                                                <br>60%</p>
                  <p id=""wtp"" style=""text-align:center; margin-top: 0px; margin-bottom: 0px; font-size: 40px"";>מוכנים לשלם: <span id=""c_p_y""></span></p>","29","evaluation","76","17","2A,7A,9A,15B","60","43","29","","","","","","","","","","","","","","",""
"","","","","","html-keyboard-response","162","760538","0.0-21.0-2.16","bdd1be3f-9c7d-4cdd-9dfc-a2efeeb49c85","null","<p style=""text-align: center;"">+</p>","null","fixation","","","","","","","","","","","","","","","","","","","","",""
"","","","","","html-slider-response","163","761545","0.0-21.0-0.17","bdd1be3f-9c7d-4cdd-9dfc-a2efeeb49c85","1000","
                  <p style=""text-align: center;"">₪43
                                                <br>75%</p>
                  <p id=""wtp"" style=""text-align:center; margin-top: 0px; margin-bottom: 0px; font-size: 40px"";>&ensp;</p>","-","viewing","0","18","11B,19B,24A,26A","","","","","","","","","","","","","","","","","",""
"","","","","","html-slider-response","164","763831","0.0-21.0-1.17","bdd1be3f-9c7d-4cdd-9dfc-a2efeeb49c85","2285","
                  <p style=""text-align: center;"">₪43
                                                <br>75%</p>
                  <p id=""wtp"" style=""text-align:center; margin-top: 0px; margin-bottom: 0px; font-size: 40px"";>מוכנים לשלם: <span id=""c_p_y""></span></p>","37","evaluation","29","18","11B,19B,24A,26A","75","43","37","","","","","","","","","","","","","","",""
"","","","","","html-keyboard-response","165","764926","0.0-21.0-2.17","bdd1be3f-9c7d-4cdd-9dfc-a2efeeb49c85","null","<p style=""text-align: center;"">+</p>","null","fixation","","","","","","","","","","","","","","","","","","","","",""
"","","","","","html-slider-response","166","765933","0.0-21.0-0.18","bdd1be3f-9c7d-4cdd-9dfc-a2efeeb49c85","1000","
                  <p style=""text-align: center;"">₪79
                                                <br>65%</p>
                  <p id=""wtp"" style=""text-align:center; margin-top: 0px; margin-bottom: 0px; font-size: 40px"";>&ensp;</p>","-","viewing","0","31","8A","","","","","","","","","","","","","","","","","",""
"","","","","","html-slider-response","167","768279","0.0-21.0-1.18","bdd1be3f-9c7d-4cdd-9dfc-a2efeeb49c85","2346","
                  <p style=""text-align: center;"">₪79
                                                <br>65%</p>
                  <p id=""wtp"" style=""text-align:center; margin-top: 0px; margin-bottom: 0px; font-size: 40px"";>מוכנים לשלם: <span id=""c_p_y""></span></p>","44","evaluation","74","31","8A","65","79","44","","","","","","","","","","","","","","",""
"","","","","","html-keyboard-response","168","769051","0.0-21.0-2.18","bdd1be3f-9c7d-4cdd-9dfc-a2efeeb49c85","null","<p style=""text-align: center;"">+</p>","null","fixation","","","","","","","","","","","","","","","","","","","","",""
"","","","","","html-slider-response","169","770054","0.0-21.0-0.19","bdd1be3f-9c7d-4cdd-9dfc-a2efeeb49c85","1000","
                  <p style=""text-align: center;"">₪71
                                                <br>45%</p>
                  <p id=""wtp"" style=""text-align:center; margin-top: 0px; margin-bottom: 0px; font-size: 40px"";>&ensp;</p>","-","viewing","0","26","2B,16A","","","","","","","","","","","","","","","","","",""
"","","","","","html-slider-response","170","773359","0.0-21.0-1.19","bdd1be3f-9c7d-4cdd-9dfc-a2efeeb49c85","3304","
                  <p style=""text-align: center;"">₪71
                                                <br>45%</p>
                  <p id=""wtp"" style=""text-align:center; margin-top: 0px; margin-bottom: 0px; font-size: 40px"";>מוכנים לשלם: <span id=""c_p_y""></span></p>","30","evaluation","46","26","2B,16A","45","71","30","","","","","","","","","","","","","","",""
"","","","","","html-keyboard-response","171","774311","0.0-21.0-2.19","bdd1be3f-9c7d-4cdd-9dfc-a2efeeb49c85","null","<p style=""text-align: center;"">+</p>","null","fixation","","","","","","","","","","","","","","","","","","","","",""
"","","","","","html-slider-response","172","775325","0.0-21.0-0.20","bdd1be3f-9c7d-4cdd-9dfc-a2efeeb49c85","1000","
                  <p style=""text-align: center;"">₪36
                                                <br>30%</p>
                  <p id=""wtp"" style=""text-align:center; margin-top: 0px; margin-bottom: 0px; font-size: 40px"";>&ensp;</p>","-","viewing","0","11","3C,20A,22A","","","","","","","","","","","","","","","","","",""
"","","","","","html-slider-response","173","778967","0.0-21.0-1.20","bdd1be3f-9c7d-4cdd-9dfc-a2efeeb49c85","3641","
                  <p style=""text-align: center;"">₪36
                                                <br>30%</p>
                  <p id=""wtp"" style=""text-align:center; margin-top: 0px; margin-bottom: 0px; font-size: 40px"";>מוכנים לשלם: <span id=""c_p_y""></span></p>","16","evaluation","32","11","3C,20A,22A","30","36","16","","","","","","","","","","","","","","",""
"","","","","","html-keyboard-response","174","780478","0.0-21.0-2.20","bdd1be3f-9c7d-4cdd-9dfc-a2efeeb49c85","null","<p style=""text-align: center;"">+</p>","null","fixation","","","","","","","","","","","","","","","","","","","","",""
"","","","","","html-slider-response","175","781482","0.0-21.0-0.21","bdd1be3f-9c7d-4cdd-9dfc-a2efeeb49c85","1000","
                  <p style=""text-align: center;"">₪64
                                                <br>25%</p>
                  <p id=""wtp"" style=""text-align:center; margin-top: 0px; margin-bottom: 0px; font-size: 40px"";>&ensp;</p>","-","viewing","0","24","6A,21A","","","","","","","","","","","","","","","","","",""
"","","","","","html-slider-response","176","784414","0.0-21.0-1.21","bdd1be3f-9c7d-4cdd-9dfc-a2efeeb49c85","2931","
                  <p style=""text-align: center;"">₪64
                                                <br>25%</p>
                  <p id=""wtp"" style=""text-align:center; margin-top: 0px; margin-bottom: 0px; font-size: 40px"";>מוכנים לשלם: <span id=""c_p_y""></span></p>","12","evaluation","1","24","6A,21A","25","64","12","","","","","","","","","","","","","","",""
"","","","","","html-keyboard-response","177","785028","0.0-21.0-2.21","bdd1be3f-9c7d-4cdd-9dfc-a2efeeb49c85","null","<p style=""text-align: center;"">+</p>","null","fixation","","","","","","","","","","","","","","","","","","","","",""
"","","","","","html-slider-response","178","786036","0.0-21.0-0.22","bdd1be3f-9c7d-4cdd-9dfc-a2efeeb49c85","1000","
                  <p style=""text-align: center;"">₪64
                                                <br>50%</p>
                  <p id=""wtp"" style=""text-align:center; margin-top: 0px; margin-bottom: 0px; font-size: 40px"";>&ensp;</p>","-","viewing","0","25","1B,3B,4A","","","","","","","","","","","","","","","","","",""
"","","","","","html-slider-response","179","788134","0.0-21.0-1.22","bdd1be3f-9c7d-4cdd-9dfc-a2efeeb49c85","2097","
                  <p style=""text-align: center;"">₪64
                                                <br>50%</p>
                  <p id=""wtp"" style=""text-align:center; margin-top: 0px; margin-bottom: 0px; font-size: 40px"";>מוכנים לשלם: <span id=""c_p_y""></span></p>","35","evaluation","25","25","1B,3B,4A","50","64","35","","","","","","","","","","","","","","",""
"","","","","","html-keyboard-response","180","789046","0.0-21.0-2.22","bdd1be3f-9c7d-4cdd-9dfc-a2efeeb49c85","null","<p style=""text-align: center;"">+</p>","null","fixation","","","","","","","","","","","","","","","","","","","","",""
"","","","","","html-slider-response","181","790054","0.0-21.0-0.23","bdd1be3f-9c7d-4cdd-9dfc-a2efeeb49c85","1000","
                  <p style=""text-align: center;"">₪79
                                                <br>40%</p>
                  <p id=""wtp"" style=""text-align:center; margin-top: 0px; margin-bottom: 0px; font-size: 40px"";>&ensp;</p>","-","viewing","0","30","9B","","","","","","","","","","","","","","","","","",""
"","","","","","html-slider-response","182","792710","0.0-21.0-1.23","bdd1be3f-9c7d-4cdd-9dfc-a2efeeb49c85","2655","
                  <p style=""text-align: center;"">₪79
                                                <br>40%</p>
                  <p id=""wtp"" style=""text-align:center; margin-top: 0px; margin-bottom: 0px; font-size: 40px"";>מוכנים לשלם: <span id=""c_p_y""></span></p>","40","evaluation","61","30","9B","40","79","40","","","","","","","","","","","","","","",""
"","","","","","html-keyboard-response","183","793663","0.0-21.0-2.23","bdd1be3f-9c7d-4cdd-9dfc-a2efeeb49c85","null","<p style=""text-align: center;"">+</p>","null","fixation","","","","","","","","","","","","","","","","","","","","",""
"","","","","","html-slider-response","184","794677","0.0-21.0-0.24","bdd1be3f-9c7d-4cdd-9dfc-a2efeeb49c85","1000","
                  <p style=""text-align: center;"">₪16
                                                <br>20%</p>
                  <p id=""wtp"" style=""text-align:center; margin-top: 0px; margin-bottom: 0px; font-size: 40px"";>&ensp;</p>","-","viewing","0","8","14C,17A,20C,27A","","","","","","","","","","","","","","","","","",""
"","","","","","html-slider-response","185","796630","0.0-21.0-1.24","bdd1be3f-9c7d-4cdd-9dfc-a2efeeb49c85","1952","
                  <p style=""text-align: center;"">₪16
                                                <br>20%</p>
                  <p id=""wtp"" style=""text-align:center; margin-top: 0px; margin-bottom: 0px; font-size: 40px"";>מוכנים לשלם: <span id=""c_p_y""></span></p>","6","evaluation","56","8","14C,17A,20C,27A","20","16","6","","","","","","","","","","","","","","",""
"","","","","","html-keyboard-response","186","797536","0.0-21.0-2.24","bdd1be3f-9c7d-4cdd-9dfc-a2efeeb49c85","null","<p style=""text-align: center;"">+</p>","null","fixation","","","","","","","","","","","","","","","","","","","","",""
"","","","","","html-slider-response","187","798547","0.0-21.0-0.25","bdd1be3f-9c7d-4cdd-9dfc-a2efeeb49c85","1000","
                  <p style=""text-align: center;"">₪11
                                                <br>45%</p>
                  <p id=""wtp"" style=""text-align:center; margin-top: 0px; margin-bottom: 0px; font-size: 40px"";>&ensp;</p>","-","viewing","0","6","14B,21C,25C","","","","","","","","","","","","","","","","","",""
"","","","","","html-slider-response","188","799422","0.0-21.0-1.25","bdd1be3f-9c7d-4cdd-9dfc-a2efeeb49c85","873","
                  <p style=""text-align: center;"">₪11
                                                <br>45%</p>
                  <p id=""wtp"" style=""text-align:center; margin-top: 0px; margin-bottom: 0px; font-size: 40px"";>מוכנים לשלם: <span id=""c_p_y""></span></p>","1","evaluation","39","6","14B,21C,25C","45","11","1","","","","","","","","","","","","","","",""
"","","","","","html-keyboard-response","189","800120","0.0-21.0-2.25","bdd1be3f-9c7d-4cdd-9dfc-a2efeeb49c85","null","<p style=""text-align: center;"">+</p>","null","fixation","","","","","","","","","","","","","","","","","","","","",""
"","","","","","html-slider-response","190","801121","0.0-21.0-0.26","bdd1be3f-9c7d-4cdd-9dfc-a2efeeb49c85","1000","
                  <p style=""text-align: center;"">₪39
                                                <br>65%</p>
                  <p id=""wtp"" style=""text-align:center; margin-top: 0px; margin-bottom: 0px; font-size: 40px"";>&ensp;</p>","-","viewing","0","16","1A,15A,26C","","","","","","","","","","","","","","","","","",""
"","","","","","html-slider-response","191","803662","0.0-21.0-1.26","bdd1be3f-9c7d-4cdd-9dfc-a2efeeb49c85","2540","
                  <p style=""text-align: center;"">₪39
                                                <br>65%</p>
                  <p id=""wtp"" style=""text-align:center; margin-top: 0px; margin-bottom: 0px; font-size: 40px"";>מוכנים לשלם: <span id=""c_p_y""></span></p>","27","evaluation","76","16","1A,15A,26C","65","39","27","","","","","","","","","","","","","","",""
"","","","","","html-keyboard-response","192","804326","0.0-21.0-2.26","bdd1be3f-9c7d-4cdd-9dfc-a2efeeb49c85","null","<p style=""text-align: center;"">+</p>","null","fixation","","","","","","","","","","","","","","","","","","","","",""
"","","","","","html-slider-response","193","805329","0.0-21.0-0.27","bdd1be3f-9c7d-4cdd-9dfc-a2efeeb49c85","1000","
                  <p style=""text-align: center;"">₪58
                                                <br>40%</p>
                  <p id=""wtp"" style=""text-align:center; margin-top: 0px; margin-bottom: 0px; font-size: 40px"";>&ensp;</p>","-","viewing","0","20","10C,13A,19C,21B","","","","","","","","","","","","","","","","","",""
"","","","","","html-slider-response","194","808902","0.0-21.0-1.27","bdd1be3f-9c7d-4cdd-9dfc-a2efeeb49c85","3572","
                  <p style=""text-align: center;"">₪58
                                                <br>40%</p>
                  <p id=""wtp"" style=""text-align:center; margin-top: 0px; margin-bottom: 0px; font-size: 40px"";>מוכנים לשלם: <span id=""c_p_y""></span></p>","35","evaluation","17","20","10C,13A,19C,21B","40","58","35","","","","","","","","","","","","","","",""
"","","","","","html-keyboard-response","195","809705","0.0-21.0-2.27","bdd1be3f-9c7d-4cdd-9dfc-a2efeeb49c85","null","<p style=""text-align: center;"">+</p>","null","fixation","","","","","","","","","","","","","","","","","","","","",""
"","","","","","html-slider-response","196","810710","0.0-21.0-0.28","bdd1be3f-9c7d-4cdd-9dfc-a2efeeb49c85","1000","
                  <p style=""text-align: center;"">₪4
                                                <br>25%</p>
                  <p id=""wtp"" style=""text-align:center; margin-top: 0px; margin-bottom: 0px; font-size: 40px"";>&ensp;</p>","-","viewing","0","1","6C,29B,30C","","","","","","","","","","","","","","","","","",""
"","","","","","html-slider-response","197","812078","0.0-21.0-1.28","bdd1be3f-9c7d-4cdd-9dfc-a2efeeb49c85","1367","
                  <p style=""text-align: center;"">₪4
                                                <br>25%</p>
                  <p id=""wtp"" style=""text-align:center; margin-top: 0px; margin-bottom: 0px; font-size: 40px"";>מוכנים לשלם: <span id=""c_p_y""></span></p>","4","evaluation","23","1","6C,29B,30C","25","4","4","","","","","","","","","","","","","","",""
"","","","","","html-keyboard-response","198","813048","0.0-21.0-2.28","bdd1be3f-9c7d-4cdd-9dfc-a2efeeb49c85","null","<p style=""text-align: center;"">+</p>","null","fixation","","","","","","","","","","","","","","","","","","","","",""
"","","","","","html-slider-response","199","814063","0.0-21.0-0.29","bdd1be3f-9c7d-4cdd-9dfc-a2efeeb49c85","1000","
                  <p style=""text-align: center;"">₪58
                                                <br>30%</p>
                  <p id=""wtp"" style=""text-align:center; margin-top: 0px; margin-bottom: 0px; font-size: 40px"";>&ensp;</p>","-","viewing","0","19","13C,30A","","","","","","","","","","","","","","","","","",""
"","","","","","html-slider-response","200","817318","0.0-21.0-1.29","bdd1be3f-9c7d-4cdd-9dfc-a2efeeb49c85","3255","
                  <p style=""text-align: center;"">₪58
                                                <br>30%</p>
                  <p id=""wtp"" style=""text-align:center; margin-top: 0px; margin-bottom: 0px; font-size: 40px"";>מוכנים לשלם: <span id=""c_p_y""></span></p>","19","evaluation","35","19","13C,30A","30","58","19","","","","","","","","","","","","","","",""
"","","","","","html-keyboard-response","201","818208","0.0-21.0-2.29","bdd1be3f-9c7d-4cdd-9dfc-a2efeeb49c85","null","<p style=""text-align: center;"">+</p>","null","fixation","","","","","","","","","","","","","","","","","","","","",""
"","","","","","html-slider-response","202","819218","0.0-21.0-0.30","bdd1be3f-9c7d-4cdd-9dfc-a2efeeb49c85","1000","
                  <p style=""text-align: center;"">₪36
                                                <br>70%</p>
                  <p id=""wtp"" style=""text-align:center; margin-top: 0px; margin-bottom: 0px; font-size: 40px"";>&ensp;</p>","-","viewing","0","13","3A,5C,10B","","","","","","","","","","","","","","","","","",""
"","","","","","html-slider-response","203","821142","0.0-21.0-1.30","bdd1be3f-9c7d-4cdd-9dfc-a2efeeb49c85","1923","
                  <p style=""text-align: center;"">₪36
                                                <br>70%</p>
                  <p id=""wtp"" style=""text-align:center; margin-top: 0px; margin-bottom: 0px; font-size: 40px"";>מוכנים לשלם: <span id=""c_p_y""></span></p>","21","evaluation","74","13","3A,5C,10B","70","36","21","","","","","","","","","","","","","","",""
"","","","","","html-keyboard-response","204","822576","0.0-21.0-2.30","bdd1be3f-9c7d-4cdd-9dfc-a2efeeb49c85","null","<p style=""text-align: center;"">+</p>","null","fixation","","","","","","","","","","","","","","","","","","","","",""
"","","","","","html-keyboard-response","205","823588","0.0-22.0","bdd1be3f-9c7d-4cdd-9dfc-a2efeeb49c85","null","<p style=""text-align: center;"">+</p>","null","fixation","","","","","","","","","","","","","","","","","","","","",""
"","","","","","html-keyboard-response","206","824302","0.0-23.0","bdd1be3f-9c7d-4cdd-9dfc-a2efeeb49c85","null","<p>הפסקה.
          <br>לחצו כדי להמשיך.</p>","1","scan_wait","","","","","","","","","","","","","","","","","","","","",""
"","","","","","html-keyboard-response","207","825306","0.0-24.0","bdd1be3f-9c7d-4cdd-9dfc-a2efeeb49c85","null","<p style=""text-align: center;"">+</p>","null","fixation","","","","","","","","","","","","","","","","","","","","",""
"","","","","","html-slider-response","208","826309","0.0-25.0-0.0","bdd1be3f-9c7d-4cdd-9dfc-a2efeeb49c85","1000","
                  <p style=""text-align: center;"">₪43
                                                <br>60%</p>
                  <p id=""wtp"" style=""text-align:center; margin-top: 0px; margin-bottom: 0px; font-size: 40px"";>&ensp;</p>","-","viewing","0","17","2A,7A,9A,15B","","","","","","","","","","","","","","","","","",""
"","","","","","html-slider-response","209","828302","0.0-25.0-1.0","bdd1be3f-9c7d-4cdd-9dfc-a2efeeb49c85","1992","
                  <p style=""text-align: center;"">₪43
                                                <br>60%</p>
                  <p id=""wtp"" style=""text-align:center; margin-top: 0px; margin-bottom: 0px; font-size: 40px"";>מוכנים לשלם: <span id=""c_p_y""></span></p>","23","evaluation","0","17","2A,7A,9A,15B","60","43","23","","","","","","","","","","","","","","",""
"","","","","","html-keyboard-response","210","829390","0.0-25.0-2.0","bdd1be3f-9c7d-4cdd-9dfc-a2efeeb49c85","null","<p style=""text-align: center;"">+</p>","null","fixation","","","","","","","","","","","","","","","","","","","","",""
"","","","","","html-slider-response","211","830397","0.0-25.0-0.1","bdd1be3f-9c7d-4cdd-9dfc-a2efeeb49c85","1000","
                  <p style=""text-align: center;"">₪4
                                                <br>75%</p>
                  <p id=""wtp"" style=""text-align:center; margin-top: 0px; margin-bottom: 0px; font-size: 40px"";>&ensp;</p>","-","viewing","0","3","12B,20B,23B,27C,29C","","","","","","","","","","","","","","","","","",""
"","","","","","html-slider-response","212","832446","0.0-25.0-1.1","bdd1be3f-9c7d-4cdd-9dfc-a2efeeb49c85","2048","
                  <p style=""text-align: center;"">₪4
                                                <br>75%</p>
                  <p id=""wtp"" style=""text-align:center; margin-top: 0px; margin-bottom: 0px; font-size: 40px"";>מוכנים לשלם: <span id=""c_p_y""></span></p>","4","evaluation","41","3","12B,20B,23B,27C,29C","75","4","4","","","","","","","","","","","","","","",""
"","","","","","html-keyboard-response","213","833559","0.0-25.0-2.1","bdd1be3f-9c7d-4cdd-9dfc-a2efeeb49c85","null","<p style=""text-align: center;"">+</p>","null","fixation","","","","","","","","","","","","","","","","","","","","",""
"","","","","","html-slider-response","214","834568","0.0-25.0-0.2","bdd1be3f-9c7d-4cdd-9dfc-a2efeeb49c85","1000","
                  <p style=""text-align: center;"">₪11
                                                <br>45%</p>
                  <p id=""wtp"" style=""text-align:center; margin-top: 0px; margin-bottom: 0px; font-size: 40px"";>&ensp;</p>","-","viewing","0","6","14B,21C,25C","","","","","","","","","","","","","","","","","",""
"","","","","","html-slider-response","215","837366","0.0-25.0-1.2","bdd1be3f-9c7d-4cdd-9dfc-a2efeeb49c85","2797","
                  <p style=""text-align: center;"">₪11
                                                <br>45%</p>
                  <p id=""wtp"" style=""text-align:center; margin-top: 0px; margin-bottom: 0px; font-size: 40px"";>מוכנים לשלם: <span id=""c_p_y""></span></p>","4","evaluation","65","6","14B,21C,25C","45","11","4","","","","","","","","","","","","","","",""
"","","","","","html-keyboard-response","216","838762","0.0-25.0-2.2","bdd1be3f-9c7d-4cdd-9dfc-a2efeeb49c85","null","<p style=""text-align: center;"">+</p>","null","fixation","","","","","","","","","","","","","","","","","","","","",""
"","","","","","html-slider-response","217","839771","0.0-25.0-0.3","bdd1be3f-9c7d-4cdd-9dfc-a2efeeb49c85","1000","
                  <p style=""text-align: center;"">₪36
                                                <br>60%</p>
                  <p id=""wtp"" style=""text-align:center; margin-top: 0px; margin-bottom: 0px; font-size: 40px"";>&ensp;</p>","-","viewing","0","12","1C,7C,15C","","","","","","","","","","","","","","","","","",""
"","","","","","html-slider-response","218","841605","0.0-25.0-1.3","bdd1be3f-9c7d-4cdd-9dfc-a2efeeb49c85","1834","
                  <p style=""text-align: center;"">₪36
                                                <br>60%</p>
                  <p id=""wtp"" style=""text-align:center; margin-top: 0px; margin-bottom: 0px; font-size: 40px"";>מוכנים לשלם: <span id=""c_p_y""></span></p>","21","evaluation","55","12","1C,7C,15C","60","36","21","","","","","","","","","","","","","","",""
"","","","","","html-keyboard-response","219","842967","0.0-25.0-2.3","bdd1be3f-9c7d-4cdd-9dfc-a2efeeb49c85","null","<p style=""text-align: center;"">+</p>","null","fixation","","","","","","","","","","","","","","","","","","","","",""
"","","","","","html-slider-response","220","843976","0.0-25.0-0.4","bdd1be3f-9c7d-4cdd-9dfc-a2efeeb49c85","1000","
                  <p style=""text-align: center;"">₪71
                                                <br>55%</p>
                  <p id=""wtp"" style=""text-align:center; margin-top: 0px; margin-bottom: 0px; font-size: 40px"";>&ensp;</p>","-","viewing","0","27","5B,18A","","","","","","","","","","","","","","","","","",""
"","","","","","html-slider-response","221","846757","0.0-25.0-1.4","bdd1be3f-9c7d-4cdd-9dfc-a2efeeb49c85","2780","
                  <p style=""text-align: center;"">₪71
                                                <br>55%</p>
                  <p id=""wtp"" style=""text-align:center; margin-top: 0px; margin-bottom: 0px; font-size: 40px"";>מוכנים לשלם: <span id=""c_p_y""></span></p>","37","evaluation","32","27","5B,18A","55","71","37","","","","","","","","","","","","","","",""
"","","","","","html-keyboard-response","222","847401","0.0-25.0-2.4","bdd1be3f-9c7d-4cdd-9dfc-a2efeeb49c85","null","<p style=""text-align: center;"">+</p>","null","fixation","","","","","","","","","","","","","","","","","","","","",""
"","","","","","html-slider-response","223","848413","0.0-25.0-0.5","bdd1be3f-9c7d-4cdd-9dfc-a2efeeb49c85","1000","
                  <p style=""text-align: center;"">₪36
                                                <br>70%</p>
                  <p id=""wtp"" style=""text-align:center; margin-top: 0px; margin-bottom: 0px; font-size: 40px"";>&ensp;</p>","-","viewing","0","13","3A,5C,10B","","","","","","","","","","","","","","","","","",""
"","","","","","html-slider-response","224","849933","0.0-25.0-1.5","bdd1be3f-9c7d-4cdd-9dfc-a2efeeb49c85","1518","
                  <p style=""text-align: center;"">₪36
                                                <br>70%</p>
                  <p id=""wtp"" style=""text-align:center; margin-top: 0px; margin-bottom: 0px; font-size: 40px"";>מוכנים לשלם: <span id=""c_p_y""></span></p>","28","evaluation","45","13","3A,5C,10B","70","36","28","","","","","","","","","","","","","","",""
"","","","","","html-keyboard-response","225","851386","0.0-25.0-2.5","bdd1be3f-9c7d-4cdd-9dfc-a2efeeb49c85","null","<p style=""text-align: center;"">+</p>","null","fixation","","","","","","","","","","","","","","","","","","","","",""
"","","","","","html-slider-response","226","852400","0.0-25.0-0.6","bdd1be3f-9c7d-4cdd-9dfc-a2efeeb49c85","1000","
                  <p style=""text-align: center;"">₪4
                                                <br>25%</p>
                  <p id=""wtp"" style=""text-align:center; margin-top: 0px; margin-bottom: 0px; font-size: 40px"";>&ensp;</p>","-","viewing","0","1","6C,29B,30C","","","","","","","","","","","","","","","","","",""
"","","","","","html-slider-response","227","854661","0.0-25.0-1.6","bdd1be3f-9c7d-4cdd-9dfc-a2efeeb49c85","2260","
                  <p style=""text-align: center;"">₪4
                                                <br>25%</p>
                  <p id=""wtp"" style=""text-align:center; margin-top: 0px; margin-bottom: 0px; font-size: 40px"";>מוכנים לשלם: <span id=""c_p_y""></span></p>","0","evaluation","11","1","6C,29B,30C","25","4","0","","","","","","","","","","","","","","",""
"","","","","","html-keyboard-response","228","855561","0.0-25.0-2.6","bdd1be3f-9c7d-4cdd-9dfc-a2efeeb49c85","null","<p style=""text-align: center;"">+</p>","null","fixation","","","","","","","","","","","","","","","","","","","","",""
"","","","","","html-slider-response","229","856568","0.0-25.0-0.7","bdd1be3f-9c7d-4cdd-9dfc-a2efeeb49c85","1000","
                  <p style=""text-align: center;"">₪76
                                                <br>65%</p>
                  <p id=""wtp"" style=""text-align:center; margin-top: 0px; margin-bottom: 0px; font-size: 40px"";>&ensp;</p>","-","viewing","0","29","8C,19A,24B","","","","","","","","","","","","","","","","","",""
"","","","","","html-slider-response","230","859421","0.0-25.0-1.7","bdd1be3f-9c7d-4cdd-9dfc-a2efeeb49c85","2852","
                  <p style=""text-align: center;"">₪76
                                                <br>65%</p>
                  <p id=""wtp"" style=""text-align:center; margin-top: 0px; margin-bottom: 0px; font-size: 40px"";>מוכנים לשלם: <span id=""c_p_y""></span></p>","42","evaluation","78","29","8C,19A,24B","65","76","42","","","","","","","","","","","","","","",""
"","","","","","html-keyboard-response","231","860671","0.0-25.0-2.7","bdd1be3f-9c7d-4cdd-9dfc-a2efeeb49c85","null","<p style=""text-align: center;"">+</p>","null","fixation","","","","","","","","","","","","","","","","","","","","",""
"","","","","","html-slider-response","232","861680","0.0-25.0-0.8","bdd1be3f-9c7d-4cdd-9dfc-a2efeeb49c85","1000","
                  <p style=""text-align: center;"">₪58
                                                <br>45%</p>
                  <p id=""wtp"" style=""text-align:center; margin-top: 0px; margin-bottom: 0px; font-size: 40px"";>&ensp;</p>","-","viewing","0","21","11C,18C,25A","","","","","","","","","","","","","","","","","",""
"","","","","","html-slider-response","233","863709","0.0-25.0-1.8","bdd1be3f-9c7d-4cdd-9dfc-a2efeeb49c85","2028","
                  <p style=""text-align: center;"">₪58
                                                <br>45%</p>
                  <p id=""wtp"" style=""text-align:center; margin-top: 0px; margin-bottom: 0px; font-size: 40px"";>מוכנים לשלם: <span id=""c_p_y""></span></p>","5","evaluation","8","21","11C,18C,25A","45","58","6","","","","","","","","","","","","","","",""
"","","","","","html-keyboard-response","234","864791","0.0-25.0-2.8","bdd1be3f-9c7d-4cdd-9dfc-a2efeeb49c85","null","<p style=""text-align: center;"">+</p>","null","fixation","","","","","","","","","","","","","","","","","","","","",""
"","","","","","html-slider-response","235","865798","0.0-25.0-0.9","bdd1be3f-9c7d-4cdd-9dfc-a2efeeb49c85","1000","
                  <p style=""text-align: center;"">₪61
                                                <br>45%</p>
                  <p id=""wtp"" style=""text-align:center; margin-top: 0px; margin-bottom: 0px; font-size: 40px"";>&ensp;</p>","-","viewing","0","22","10A,11A","","","","","","","","","","","","","","","","","",""
"","","","","","html-slider-response","236","868485","0.0-25.0-1.9","bdd1be3f-9c7d-4cdd-9dfc-a2efeeb49c85","2686","
                  <p style=""text-align: center;"">₪61
                                                <br>45%</p>
                  <p id=""wtp"" style=""text-align:center; margin-top: 0px; margin-bottom: 0px; font-size: 40px"";>מוכנים לשלם: <span id=""c_p_y""></span></p>","30","evaluation","55","22","10A,11A","45","61","30","","","","","","","","","","","","","","",""
"","","","","","html-keyboard-response","237","869423","0.0-25.0-2.9","bdd1be3f-9c7d-4cdd-9dfc-a2efeeb49c85","null","<p style=""text-align: center;"">+</p>","null","fixation","","","","","","","","","","","","","","","","","","","","",""
"","","","","","html-slider-response","238","870435","0.0-25.0-0.10","bdd1be3f-9c7d-4cdd-9dfc-a2efeeb49c85","1000","
                  <p style=""text-align: center;"">₪43
                                                <br>75%</p>
                  <p id=""wtp"" style=""text-align:center; margin-top: 0px; margin-bottom: 0px; font-size: 40px"";>&ensp;</p>","-","viewing","0","18","11B,19B,24A,26A","","","","","","","","","","","","","","","","","",""
"","","","","","html-slider-response","239","872605","0.0-25.0-1.10","bdd1be3f-9c7d-4cdd-9dfc-a2efeeb49c85","2169","
                  <p style=""text-align: center;"">₪43
                                                <br>75%</p>
                  <p id=""wtp"" style=""text-align:center; margin-top: 0px; margin-bottom: 0px; font-size: 40px"";>מוכנים לשלם: <span id=""c_p_y""></span></p>","32","evaluation","34","18","11B,19B,24A,26A","75","43","32","","","","","","","","","","","","","","",""
"","","","","","html-keyboard-response","240","873919","0.0-25.0-2.10","bdd1be3f-9c7d-4cdd-9dfc-a2efeeb49c85","null","<p style=""text-align: center;"">+</p>","null","fixation","","","","","","","","","","","","","","","","","","","","",""
"","","","","","html-slider-response","241","874923","0.0-25.0-0.11","bdd1be3f-9c7d-4cdd-9dfc-a2efeeb49c85","1000","
                  <p style=""text-align: center;"">₪79
                                                <br>40%</p>
                  <p id=""wtp"" style=""text-align:center; margin-top: 0px; margin-bottom: 0px; font-size: 40px"";>&ensp;</p>","-","viewing","0","30","9B","","","","","","","","","","","","","","","","","",""
"","","","","","html-slider-response","242","877253","0.0-25.0-1.11","bdd1be3f-9c7d-4cdd-9dfc-a2efeeb49c85","2329","
                  <p style=""text-align: center;"">₪79
                                                <br>40%</p>
                  <p id=""wtp"" style=""text-align:center; margin-top: 0px; margin-bottom: 0px; font-size: 40px"";>מוכנים לשלם: <span id=""c_p_y""></span></p>","39","evaluation","5","30","9B","40","79","39","","","","","","","","","","","","","","",""
"","","","","","html-keyboard-response","243","878729","0.0-25.0-2.11","bdd1be3f-9c7d-4cdd-9dfc-a2efeeb49c85","null","<p style=""text-align: center;"">+</p>","null","fixation","","","","","","","","","","","","","","","","","","","","",""
"","","","","","html-slider-response","244","879744","0.0-25.0-0.12","bdd1be3f-9c7d-4cdd-9dfc-a2efeeb49c85","1000","
                  <p style=""text-align: center;"">₪58
                                                <br>40%</p>
                  <p id=""wtp"" style=""text-align:center; margin-top: 0px; margin-bottom: 0px; font-size: 40px"";>&ensp;</p>","-","viewing","0","20","10C,13A,19C,21B","","","","","","","","","","","","","","","","","",""
"","","","","","html-slider-response","245","883453","0.0-25.0-1.12","bdd1be3f-9c7d-4cdd-9dfc-a2efeeb49c85","3708","
                  <p style=""text-align: center;"">₪58
                                                <br>40%</p>
                  <p id=""wtp"" style=""text-align:center; margin-top: 0px; margin-bottom: 0px; font-size: 40px"";>מוכנים לשלם: <span id=""c_p_y""></span></p>","35","evaluation","38","20","10C,13A,19C,21B","40","58","35","","","","","","","","","","","","","","",""
"","","","","","html-keyboard-response","246","884590","0.0-25.0-2.12","bdd1be3f-9c7d-4cdd-9dfc-a2efeeb49c85","null","<p style=""text-align: center;"">+</p>","null","fixation","","","","","","","","","","","","","","","","","","","","",""
"","","","","","html-slider-response","247","885599","0.0-25.0-0.13","bdd1be3f-9c7d-4cdd-9dfc-a2efeeb49c85","1000","
                  <p style=""text-align: center;"">₪18
                                                <br>25%</p>
                  <p id=""wtp"" style=""text-align:center; margin-top: 0px; margin-bottom: 0px; font-size: 40px"";>&ensp;</p>","-","viewing","0","9","14A,23A","","","","","","","","","","","","","","","","","",""
"","","","","","html-slider-response","248","887348","0.0-25.0-1.13","bdd1be3f-9c7d-4cdd-9dfc-a2efeeb49c85","1749","
                  <p style=""text-align: center;"">₪18
                                                <br>25%</p>
                  <p id=""wtp"" style=""text-align:center; margin-top: 0px; margin-bottom: 0px; font-size: 40px"";>מוכנים לשלם: <span id=""c_p_y""></span></p>","5","evaluation","40","9","14A,23A","25","18","5","","","","","","","","","","","","","","",""
"","","","","","html-keyboard-response","249","888386","0.0-25.0-2.13","bdd1be3f-9c7d-4cdd-9dfc-a2efeeb49c85","null","<p style=""text-align: center;"">+</p>","null","fixation","","","","","","","","","","","","","","","","","","","","",""
"","","","","","html-slider-response","250","889403","0.0-25.0-0.14","bdd1be3f-9c7d-4cdd-9dfc-a2efeeb49c85","1000","
                  <p style=""text-align: center;"">₪11
                                                <br>20%</p>
                  <p id=""wtp"" style=""text-align:center; margin-top: 0px; margin-bottom: 0px; font-size: 40px"";>&ensp;</p>","-","viewing","0","4","12C,17C,23C,28C","","","","","","","","","","","","","","","","","",""
"","","","","","html-slider-response","251","890717","0.0-25.0-1.14","bdd1be3f-9c7d-4cdd-9dfc-a2efeeb49c85","1313","
                  <p style=""text-align: center;"">₪11
                                                <br>20%</p>
                  <p id=""wtp"" style=""text-align:center; margin-top: 0px; margin-bottom: 0px; font-size: 40px"";>מוכנים לשלם: <span id=""c_p_y""></span></p>","3","evaluation","60","4","12C,17C,23C,28C","20","11","3","","","","","","","","","","","","","","",""
"","","","","","html-keyboard-response","252","891488","0.0-25.0-2.14","bdd1be3f-9c7d-4cdd-9dfc-a2efeeb49c85","null","<p style=""text-align: center;"">+</p>","null","fixation","","","","","","","","","","","","","","","","","","","","",""
