"success","timeout","failed_images","failed_audio","failed_video","trial_type","trial_index","time_elapsed","internal_node_id","subject_id","rt","stimulus","response","part","slider_start","ID","set_ID","prob","amount","last_location","actual_choice","actual_EV","binary_id","trinary_id","catch","A_key","D_key","choice_prob","choice_amount","chosen_part","potential_prize_prob","potential_prize_amount","won_prize","total_prize","prize_cost","remaining_budget","accuracy"
"true","false","[]","[]","[]","preload","0","158","0.0-0.0","342fb488-01a4-4ac9-9f56-15c74996aacf","","","","","","","","","","","","","","","","","","","","","","","","","","",""
"","","","","","html-keyboard-response","1","1146262","0.0-1.0","342fb488-01a4-4ac9-9f56-15c74996aacf","null","
          <h1>שלום וברוכים הבאים!</h1>
          <p>לפניכם ניסוי בקבלת החלטות עם שני חלקים.
          <br><br>לחצו על העכבר כדי להמשיך.</p>","0","example","","","","","","","","","","","","","","","","","","","","","","",""
"","","","","","html-keyboard-response","2","1179413","0.0-2.0","342fb488-01a4-4ac9-9f56-15c74996aacf","null","
        <h1>חלק 1</h1>
        <p>בקרוב יוצגו בפניכם הגרלות.
        <br>עליכם לבחור את המחיר המירבי שתהיו מוכנים לשלם כדי להשתתף בהגרלה שתוצג.
        <br>יש לכם תקציב של ₪80 לכל הגרלה. 
        <br>נסו להעריך כל הגרלה בנפרד ולחשוב כמה היא שווה עבורכם, ₪80 זמינים לכל הגרלה בנפרד.
        <br><br>לחצו על העכבר כדי להמשיך.</p>","1","instructions","","","","","","","","","","","","","","","","","","","","","","",""
"","","","","","html-keyboard-response","3","1182997","0.0-3.0","342fb488-01a4-4ac9-9f56-15c74996aacf","null","
        <p>בסוף הניסוי, המחשב יבחר את אחת ההגרלות ויקבע מחיר לכרטיס עבורה. 
        <br>במידה והמחיר שבחרתם נמוך מהמחיר שנבחר על ידי המחשב, לא תשתתפו בהגרלה ותשארו עם מלוא התקציב.
        <br>במידה והמחיר שבחרתם גבוה מהמחיר שנבחר על ידי המחשב, תשלמו את המחיר שנקבע ותשתתפו בהגרלה.
        <br><br>לחצו על העכבר כדי להמשיך.</p>","1","instructions","","","","","","","","","","","","","","","","","","","","","","",""
"","","","","","html-slider-response","4","1206135","0.0-4.0","342fb488-01a4-4ac9-9f56-15c74996aacf","23028","
        <p style=""font-size: 42px;"">נתחיל עם דוגמא: 
        <br>ההגרלה מטה מציעה 65% סיכוי לזכות ב-₪40 
        <br>&emsp;&emsp;&emsp;&emsp;&emsp;&emsp;&emsp;&emsp;&ensp;35% סיכוי לזכות ב-₪0.
        <br><br>מה המחיר המירבי שתהיו מוכנים לשלם על כרטיס להגרלה זו בין 0 ל-₪80?
        <br>הזיזו את העכבר על פני המלבן ולחצו כדי לבצע בחירה.</p>
        
        <p style=""text-align: center;"">₪40<br>65%</p>

        <p id=""wtp"" style=""text-align:center; margin-top: 0px; margin-bottom: 0px; font-size: 40px"";>מוכנים לשלם: <span id=""c_p_y""></span></p>","20","example","7","","","","","","","","","","","","","","","","","","","","","",""
"","","","","","html-keyboard-response","5","1212863","0.0-5.0","342fb488-01a4-4ac9-9f56-15c74996aacf","null","<p>יפה מאוד!
                <br> בחרתם שתהיו מוכנים לשלם ₪20 כדי להשתתף בהגרלה:
                <br><p style=""text-align: center;"">₪40<br>65%</p>
                <p>נשמע נכון?
                <br>נניח שהגרלה זו נבחרה בסוף הניסוי.
                <br>כעת המחשב יקבע מחיר עבורה באקראי.
                <br>לחצו על העכבר להמשך.</p>","1","example","","","","","","","","","","","","","","","","","","","","","","",""
"","","","","","html-keyboard-response","6","1218487","0.0-6.0","342fb488-01a4-4ac9-9f56-15c74996aacf","null","<p>המחשב קבע מחיר: ₪51
                <br>ואתם בחרתם לשלם לכל היותר: ₪20
                <br><br>מכיוון שהמחיר שבחרתם נמוך מהמחיר שנקבע, לא תתשתתפו בהגרלה.
                <br>במקרה כזה, בסוף הניסוי תקבלו את כל התקציב ההתחלתי של ₪80.
                <br><br>לחצו על העכבר להמשך.</p>","1","example","","","","","","","","","","","","","","","","","","","","","","",""
"","","","","","html-slider-response","7","1226143","0.0-7.0","342fb488-01a4-4ac9-9f56-15c74996aacf","7403","<p style=""font-size: 42px;"">הנה עוד דוגמא:
                <br>ההגרלה מטה מציעה 35% סיכוי לזכות ב-₪18 
                <br>&emsp;&emsp;&emsp;&emsp;&emsp;&emsp;&emsp;&emsp;&ensp;65% סיכוי לזכות ב-₪0.</p>
        
                <p style=""text-align: center;"">₪18<br>35%</p>
                <p id=""wtp"" style=""text-align:center; margin-top: 0px; margin-bottom: 0px; font-size: 40px"";>מוכנים לשלם: <span id=""c_p_y""></span></p>","6","example","44","","","","","","","","","","","","","","","","","","","","","",""
"","","","","","html-keyboard-response","8","1228199","0.0-8.0","342fb488-01a4-4ac9-9f56-15c74996aacf","null","<p>הייתם מוכנים לשלם  ₪6 כדי להשתתף בהגרלה:
                <p style=""text-align: center;"">₪18<br>35%</p>
                <p>כעת נניח שהמחשב בחר את ההגרלה הזו בסוף הניסוי, וקבע עבורה מחיר.
                <br><br>לחצו על העכבר כדי להמשיך.</p>","1","instructions","","","","","","","","","","","","","","","","","","","","","","",""
"","","","","","html-keyboard-response","9","1238887","0.0-9.0","342fb488-01a4-4ac9-9f56-15c74996aacf","null","<p>המחשב קבע מחיר להגרלה: ₪4<br>ואתם בחרתם לשלם לכל היותר: ₪6
                <br><br>כעת המחיר שנקבע נמוך מזה שבחרתם, אז תשלמו את המחיר שקבע המחשב (₪4) ותשתתפו בהגרלה.
                <br>במקרה כזה, תסיימו את הניסוי עם תקציב של ₪76 ועם סיכוי לזכות ב-₪18 נוספים מההגרלה.
                <br>כלומר, תוכלו לקבל ₪76 אם לא תזכו בהגרלה, או ₪94 אם תזכו בהגרלה.
                <br><br>לחצו על העכבר להמשך.</p>","1","example","","","","","","","","","","","","","","","","","","","","","","",""
"","","","","","html-keyboard-response","10","1255207","0.0-10.0","342fb488-01a4-4ac9-9f56-15c74996aacf","null","<p>במהלך הניסוי, קודם תראו את ההגרלה ורק לאחר מכן תוכלו לבחור.
                <p>כמו כן, יהיו לכם מספר שניות מוגבל להגיב.
                <p>בואו ננסה זאת עם ההגרלה הקודמת.
                <br>לחצו על העכבר כדי להמשיך.</p>","1","instructions","","","","","","","","","","","","","","","","","","","","","","",""
"","","","","","html-slider-response","11","1256472","0.0-11.0","342fb488-01a4-4ac9-9f56-15c74996aacf","1000","
                    <p style=""text-align: center;"">₪18<br>35%</p>
                    <p id=""wtp"" style=""text-align:center; margin-top: 0px; margin-bottom: 0px; font-size: 40px"";>&ensp;</p>","34","instructions","0","","","","","","","","","","","","","","","","","","","","","",""
"","","","","","html-slider-response","12","1260731","0.0-12.0","342fb488-01a4-4ac9-9f56-15c74996aacf","null","
                    <p style=""text-align: center;"">₪18<br>35%</p>
                    <p id=""wtp"" style=""text-align:center; margin-top: 0px; margin-bottom: 0px; font-size: 40px"";>מוכנים לשלם: <span id=""c_p_y""></span></p>","null","instructions","75","","","","","","","","","","","","","","","","","","","","","",""
"","","","","","html-keyboard-response","13","1263319","0.0-13.0","342fb488-01a4-4ac9-9f56-15c74996aacf","null","<p>לא הגבתם בזמן המוקצב לתגובה. 
                <br>נסו להגיב מהר יותר בפעם הבאה.
                <br><br>לחצו על העכבר כדי להמשיך.</p>","1","instructions","","","","","","","","","","","","","","","","","","","","","","",""
"","","","","","html-slider-response","14","1267578","0.0-14.0-0.0","342fb488-01a4-4ac9-9f56-15c74996aacf","null","
                    <p style=""text-align: center;"">₪40<br>65%</p>
                    <p id=""wtp"" style=""text-align:center; margin-top: 0px; margin-bottom: 0px; font-size: 40px"";>מוכנים לשלם: <span id=""c_p_y""></span></p>","null","instructions","65","","","","","","","","","","","","","","","","","","","","","",""
"","","","","","html-keyboard-response","15","1273497","0.0-14.0-1.0","342fb488-01a4-4ac9-9f56-15c74996aacf","null","<p>לא הגבתם בזמן המוקצב לתגובה. 
                <br>נסו להגיב מהר יותר בפעם הבאה.
                <br><br>לחצו על העכבר כדי להמשיך.</p>","1","instructions","","","","","","","","","","","","","","","","","","","","","","",""
"","","","","","html-keyboard-response","16","1282569","0.0-15.0","342fb488-01a4-4ac9-9f56-15c74996aacf","null","<p>כעת נתחיל את הניסוי.
                <br><br>אתם תראו הגרלות ותתבקשו לבחור כמה תהיו מוכנים לשלם כדי להשתתף בהן.
                <br>יש לכם תקציב של ₪80 עבור כל הגרלה.
                <br>בסוף הניסוי הגרלה אחת תבחר באקראי ותשוחק.
                <br><br>לחצו על העכבר כדי להתחיל את הניסוי.</p>","1","instructions","","","","","","","","","","","","","","","","","","","","","","",""
"","","","","","html-keyboard-response","17","1283827","0.0-16.0","342fb488-01a4-4ac9-9f56-15c74996aacf","null","<p style=""text-align: center;"">+</p>","null","fixation","","","","","","","","","","","","","","","","","","","","","","",""
"","","","","","html-slider-response","18","1284839","0.0-17.0-0.0","342fb488-01a4-4ac9-9f56-15c74996aacf","1000","
                  <p style=""text-align: center;"">₪79
                                                <br>65%</p>
                  <p id=""wtp"" style=""text-align:center; margin-top: 0px; margin-bottom: 0px; font-size: 40px"";>&ensp;</p>","-","viewing","0","31","8A","","","","","","","","","","","","","","","","","","","",""
"","","","","","html-slider-response","19","1288113","0.0-17.0-1.0","342fb488-01a4-4ac9-9f56-15c74996aacf","3272","
                  <p style=""text-align: center;"">₪79
                                                <br>65%</p>
                  <p id=""wtp"" style=""text-align:center; margin-top: 0px; margin-bottom: 0px; font-size: 40px"";>מוכנים לשלם: <span id=""c_p_y""></span></p>","20","evaluation","26","31","8A","65","79","20","","","","","","","","","","","","","","","","",""
"","","","","","html-keyboard-response","20","1289382","0.0-17.0-2.0","342fb488-01a4-4ac9-9f56-15c74996aacf","null","<p style=""text-align: center;"">+</p>","null","fixation","","","","","","","","","","","","","","","","","","","","","","",""
"","","","","","html-slider-response","21","1290397","0.0-17.0-0.1","342fb488-01a4-4ac9-9f56-15c74996aacf","1000","
                  <p style=""text-align: center;"">₪18
                                                <br>50%</p>
                  <p id=""wtp"" style=""text-align:center; margin-top: 0px; margin-bottom: 0px; font-size: 40px"";>&ensp;</p>","-","viewing","0","10","2C,16C,22B,28A","","","","","","","","","","","","","","","","","","","",""
"","","","","","html-slider-response","22","1294405","0.0-17.0-1.1","342fb488-01a4-4ac9-9f56-15c74996aacf","null","
                  <p style=""text-align: center;"">₪18
                                                <br>50%</p>
                  <p id=""wtp"" style=""text-align:center; margin-top: 0px; margin-bottom: 0px; font-size: 40px"";>מוכנים לשלם: <span id=""c_p_y""></span></p>","null","evaluation","65","10","2C,16C,22B,28A","50","18","9","","","","","","","","","","","","","","","","",""
"","","","","","html-keyboard-response","23","1295562","0.0-17.0-2.1","342fb488-01a4-4ac9-9f56-15c74996aacf","null","<p style=""text-align: center;"">+</p>","null","fixation","","","","","","","","","","","","","","","","","","","","","","",""
"","","","","","html-slider-response","24","1296563","0.0-17.0-0.2","342fb488-01a4-4ac9-9f56-15c74996aacf","1000","
                  <p style=""text-align: center;"">₪43
                                                <br>75%</p>
                  <p id=""wtp"" style=""text-align:center; margin-top: 0px; margin-bottom: 0px; font-size: 40px"";>&ensp;</p>","-","viewing","0","18","11B,19B,24A,26A","","","","","","","","","","","","","","","","","","","",""
"","","","","","html-slider-response","25","1300570","0.0-17.0-1.2","342fb488-01a4-4ac9-9f56-15c74996aacf","null","
                  <p style=""text-align: center;"">₪43
                                                <br>75%</p>
                  <p id=""wtp"" style=""text-align:center; margin-top: 0px; margin-bottom: 0px; font-size: 40px"";>מוכנים לשלם: <span id=""c_p_y""></span></p>","null","evaluation","40","18","11B,19B,24A,26A","75","43","19","","","","","","","","","","","","","","","","",""
"","","","","","html-keyboard-response","26","1301607","0.0-17.0-2.2","342fb488-01a4-4ac9-9f56-15c74996aacf","null","<p style=""text-align: center;"">+</p>","null","fixation","","","","","","","","","","","","","","","","","","","","","","",""
"","","","","","html-slider-response","27","1302609","0.0-17.0-0.3","342fb488-01a4-4ac9-9f56-15c74996aacf","1000","
                  <p style=""text-align: center;"">₪16
                                                <br>20%</p>
                  <p id=""wtp"" style=""text-align:center; margin-top: 0px; margin-bottom: 0px; font-size: 40px"";>&ensp;</p>","-","viewing","0","8","14C,17A,20C,27A","","","","","","","","","","","","","","","","","","","",""
"","","","","","html-slider-response","28","1306625","0.0-17.0-1.3","342fb488-01a4-4ac9-9f56-15c74996aacf","null","
                  <p style=""text-align: center;"">₪16
                                                <br>20%</p>
                  <p id=""wtp"" style=""text-align:center; margin-top: 0px; margin-bottom: 0px; font-size: 40px"";>מוכנים לשלם: <span id=""c_p_y""></span></p>","null","evaluation","80","8","14C,17A,20C,27A","20","16","2","","","","","","","","","","","","","","","","",""
"","","","","","html-keyboard-response","29","1307212","0.0-17.0-2.3","342fb488-01a4-4ac9-9f56-15c74996aacf","null","<p style=""text-align: center;"">+</p>","null","fixation","","","","","","","","","","","","","","","","","","","","","","",""
"","","","","","html-slider-response","30","1308217","0.0-17.0-0.4","342fb488-01a4-4ac9-9f56-15c74996aacf","1000","
                  <p style=""text-align: center;"">₪61
                                                <br>45%</p>
                  <p id=""wtp"" style=""text-align:center; margin-top: 0px; margin-bottom: 0px; font-size: 40px"";>&ensp;</p>","-","viewing","0","22","10A,11A","","","","","","","","","","","","","","","","","","","",""
"","","","","","html-slider-response","31","1312225","0.0-17.0-1.4","342fb488-01a4-4ac9-9f56-15c74996aacf","null","
                  <p style=""text-align: center;"">₪61
                                                <br>45%</p>
                  <p id=""wtp"" style=""text-align:center; margin-top: 0px; margin-bottom: 0px; font-size: 40px"";>מוכנים לשלם: <span id=""c_p_y""></span></p>","null","evaluation","61","22","10A,11A","45","61","17","","","","","","","","","","","","","","","","",""
"","","","","","html-keyboard-response","32","1313405","0.0-17.0-2.4","342fb488-01a4-4ac9-9f56-15c74996aacf","null","<p style=""text-align: center;"">+</p>","null","fixation","","","","","","","","","","","","","","","","","","","","","","",""
"","","","","","html-slider-response","33","1314407","0.0-17.0-0.5","342fb488-01a4-4ac9-9f56-15c74996aacf","1000","
                  <p style=""text-align: center;"">₪36
                                                <br>75%</p>
                  <p id=""wtp"" style=""text-align:center; margin-top: 0px; margin-bottom: 0px; font-size: 40px"";>&ensp;</p>","-","viewing","0","14","4B,5A,13B,16B","","","","","","","","","","","","","","","","","","","",""
"","","","","","html-slider-response","34","1317369","0.0-17.0-1.5","342fb488-01a4-4ac9-9f56-15c74996aacf","2960","
                  <p style=""text-align: center;"">₪36
                                                <br>75%</p>
                  <p id=""wtp"" style=""text-align:center; margin-top: 0px; margin-bottom: 0px; font-size: 40px"";>מוכנים לשלם: <span id=""c_p_y""></span></p>","21","evaluation","22","14","4B,5A,13B,16B","75","36","21","","","","","","","","","","","","","","","","",""
"","","","","","html-keyboard-response","35","1318170","0.0-17.0-2.5","342fb488-01a4-4ac9-9f56-15c74996aacf","null","<p style=""text-align: center;"">+</p>","null","fixation","","","","","","","","","","","","","","","","","","","","","","",""
"","","","","","html-slider-response","36","1319182","0.0-17.0-0.6","342fb488-01a4-4ac9-9f56-15c74996aacf","1000","
                  <p style=""text-align: center;"">₪71
                                                <br>55%</p>
                  <p id=""wtp"" style=""text-align:center; margin-top: 0px; margin-bottom: 0px; font-size: 40px"";>&ensp;</p>","-","viewing","0","27","5B,18A","","","","","","","","","","","","","","","","","","","",""
"","","","","","html-slider-response","37","1323185","0.0-17.0-1.6","342fb488-01a4-4ac9-9f56-15c74996aacf","null","
                  <p style=""text-align: center;"">₪71
                                                <br>55%</p>
                  <p id=""wtp"" style=""text-align:center; margin-top: 0px; margin-bottom: 0px; font-size: 40px"";>מוכנים לשלם: <span id=""c_p_y""></span></p>","null","evaluation","5","27","5B,18A","55","71","28","","","","","","","","","","","","","","","","",""
"","","","","","html-keyboard-response","38","1324158","0.0-17.0-2.6","342fb488-01a4-4ac9-9f56-15c74996aacf","null","<p style=""text-align: center;"">+</p>","null","fixation","","","","","","","","","","","","","","","","","","","","","","",""
"","","","","","html-slider-response","39","1325168","0.0-17.0-0.7","342fb488-01a4-4ac9-9f56-15c74996aacf","1000","
                  <p style=""text-align: center;"">₪36
                                                <br>70%</p>
                  <p id=""wtp"" style=""text-align:center; margin-top: 0px; margin-bottom: 0px; font-size: 40px"";>&ensp;</p>","-","viewing","0","13","3A,5C,10B","","","","","","","","","","","","","","","","","","","",""
"","","","","","html-slider-response","40","1328010","0.0-17.0-1.7","342fb488-01a4-4ac9-9f56-15c74996aacf","2839","
                  <p style=""text-align: center;"">₪36
                                                <br>70%</p>
                  <p id=""wtp"" style=""text-align:center; margin-top: 0px; margin-bottom: 0px; font-size: 40px"";>מוכנים לשלם: <span id=""c_p_y""></span></p>","17","evaluation","30","13","3A,5C,10B","70","36","17","","","","","","","","","","","","","","","","",""
"","","","","","html-keyboard-response","41","1329044","0.0-17.0-2.7","342fb488-01a4-4ac9-9f56-15c74996aacf","null","<p style=""text-align: center;"">+</p>","null","fixation","","","","","","","","","","","","","","","","","","","","","","",""
"","","","","","html-slider-response","42","1330053","0.0-17.0-0.8","342fb488-01a4-4ac9-9f56-15c74996aacf","1000","
                  <p style=""text-align: center;"">₪11
                                                <br>45%</p>
                  <p id=""wtp"" style=""text-align:center; margin-top: 0px; margin-bottom: 0px; font-size: 40px"";>&ensp;</p>","-","viewing","0","6","14B,21C,25C","","","","","","","","","","","","","","","","","","","",""
"","","","","","html-slider-response","43","1334054","0.0-17.0-1.8","342fb488-01a4-4ac9-9f56-15c74996aacf","null","
                  <p style=""text-align: center;"">₪11
                                                <br>45%</p>
                  <p id=""wtp"" style=""text-align:center; margin-top: 0px; margin-bottom: 0px; font-size: 40px"";>מוכנים לשלם: <span id=""c_p_y""></span></p>","null","evaluation","39","6","14B,21C,25C","45","11","2","","","","","","","","","","","","","","","","",""
"","","","","","html-keyboard-response","44","1335502","0.0-17.0-2.8","342fb488-01a4-4ac9-9f56-15c74996aacf","null","<p style=""text-align: center;"">+</p>","null","fixation","","","","","","","","","","","","","","","","","","","","","","",""
"","","","","","html-slider-response","45","1336507","0.0-17.0-0.9","342fb488-01a4-4ac9-9f56-15c74996aacf","1000","
                  <p style=""text-align: center;"">₪79
                                                <br>40%</p>
                  <p id=""wtp"" style=""text-align:center; margin-top: 0px; margin-bottom: 0px; font-size: 40px"";>&ensp;</p>","-","viewing","0","30","9B","","","","","","","","","","","","","","","","","","","",""
"","","","","","html-slider-response","46","1340521","0.0-17.0-1.9","342fb488-01a4-4ac9-9f56-15c74996aacf","null","
                  <p style=""text-align: center;"">₪79
                                                <br>40%</p>
                  <p id=""wtp"" style=""text-align:center; margin-top: 0px; margin-bottom: 0px; font-size: 40px"";>מוכנים לשלם: <span id=""c_p_y""></span></p>","null","evaluation","61","30","9B","40","79","12","","","","","","","","","","","","","","","","",""
"","","","","","html-keyboard-response","47","1341570","0.0-17.0-2.9","342fb488-01a4-4ac9-9f56-15c74996aacf","null","<p style=""text-align: center;"">+</p>","null","fixation","","","","","","","","","","","","","","","","","","","","","","",""
"","","","","","html-slider-response","48","1342574","0.0-17.0-0.10","342fb488-01a4-4ac9-9f56-15c74996aacf","1000","
                  <p style=""text-align: center;"">₪4
                                                <br>25%</p>
                  <p id=""wtp"" style=""text-align:center; margin-top: 0px; margin-bottom: 0px; font-size: 40px"";>&ensp;</p>","-","viewing","0","1","6C,29B,30C","","","","","","","","","","","","","","","","","","","",""
"","","","","","html-slider-response","49","1345586","0.0-17.0-1.10","342fb488-01a4-4ac9-9f56-15c74996aacf","3011","
                  <p style=""text-align: center;"">₪4
                                                <br>25%</p>
                  <p id=""wtp"" style=""text-align:center; margin-top: 0px; margin-bottom: 0px; font-size: 40px"";>מוכנים לשלם: <span id=""c_p_y""></span></p>","1","evaluation","11","1","6C,29B,30C","25","4","1","","","","","","","","","","","","","","","","",""
"","","","","","html-keyboard-response","50","1346559","0.0-17.0-2.10","342fb488-01a4-4ac9-9f56-15c74996aacf","null","<p style=""text-align: center;"">+</p>","null","fixation","","","","","","","","","","","","","","","","","","","","","","",""
"","","","","","html-slider-response","51","1347566","0.0-17.0-0.11","342fb488-01a4-4ac9-9f56-15c74996aacf","1000","
                  <p style=""text-align: center;"">₪58
                                                <br>40%</p>
                  <p id=""wtp"" style=""text-align:center; margin-top: 0px; margin-bottom: 0px; font-size: 40px"";>&ensp;</p>","-","viewing","0","20","10C,13A,19C,21B","","","","","","","","","","","","","","","","","","","",""
"","","","","","html-slider-response","52","1351580","0.0-17.0-1.11","342fb488-01a4-4ac9-9f56-15c74996aacf","null","
                  <p style=""text-align: center;"">₪58
                                                <br>40%</p>
                  <p id=""wtp"" style=""text-align:center; margin-top: 0px; margin-bottom: 0px; font-size: 40px"";>מוכנים לשלם: <span id=""c_p_y""></span></p>","null","evaluation","78","20","10C,13A,19C,21B","40","58","11","","","","","","","","","","","","","","","","",""
"","","","","","html-keyboard-response","53","1352726","0.0-17.0-2.11","342fb488-01a4-4ac9-9f56-15c74996aacf","null","<p style=""text-align: center;"">+</p>","null","fixation","","","","","","","","","","","","","","","","","","","","","","",""
"","","","","","html-slider-response","54","1353731","0.0-17.0-0.12","342fb488-01a4-4ac9-9f56-15c74996aacf","1000","
                  <p style=""text-align: center;"">₪36
                                                <br>30%</p>
                  <p id=""wtp"" style=""text-align:center; margin-top: 0px; margin-bottom: 0px; font-size: 40px"";>&ensp;</p>","-","viewing","0","11","3C,20A,22A","","","","","","","","","","","","","","","","","","","",""
"","","","","","html-slider-response","55","1355730","0.0-17.0-1.12","342fb488-01a4-4ac9-9f56-15c74996aacf","1998","
                  <p style=""text-align: center;"">₪36
                                                <br>30%</p>
                  <p id=""wtp"" style=""text-align:center; margin-top: 0px; margin-bottom: 0px; font-size: 40px"";>מוכנים לשלם: <span id=""c_p_y""></span></p>","10","evaluation","79","11","3C,20A,22A","30","36","10","","","","","","","","","","","","","","","","",""
"","","","","","html-keyboard-response","56","1357122","0.0-17.0-2.12","342fb488-01a4-4ac9-9f56-15c74996aacf","null","<p style=""text-align: center;"">+</p>","null","fixation","","","","","","","","","","","","","","","","","","","","","","",""
"","","","","","html-slider-response","57","1358139","0.0-17.0-0.13","342fb488-01a4-4ac9-9f56-15c74996aacf","1000","
                  <p style=""text-align: center;"">₪18
                                                <br>25%</p>
                  <p id=""wtp"" style=""text-align:center; margin-top: 0px; margin-bottom: 0px; font-size: 40px"";>&ensp;</p>","-","viewing","0","9","14A,23A","","","","","","","","","","","","","","","","","","","",""
"","","","","","html-slider-response","58","1360170","0.0-17.0-1.13","342fb488-01a4-4ac9-9f56-15c74996aacf","2030","
                  <p style=""text-align: center;"">₪18
                                                <br>25%</p>
                  <p id=""wtp"" style=""text-align:center; margin-top: 0px; margin-bottom: 0px; font-size: 40px"";>מוכנים לשלם: <span id=""c_p_y""></span></p>","6","evaluation","24","9","14A,23A","25","18","6","","","","","","","","","","","","","","","","",""
"","","","","","html-keyboard-response","59","1360848","0.0-17.0-2.13","342fb488-01a4-4ac9-9f56-15c74996aacf","null","<p style=""text-align: center;"">+</p>","null","fixation","","","","","","","","","","","","","","","","","","","","","","",""
"","","","","","html-slider-response","60","1361860","0.0-17.0-0.14","342fb488-01a4-4ac9-9f56-15c74996aacf","1000","
                  <p style=""text-align: center;"">₪11
                                                <br>20%</p>
                  <p id=""wtp"" style=""text-align:center; margin-top: 0px; margin-bottom: 0px; font-size: 40px"";>&ensp;</p>","-","viewing","0","4","12C,17C,23C,28C","","","","","","","","","","","","","","","","","","","",""
"","","","","","html-slider-response","61","1364858","0.0-17.0-1.14","342fb488-01a4-4ac9-9f56-15c74996aacf","2997","
                  <p style=""text-align: center;"">₪11
                                                <br>20%</p>
                  <p id=""wtp"" style=""text-align:center; margin-top: 0px; margin-bottom: 0px; font-size: 40px"";>מוכנים לשלם: <span id=""c_p_y""></span></p>","3","evaluation","16","4","12C,17C,23C,28C","20","11","3","","","","","","","","","","","","","","","","",""
"","","","","","html-keyboard-response","62","1365754","0.0-17.0-2.14","342fb488-01a4-4ac9-9f56-15c74996aacf","null","<p style=""text-align: center;"">+</p>","null","fixation","","","","","","","","","","","","","","","","","","","","","","",""
"","","","","","html-slider-response","63","1366761","0.0-17.0-0.15","342fb488-01a4-4ac9-9f56-15c74996aacf","1000","
                  <p style=""text-align: center;"">₪58
                                                <br>45%</p>
                  <p id=""wtp"" style=""text-align:center; margin-top: 0px; margin-bottom: 0px; font-size: 40px"";>&ensp;</p>","-","viewing","0","21","11C,18C,25A","","","","","","","","","","","","","","","","","","","",""
"","","","","","html-slider-response","64","1369218","0.0-17.0-1.15","342fb488-01a4-4ac9-9f56-15c74996aacf","2456","
                  <p style=""text-align: center;"">₪58
                                                <br>45%</p>
                  <p id=""wtp"" style=""text-align:center; margin-top: 0px; margin-bottom: 0px; font-size: 40px"";>מוכנים לשלם: <span id=""c_p_y""></span></p>","11","evaluation","15","21","11C,18C,25A","45","58","11","","","","","","","","","","","","","","","","",""
"","","","","","html-keyboard-response","65","1370649","0.0-17.0-2.15","342fb488-01a4-4ac9-9f56-15c74996aacf","null","<p style=""text-align: center;"">+</p>","null","fixation","","","","","","","","","","","","","","","","","","","","","","",""
"","","","","","html-slider-response","66","1371663","0.0-17.0-0.16","342fb488-01a4-4ac9-9f56-15c74996aacf","1000","
                  <p style=""text-align: center;"">₪43
                                                <br>60%</p>
                  <p id=""wtp"" style=""text-align:center; margin-top: 0px; margin-bottom: 0px; font-size: 40px"";>&ensp;</p>","-","viewing","0","17","2A,7A,9A,15B","","","","","","","","","","","","","","","","","","","",""
"","","","","","html-slider-response","67","1373698","0.0-17.0-1.16","342fb488-01a4-4ac9-9f56-15c74996aacf","2034","
                  <p style=""text-align: center;"">₪43
                                                <br>60%</p>
                  <p id=""wtp"" style=""text-align:center; margin-top: 0px; margin-bottom: 0px; font-size: 40px"";>מוכנים לשלם: <span id=""c_p_y""></span></p>","10","evaluation","9","17","2A,7A,9A,15B","60","43","10","","","","","","","","","","","","","","","","",""
"","","","","","html-keyboard-response","68","1374549","0.0-17.0-2.16","342fb488-01a4-4ac9-9f56-15c74996aacf","null","<p style=""text-align: center;"">+</p>","null","fixation","","","","","","","","","","","","","","","","","","","","","","",""
"","","","","","html-slider-response","69","1375557","0.0-17.0-0.17","342fb488-01a4-4ac9-9f56-15c74996aacf","1000","
                  <p style=""text-align: center;"">₪76
                                                <br>65%</p>
                  <p id=""wtp"" style=""text-align:center; margin-top: 0px; margin-bottom: 0px; font-size: 40px"";>&ensp;</p>","-","viewing","0","29","8C,19A,24B","","","","","","","","","","","","","","","","","","","",""
"","","","","","html-slider-response","70","1379565","0.0-17.0-1.17","342fb488-01a4-4ac9-9f56-15c74996aacf","null","
                  <p style=""text-align: center;"">₪76
                                                <br>65%</p>
                  <p id=""wtp"" style=""text-align:center; margin-top: 0px; margin-bottom: 0px; font-size: 40px"";>מוכנים לשלם: <span id=""c_p_y""></span></p>","null","evaluation","1","29","8C,19A,24B","65","76","15","","","","","","","","","","","","","","","","",""
"","","","","","html-keyboard-response","71","1380507","0.0-17.0-2.17","342fb488-01a4-4ac9-9f56-15c74996aacf","null","<p style=""text-align: center;"">+</p>","null","fixation","","","","","","","","","","","","","","","","","","","","","","",""
"","","","","","html-slider-response","72","1381509","0.0-17.0-0.18","342fb488-01a4-4ac9-9f56-15c74996aacf","1000","
                  <p style=""text-align: center;"">₪58
                                                <br>30%</p>
                  <p id=""wtp"" style=""text-align:center; margin-top: 0px; margin-bottom: 0px; font-size: 40px"";>&ensp;</p>","-","viewing","0","19","13C,30A","","","","","","","","","","","","","","","","","","","",""
"","","","","","html-slider-response","73","1383770","0.0-17.0-1.18","342fb488-01a4-4ac9-9f56-15c74996aacf","2260","
                  <p style=""text-align: center;"">₪58
                                                <br>30%</p>
                  <p id=""wtp"" style=""text-align:center; margin-top: 0px; margin-bottom: 0px; font-size: 40px"";>מוכנים לשלם: <span id=""c_p_y""></span></p>","10","evaluation","7","19","13C,30A","30","58","10","","","","","","","","","","","","","","","","",""
"","","","","","html-keyboard-response","74","1384962","0.0-17.0-2.18","342fb488-01a4-4ac9-9f56-15c74996aacf","null","<p style=""text-align: center;"">+</p>","null","fixation","","","","","","","","","","","","","","","","","","","","","","",""
"","","","","","html-slider-response","75","1385968","0.0-17.0-0.19","342fb488-01a4-4ac9-9f56-15c74996aacf","1000","
                  <p style=""text-align: center;"">₪11
                                                <br>25%</p>
                  <p id=""wtp"" style=""text-align:center; margin-top: 0px; margin-bottom: 0px; font-size: 40px"";>&ensp;</p>","-","viewing","0","5","12A,27B,28B,30B","","","","","","","","","","","","","","","","","","","",""
"","","","","","html-slider-response","76","1388796","0.0-17.0-1.19","342fb488-01a4-4ac9-9f56-15c74996aacf","2825","
                  <p style=""text-align: center;"">₪11
                                                <br>25%</p>
                  <p id=""wtp"" style=""text-align:center; margin-top: 0px; margin-bottom: 0px; font-size: 40px"";>מוכנים לשלם: <span id=""c_p_y""></span></p>","0","evaluation","30","5","12A,27B,28B,30B","25","11","1","","","","","","","","","","","","","","","","",""
"","","","","","html-keyboard-response","77","1389665","0.0-17.0-2.19","342fb488-01a4-4ac9-9f56-15c74996aacf","null","<p style=""text-align: center;"">+</p>","null","fixation","","","","","","","","","","","","","","","","","","","","","","",""
"","","","","","html-slider-response","78","1390671","0.0-17.0-0.20","342fb488-01a4-4ac9-9f56-15c74996aacf","1000","
                  <p style=""text-align: center;"">₪4
                                                <br>75%</p>
                  <p id=""wtp"" style=""text-align:center; margin-top: 0px; margin-bottom: 0px; font-size: 40px"";>&ensp;</p>","-","viewing","0","3","12B,20B,23B,27C,29C","","","","","","","","","","","","","","","","","","","",""
"","","","","","html-slider-response","79","1393516","0.0-17.0-1.20","342fb488-01a4-4ac9-9f56-15c74996aacf","2844","
                  <p style=""text-align: center;"">₪4
                                                <br>75%</p>
                  <p id=""wtp"" style=""text-align:center; margin-top: 0px; margin-bottom: 0px; font-size: 40px"";>מוכנים לשלם: <span id=""c_p_y""></span></p>","0","evaluation","58","3","12B,20B,23B,27C,29C","75","4","0","","","","","","","","","","","","","","","","",""
"","","","","","html-keyboard-response","80","1394703","0.0-17.0-2.20","342fb488-01a4-4ac9-9f56-15c74996aacf","null","<p style=""text-align: center;"">+</p>","null","fixation","","","","","","","","","","","","","","","","","","","","","","",""
"","","","","","html-slider-response","81","1395705","0.0-17.0-0.21","342fb488-01a4-4ac9-9f56-15c74996aacf","1000","
                  <p style=""text-align: center;"">₪4
                                                <br>50%</p>
                  <p id=""wtp"" style=""text-align:center; margin-top: 0px; margin-bottom: 0px; font-size: 40px"";>&ensp;</p>","-","viewing","0","2","4C,17B","","","","","","","","","","","","","","","","","","","",""
"","","","","","html-slider-response","82","1398172","0.0-17.0-1.21","342fb488-01a4-4ac9-9f56-15c74996aacf","2466","
                  <p style=""text-align: center;"">₪4
                                                <br>50%</p>
                  <p id=""wtp"" style=""text-align:center; margin-top: 0px; margin-bottom: 0px; font-size: 40px"";>מוכנים לשלם: <span id=""c_p_y""></span></p>","2","evaluation","5","2","4C,17B","50","4","2","","","","","","","","","","","","","","","","",""
"","","","","","html-keyboard-response","83","1398806","0.0-17.0-2.21","342fb488-01a4-4ac9-9f56-15c74996aacf","null","<p style=""text-align: center;"">+</p>","null","fixation","","","","","","","","","","","","","","","","","","","","","","",""
"","","","","","html-slider-response","84","1399813","0.0-17.0-0.22","342fb488-01a4-4ac9-9f56-15c74996aacf","1000","
                  <p style=""text-align: center;"">₪71
                                                <br>45%</p>
                  <p id=""wtp"" style=""text-align:center; margin-top: 0px; margin-bottom: 0px; font-size: 40px"";>&ensp;</p>","-","viewing","0","26","2B,16A","","","","","","","","","","","","","","","","","","","",""
"","","","","","html-slider-response","85","1402964","0.0-17.0-1.22","342fb488-01a4-4ac9-9f56-15c74996aacf","3150","
                  <p style=""text-align: center;"">₪71
                                                <br>45%</p>
                  <p id=""wtp"" style=""text-align:center; margin-top: 0px; margin-bottom: 0px; font-size: 40px"";>מוכנים לשלם: <span id=""c_p_y""></span></p>","8","evaluation","60","26","2B,16A","45","71","8","","","","","","","","","","","","","","","","",""
"","","","","","html-keyboard-response","86","1403665","0.0-17.0-2.22","342fb488-01a4-4ac9-9f56-15c74996aacf","null","<p style=""text-align: center;"">+</p>","null","fixation","","","","","","","","","","","","","","","","","","","","","","",""
"","","","","","html-slider-response","87","1404667","0.0-17.0-0.23","342fb488-01a4-4ac9-9f56-15c74996aacf","1000","
                  <p style=""text-align: center;"">₪64
                                                <br>25%</p>
                  <p id=""wtp"" style=""text-align:center; margin-top: 0px; margin-bottom: 0px; font-size: 40px"";>&ensp;</p>","-","viewing","0","24","6A,21A","","","","","","","","","","","","","","","","","","","",""
"","","","","","html-slider-response","88","1407020","0.0-17.0-1.23","342fb488-01a4-4ac9-9f56-15c74996aacf","2351","
                  <p style=""text-align: center;"">₪64
                                                <br>25%</p>
                  <p id=""wtp"" style=""text-align:center; margin-top: 0px; margin-bottom: 0px; font-size: 40px"";>מוכנים לשלם: <span id=""c_p_y""></span></p>","11","evaluation","64","24","6A,21A","25","64","11","","","","","","","","","","","","","","","","",""
"","","","","","html-keyboard-response","89","1407680","0.0-17.0-2.23","342fb488-01a4-4ac9-9f56-15c74996aacf","null","<p style=""text-align: center;"">+</p>","null","fixation","","","","","","","","","","","","","","","","","","","","","","",""
"","","","","","html-slider-response","90","1408690","0.0-17.0-0.24","342fb488-01a4-4ac9-9f56-15c74996aacf","1000","
                  <p style=""text-align: center;"">₪39
                                                <br>65%</p>
                  <p id=""wtp"" style=""text-align:center; margin-top: 0px; margin-bottom: 0px; font-size: 40px"";>&ensp;</p>","-","viewing","0","16","1A,15A,26C","","","","","","","","","","","","","","","","","","","",""
"","","","","","html-slider-response","91","1412196","0.0-17.0-1.24","342fb488-01a4-4ac9-9f56-15c74996aacf","3505","
                  <p style=""text-align: center;"">₪39
                                                <br>65%</p>
                  <p id=""wtp"" style=""text-align:center; margin-top: 0px; margin-bottom: 0px; font-size: 40px"";>מוכנים לשלם: <span id=""c_p_y""></span></p>","12","evaluation","9","16","1A,15A,26C","65","39","12","","","","","","","","","","","","","","","","",""
"","","","","","html-keyboard-response","92","1413624","0.0-17.0-2.24","342fb488-01a4-4ac9-9f56-15c74996aacf","null","<p style=""text-align: center;"">+</p>","null","fixation","","","","","","","","","","","","","","","","","","","","","","",""
"","","","","","html-slider-response","93","1414629","0.0-17.0-0.25","342fb488-01a4-4ac9-9f56-15c74996aacf","1000","
                  <p style=""text-align: center;"">₪71
                                                <br>75%</p>
                  <p id=""wtp"" style=""text-align:center; margin-top: 0px; margin-bottom: 0px; font-size: 40px"";>&ensp;</p>","-","viewing","0","28","8B","","","","","","","","","","","","","","","","","","","",""
"","","","","","html-slider-response","94","1417764","0.0-17.0-1.25","342fb488-01a4-4ac9-9f56-15c74996aacf","3133","
                  <p style=""text-align: center;"">₪71
                                                <br>75%</p>
                  <p id=""wtp"" style=""text-align:center; margin-top: 0px; margin-bottom: 0px; font-size: 40px"";>מוכנים לשלם: <span id=""c_p_y""></span></p>","30","evaluation","4","28","8B","75","71","30","","","","","","","","","","","","","","","","",""
"","","","","","html-keyboard-response","95","1418612","0.0-17.0-2.25","342fb488-01a4-4ac9-9f56-15c74996aacf","null","<p style=""text-align: center;"">+</p>","null","fixation","","","","","","","","","","","","","","","","","","","","","","",""
"","","","","","html-slider-response","96","1419614","0.0-17.0-0.26","342fb488-01a4-4ac9-9f56-15c74996aacf","1000","
                  <p style=""text-align: center;"">₪39
                                                <br>60%</p>
                  <p id=""wtp"" style=""text-align:center; margin-top: 0px; margin-bottom: 0px; font-size: 40px"";>&ensp;</p>","-","viewing","0","15","9C,25B","","","","","","","","","","","","","","","","","","","",""
"","","","","","html-slider-response","97","1423622","0.0-17.0-1.26","342fb488-01a4-4ac9-9f56-15c74996aacf","null","
                  <p style=""text-align: center;"">₪39
                                                <br>60%</p>
                  <p id=""wtp"" style=""text-align:center; margin-top: 0px; margin-bottom: 0px; font-size: 40px"";>מוכנים לשלם: <span id=""c_p_y""></span></p>","null","evaluation","79","15","9C,25B","60","39","14","","","","","","","","","","","","","","","","",""
"","","","","","html-keyboard-response","98","1424280","0.0-17.0-2.26","342fb488-01a4-4ac9-9f56-15c74996aacf","null","<p style=""text-align: center;"">+</p>","null","fixation","","","","","","","","","","","","","","","","","","","","","","",""
"","","","","","html-slider-response","99","1425289","0.0-17.0-0.27","342fb488-01a4-4ac9-9f56-15c74996aacf","1000","
                  <p style=""text-align: center;"">₪11
                                                <br>75%</p>
                  <p id=""wtp"" style=""text-align:center; margin-top: 0px; margin-bottom: 0px; font-size: 40px"";>&ensp;</p>","-","viewing","0","7","6B,18B,22C,24C,29A","","","","","","","","","","","","","","","","","","","",""
"","","","","","html-slider-response","100","1428556","0.0-17.0-1.27","342fb488-01a4-4ac9-9f56-15c74996aacf","3265","
                  <p style=""text-align: center;"">₪11
                                                <br>75%</p>
                  <p id=""wtp"" style=""text-align:center; margin-top: 0px; margin-bottom: 0px; font-size: 40px"";>מוכנים לשלם: <span id=""c_p_y""></span></p>","4","evaluation","49","7","6B,18B,22C,24C,29A","75","11","5","","","","","","","","","","","","","","","","",""
"","","","","","html-keyboard-response","101","1429332","0.0-17.0-2.27","342fb488-01a4-4ac9-9f56-15c74996aacf","null","<p style=""text-align: center;"">+</p>","null","fixation","","","","","","","","","","","","","","","","","","","","","","",""
"","","","","","html-slider-response","102","1430348","0.0-17.0-0.28","342fb488-01a4-4ac9-9f56-15c74996aacf","1000","
                  <p style=""text-align: center;"">₪61
                                                <br>55%</p>
                  <p id=""wtp"" style=""text-align:center; margin-top: 0px; margin-bottom: 0px; font-size: 40px"";>&ensp;</p>","-","viewing","0","23","7B,26B","","","","","","","","","","","","","","","","","","","",""
"","","","","","html-slider-response","103","1434355","0.0-17.0-1.28","342fb488-01a4-4ac9-9f56-15c74996aacf","null","
                  <p style=""text-align: center;"">₪61
                                                <br>55%</p>
                  <p id=""wtp"" style=""text-align:center; margin-top: 0px; margin-bottom: 0px; font-size: 40px"";>מוכנים לשלם: <span id=""c_p_y""></span></p>","null","evaluation","69","23","7B,26B","55","61","16","","","","","","","","","","","","","","","","",""
"","","","","","html-keyboard-response","104","1435729","0.0-17.0-2.28","342fb488-01a4-4ac9-9f56-15c74996aacf","null","<p style=""text-align: center;"">+</p>","null","fixation","","","","","","","","","","","","","","","","","","","","","","",""
"","","","","","html-slider-response","105","1436731","0.0-17.0-0.29","342fb488-01a4-4ac9-9f56-15c74996aacf","1000","
                  <p style=""text-align: center;"">₪64
                                                <br>50%</p>
                  <p id=""wtp"" style=""text-align:center; margin-top: 0px; margin-bottom: 0px; font-size: 40px"";>&ensp;</p>","-","viewing","0","25","1B,3B,4A","","","","","","","","","","","","","","","","","","","",""
"","","","","","html-slider-response","106","1439812","0.0-17.0-1.29","342fb488-01a4-4ac9-9f56-15c74996aacf","3079","
                  <p style=""text-align: center;"">₪64
                                                <br>50%</p>
                  <p id=""wtp"" style=""text-align:center; margin-top: 0px; margin-bottom: 0px; font-size: 40px"";>מוכנים לשלם: <span id=""c_p_y""></span></p>","20","evaluation","47","25","1B,3B,4A","50","64","20","","","","","","","","","","","","","","","","",""
"","","","","","html-keyboard-response","107","1441030","0.0-17.0-2.29","342fb488-01a4-4ac9-9f56-15c74996aacf","null","<p style=""text-align: center;"">+</p>","null","fixation","","","","","","","","","","","","","","","","","","","","","","",""
"","","","","","html-slider-response","108","1442039","0.0-17.0-0.30","342fb488-01a4-4ac9-9f56-15c74996aacf","1000","
                  <p style=""text-align: center;"">₪36
                                                <br>60%</p>
                  <p id=""wtp"" style=""text-align:center; margin-top: 0px; margin-bottom: 0px; font-size: 40px"";>&ensp;</p>","-","viewing","0","12","1C,7C,15C","","","","","","","","","","","","","","","","","","","",""
"","","","","","html-slider-response","109","1444707","0.0-17.0-1.30","342fb488-01a4-4ac9-9f56-15c74996aacf","2667","
                  <p style=""text-align: center;"">₪36
                                                <br>60%</p>
                  <p id=""wtp"" style=""text-align:center; margin-top: 0px; margin-bottom: 0px; font-size: 40px"";>מוכנים לשלם: <span id=""c_p_y""></span></p>","10","evaluation","63","12","1C,7C,15C","60","36","11","","","","","","","","","","","","","","","","",""
"","","","","","html-keyboard-response","110","1445916","0.0-17.0-2.30","342fb488-01a4-4ac9-9f56-15c74996aacf","null","<p style=""text-align: center;"">+</p>","null","fixation","","","","","","","","","","","","","","","","","","","","","","",""
"","","","","","html-keyboard-response","111","1446929","0.0-18.0","342fb488-01a4-4ac9-9f56-15c74996aacf","null","<p style=""text-align: center;"">+</p>","null","fixation","","","","","","","","","","","","","","","","","","","","","","",""
"","","","","","html-keyboard-response","112","1480245","0.0-19.0","342fb488-01a4-4ac9-9f56-15c74996aacf","null","<p>הפסקה.
          <br>לחצו כדי להמשיך.</p>","1","scan_wait","","","","","","","","","","","","","","","","","","","","","","",""
"","","","","","html-keyboard-response","113","1481262","0.0-20.0","342fb488-01a4-4ac9-9f56-15c74996aacf","null","<p style=""text-align: center;"">+</p>","null","fixation","","","","","","","","","","","","","","","","","","","","","","",""
"","","","","","html-slider-response","114","1482268","0.0-21.0-0.0","342fb488-01a4-4ac9-9f56-15c74996aacf","1000","
                  <p style=""text-align: center;"">₪18
                                                <br>50%</p>
                  <p id=""wtp"" style=""text-align:center; margin-top: 0px; margin-bottom: 0px; font-size: 40px"";>&ensp;</p>","-","viewing","0","10","2C,16C,22B,28A","","","","","","","","","","","","","","","","","","","",""
"","","","","","html-slider-response","115","1483806","0.0-21.0-1.0","342fb488-01a4-4ac9-9f56-15c74996aacf","1538","
                  <p style=""text-align: center;"">₪18
                                                <br>50%</p>
                  <p id=""wtp"" style=""text-align:center; margin-top: 0px; margin-bottom: 0px; font-size: 40px"";>מוכנים לשלם: <span id=""c_p_y""></span></p>","6","evaluation","25","10","2C,16C,22B,28A","50","18","6","","","","","","","","","","","","","","","","",""
"","","","","","html-keyboard-response","116","1484393","0.0-21.0-2.0","342fb488-01a4-4ac9-9f56-15c74996aacf","null","<p style=""text-align: center;"">+</p>","null","fixation","","","","","","","","","","","","","","","","","","","","","","",""
"","","","","","html-slider-response","117","1485402","0.0-21.0-0.1","342fb488-01a4-4ac9-9f56-15c74996aacf","1000","
                  <p style=""text-align: center;"">₪18
                                                <br>25%</p>
                  <p id=""wtp"" style=""text-align:center; margin-top: 0px; margin-bottom: 0px; font-size: 40px"";>&ensp;</p>","-","viewing","0","9","14A,23A","","","","","","","","","","","","","","","","","","","",""
"","","","","","html-slider-response","118","1487318","0.0-21.0-1.1","342fb488-01a4-4ac9-9f56-15c74996aacf","1914","
                  <p style=""text-align: center;"">₪18
                                                <br>25%</p>
                  <p id=""wtp"" style=""text-align:center; margin-top: 0px; margin-bottom: 0px; font-size: 40px"";>מוכנים לשלם: <span id=""c_p_y""></span></p>","3","evaluation","50","9","14A,23A","25","18","3","","","","","","","","","","","","","","","","",""
"","","","","","html-keyboard-response","119","1488480","0.0-21.0-2.1","342fb488-01a4-4ac9-9f56-15c74996aacf","null","<p style=""text-align: center;"">+</p>","null","fixation","","","","","","","","","","","","","","","","","","","","","","",""
"","","","","","html-slider-response","120","1489487","0.0-21.0-0.2","342fb488-01a4-4ac9-9f56-15c74996aacf","1000","
                  <p style=""text-align: center;"">₪64
                                                <br>25%</p>
                  <p id=""wtp"" style=""text-align:center; margin-top: 0px; margin-bottom: 0px; font-size: 40px"";>&ensp;</p>","-","viewing","0","24","6A,21A","","","","","","","","","","","","","","","","","","","",""
"","","","","","html-slider-response","121","1490566","0.0-21.0-1.2","342fb488-01a4-4ac9-9f56-15c74996aacf","1078","
                  <p style=""text-align: center;"">₪64
                                                <br>25%</p>
                  <p id=""wtp"" style=""text-align:center; margin-top: 0px; margin-bottom: 0px; font-size: 40px"";>מוכנים לשלם: <span id=""c_p_y""></span></p>","5","evaluation","64","24","6A,21A","25","64","5","","","","","","","","","","","","","","","","",""
"","","","","","html-keyboard-response","122","1491891","0.0-21.0-2.2","342fb488-01a4-4ac9-9f56-15c74996aacf","null","<p style=""text-align: center;"">+</p>","null","fixation","","","","","","","","","","","","","","","","","","","","","","",""
"","","","","","html-slider-response","123","1492892","0.0-21.0-0.3","342fb488-01a4-4ac9-9f56-15c74996aacf","1000","
                  <p style=""text-align: center;"">₪58
                                                <br>30%</p>
                  <p id=""wtp"" style=""text-align:center; margin-top: 0px; margin-bottom: 0px; font-size: 40px"";>&ensp;</p>","-","viewing","0","19","13C,30A","","","","","","","","","","","","","","","","","","","",""
"","","","","","html-slider-response","124","1493773","0.0-21.0-1.3","342fb488-01a4-4ac9-9f56-15c74996aacf","880","
                  <p style=""text-align: center;"">₪58
                                                <br>30%</p>
                  <p id=""wtp"" style=""text-align:center; margin-top: 0px; margin-bottom: 0px; font-size: 40px"";>מוכנים לשלם: <span id=""c_p_y""></span></p>","3","evaluation","51","19","13C,30A","30","58","4","","","","","","","","","","","","","","","","",""
"","","","","","html-keyboard-response","125","1494621","0.0-21.0-2.3","342fb488-01a4-4ac9-9f56-15c74996aacf","null","<p style=""text-align: center;"">+</p>","null","fixation","","","","","","","","","","","","","","","","","","","","","","",""
"","","","","","html-slider-response","126","1495624","0.0-21.0-0.4","342fb488-01a4-4ac9-9f56-15c74996aacf","1000","
                  <p style=""text-align: center;"">₪39
                                                <br>60%</p>
                  <p id=""wtp"" style=""text-align:center; margin-top: 0px; margin-bottom: 0px; font-size: 40px"";>&ensp;</p>","-","viewing","0","15","9C,25B","","","","","","","","","","","","","","","","","","","",""
"","","","","","html-slider-response","127","1499510","0.0-21.0-1.4","342fb488-01a4-4ac9-9f56-15c74996aacf","3884","
                  <p style=""text-align: center;"">₪39
                                                <br>60%</p>
                  <p id=""wtp"" style=""text-align:center; margin-top: 0px; margin-bottom: 0px; font-size: 40px"";>מוכנים לשלם: <span id=""c_p_y""></span></p>","10","evaluation","24","15","9C,25B","60","39","10","","","","","","","","","","","","","","","","",""
"","","","","","html-keyboard-response","128","1500236","0.0-21.0-2.4","342fb488-01a4-4ac9-9f56-15c74996aacf","null","<p style=""text-align: center;"">+</p>","null","fixation","","","","","","","","","","","","","","","","","","","","","","",""
"","","","","","html-slider-response","129","1501247","0.0-21.0-0.5","342fb488-01a4-4ac9-9f56-15c74996aacf","1000","
                  <p style=""text-align: center;"">₪58
                                                <br>40%</p>
                  <p id=""wtp"" style=""text-align:center; margin-top: 0px; margin-bottom: 0px; font-size: 40px"";>&ensp;</p>","-","viewing","0","20","10C,13A,19C,21B","","","","","","","","","","","","","","","","","","","",""
"","","","","","html-slider-response","130","1505261","0.0-21.0-1.5","342fb488-01a4-4ac9-9f56-15c74996aacf","null","
                  <p style=""text-align: center;"">₪58
                                                <br>40%</p>
                  <p id=""wtp"" style=""text-align:center; margin-top: 0px; margin-bottom: 0px; font-size: 40px"";>מוכנים לשלם: <span id=""c_p_y""></span></p>","null","evaluation","58","20","10C,13A,19C,21B","40","58","7","","","","","","","","","","","","","","","","",""
"","","","","","html-keyboard-response","131","1506231","0.0-21.0-2.5","342fb488-01a4-4ac9-9f56-15c74996aacf","null","<p style=""text-align: center;"">+</p>","null","fixation","","","","","","","","","","","","","","","","","","","","","","",""
"","","","","","html-slider-response","132","1507243","0.0-21.0-0.6","342fb488-01a4-4ac9-9f56-15c74996aacf","1000","
                  <p style=""text-align: center;"">₪64
                                                <br>50%</p>
                  <p id=""wtp"" style=""text-align:center; margin-top: 0px; margin-bottom: 0px; font-size: 40px"";>&ensp;</p>","-","viewing","0","25","1B,3B,4A","","","","","","","","","","","","","","","","","","","",""
"","","","","","html-slider-response","133","1508367","0.0-21.0-1.6","342fb488-01a4-4ac9-9f56-15c74996aacf","1124","
                  <p style=""text-align: center;"">₪64
                                                <br>50%</p>
                  <p id=""wtp"" style=""text-align:center; margin-top: 0px; margin-bottom: 0px; font-size: 40px"";>מוכנים לשלם: <span id=""c_p_y""></span></p>","10","evaluation","15","25","1B,3B,4A","50","64","10","","","","","","","","","","","","","","","","",""
"","","","","","html-keyboard-response","134","1509456","0.0-21.0-2.6","342fb488-01a4-4ac9-9f56-15c74996aacf","null","<p style=""text-align: center;"">+</p>","null","fixation","","","","","","","","","","","","","","","","","","","","","","",""
"","","","","","html-slider-response","135","1510462","0.0-21.0-0.7","342fb488-01a4-4ac9-9f56-15c74996aacf","1000","
                  <p style=""text-align: center;"">₪11
                                                <br>75%</p>
                  <p id=""wtp"" style=""text-align:center; margin-top: 0px; margin-bottom: 0px; font-size: 40px"";>&ensp;</p>","-","viewing","0","7","6B,18B,22C,24C,29A","","","","","","","","","","","","","","","","","","","",""
"","","","","","html-slider-response","136","1512319","0.0-21.0-1.7","342fb488-01a4-4ac9-9f56-15c74996aacf","1856","
                  <p style=""text-align: center;"">₪11
                                                <br>75%</p>
                  <p id=""wtp"" style=""text-align:center; margin-top: 0px; margin-bottom: 0px; font-size: 40px"";>מוכנים לשלם: <span id=""c_p_y""></span></p>","2","evaluation","29","7","6B,18B,22C,24C,29A","75","11","2","","","","","","","","","","","","","","","","",""
"","","","","","html-keyboard-response","137","1513238","0.0-21.0-2.7","342fb488-01a4-4ac9-9f56-15c74996aacf","null","<p style=""text-align: center;"">+</p>","null","fixation","","","","","","","","","","","","","","","","","","","","","","",""
"","","","","","html-slider-response","138","1514246","0.0-21.0-0.8","342fb488-01a4-4ac9-9f56-15c74996aacf","1000","
                  <p style=""text-align: center;"">₪39
                                                <br>65%</p>
                  <p id=""wtp"" style=""text-align:center; margin-top: 0px; margin-bottom: 0px; font-size: 40px"";>&ensp;</p>","-","viewing","0","16","1A,15A,26C","","","","","","","","","","","","","","","","","","","",""
"","","","","","html-slider-response","139","1516559","0.0-21.0-1.8","342fb488-01a4-4ac9-9f56-15c74996aacf","2312","
                  <p style=""text-align: center;"">₪39
                                                <br>65%</p>
                  <p id=""wtp"" style=""text-align:center; margin-top: 0px; margin-bottom: 0px; font-size: 40px"";>מוכנים לשלם: <span id=""c_p_y""></span></p>","3","evaluation","33","16","1A,15A,26C","65","39","4","","","","","","","","","","","","","","","","",""
"","","","","","html-keyboard-response","140","1517694","0.0-21.0-2.8","342fb488-01a4-4ac9-9f56-15c74996aacf","null","<p style=""text-align: center;"">+</p>","null","fixation","","","","","","","","","","","","","","","","","","","","","","",""
"","","","","","html-slider-response","141","1518702","0.0-21.0-0.9","342fb488-01a4-4ac9-9f56-15c74996aacf","1000","
                  <p style=""text-align: center;"">₪4
                                                <br>25%</p>
                  <p id=""wtp"" style=""text-align:center; margin-top: 0px; margin-bottom: 0px; font-size: 40px"";>&ensp;</p>","-","viewing","0","1","6C,29B,30C","","","","","","","","","","","","","","","","","","","",""
"","","","","","html-slider-response","142","1520879","0.0-21.0-1.9","342fb488-01a4-4ac9-9f56-15c74996aacf","2176","
                  <p style=""text-align: center;"">₪4
                                                <br>25%</p>
                  <p id=""wtp"" style=""text-align:center; margin-top: 0px; margin-bottom: 0px; font-size: 40px"";>מוכנים לשלם: <span id=""c_p_y""></span></p>","0","evaluation","59","1","6C,29B,30C","25","4","0","","","","","","","","","","","","","","","","",""
"","","","","","html-keyboard-response","143","1521928","0.0-21.0-2.9","342fb488-01a4-4ac9-9f56-15c74996aacf","null","<p style=""text-align: center;"">+</p>","null","fixation","","","","","","","","","","","","","","","","","","","","","","",""
"","","","","","html-slider-response","144","1522929","0.0-21.0-0.10","342fb488-01a4-4ac9-9f56-15c74996aacf","1000","
                  <p style=""text-align: center;"">₪36
                                                <br>75%</p>
                  <p id=""wtp"" style=""text-align:center; margin-top: 0px; margin-bottom: 0px; font-size: 40px"";>&ensp;</p>","-","viewing","0","14","4B,5A,13B,16B","","","","","","","","","","","","","","","","","","","",""
"","","","","","html-slider-response","145","1526942","0.0-21.0-1.10","342fb488-01a4-4ac9-9f56-15c74996aacf","null","
                  <p style=""text-align: center;"">₪36
                                                <br>75%</p>
                  <p id=""wtp"" style=""text-align:center; margin-top: 0px; margin-bottom: 0px; font-size: 40px"";>מוכנים לשלם: <span id=""c_p_y""></span></p>","null","evaluation","66","14","4B,5A,13B,16B","75","36","14","","","","","","","","","","","","","","","","",""
"","","","","","html-keyboard-response","146","1528032","0.0-21.0-2.10","342fb488-01a4-4ac9-9f56-15c74996aacf","null","<p style=""text-align: center;"">+</p>","null","fixation","","","","","","","","","","","","","","","","","","","","","","",""
"","","","","","html-slider-response","147","1529037","0.0-21.0-0.11","342fb488-01a4-4ac9-9f56-15c74996aacf","1000","
                  <p style=""text-align: center;"">₪71
                                                <br>55%</p>
                  <p id=""wtp"" style=""text-align:center; margin-top: 0px; margin-bottom: 0px; font-size: 40px"";>&ensp;</p>","-","viewing","0","27","5B,18A","","","","","","","","","","","","","","","","","","","",""
"","","","","","html-slider-response","148","1532583","0.0-21.0-1.11","342fb488-01a4-4ac9-9f56-15c74996aacf","3545","
                  <p style=""text-align: center;"">₪71
                                                <br>55%</p>
                  <p id=""wtp"" style=""text-align:center; margin-top: 0px; margin-bottom: 0px; font-size: 40px"";>מוכנים לשלם: <span id=""c_p_y""></span></p>","20","evaluation","66","27","5B,18A","55","71","20","","","","","","","","","","","","","","","","",""
"","","","","","html-keyboard-response","149","1533711","0.0-21.0-2.11","342fb488-01a4-4ac9-9f56-15c74996aacf","null","<p style=""text-align: center;"">+</p>","null","fixation","","","","","","","","","","","","","","","","","","","","","","",""
"","","","","","html-slider-response","150","1534719","0.0-21.0-0.12","342fb488-01a4-4ac9-9f56-15c74996aacf","1000","
                  <p style=""text-align: center;"">₪43
                                                <br>75%</p>
                  <p id=""wtp"" style=""text-align:center; margin-top: 0px; margin-bottom: 0px; font-size: 40px"";>&ensp;</p>","-","viewing","0","18","11B,19B,24A,26A","","","","","","","","","","","","","","","","","","","",""
"","","","","","html-slider-response","151","1537383","0.0-21.0-1.12","342fb488-01a4-4ac9-9f56-15c74996aacf","2663","
                  <p style=""text-align: center;"">₪43
                                                <br>75%</p>
                  <p id=""wtp"" style=""text-align:center; margin-top: 0px; margin-bottom: 0px; font-size: 40px"";>מוכנים לשלם: <span id=""c_p_y""></span></p>","19","evaluation","33","18","11B,19B,24A,26A","75","43","19","","","","","","","","","","","","","","","","",""
"","","","","","html-keyboard-response","152","1538484","0.0-21.0-2.12","342fb488-01a4-4ac9-9f56-15c74996aacf","null","<p style=""text-align: center;"">+</p>","null","fixation","","","","","","","","","","","","","","","","","","","","","","",""
"","","","","","html-slider-response","153","1539492","0.0-21.0-0.13","342fb488-01a4-4ac9-9f56-15c74996aacf","1000","
                  <p style=""text-align: center;"">₪61
                                                <br>55%</p>
                  <p id=""wtp"" style=""text-align:center; margin-top: 0px; margin-bottom: 0px; font-size: 40px"";>&ensp;</p>","-","viewing","0","23","7B,26B","","","","","","","","","","","","","","","","","","","",""
"","","","","","html-slider-response","154","1542703","0.0-21.0-1.13","342fb488-01a4-4ac9-9f56-15c74996aacf","3210","
                  <p style=""text-align: center;"">₪61
                                                <br>55%</p>
                  <p id=""wtp"" style=""text-align:center; margin-top: 0px; margin-bottom: 0px; font-size: 40px"";>מוכנים לשלם: <span id=""c_p_y""></span></p>","15","evaluation","57","23","7B,26B","55","61","15","","","","","","","","","","","","","","","","",""
"","","","","","html-keyboard-response","155","1543806","0.0-21.0-2.13","342fb488-01a4-4ac9-9f56-15c74996aacf","null","<p style=""text-align: center;"">+</p>","null","fixation","","","","","","","","","","","","","","","","","","","","","","",""
"","","","","","html-slider-response","156","1544815","0.0-21.0-0.14","342fb488-01a4-4ac9-9f56-15c74996aacf","1000","
                  <p style=""text-align: center;"">₪11
                                                <br>20%</p>
                  <p id=""wtp"" style=""text-align:center; margin-top: 0px; margin-bottom: 0px; font-size: 40px"";>&ensp;</p>","-","viewing","0","4","12C,17C,23C,28C","","","","","","","","","","","","","","","","","","","",""
"","","","","","html-slider-response","157","1547767","0.0-21.0-1.14","342fb488-01a4-4ac9-9f56-15c74996aacf","2951","
                  <p style=""text-align: center;"">₪11
                                                <br>20%</p>
                  <p id=""wtp"" style=""text-align:center; margin-top: 0px; margin-bottom: 0px; font-size: 40px"";>מוכנים לשלם: <span id=""c_p_y""></span></p>","1","evaluation","68","4","12C,17C,23C,28C","20","11","1","","","","","","","","","","","","","","","","",""
"","","","","","html-keyboard-response","158","1548315","0.0-21.0-2.14","342fb488-01a4-4ac9-9f56-15c74996aacf","null","<p style=""text-align: center;"">+</p>","null","fixation","","","","","","","","","","","","","","","","","","","","","","",""
"","","","","","html-slider-response","159","1549319","0.0-21.0-0.15","342fb488-01a4-4ac9-9f56-15c74996aacf","1000","
                  <p style=""text-align: center;"">₪36
                                                <br>70%</p>
                  <p id=""wtp"" style=""text-align:center; margin-top: 0px; margin-bottom: 0px; font-size: 40px"";>&ensp;</p>","-","viewing","0","13","3A,5C,10B","","","","","","","","","","","","","","","","","","","",""
"","","","","","html-slider-response","160","1551511","0.0-21.0-1.15","342fb488-01a4-4ac9-9f56-15c74996aacf","2192","
                  <p style=""text-align: center;"">₪36
                                                <br>70%</p>
                  <p id=""wtp"" style=""text-align:center; margin-top: 0px; margin-bottom: 0px; font-size: 40px"";>מוכנים לשלם: <span id=""c_p_y""></span></p>","11","evaluation","36","13","3A,5C,10B","70","36","11","","","","","","","","","","","","","","","","",""
"","","","","","html-keyboard-response","161","1552568","0.0-21.0-2.15","342fb488-01a4-4ac9-9f56-15c74996aacf","null","<p style=""text-align: center;"">+</p>","null","fixation","","","","","","","","","","","","","","","","","","","","","","",""
"","","","","","html-slider-response","162","1553574","0.0-21.0-0.16","342fb488-01a4-4ac9-9f56-15c74996aacf","1000","
                  <p style=""text-align: center;"">₪76
                                                <br>65%</p>
                  <p id=""wtp"" style=""text-align:center; margin-top: 0px; margin-bottom: 0px; font-size: 40px"";>&ensp;</p>","-","viewing","0","29","8C,19A,24B","","","","","","","","","","","","","","","","","","","",""
"","","","","","html-slider-response","163","1556319","0.0-21.0-1.16","342fb488-01a4-4ac9-9f56-15c74996aacf","2744","
                  <p style=""text-align: center;"">₪76
                                                <br>65%</p>
                  <p id=""wtp"" style=""text-align:center; margin-top: 0px; margin-bottom: 0px; font-size: 40px"";>מוכנים לשלם: <span id=""c_p_y""></span></p>","30","evaluation","14","29","8C,19A,24B","65","76","30","","","","","","","","","","","","","","","","",""
"","","","","","html-keyboard-response","164","1557232","0.0-21.0-2.16","342fb488-01a4-4ac9-9f56-15c74996aacf","null","<p style=""text-align: center;"">+</p>","null","fixation","","","","","","","","","","","","","","","","","","","","","","",""
"","","","","","html-slider-response","165","1558243","0.0-21.0-0.17","342fb488-01a4-4ac9-9f56-15c74996aacf","1000","
                  <p style=""text-align: center;"">₪36
                                                <br>60%</p>
                  <p id=""wtp"" style=""text-align:center; margin-top: 0px; margin-bottom: 0px; font-size: 40px"";>&ensp;</p>","-","viewing","0","12","1C,7C,15C","","","","","","","","","","","","","","","","","","","",""
"","","","","","html-slider-response","166","1561999","0.0-21.0-1.17","342fb488-01a4-4ac9-9f56-15c74996aacf","3755","
                  <p style=""text-align: center;"">₪36
                                                <br>60%</p>
                  <p id=""wtp"" style=""text-align:center; margin-top: 0px; margin-bottom: 0px; font-size: 40px"";>מוכנים לשלם: <span id=""c_p_y""></span></p>","14","evaluation","64","12","1C,7C,15C","60","36","14","","","","","","","","","","","","","","","","",""
"","","","","","html-keyboard-response","167","1563374","0.0-21.0-2.17","342fb488-01a4-4ac9-9f56-15c74996aacf","null","<p style=""text-align: center;"">+</p>","null","fixation","","","","","","","","","","","","","","","","","","","","","","",""
"","","","","","html-slider-response","168","1564380","0.0-21.0-0.18","342fb488-01a4-4ac9-9f56-15c74996aacf","1000","
                  <p style=""text-align: center;"">₪79
                                                <br>40%</p>
                  <p id=""wtp"" style=""text-align:center; margin-top: 0px; margin-bottom: 0px; font-size: 40px"";>&ensp;</p>","-","viewing","0","30","9B","","","","","","","","","","","","","","","","","","","",""
"","","","","","html-slider-response","169","1567316","0.0-21.0-1.18","342fb488-01a4-4ac9-9f56-15c74996aacf","2947","
                  <p style=""text-align: center;"">₪79
                                                <br>40%</p>
                  <p id=""wtp"" style=""text-align:center; margin-top: 0px; margin-bottom: 0px; font-size: 40px"";>מוכנים לשלם: <span id=""c_p_y""></span></p>","9","evaluation","63","30","9B","40","79","10","","","","","","","","","","","","","","","","",""
"","","","","","html-keyboard-response","170","1568498","0.0-21.0-2.18","342fb488-01a4-4ac9-9f56-15c74996aacf","null","<p style=""text-align: center;"">+</p>","null","fixation","","","","","","","","","","","","","","","","","","","","","","",""
"","","","","","html-slider-response","171","1569511","0.0-21.0-0.19","342fb488-01a4-4ac9-9f56-15c74996aacf","1000","
                  <p style=""text-align: center;"">₪11
                                                <br>25%</p>
                  <p id=""wtp"" style=""text-align:center; margin-top: 0px; margin-bottom: 0px; font-size: 40px"";>&ensp;</p>","-","viewing","0","5","12A,27B,28B,30B","","","","","","","","","","","","","","","","","","","",""
"","","","","","html-slider-response","172","1571180","0.0-21.0-1.19","342fb488-01a4-4ac9-9f56-15c74996aacf","1669","
                  <p style=""text-align: center;"">₪11
                                                <br>25%</p>
                  <p id=""wtp"" style=""text-align:center; margin-top: 0px; margin-bottom: 0px; font-size: 40px"";>מוכנים לשלם: <span id=""c_p_y""></span></p>","1","evaluation","16","5","12A,27B,28B,30B","25","11","1","","","","","","","","","","","","","","","","",""
"","","","","","html-keyboard-response","173","1572040","0.0-21.0-2.19","342fb488-01a4-4ac9-9f56-15c74996aacf","null","<p style=""text-align: center;"">+</p>","null","fixation","","","","","","","","","","","","","","","","","","","","","","",""
"","","","","","html-slider-response","174","1573048","0.0-21.0-0.20","342fb488-01a4-4ac9-9f56-15c74996aacf","1000","
                  <p style=""text-align: center;"">₪71
                                                <br>45%</p>
                  <p id=""wtp"" style=""text-align:center; margin-top: 0px; margin-bottom: 0px; font-size: 40px"";>&ensp;</p>","-","viewing","0","26","2B,16A","","","","","","","","","","","","","","","","","","","",""
"","","","","","html-slider-response","175","1577064","0.0-21.0-1.20","342fb488-01a4-4ac9-9f56-15c74996aacf","null","
                  <p style=""text-align: center;"">₪71
                                                <br>45%</p>
                  <p id=""wtp"" style=""text-align:center; margin-top: 0px; margin-bottom: 0px; font-size: 40px"";>מוכנים לשלם: <span id=""c_p_y""></span></p>","null","evaluation","14","26","2B,16A","45","71","10","","","","","","","","","","","","","","","","",""
"","","","","","html-keyboard-response","176","1577883","0.0-21.0-2.20","342fb488-01a4-4ac9-9f56-15c74996aacf","null","<p style=""text-align: center;"">+</p>","null","fixation","","","","","","","","","","","","","","","","","","","","","","",""
"","","","","","html-slider-response","177","1578899","0.0-21.0-0.21","342fb488-01a4-4ac9-9f56-15c74996aacf","1000","
                  <p style=""text-align: center;"">₪11
                                                <br>45%</p>
                  <p id=""wtp"" style=""text-align:center; margin-top: 0px; margin-bottom: 0px; font-size: 40px"";>&ensp;</p>","-","viewing","0","6","14B,21C,25C","","","","","","","","","","","","","","","","","","","",""
"","","","","","html-slider-response","178","1580476","0.0-21.0-1.21","342fb488-01a4-4ac9-9f56-15c74996aacf","1576","
                  <p style=""text-align: center;"">₪11
                                                <br>45%</p>
                  <p id=""wtp"" style=""text-align:center; margin-top: 0px; margin-bottom: 0px; font-size: 40px"";>מוכנים לשלם: <span id=""c_p_y""></span></p>","2","evaluation","77","6","14B,21C,25C","45","11","2","","","","","","","","","","","","","","","","",""
"","","","","","html-keyboard-response","179","1581739","0.0-21.0-2.21","342fb488-01a4-4ac9-9f56-15c74996aacf","null","<p style=""text-align: center;"">+</p>","null","fixation","","","","","","","","","","","","","","","","","","","","","","",""
"","","","","","html-slider-response","180","1582754","0.0-21.0-0.22","342fb488-01a4-4ac9-9f56-15c74996aacf","1000","
                  <p style=""text-align: center;"">₪36
                                                <br>30%</p>
                  <p id=""wtp"" style=""text-align:center; margin-top: 0px; margin-bottom: 0px; font-size: 40px"";>&ensp;</p>","-","viewing","0","11","3C,20A,22A","","","","","","","","","","","","","","","","","","","",""
"","","","","","html-slider-response","181","1583828","0.0-21.0-1.22","342fb488-01a4-4ac9-9f56-15c74996aacf","1073","
                  <p style=""text-align: center;"">₪36
                                                <br>30%</p>
                  <p id=""wtp"" style=""text-align:center; margin-top: 0px; margin-bottom: 0px; font-size: 40px"";>מוכנים לשלם: <span id=""c_p_y""></span></p>","3","evaluation","48","11","3C,20A,22A","30","36","4","","","","","","","","","","","","","","","","",""
"","","","","","html-keyboard-response","182","1584624","0.0-21.0-2.22","342fb488-01a4-4ac9-9f56-15c74996aacf","null","<p style=""text-align: center;"">+</p>","null","fixation","","","","","","","","","","","","","","","","","","","","","","",""
"","","","","","html-slider-response","183","1585627","0.0-21.0-0.23","342fb488-01a4-4ac9-9f56-15c74996aacf","1000","
                  <p style=""text-align: center;"">₪4
                                                <br>75%</p>
                  <p id=""wtp"" style=""text-align:center; margin-top: 0px; margin-bottom: 0px; font-size: 40px"";>&ensp;</p>","-","viewing","0","3","12B,20B,23B,27C,29C","","","","","","","","","","","","","","","","","","","",""
"","","","","","html-slider-response","184","1587748","0.0-21.0-1.23","342fb488-01a4-4ac9-9f56-15c74996aacf","2120","
                  <p style=""text-align: center;"">₪4
                                                <br>75%</p>
                  <p id=""wtp"" style=""text-align:center; margin-top: 0px; margin-bottom: 0px; font-size: 40px"";>מוכנים לשלם: <span id=""c_p_y""></span></p>","2","evaluation","36","3","12B,20B,23B,27C,29C","75","4","2","","","","","","","","","","","","","","","","",""
"","","","","","html-keyboard-response","185","1588532","0.0-21.0-2.23","342fb488-01a4-4ac9-9f56-15c74996aacf","null","<p style=""text-align: center;"">+</p>","null","fixation","","","","","","","","","","","","","","","","","","","","","","",""
"","","","","","html-slider-response","186","1589542","0.0-21.0-0.24","342fb488-01a4-4ac9-9f56-15c74996aacf","1000","
                  <p style=""text-align: center;"">₪4
                                                <br>50%</p>
                  <p id=""wtp"" style=""text-align:center; margin-top: 0px; margin-bottom: 0px; font-size: 40px"";>&ensp;</p>","-","viewing","0","2","4C,17B","","","","","","","","","","","","","","","","","","","",""
"","","","","","html-slider-response","187","1592236","0.0-21.0-1.24","342fb488-01a4-4ac9-9f56-15c74996aacf","2694","
                  <p style=""text-align: center;"">₪4
                                                <br>50%</p>
                  <p id=""wtp"" style=""text-align:center; margin-top: 0px; margin-bottom: 0px; font-size: 40px"";>מוכנים לשלם: <span id=""c_p_y""></span></p>","1","evaluation","71","2","4C,17B","50","4","1","","","","","","","","","","","","","","","","",""
"","","","","","html-keyboard-response","188","1592899","0.0-21.0-2.24","342fb488-01a4-4ac9-9f56-15c74996aacf","null","<p style=""text-align: center;"">+</p>","null","fixation","","","","","","","","","","","","","","","","","","","","","","",""
"","","","","","html-slider-response","189","1593913","0.0-21.0-0.25","342fb488-01a4-4ac9-9f56-15c74996aacf","1000","
                  <p style=""text-align: center;"">₪79
                                                <br>65%</p>
                  <p id=""wtp"" style=""text-align:center; margin-top: 0px; margin-bottom: 0px; font-size: 40px"";>&ensp;</p>","-","viewing","0","31","8A","","","","","","","","","","","","","","","","","","","",""
"","","","","","html-slider-response","190","1597308","0.0-21.0-1.25","342fb488-01a4-4ac9-9f56-15c74996aacf","3395","
                  <p style=""text-align: center;"">₪79
                                                <br>65%</p>
                  <p id=""wtp"" style=""text-align:center; margin-top: 0px; margin-bottom: 0px; font-size: 40px"";>מוכנים לשלם: <span id=""c_p_y""></span></p>","24","evaluation","50","31","8A","65","79","24","","","","","","","","","","","","","","","","",""
"","","","","","html-keyboard-response","191","1598372","0.0-21.0-2.25","342fb488-01a4-4ac9-9f56-15c74996aacf","null","<p style=""text-align: center;"">+</p>","null","fixation","","","","","","","","","","","","","","","","","","","","","","",""
"","","","","","html-slider-response","192","1599384","0.0-21.0-0.26","342fb488-01a4-4ac9-9f56-15c74996aacf","1000","
                  <p style=""text-align: center;"">₪71
                                                <br>75%</p>
                  <p id=""wtp"" style=""text-align:center; margin-top: 0px; margin-bottom: 0px; font-size: 40px"";>&ensp;</p>","-","viewing","0","28","8B","","","","","","","","","","","","","","","","","","","",""
"","","","","","html-slider-response","193","1601837","0.0-21.0-1.26","342fb488-01a4-4ac9-9f56-15c74996aacf","2451","
                  <p style=""text-align: center;"">₪71
                                                <br>75%</p>
                  <p id=""wtp"" style=""text-align:center; margin-top: 0px; margin-bottom: 0px; font-size: 40px"";>מוכנים לשלם: <span id=""c_p_y""></span></p>","33","evaluation","8","28","8B","75","71","33","","","","","","","","","","","","","","","","",""
"","","","","","html-keyboard-response","194","1602903","0.0-21.0-2.26","342fb488-01a4-4ac9-9f56-15c74996aacf","null","<p style=""text-align: center;"">+</p>","null","fixation","","","","","","","","","","","","","","","","","","","","","","",""
"","","","","","html-slider-response","195","1603908","0.0-21.0-0.27","342fb488-01a4-4ac9-9f56-15c74996aacf","1000","
                  <p style=""text-align: center;"">₪16
                                                <br>20%</p>
                  <p id=""wtp"" style=""text-align:center; margin-top: 0px; margin-bottom: 0px; font-size: 40px"";>&ensp;</p>","-","viewing","0","8","14C,17A,20C,27A","","","","","","","","","","","","","","","","","","","",""
"","","","","","html-slider-response","196","1606428","0.0-21.0-1.27","342fb488-01a4-4ac9-9f56-15c74996aacf","2520","
                  <p style=""text-align: center;"">₪16
                                                <br>20%</p>
                  <p id=""wtp"" style=""text-align:center; margin-top: 0px; margin-bottom: 0px; font-size: 40px"";>מוכנים לשלם: <span id=""c_p_y""></span></p>","4","evaluation","77","8","14C,17A,20C,27A","20","16","5","","","","","","","","","","","","","","","","",""
"","","","","","html-keyboard-response","197","1607853","0.0-21.0-2.27","342fb488-01a4-4ac9-9f56-15c74996aacf","null","<p style=""text-align: center;"">+</p>","null","fixation","","","","","","","","","","","","","","","","","","","","","","",""
"","","","","","html-slider-response","198","1608865","0.0-21.0-0.28","342fb488-01a4-4ac9-9f56-15c74996aacf","1000","
                  <p style=""text-align: center;"">₪61
                                                <br>45%</p>
                  <p id=""wtp"" style=""text-align:center; margin-top: 0px; margin-bottom: 0px; font-size: 40px"";>&ensp;</p>","-","viewing","0","22","10A,11A","","","","","","","","","","","","","","","","","","","",""
"","","","","","html-slider-response","199","1610949","0.0-21.0-1.28","342fb488-01a4-4ac9-9f56-15c74996aacf","2083","
                  <p style=""text-align: center;"">₪61
                                                <br>45%</p>
                  <p id=""wtp"" style=""text-align:center; margin-top: 0px; margin-bottom: 0px; font-size: 40px"";>מוכנים לשלם: <span id=""c_p_y""></span></p>","10","evaluation","20","22","10A,11A","45","61","11","","","","","","","","","","","","","","","","",""
"","","","","","html-keyboard-response","200","1611517","0.0-21.0-2.28","342fb488-01a4-4ac9-9f56-15c74996aacf","null","<p style=""text-align: center;"">+</p>","null","fixation","","","","","","","","","","","","","","","","","","","","","","",""
"","","","","","html-slider-response","201","1612521","0.0-21.0-0.29","342fb488-01a4-4ac9-9f56-15c74996aacf","1000","
                  <p style=""text-align: center;"">₪43
                                                <br>60%</p>
                  <p id=""wtp"" style=""text-align:center; margin-top: 0px; margin-bottom: 0px; font-size: 40px"";>&ensp;</p>","-","viewing","0","17","2A,7A,9A,15B","","","","","","","","","","","","","","","","","","","",""
"","","","","","html-slider-response","202","1614604","0.0-21.0-1.29","342fb488-01a4-4ac9-9f56-15c74996aacf","2082","
                  <p style=""text-align: center;"">₪43
                                                <br>60%</p>
                  <p id=""wtp"" style=""text-align:center; margin-top: 0px; margin-bottom: 0px; font-size: 40px"";>מוכנים לשלם: <span id=""c_p_y""></span></p>","11","evaluation","9","17","2A,7A,9A,15B","60","43","11","","","","","","","","","","","","","","","","",""
"","","","","","html-keyboard-response","203","1615868","0.0-21.0-2.29","342fb488-01a4-4ac9-9f56-15c74996aacf","null","<p style=""text-align: center;"">+</p>","null","fixation","","","","","","","","","","","","","","","","","","","","","","",""
"","","","","","html-slider-response","204","1616876","0.0-21.0-0.30","342fb488-01a4-4ac9-9f56-15c74996aacf","1000","
                  <p style=""text-align: center;"">₪58
                                                <br>45%</p>
                  <p id=""wtp"" style=""text-align:center; margin-top: 0px; margin-bottom: 0px; font-size: 40px"";>&ensp;</p>","-","viewing","0","21","11C,18C,25A","","","","","","","","","","","","","","","","","","","",""
"","","","","","html-slider-response","205","1620748","0.0-21.0-1.30","342fb488-01a4-4ac9-9f56-15c74996aacf","3872","
                  <p style=""text-align: center;"">₪58
                                                <br>45%</p>
                  <p id=""wtp"" style=""text-align:center; margin-top: 0px; margin-bottom: 0px; font-size: 40px"";>מוכנים לשלם: <span id=""c_p_y""></span></p>","10","evaluation","61","21","11C,18C,25A","45","58","10","","","","","","","","","","","","","","","","",""
"","","","","","html-keyboard-response","206","1621326","0.0-21.0-2.30","342fb488-01a4-4ac9-9f56-15c74996aacf","null","<p style=""text-align: center;"">+</p>","null","fixation","","","","","","","","","","","","","","","","","","","","","","",""
"","","","","","html-keyboard-response","207","1622331","0.0-22.0","342fb488-01a4-4ac9-9f56-15c74996aacf","null","<p style=""text-align: center;"">+</p>","null","fixation","","","","","","","","","","","","","","","","","","","","","","",""
"","","","","","html-keyboard-response","208","1626452","0.0-23.0","342fb488-01a4-4ac9-9f56-15c74996aacf","null","<p>הפסקה.
          <br>לחצו כדי להמשיך.</p>","1","scan_wait","","","","","","","","","","","","","","","","","","","","","","",""
"","","","","","html-keyboard-response","209","1627467","0.0-24.0","342fb488-01a4-4ac9-9f56-15c74996aacf","null","<p style=""text-align: center;"">+</p>","null","fixation","","","","","","","","","","","","","","","","","","","","","","",""
"","","","","","html-slider-response","210","1628481","0.0-25.0-0.0","342fb488-01a4-4ac9-9f56-15c74996aacf","1000","
                  <p style=""text-align: center;"">₪76
                                                <br>65%</p>
                  <p id=""wtp"" style=""text-align:center; margin-top: 0px; margin-bottom: 0px; font-size: 40px"";>&ensp;</p>","-","viewing","0","29","8C,19A,24B","","","","","","","","","","","","","","","","","","","",""
"","","","","","html-slider-response","211","1630515","0.0-25.0-1.0","342fb488-01a4-4ac9-9f56-15c74996aacf","2033","
                  <p style=""text-align: center;"">₪76
                                                <br>65%</p>
                  <p id=""wtp"" style=""text-align:center; margin-top: 0px; margin-bottom: 0px; font-size: 40px"";>מוכנים לשלם: <span id=""c_p_y""></span></p>","41","evaluation","60","29","8C,19A,24B","65","76","41","","","","","","","","","","","","","","","","",""
"","","","","","html-keyboard-response","212","1631852","0.0-25.0-2.0","342fb488-01a4-4ac9-9f56-15c74996aacf","null","<p style=""text-align: center;"">+</p>","null","fixation","","","","","","","","","","","","","","","","","","","","","","",""
"","","","","","html-slider-response","213","1632855","0.0-25.0-0.1","342fb488-01a4-4ac9-9f56-15c74996aacf","1000","
                  <p style=""text-align: center;"">₪11
                                                <br>25%</p>
                  <p id=""wtp"" style=""text-align:center; margin-top: 0px; margin-bottom: 0px; font-size: 40px"";>&ensp;</p>","-","viewing","0","5","12A,27B,28B,30B","","","","","","","","","","","","","","","","","","","",""
"","","","","","html-slider-response","214","1635379","0.0-25.0-1.1","342fb488-01a4-4ac9-9f56-15c74996aacf","2523","
                  <p style=""text-align: center;"">₪11
                                                <br>25%</p>
                  <p id=""wtp"" style=""text-align:center; margin-top: 0px; margin-bottom: 0px; font-size: 40px"";>מוכנים לשלם: <span id=""c_p_y""></span></p>","9","evaluation","41","5","12A,27B,28B,30B","25","11","10","","","","","","","","","","","","","","","","",""
"","","","","","html-keyboard-response","215","1636388","0.0-25.0-2.1","342fb488-01a4-4ac9-9f56-15c74996aacf","null","<p style=""text-align: center;"">+</p>","null","fixation","","","","","","","","","","","","","","","","","","","","","","",""
"","","","","","html-slider-response","216","1637404","0.0-25.0-0.2","342fb488-01a4-4ac9-9f56-15c74996aacf","1000","
                  <p style=""text-align: center;"">₪11
                                                <br>45%</p>
                  <p id=""wtp"" style=""text-align:center; margin-top: 0px; margin-bottom: 0px; font-size: 40px"";>&ensp;</p>","-","viewing","0","6","14B,21C,25C","","","","","","","","","","","","","","","","","","","",""
"","","","","","html-slider-response","217","1639123","0.0-25.0-1.2","342fb488-01a4-4ac9-9f56-15c74996aacf","1718","
                  <p style=""text-align: center;"">₪11
                                                <br>45%</p>
                  <p id=""wtp"" style=""text-align:center; margin-top: 0px; margin-bottom: 0px; font-size: 40px"";>מוכנים לשלם: <span id=""c_p_y""></span></p>","5","evaluation","52","6","14B,21C,25C","45","11","6","","","","","","","","","","","","","","","","",""
"","","","","","html-keyboard-response","218","1639816","0.0-25.0-2.2","342fb488-01a4-4ac9-9f56-15c74996aacf","null","<p style=""text-align: center;"">+</p>","null","fixation","","","","","","","","","","","","","","","","","","","","","","",""
"","","","","","html-slider-response","219","1640819","0.0-25.0-0.3","342fb488-01a4-4ac9-9f56-15c74996aacf","1000","
                  <p style=""text-align: center;"">₪71
                                                <br>55%</p>
                  <p id=""wtp"" style=""text-align:center; margin-top: 0px; margin-bottom: 0px; font-size: 40px"";>&ensp;</p>","-","viewing","0","27","5B,18A","","","","","","","","","","","","","","","","","","","",""
"","","","","","html-slider-response","220","1643106","0.0-25.0-1.3","342fb488-01a4-4ac9-9f56-15c74996aacf","2286","
                  <p style=""text-align: center;"">₪71
                                                <br>55%</p>
                  <p id=""wtp"" style=""text-align:center; margin-top: 0px; margin-bottom: 0px; font-size: 40px"";>מוכנים לשלם: <span id=""c_p_y""></span></p>","34","evaluation","25","27","5B,18A","55","71","34","","","","","","","","","","","","","","","","",""
"","","","","","html-keyboard-response","221","1644584","0.0-25.0-2.3","342fb488-01a4-4ac9-9f56-15c74996aacf","null","<p style=""text-align: center;"">+</p>","null","fixation","","","","","","","","","","","","","","","","","","","","","","",""
"","","","","","html-slider-response","222","1645600","0.0-25.0-0.4","342fb488-01a4-4ac9-9f56-15c74996aacf","1000","
                  <p style=""text-align: center;"">₪43
                                                <br>60%</p>
                  <p id=""wtp"" style=""text-align:center; margin-top: 0px; margin-bottom: 0px; font-size: 40px"";>&ensp;</p>","-","viewing","0","17","2A,7A,9A,15B","","","","","","","","","","","","","","","","","","","",""
"","","","","","html-slider-response","223","1649611","0.0-25.0-1.4","342fb488-01a4-4ac9-9f56-15c74996aacf","null","
                  <p style=""text-align: center;"">₪43
                                                <br>60%</p>
                  <p id=""wtp"" style=""text-align:center; margin-top: 0px; margin-bottom: 0px; font-size: 40px"";>מוכנים לשלם: <span id=""c_p_y""></span></p>","null","evaluation","0","17","2A,7A,9A,15B","60","43","22","","","","","","","","","","","","","","","","",""
"","","","","","html-keyboard-response","224","1650883","0.0-25.0-2.4","342fb488-01a4-4ac9-9f56-15c74996aacf","null","<p style=""text-align: center;"">+</p>","null","fixation","","","","","","","","","","","","","","","","","","","","","","",""
"","","","","","html-slider-response","225","1651894","0.0-25.0-0.5","342fb488-01a4-4ac9-9f56-15c74996aacf","1000","
                  <p style=""text-align: center;"">₪18
                                                <br>25%</p>
                  <p id=""wtp"" style=""text-align:center; margin-top: 0px; margin-bottom: 0px; font-size: 40px"";>&ensp;</p>","-","viewing","0","9","14A,23A","","","","","","","","","","","","","","","","","","","",""
"","","","","","html-slider-response","226","1653490","0.0-25.0-1.5","342fb488-01a4-4ac9-9f56-15c74996aacf","1596","
                  <p style=""text-align: center;"">₪18
                                                <br>25%</p>
                  <p id=""wtp"" style=""text-align:center; margin-top: 0px; margin-bottom: 0px; font-size: 40px"";>מוכנים לשלם: <span id=""c_p_y""></span></p>","2","evaluation","14","9","14A,23A","25","18","3","","","","","","","","","","","","","","","","",""
"","","","","","html-keyboard-response","227","1654275","0.0-25.0-2.5","342fb488-01a4-4ac9-9f56-15c74996aacf","null","<p style=""text-align: center;"">+</p>","null","fixation","","","","","","","","","","","","","","","","","","","","","","",""
"","","","","","html-slider-response","228","1655278","0.0-25.0-0.6","342fb488-01a4-4ac9-9f56-15c74996aacf","1000","
                  <p style=""text-align: center;"">₪18
                                                <br>50%</p>
                  <p id=""wtp"" style=""text-align:center; margin-top: 0px; margin-bottom: 0px; font-size: 40px"";>&ensp;</p>","-","viewing","0","10","2C,16C,22B,28A","","","","","","","","","","","","","","","","","","","",""
"","","","","","html-slider-response","229","1657835","0.0-25.0-1.6","342fb488-01a4-4ac9-9f56-15c74996aacf","2556","
                  <p style=""text-align: center;"">₪18
                                                <br>50%</p>
                  <p id=""wtp"" style=""text-align:center; margin-top: 0px; margin-bottom: 0px; font-size: 40px"";>מוכנים לשלם: <span id=""c_p_y""></span></p>","8","evaluation","53","10","2C,16C,22B,28A","50","18","9","","","","","","","","","","","","","","","","",""
"","","","","","html-keyboard-response","230","1658769","0.0-25.0-2.6","342fb488-01a4-4ac9-9f56-15c74996aacf","null","<p style=""text-align: center;"">+</p>","null","fixation","","","","","","","","","","","","","","","","","","","","","","",""
"","","","","","html-slider-response","231","1659782","0.0-25.0-0.7","342fb488-01a4-4ac9-9f56-15c74996aacf","1000","
                  <p style=""text-align: center;"">₪43
                                                <br>75%</p>
                  <p id=""wtp"" style=""text-align:center; margin-top: 0px; margin-bottom: 0px; font-size: 40px"";>&ensp;</p>","-","viewing","0","18","11B,19B,24A,26A","","","","","","","","","","","","","","","","","","","",""
"","","","","","html-slider-response","232","1663792","0.0-25.0-1.7","342fb488-01a4-4ac9-9f56-15c74996aacf","null","
                  <p style=""text-align: center;"">₪43
                                                <br>75%</p>
                  <p id=""wtp"" style=""text-align:center; margin-top: 0px; margin-bottom: 0px; font-size: 40px"";>מוכנים לשלם: <span id=""c_p_y""></span></p>","null","evaluation","32","18","11B,19B,24A,26A","75","43","10","","","","","","","","","","","","","","","","",""
"","","","","","html-keyboard-response","233","1665255","0.0-25.0-2.7","342fb488-01a4-4ac9-9f56-15c74996aacf","null","<p style=""text-align: center;"">+</p>","null","fixation","","","","","","","","","","","","","","","","","","","","","","",""
"","","","","","html-slider-response","234","1666259","0.0-25.0-0.8","342fb488-01a4-4ac9-9f56-15c74996aacf","1000","
                  <p style=""text-align: center;"">₪4
                                                <br>25%</p>
                  <p id=""wtp"" style=""text-align:center; margin-top: 0px; margin-bottom: 0px; font-size: 40px"";>&ensp;</p>","-","viewing","0","1","6C,29B,30C","","","","","","","","","","","","","","","","","","","",""
"","","","","","html-slider-response","235","1669051","0.0-25.0-1.8","342fb488-01a4-4ac9-9f56-15c74996aacf","2790","
                  <p style=""text-align: center;"">₪4
                                                <br>25%</p>
                  <p id=""wtp"" style=""text-align:center; margin-top: 0px; margin-bottom: 0px; font-size: 40px"";>מוכנים לשלם: <span id=""c_p_y""></span></p>","1","evaluation","67","1","6C,29B,30C","25","4","1","","","","","","","","","","","","","","","","",""
"","","","","","html-keyboard-response","236","1670091","0.0-25.0-2.8","342fb488-01a4-4ac9-9f56-15c74996aacf","null","<p style=""text-align: center;"">+</p>","null","fixation","","","","","","","","","","","","","","","","","","","","","","",""
"","","","","","html-slider-response","237","1671097","0.0-25.0-0.9","342fb488-01a4-4ac9-9f56-15c74996aacf","1000","
                  <p style=""text-align: center;"">₪4
                                                <br>50%</p>
                  <p id=""wtp"" style=""text-align:center; margin-top: 0px; margin-bottom: 0px; font-size: 40px"";>&ensp;</p>","-","viewing","0","2","4C,17B","","","","","","","","","","","","","","","","","","","",""
"","","","","","html-slider-response","238","1673275","0.0-25.0-1.9","342fb488-01a4-4ac9-9f56-15c74996aacf","2177","
                  <p style=""text-align: center;"">₪4
                                                <br>50%</p>
                  <p id=""wtp"" style=""text-align:center; margin-top: 0px; margin-bottom: 0px; font-size: 40px"";>מוכנים לשלם: <span id=""c_p_y""></span></p>","1","evaluation","27","2","4C,17B","50","4","2","","","","","","","","","","","","","","","","",""
"","","","","","html-keyboard-response","239","1674437","0.0-25.0-2.9","342fb488-01a4-4ac9-9f56-15c74996aacf","null","<p style=""text-align: center;"">+</p>","null","fixation","","","","","","","","","","","","","","","","","","","","","","",""
"","","","","","html-slider-response","240","1675447","0.0-25.0-0.10","342fb488-01a4-4ac9-9f56-15c74996aacf","1000","
                  <p style=""text-align: center;"">₪11
                                                <br>20%</p>
                  <p id=""wtp"" style=""text-align:center; margin-top: 0px; margin-bottom: 0px; font-size: 40px"";>&ensp;</p>","-","viewing","0","4","12C,17C,23C,28C","","","","","","","","","","","","","","","","","","","",""
"","","","","","html-slider-response","241","1678755","0.0-25.0-1.10","342fb488-01a4-4ac9-9f56-15c74996aacf","3306","
                  <p style=""text-align: center;"">₪11
                                                <br>20%</p>
                  <p id=""wtp"" style=""text-align:center; margin-top: 0px; margin-bottom: 0px; font-size: 40px"";>מוכנים לשלם: <span id=""c_p_y""></span></p>","1","evaluation","52","4","12C,17C,23C,28C","20","11","2","","","","","","","","","","","","","","","","",""
"","","","","","html-keyboard-response","242","1679284","0.0-25.0-2.10","342fb488-01a4-4ac9-9f56-15c74996aacf","null","<p style=""text-align: center;"">+</p>","null","fixation","","","","","","","","","","","","","","","","","","","","","","",""
"","","","","","html-slider-response","243","1680286","0.0-25.0-0.11","342fb488-01a4-4ac9-9f56-15c74996aacf","1000","
                  <p style=""text-align: center;"">₪64
                                                <br>25%</p>
                  <p id=""wtp"" style=""text-align:center; margin-top: 0px; margin-bottom: 0px; font-size: 40px"";>&ensp;</p>","-","viewing","0","24","6A,21A","","","","","","","","","","","","","","","","","","","",""
"","","","","","html-slider-response","244","1682763","0.0-25.0-1.11","342fb488-01a4-4ac9-9f56-15c74996aacf","2476","
                  <p style=""text-align: center;"">₪64
                                                <br>25%</p>
                  <p id=""wtp"" style=""text-align:center; margin-top: 0px; margin-bottom: 0px; font-size: 40px"";>מוכנים לשלם: <span id=""c_p_y""></span></p>","7","evaluation","61","24","6A,21A","25","64","8","","","","","","","","","","","","","","","","",""
"","","","","","html-keyboard-response","245","1683960","0.0-25.0-2.11","342fb488-01a4-4ac9-9f56-15c74996aacf","null","<p style=""text-align: center;"">+</p>","null","fixation","","","","","","","","","","","","","","","","","","","","","","",""
"","","","","","html-slider-response","246","1684968","0.0-25.0-0.12","342fb488-01a4-4ac9-9f56-15c74996aacf","1000","
                  <p style=""text-align: center;"">₪36
                                                <br>60%</p>
                  <p id=""wtp"" style=""text-align:center; margin-top: 0px; margin-bottom: 0px; font-size: 40px"";>&ensp;</p>","-","viewing","0","12","1C,7C,15C","","","","","","","","","","","","","","","","","","","",""
"","","","","","html-slider-response","247","1688811","0.0-25.0-1.12","342fb488-01a4-4ac9-9f56-15c74996aacf","3843","
                  <p style=""text-align: center;"">₪36
                                                <br>60%</p>
                  <p id=""wtp"" style=""text-align:center; margin-top: 0px; margin-bottom: 0px; font-size: 40px"";>מוכנים לשלם: <span id=""c_p_y""></span></p>","11","evaluation","2","12","1C,7C,15C","60","36","11","","","","","","","","","","","","","","","","",""
"","","","","","html-keyboard-response","248","1689892","0.0-25.0-2.12","342fb488-01a4-4ac9-9f56-15c74996aacf","null","<p style=""text-align: center;"">+</p>","null","fixation","","","","","","","","","","","","","","","","","","","","","","",""
