"success","timeout","failed_images","failed_audio","failed_video","trial_type","trial_index","time_elapsed","internal_node_id","subject_id","rt","stimulus","response","part","slider_start","ID","set_ID","prob","amount","last_location","actual_choice","actual_EV","binary_id","trinary_id","catch","direction","A_key","S_key","D_key","choice_prob","choice_amount","chosen_part","won_prize","potential_prize_amount","potential_prize_prob","total_prize","accuracy"
"true","false","[]","[]","[]","preload","0","119","0.0-0.0","e9202174-8daa-4cbb-a128-44f6840870fb","","","","","","","","","","","","","","","","","","","","","","","","","","",""
"","","","","","html-keyboard-response","1","973845","0.0-1.0","e9202174-8daa-4cbb-a128-44f6840870fb","null","
          <h1>שלום וברוכים הבאים!</h1>
          <p>לפניכם ניסוי בקבלת החלטות עם שני חלקים.
          <br><br>לחצו על העכבר כדי להמשיך.</p>","0","example","","","","","","","","","","","","","","","","","","","","","","",""
"","","","","","html-keyboard-response","2","1096340","0.0-2.0","e9202174-8daa-4cbb-a128-44f6840870fb","null","
        <h1>חלק 1</h1>
        <p>בקרוב יוצגו בפניכם הגרלות.
        <br>עליכם לבחור את המחיר המירבי שתהיו מוכנים לשלם כדי להשתתף בהגרלה שתוצג.
        <br>יש לכם תקציב של ₪80 לכל הגרלה. 
        <br>נסו להעריך כל הגרלה בנפרד ולחשוב כמה היא שווה עבורכם, ₪80 זמינים לכל הגרלה בנפרד.
        <br><br>לחצו על העכבר כדי להמשיך.</p>","1","instructions","","","","","","","","","","","","","","","","","","","","","","",""
"","","","","","html-keyboard-response","3","1106949","0.0-3.0","e9202174-8daa-4cbb-a128-44f6840870fb","null","
        <p>בסוף הניסוי, המחשב יבחר את אחת ההגרלות ויקבע מחיר לכרטיס עבורה. 
        <br>במידה והמחיר שבחרתם נמוך מהמחיר שנבחר על ידי המחשב, לא תשתתפו בהגרלה ותשארו עם מלוא התקציב.
        <br>במידה והמחיר שבחרתם גבוה מהמחיר שנבחר על ידי המחשב, תשלמו את המחיר שנקבע ותשתתפו בהגרלה.
        <br><br>לחצו על העכבר כדי להמשיך.</p>","1","instructions","","","","","","","","","","","","","","","","","","","","","","",""
"","","","","","html-slider-response","4","1120725","0.0-4.0","e9202174-8daa-4cbb-a128-44f6840870fb","13670","
        <p style=""font-size: 42px;"">נתחיל עם דוגמא: 
        <br>ההגרלה מטה מציעה 65% סיכוי לזכות ב-₪40 
        <br>&emsp;&emsp;&emsp;&emsp;&emsp;&emsp;&emsp;&emsp;&ensp;35% סיכוי לזכות ב-₪0.
        <br><br>מה המחיר המירבי שתהיו מוכנים לשלם על כרטיס להגרלה זו בין 0 ל-₪80?
        <br>הזיזו את העכבר על פני המלבן ולחצו כדי לבצע בחירה.</p>
        
        <p style=""text-align: center;"">₪40<br>65%</p>

        <p id=""wtp"" style=""text-align:center; margin-top: 0px; margin-bottom: 0px; font-size: 40px"";>מוכנים לשלם: <span id=""c_p_y""></span></p>","20","example","50","","","","","","","","","","","","","","","","","","","","","",""
"","","","","","html-keyboard-response","5","1128132","0.0-5.0","e9202174-8daa-4cbb-a128-44f6840870fb","null","<p>יפה מאוד!
                <br> בחרתם שתהיו מוכנים לשלם ₪20 כדי להשתתף בהגרלה:
                <br><p style=""text-align: center;"">₪40<br>65%</p>
                <p>נשמע נכון?
                <br>נניח שהגרלה זו נבחרה בסוף הניסוי.
                <br>כעת המחשב יקבע מחיר עבורה באקראי.
                <br>לחצו על העכבר להמשך.</p>","1","example","","","","","","","","","","","","","","","","","","","","","","",""
"","","","","","html-keyboard-response","6","1136444","0.0-6.0","e9202174-8daa-4cbb-a128-44f6840870fb","null","<p>המחשב קבע מחיר: ₪76
                <br>ואתם בחרתם לשלם לכל היותר: ₪20
                <br><br>מכיוון שהמחיר שבחרתם נמוך מהמחיר שנקבע, לא תתשתתפו בהגרלה.
                <br>במקרה כזה, בסוף הניסוי תקבלו את כל התקציב ההתחלתי של ₪80.
                <br><br>לחצו על העכבר להמשך.</p>","1","example","","","","","","","","","","","","","","","","","","","","","","",""
"","","","","","html-slider-response","7","1154189","0.0-7.0","e9202174-8daa-4cbb-a128-44f6840870fb","17492","<p style=""font-size: 42px;"">הנה עוד דוגמא:
                <br>ההגרלה מטה מציעה 35% סיכוי לזכות ב-₪18 
                <br>&emsp;&emsp;&emsp;&emsp;&emsp;&emsp;&emsp;&emsp;&ensp;65% סיכוי לזכות ב-₪0.</p>
        
                <p style=""text-align: center;"">₪18<br>35%</p>
                <p id=""wtp"" style=""text-align:center; margin-top: 0px; margin-bottom: 0px; font-size: 40px"";>מוכנים לשלם: <span id=""c_p_y""></span></p>","0","example","32","","","","","","","","","","","","","","","","","","","","","",""
"","","","","","html-keyboard-response","8","1156788","0.0-8.0","e9202174-8daa-4cbb-a128-44f6840870fb","null","<p>הייתם מוכנים לשלם  ₪0 כדי להשתתף בהגרלה:
                <p style=""text-align: center;"">₪18<br>35%</p>
                <p>כעת נניח שהמחשב בחר את ההגרלה הזו בסוף הניסוי, וקבע עבורה מחיר.
                <br><br>לחצו על העכבר כדי להמשיך.</p>","1","instructions","","","","","","","","","","","","","","","","","","","","","","",""
"","","","","","html-keyboard-response","9","1163092","0.0-9.0","e9202174-8daa-4cbb-a128-44f6840870fb","null","<p>המחשב קבע מחיר להגרלה: ₪0
                <br>ואתם בחרתם לשלם לכל היותר: ₪0
                <br><br>כעת המחיר שנקבע זהה לזה שבחרתם, אז תשלמו את המחיר שקבע המחשב (₪0) ותשתתפו בהגרלה.
                <br>במקרה כזה, תסיימו את הניסוי עם תקציב של ₪80 ועם סיכוי לזכות ב-₪18 נוספים מההגרלה.
                <br>כלומר, תוכלו לקבל ₪80 אם לא תזכו בהגרלה, או ₪98 אם תזכו בהגרלה.
                <br><br>לחצו על העכבר להמשך.</p>","1","example","","","","","","","","","","","","","","","","","","","","","","",""
"","","","","","html-keyboard-response","10","1170636","0.0-10.0","e9202174-8daa-4cbb-a128-44f6840870fb","null","<p>במהלך הניסוי, קודם תראו את ההגרלה ורק לאחר מכן תוכלו לבחור.
                <p>כמו כן, יהיו לכם מספר שניות מוגבל להגיב.
                <p>בואו ננסה זאת עם ההגרלה הקודמת.
                <br>לחצו על העכבר כדי להמשיך.</p>","1","instructions","","","","","","","","","","","","","","","","","","","","","","",""
"","","","","","html-slider-response","11","1171893","0.0-11.0","e9202174-8daa-4cbb-a128-44f6840870fb","1000","
                    <p style=""text-align: center;"">₪18<br>35%</p>
                    <p id=""wtp"" style=""text-align:center; margin-top: 0px; margin-bottom: 0px; font-size: 40px"";>&ensp;</p>","63","instructions","0","","","","","","","","","","","","","","","","","","","","","",""
"","","","","","html-slider-response","12","1173772","0.0-12.0","e9202174-8daa-4cbb-a128-44f6840870fb","1617","
                    <p style=""text-align: center;"">₪18<br>35%</p>
                    <p id=""wtp"" style=""text-align:center; margin-top: 0px; margin-bottom: 0px; font-size: 40px"";>מוכנים לשלם: <span id=""c_p_y""></span></p>","0","instructions","44","","","","","","","","","","","","","","","","","","","","","",""
"","","","","","html-keyboard-response","13","1176260","0.0-13.0","e9202174-8daa-4cbb-a128-44f6840870fb","null","<p>יפה. הפעם בחרתם לשלם לכל היותר ₪0.
                <br><br>לחצו על העכבר כדי להמשיך.</p>","1","instructions","","","","","","","","","","","","","","","","","","","","","","",""
"","","","","","html-keyboard-response","14","1182396","0.0-15.0","e9202174-8daa-4cbb-a128-44f6840870fb","null","<p>כעת נתחיל את הניסוי.
                <br><br>אתם תראו הגרלות ותתבקשו לבחור כמה תהיו מוכנים לשלם כדי להשתתף בהן.
                <br>יש לכם תקציב של ₪80 עבור כל הגרלה.
                <br>בסוף הניסוי הגרלה אחת תבחר באקראי ותשוחק.
                <br><br>לחצו על העכבר כדי להתחיל את הניסוי.</p>","1","instructions","","","","","","","","","","","","","","","","","","","","","","",""
"","","","","","html-keyboard-response","15","1183661","0.0-16.0","e9202174-8daa-4cbb-a128-44f6840870fb","null","<p style=""text-align: center;"">+</p>","null","fixation","","","","","","","","","","","","","","","","","","","","","","",""
"","","","","","html-slider-response","16","1184664","0.0-17.0-0.0","e9202174-8daa-4cbb-a128-44f6840870fb","1000","
                  <p style=""text-align: center;"">₪58
                                                <br>30%</p>
                  <p id=""wtp"" style=""text-align:center; margin-top: 0px; margin-bottom: 0px; font-size: 40px"";>&ensp;</p>","-","viewing","0","19","13C,30A","","","","","","","","","","","","","","","","","","","",""
"","","","","","html-slider-response","17","1185868","0.0-17.0-1.0","e9202174-8daa-4cbb-a128-44f6840870fb","1203","
                  <p style=""text-align: center;"">₪58
                                                <br>30%</p>
                  <p id=""wtp"" style=""text-align:center; margin-top: 0px; margin-bottom: 0px; font-size: 40px"";>מוכנים לשלם: <span id=""c_p_y""></span></p>","22","evaluation","58","19","13C,30A","30","58","22","","","","","","","","","","","","","","","","",""
"","","","","","html-keyboard-response","18","1186514","0.0-17.0-2.0","e9202174-8daa-4cbb-a128-44f6840870fb","null","<p style=""text-align: center;"">+</p>","null","fixation","","","","","","","","","","","","","","","","","","","","","","",""
"","","","","","html-slider-response","19","1187516","0.0-17.0-0.1","e9202174-8daa-4cbb-a128-44f6840870fb","1000","
                  <p style=""text-align: center;"">₪79
                                                <br>65%</p>
                  <p id=""wtp"" style=""text-align:center; margin-top: 0px; margin-bottom: 0px; font-size: 40px"";>&ensp;</p>","-","viewing","0","31","8A","","","","","","","","","","","","","","","","","","","",""
"","","","","","html-slider-response","20","1189548","0.0-17.0-1.1","e9202174-8daa-4cbb-a128-44f6840870fb","2031","
                  <p style=""text-align: center;"">₪79
                                                <br>65%</p>
                  <p id=""wtp"" style=""text-align:center; margin-top: 0px; margin-bottom: 0px; font-size: 40px"";>מוכנים לשלם: <span id=""c_p_y""></span></p>","38","evaluation","18","31","8A","65","79","38","","","","","","","","","","","","","","","","",""
"","","","","","html-keyboard-response","21","1190484","0.0-17.0-2.1","e9202174-8daa-4cbb-a128-44f6840870fb","null","<p style=""text-align: center;"">+</p>","null","fixation","","","","","","","","","","","","","","","","","","","","","","",""
"","","","","","html-slider-response","22","1191493","0.0-17.0-0.2","e9202174-8daa-4cbb-a128-44f6840870fb","1000","
                  <p style=""text-align: center;"">₪71
                                                <br>55%</p>
                  <p id=""wtp"" style=""text-align:center; margin-top: 0px; margin-bottom: 0px; font-size: 40px"";>&ensp;</p>","-","viewing","0","27","5B,18A","","","","","","","","","","","","","","","","","","","",""
"","","","","","html-slider-response","23","1193660","0.0-17.0-1.2","e9202174-8daa-4cbb-a128-44f6840870fb","2166","
                  <p style=""text-align: center;"">₪71
                                                <br>55%</p>
                  <p id=""wtp"" style=""text-align:center; margin-top: 0px; margin-bottom: 0px; font-size: 40px"";>מוכנים לשלם: <span id=""c_p_y""></span></p>","59","evaluation","64","27","5B,18A","55","71","59","","","","","","","","","","","","","","","","",""
"","","","","","html-keyboard-response","24","1194178","0.0-17.0-2.2","e9202174-8daa-4cbb-a128-44f6840870fb","null","<p style=""text-align: center;"">+</p>","null","fixation","","","","","","","","","","","","","","","","","","","","","","",""
"","","","","","html-slider-response","25","1195189","0.0-17.0-0.3","e9202174-8daa-4cbb-a128-44f6840870fb","1000","
                  <p style=""text-align: center;"">₪64
                                                <br>25%</p>
                  <p id=""wtp"" style=""text-align:center; margin-top: 0px; margin-bottom: 0px; font-size: 40px"";>&ensp;</p>","-","viewing","0","24","6A,21A","","","","","","","","","","","","","","","","","","","",""
"","","","","","html-slider-response","26","1197732","0.0-17.0-1.3","e9202174-8daa-4cbb-a128-44f6840870fb","2542","
                  <p style=""text-align: center;"">₪64
                                                <br>25%</p>
                  <p id=""wtp"" style=""text-align:center; margin-top: 0px; margin-bottom: 0px; font-size: 40px"";>מוכנים לשלם: <span id=""c_p_y""></span></p>","13","evaluation","36","24","6A,21A","25","64","13","","","","","","","","","","","","","","","","",""
"","","","","","html-keyboard-response","27","1199087","0.0-17.0-2.3","e9202174-8daa-4cbb-a128-44f6840870fb","null","<p style=""text-align: center;"">+</p>","null","fixation","","","","","","","","","","","","","","","","","","","","","","",""
"","","","","","html-slider-response","28","1200092","0.0-17.0-0.4","e9202174-8daa-4cbb-a128-44f6840870fb","1000","
                  <p style=""text-align: center;"">₪58
                                                <br>40%</p>
                  <p id=""wtp"" style=""text-align:center; margin-top: 0px; margin-bottom: 0px; font-size: 40px"";>&ensp;</p>","-","viewing","0","20","10C,13A,19C,21B","","","","","","","","","","","","","","","","","","","",""
"","","","","","html-slider-response","29","1202388","0.0-17.0-1.4","e9202174-8daa-4cbb-a128-44f6840870fb","2296","
                  <p style=""text-align: center;"">₪58
                                                <br>40%</p>
                  <p id=""wtp"" style=""text-align:center; margin-top: 0px; margin-bottom: 0px; font-size: 40px"";>מוכנים לשלם: <span id=""c_p_y""></span></p>","21","evaluation","20","20","10C,13A,19C,21B","40","58","21","","","","","","","","","","","","","","","","",""
"","","","","","html-keyboard-response","30","1203787","0.0-17.0-2.4","e9202174-8daa-4cbb-a128-44f6840870fb","null","<p style=""text-align: center;"">+</p>","null","fixation","","","","","","","","","","","","","","","","","","","","","","",""
"","","","","","html-slider-response","31","1204790","0.0-17.0-0.5","e9202174-8daa-4cbb-a128-44f6840870fb","1000","
                  <p style=""text-align: center;"">₪16
                                                <br>20%</p>
                  <p id=""wtp"" style=""text-align:center; margin-top: 0px; margin-bottom: 0px; font-size: 40px"";>&ensp;</p>","-","viewing","0","8","14C,17A,20C,27A","","","","","","","","","","","","","","","","","","","",""
"","","","","","html-slider-response","32","1205964","0.0-17.0-1.5","e9202174-8daa-4cbb-a128-44f6840870fb","1173","
                  <p style=""text-align: center;"">₪16
                                                <br>20%</p>
                  <p id=""wtp"" style=""text-align:center; margin-top: 0px; margin-bottom: 0px; font-size: 40px"";>מוכנים לשלם: <span id=""c_p_y""></span></p>","0","evaluation","6","8","14C,17A,20C,27A","20","16","0","","","","","","","","","","","","","","","","",""
"","","","","","html-keyboard-response","33","1206905","0.0-17.0-2.5","e9202174-8daa-4cbb-a128-44f6840870fb","null","<p style=""text-align: center;"">+</p>","null","fixation","","","","","","","","","","","","","","","","","","","","","","",""
"","","","","","html-slider-response","34","1207909","0.0-17.0-0.6","e9202174-8daa-4cbb-a128-44f6840870fb","1000","
                  <p style=""text-align: center;"">₪71
                                                <br>45%</p>
                  <p id=""wtp"" style=""text-align:center; margin-top: 0px; margin-bottom: 0px; font-size: 40px"";>&ensp;</p>","-","viewing","0","26","2B,16A","","","","","","","","","","","","","","","","","","","",""
"","","","","","html-slider-response","35","1210724","0.0-17.0-1.6","e9202174-8daa-4cbb-a128-44f6840870fb","2814","
                  <p style=""text-align: center;"">₪71
                                                <br>45%</p>
                  <p id=""wtp"" style=""text-align:center; margin-top: 0px; margin-bottom: 0px; font-size: 40px"";>מוכנים לשלם: <span id=""c_p_y""></span></p>","40","evaluation","21","26","2B,16A","45","71","40","","","","","","","","","","","","","","","","",""
"","","","","","html-keyboard-response","36","1212072","0.0-17.0-2.6","e9202174-8daa-4cbb-a128-44f6840870fb","null","<p style=""text-align: center;"">+</p>","null","fixation","","","","","","","","","","","","","","","","","","","","","","",""
"","","","","","html-slider-response","37","1213076","0.0-17.0-0.7","e9202174-8daa-4cbb-a128-44f6840870fb","1000","
                  <p style=""text-align: center;"">₪11
                                                <br>25%</p>
                  <p id=""wtp"" style=""text-align:center; margin-top: 0px; margin-bottom: 0px; font-size: 40px"";>&ensp;</p>","-","viewing","0","5","12A,27B,28B,30B","","","","","","","","","","","","","","","","","","","",""
"","","","","","html-slider-response","38","1214964","0.0-17.0-1.7","e9202174-8daa-4cbb-a128-44f6840870fb","1887","
                  <p style=""text-align: center;"">₪11
                                                <br>25%</p>
                  <p id=""wtp"" style=""text-align:center; margin-top: 0px; margin-bottom: 0px; font-size: 40px"";>מוכנים לשלם: <span id=""c_p_y""></span></p>","0","evaluation","69","5","12A,27B,28B,30B","25","11","0","","","","","","","","","","","","","","","","",""
"","","","","","html-keyboard-response","39","1215809","0.0-17.0-2.7","e9202174-8daa-4cbb-a128-44f6840870fb","null","<p style=""text-align: center;"">+</p>","null","fixation","","","","","","","","","","","","","","","","","","","","","","",""
"","","","","","html-slider-response","40","1216812","0.0-17.0-0.8","e9202174-8daa-4cbb-a128-44f6840870fb","1000","
                  <p style=""text-align: center;"">₪36
                                                <br>75%</p>
                  <p id=""wtp"" style=""text-align:center; margin-top: 0px; margin-bottom: 0px; font-size: 40px"";>&ensp;</p>","-","viewing","0","14","4B,5A,13B,16B","","","","","","","","","","","","","","","","","","","",""
"","","","","","html-slider-response","41","1218724","0.0-17.0-1.8","e9202174-8daa-4cbb-a128-44f6840870fb","1911","
                  <p style=""text-align: center;"">₪36
                                                <br>75%</p>
                  <p id=""wtp"" style=""text-align:center; margin-top: 0px; margin-bottom: 0px; font-size: 40px"";>מוכנים לשלם: <span id=""c_p_y""></span></p>","0","evaluation","12","14","4B,5A,13B,16B","75","36","0","","","","","","","","","","","","","","","","",""
"","","","","","html-keyboard-response","42","1219594","0.0-17.0-2.8","e9202174-8daa-4cbb-a128-44f6840870fb","null","<p style=""text-align: center;"">+</p>","null","fixation","","","","","","","","","","","","","","","","","","","","","","",""
"","","","","","html-slider-response","43","1220596","0.0-17.0-0.9","e9202174-8daa-4cbb-a128-44f6840870fb","1000","
                  <p style=""text-align: center;"">₪11
                                                <br>45%</p>
                  <p id=""wtp"" style=""text-align:center; margin-top: 0px; margin-bottom: 0px; font-size: 40px"";>&ensp;</p>","-","viewing","0","6","14B,21C,25C","","","","","","","","","","","","","","","","","","","",""
"","","","","","html-slider-response","44","1222220","0.0-17.0-1.9","e9202174-8daa-4cbb-a128-44f6840870fb","1623","
                  <p style=""text-align: center;"">₪11
                                                <br>45%</p>
                  <p id=""wtp"" style=""text-align:center; margin-top: 0px; margin-bottom: 0px; font-size: 40px"";>מוכנים לשלם: <span id=""c_p_y""></span></p>","0","evaluation","51","6","14B,21C,25C","45","11","0","","","","","","","","","","","","","","","","",""
"","","","","","html-keyboard-response","45","1223040","0.0-17.0-2.9","e9202174-8daa-4cbb-a128-44f6840870fb","null","<p style=""text-align: center;"">+</p>","null","fixation","","","","","","","","","","","","","","","","","","","","","","",""
"","","","","","html-slider-response","46","1224053","0.0-17.0-0.10","e9202174-8daa-4cbb-a128-44f6840870fb","1000","
                  <p style=""text-align: center;"">₪76
                                                <br>65%</p>
                  <p id=""wtp"" style=""text-align:center; margin-top: 0px; margin-bottom: 0px; font-size: 40px"";>&ensp;</p>","-","viewing","0","29","8C,19A,24B","","","","","","","","","","","","","","","","","","","",""
"","","","","","html-slider-response","47","1226756","0.0-17.0-1.10","e9202174-8daa-4cbb-a128-44f6840870fb","2702","
                  <p style=""text-align: center;"">₪76
                                                <br>65%</p>
                  <p id=""wtp"" style=""text-align:center; margin-top: 0px; margin-bottom: 0px; font-size: 40px"";>מוכנים לשלם: <span id=""c_p_y""></span></p>","61","evaluation","0","29","8C,19A,24B","65","76","61","","","","","","","","","","","","","","","","",""
"","","","","","html-keyboard-response","48","1228196","0.0-17.0-2.10","e9202174-8daa-4cbb-a128-44f6840870fb","null","<p style=""text-align: center;"">+</p>","null","fixation","","","","","","","","","","","","","","","","","","","","","","",""
"","","","","","html-slider-response","49","1229212","0.0-17.0-0.11","e9202174-8daa-4cbb-a128-44f6840870fb","1000","
                  <p style=""text-align: center;"">₪18
                                                <br>50%</p>
                  <p id=""wtp"" style=""text-align:center; margin-top: 0px; margin-bottom: 0px; font-size: 40px"";>&ensp;</p>","-","viewing","0","10","2C,16C,22B,28A","","","","","","","","","","","","","","","","","","","",""
"","","","","","html-slider-response","50","1231212","0.0-17.0-1.11","e9202174-8daa-4cbb-a128-44f6840870fb","1999","
                  <p style=""text-align: center;"">₪18
                                                <br>50%</p>
                  <p id=""wtp"" style=""text-align:center; margin-top: 0px; margin-bottom: 0px; font-size: 40px"";>מוכנים לשלם: <span id=""c_p_y""></span></p>","0","evaluation","44","10","2C,16C,22B,28A","50","18","0","","","","","","","","","","","","","","","","",""
"","","","","","html-keyboard-response","51","1232237","0.0-17.0-2.11","e9202174-8daa-4cbb-a128-44f6840870fb","null","<p style=""text-align: center;"">+</p>","null","fixation","","","","","","","","","","","","","","","","","","","","","","",""
"","","","","","html-slider-response","52","1233254","0.0-17.0-0.12","e9202174-8daa-4cbb-a128-44f6840870fb","1000","
                  <p style=""text-align: center;"">₪61
                                                <br>55%</p>
                  <p id=""wtp"" style=""text-align:center; margin-top: 0px; margin-bottom: 0px; font-size: 40px"";>&ensp;</p>","-","viewing","0","23","7B,26B","","","","","","","","","","","","","","","","","","","",""
"","","","","","html-slider-response","53","1237052","0.0-17.0-1.12","e9202174-8daa-4cbb-a128-44f6840870fb","3797","
                  <p style=""text-align: center;"">₪61
                                                <br>55%</p>
                  <p id=""wtp"" style=""text-align:center; margin-top: 0px; margin-bottom: 0px; font-size: 40px"";>מוכנים לשלם: <span id=""c_p_y""></span></p>","22","evaluation","74","23","7B,26B","55","61","22","","","","","","","","","","","","","","","","",""
"","","","","","html-keyboard-response","54","1238030","0.0-17.0-2.12","e9202174-8daa-4cbb-a128-44f6840870fb","null","<p style=""text-align: center;"">+</p>","null","fixation","","","","","","","","","","","","","","","","","","","","","","",""
"","","","","","html-slider-response","55","1239045","0.0-17.0-0.13","e9202174-8daa-4cbb-a128-44f6840870fb","1000","
                  <p style=""text-align: center;"">₪4
                                                <br>25%</p>
                  <p id=""wtp"" style=""text-align:center; margin-top: 0px; margin-bottom: 0px; font-size: 40px"";>&ensp;</p>","-","viewing","0","1","6C,29B,30C","","","","","","","","","","","","","","","","","","","",""
"","","","","","html-slider-response","56","1239700","0.0-17.0-1.13","e9202174-8daa-4cbb-a128-44f6840870fb","654","
                  <p style=""text-align: center;"">₪4
                                                <br>25%</p>
                  <p id=""wtp"" style=""text-align:center; margin-top: 0px; margin-bottom: 0px; font-size: 40px"";>מוכנים לשלם: <span id=""c_p_y""></span></p>","0","evaluation","20","1","6C,29B,30C","25","4","0","","","","","","","","","","","","","","","","",""
"","","","","","html-keyboard-response","57","1240532","0.0-17.0-2.13","e9202174-8daa-4cbb-a128-44f6840870fb","null","<p style=""text-align: center;"">+</p>","null","fixation","","","","","","","","","","","","","","","","","","","","","","",""
"","","","","","html-slider-response","58","1241548","0.0-17.0-0.14","e9202174-8daa-4cbb-a128-44f6840870fb","1000","
                  <p style=""text-align: center;"">₪11
                                                <br>75%</p>
                  <p id=""wtp"" style=""text-align:center; margin-top: 0px; margin-bottom: 0px; font-size: 40px"";>&ensp;</p>","-","viewing","0","7","6B,18B,22C,24C,29A","","","","","","","","","","","","","","","","","","","",""
"","","","","","html-slider-response","59","1242828","0.0-17.0-1.14","e9202174-8daa-4cbb-a128-44f6840870fb","1280","
                  <p style=""text-align: center;"">₪11
                                                <br>75%</p>
                  <p id=""wtp"" style=""text-align:center; margin-top: 0px; margin-bottom: 0px; font-size: 40px"";>מוכנים לשלם: <span id=""c_p_y""></span></p>","0","evaluation","33","7","6B,18B,22C,24C,29A","75","11","0","","","","","","","","","","","","","","","","",""
"","","","","","html-keyboard-response","60","1243500","0.0-17.0-2.14","e9202174-8daa-4cbb-a128-44f6840870fb","null","<p style=""text-align: center;"">+</p>","null","fixation","","","","","","","","","","","","","","","","","","","","","","",""
"","","","","","html-slider-response","61","1244511","0.0-17.0-0.15","e9202174-8daa-4cbb-a128-44f6840870fb","1000","
                  <p style=""text-align: center;"">₪39
                                                <br>65%</p>
                  <p id=""wtp"" style=""text-align:center; margin-top: 0px; margin-bottom: 0px; font-size: 40px"";>&ensp;</p>","-","viewing","0","16","1A,15A,26C","","","","","","","","","","","","","","","","","","","",""
"","","","","","html-slider-response","62","1245284","0.0-17.0-1.15","e9202174-8daa-4cbb-a128-44f6840870fb","773","
                  <p style=""text-align: center;"">₪39
                                                <br>65%</p>
                  <p id=""wtp"" style=""text-align:center; margin-top: 0px; margin-bottom: 0px; font-size: 40px"";>מוכנים לשלם: <span id=""c_p_y""></span></p>","0","evaluation","71","16","1A,15A,26C","65","39","0","","","","","","","","","","","","","","","","",""
"","","","","","html-keyboard-response","63","1246734","0.0-17.0-2.15","e9202174-8daa-4cbb-a128-44f6840870fb","null","<p style=""text-align: center;"">+</p>","null","fixation","","","","","","","","","","","","","","","","","","","","","","",""
"","","","","","html-slider-response","64","1247747","0.0-17.0-0.16","e9202174-8daa-4cbb-a128-44f6840870fb","1000","
                  <p style=""text-align: center;"">₪61
                                                <br>45%</p>
                  <p id=""wtp"" style=""text-align:center; margin-top: 0px; margin-bottom: 0px; font-size: 40px"";>&ensp;</p>","-","viewing","0","22","10A,11A","","","","","","","","","","","","","","","","","","","",""
"","","","","","html-slider-response","65","1249300","0.0-17.0-1.16","e9202174-8daa-4cbb-a128-44f6840870fb","1551","
                  <p style=""text-align: center;"">₪61
                                                <br>45%</p>
                  <p id=""wtp"" style=""text-align:center; margin-top: 0px; margin-bottom: 0px; font-size: 40px"";>מוכנים לשלם: <span id=""c_p_y""></span></p>","21","evaluation","68","22","10A,11A","45","61","21","","","","","","","","","","","","","","","","",""
"","","","","","html-keyboard-response","66","1250379","0.0-17.0-2.16","e9202174-8daa-4cbb-a128-44f6840870fb","null","<p style=""text-align: center;"">+</p>","null","fixation","","","","","","","","","","","","","","","","","","","","","","",""
"","","","","","html-slider-response","67","1251386","0.0-17.0-0.17","e9202174-8daa-4cbb-a128-44f6840870fb","1000","
                  <p style=""text-align: center;"">₪18
                                                <br>25%</p>
                  <p id=""wtp"" style=""text-align:center; margin-top: 0px; margin-bottom: 0px; font-size: 40px"";>&ensp;</p>","-","viewing","0","9","14A,23A","","","","","","","","","","","","","","","","","","","",""
"","","","","","html-slider-response","68","1252476","0.0-17.0-1.17","e9202174-8daa-4cbb-a128-44f6840870fb","1089","
                  <p style=""text-align: center;"">₪18
                                                <br>25%</p>
                  <p id=""wtp"" style=""text-align:center; margin-top: 0px; margin-bottom: 0px; font-size: 40px"";>מוכנים לשלם: <span id=""c_p_y""></span></p>","0","evaluation","5","9","14A,23A","25","18","0","","","","","","","","","","","","","","","","",""
"","","","","","html-keyboard-response","69","1253960","0.0-17.0-2.17","e9202174-8daa-4cbb-a128-44f6840870fb","null","<p style=""text-align: center;"">+</p>","null","fixation","","","","","","","","","","","","","","","","","","","","","","",""
"","","","","","html-slider-response","70","1254969","0.0-17.0-0.18","e9202174-8daa-4cbb-a128-44f6840870fb","1000","
                  <p style=""text-align: center;"">₪43
                                                <br>75%</p>
                  <p id=""wtp"" style=""text-align:center; margin-top: 0px; margin-bottom: 0px; font-size: 40px"";>&ensp;</p>","-","viewing","0","18","11B,19B,24A,26A","","","","","","","","","","","","","","","","","","","",""
"","","","","","html-slider-response","71","1255668","0.0-17.0-1.18","e9202174-8daa-4cbb-a128-44f6840870fb","698","
                  <p style=""text-align: center;"">₪43
                                                <br>75%</p>
                  <p id=""wtp"" style=""text-align:center; margin-top: 0px; margin-bottom: 0px; font-size: 40px"";>מוכנים לשלם: <span id=""c_p_y""></span></p>","0","evaluation","16","18","11B,19B,24A,26A","75","43","0","","","","","","","","","","","","","","","","",""
"","","","","","html-keyboard-response","72","1257084","0.0-17.0-2.18","e9202174-8daa-4cbb-a128-44f6840870fb","null","<p style=""text-align: center;"">+</p>","null","fixation","","","","","","","","","","","","","","","","","","","","","","",""
"","","","","","html-slider-response","73","1258092","0.0-17.0-0.19","e9202174-8daa-4cbb-a128-44f6840870fb","1000","
                  <p style=""text-align: center;"">₪58
                                                <br>45%</p>
                  <p id=""wtp"" style=""text-align:center; margin-top: 0px; margin-bottom: 0px; font-size: 40px"";>&ensp;</p>","-","viewing","0","21","11C,18C,25A","","","","","","","","","","","","","","","","","","","",""
"","","","","","html-slider-response","74","1260708","0.0-17.0-1.19","e9202174-8daa-4cbb-a128-44f6840870fb","2614","
                  <p style=""text-align: center;"">₪58
                                                <br>45%</p>
                  <p id=""wtp"" style=""text-align:center; margin-top: 0px; margin-bottom: 0px; font-size: 40px"";>מוכנים לשלם: <span id=""c_p_y""></span></p>","38","evaluation","23","21","11C,18C,25A","45","58","38","","","","","","","","","","","","","","","","",""
"","","","","","html-keyboard-response","75","1261572","0.0-17.0-2.19","e9202174-8daa-4cbb-a128-44f6840870fb","null","<p style=""text-align: center;"">+</p>","null","fixation","","","","","","","","","","","","","","","","","","","","","","",""
"","","","","","html-slider-response","76","1262579","0.0-17.0-0.20","e9202174-8daa-4cbb-a128-44f6840870fb","1000","
                  <p style=""text-align: center;"">₪4
                                                <br>50%</p>
                  <p id=""wtp"" style=""text-align:center; margin-top: 0px; margin-bottom: 0px; font-size: 40px"";>&ensp;</p>","-","viewing","0","2","4C,17B","","","","","","","","","","","","","","","","","","","",""
"","","","","","html-slider-response","77","1263820","0.0-17.0-1.20","e9202174-8daa-4cbb-a128-44f6840870fb","1240","
                  <p style=""text-align: center;"">₪4
                                                <br>50%</p>
                  <p id=""wtp"" style=""text-align:center; margin-top: 0px; margin-bottom: 0px; font-size: 40px"";>מוכנים לשלם: <span id=""c_p_y""></span></p>","2","evaluation","32","2","4C,17B","50","4","2","","","","","","","","","","","","","","","","",""
"","","","","","html-keyboard-response","78","1264581","0.0-17.0-2.20","e9202174-8daa-4cbb-a128-44f6840870fb","null","<p style=""text-align: center;"">+</p>","null","fixation","","","","","","","","","","","","","","","","","","","","","","",""
"","","","","","html-slider-response","79","1265590","0.0-17.0-0.21","e9202174-8daa-4cbb-a128-44f6840870fb","1000","
                  <p style=""text-align: center;"">₪79
                                                <br>40%</p>
                  <p id=""wtp"" style=""text-align:center; margin-top: 0px; margin-bottom: 0px; font-size: 40px"";>&ensp;</p>","-","viewing","0","30","9B","","","","","","","","","","","","","","","","","","","",""
"","","","","","html-slider-response","80","1268348","0.0-17.0-1.21","e9202174-8daa-4cbb-a128-44f6840870fb","2757","
                  <p style=""text-align: center;"">₪79
                                                <br>40%</p>
                  <p id=""wtp"" style=""text-align:center; margin-top: 0px; margin-bottom: 0px; font-size: 40px"";>מוכנים לשלם: <span id=""c_p_y""></span></p>","40","evaluation","71","30","9B","40","79","40","","","","","","","","","","","","","","","","",""
"","","","","","html-keyboard-response","81","1269166","0.0-17.0-2.21","e9202174-8daa-4cbb-a128-44f6840870fb","null","<p style=""text-align: center;"">+</p>","null","fixation","","","","","","","","","","","","","","","","","","","","","","",""
"","","","","","html-slider-response","82","1270169","0.0-17.0-0.22","e9202174-8daa-4cbb-a128-44f6840870fb","1000","
                  <p style=""text-align: center;"">₪71
                                                <br>75%</p>
                  <p id=""wtp"" style=""text-align:center; margin-top: 0px; margin-bottom: 0px; font-size: 40px"";>&ensp;</p>","-","viewing","0","28","8B","","","","","","","","","","","","","","","","","","","",""
"","","","","","html-slider-response","83","1271932","0.0-17.0-1.22","e9202174-8daa-4cbb-a128-44f6840870fb","1762","
                  <p style=""text-align: center;"">₪71
                                                <br>75%</p>
                  <p id=""wtp"" style=""text-align:center; margin-top: 0px; margin-bottom: 0px; font-size: 40px"";>מוכנים לשלם: <span id=""c_p_y""></span></p>","40","evaluation","11","28","8B","75","71","40","","","","","","","","","","","","","","","","",""
"","","","","","html-keyboard-response","84","1273365","0.0-17.0-2.22","e9202174-8daa-4cbb-a128-44f6840870fb","null","<p style=""text-align: center;"">+</p>","null","fixation","","","","","","","","","","","","","","","","","","","","","","",""
"","","","","","html-slider-response","85","1274367","0.0-17.0-0.23","e9202174-8daa-4cbb-a128-44f6840870fb","1000","
                  <p style=""text-align: center;"">₪11
                                                <br>20%</p>
                  <p id=""wtp"" style=""text-align:center; margin-top: 0px; margin-bottom: 0px; font-size: 40px"";>&ensp;</p>","-","viewing","0","4","12C,17C,23C,28C","","","","","","","","","","","","","","","","","","","",""
"","","","","","html-slider-response","86","1275556","0.0-17.0-1.23","e9202174-8daa-4cbb-a128-44f6840870fb","1188","
                  <p style=""text-align: center;"">₪11
                                                <br>20%</p>
                  <p id=""wtp"" style=""text-align:center; margin-top: 0px; margin-bottom: 0px; font-size: 40px"";>מוכנים לשלם: <span id=""c_p_y""></span></p>","0","evaluation","31","4","12C,17C,23C,28C","20","11","1","","","","","","","","","","","","","","","","",""
"","","","","","html-keyboard-response","87","1276904","0.0-17.0-2.23","e9202174-8daa-4cbb-a128-44f6840870fb","null","<p style=""text-align: center;"">+</p>","null","fixation","","","","","","","","","","","","","","","","","","","","","","",""
"","","","","","html-slider-response","88","1277909","0.0-17.0-0.24","e9202174-8daa-4cbb-a128-44f6840870fb","1000","
                  <p style=""text-align: center;"">₪36
                                                <br>60%</p>
                  <p id=""wtp"" style=""text-align:center; margin-top: 0px; margin-bottom: 0px; font-size: 40px"";>&ensp;</p>","-","viewing","0","12","1C,7C,15C","","","","","","","","","","","","","","","","","","","",""
"","","","","","html-slider-response","89","1279188","0.0-17.0-1.24","e9202174-8daa-4cbb-a128-44f6840870fb","1277","
                  <p style=""text-align: center;"">₪36
                                                <br>60%</p>
                  <p id=""wtp"" style=""text-align:center; margin-top: 0px; margin-bottom: 0px; font-size: 40px"";>מוכנים לשלם: <span id=""c_p_y""></span></p>","0","evaluation","70","12","1C,7C,15C","60","36","0","","","","","","","","","","","","","","","","",""
"","","","","","html-keyboard-response","90","1280056","0.0-17.0-2.24","e9202174-8daa-4cbb-a128-44f6840870fb","null","<p style=""text-align: center;"">+</p>","null","fixation","","","","","","","","","","","","","","","","","","","","","","",""
"","","","","","html-slider-response","91","1281064","0.0-17.0-0.25","e9202174-8daa-4cbb-a128-44f6840870fb","1000","
                  <p style=""text-align: center;"">₪36
                                                <br>30%</p>
                  <p id=""wtp"" style=""text-align:center; margin-top: 0px; margin-bottom: 0px; font-size: 40px"";>&ensp;</p>","-","viewing","0","11","3C,20A,22A","","","","","","","","","","","","","","","","","","","",""
"","","","","","html-slider-response","92","1282092","0.0-17.0-1.25","e9202174-8daa-4cbb-a128-44f6840870fb","1027","
                  <p style=""text-align: center;"">₪36
                                                <br>30%</p>
                  <p id=""wtp"" style=""text-align:center; margin-top: 0px; margin-bottom: 0px; font-size: 40px"";>מוכנים לשלם: <span id=""c_p_y""></span></p>","0","evaluation","64","11","3C,20A,22A","30","36","0","","","","","","","","","","","","","","","","",""
"","","","","","html-keyboard-response","93","1282974","0.0-17.0-2.25","e9202174-8daa-4cbb-a128-44f6840870fb","null","<p style=""text-align: center;"">+</p>","null","fixation","","","","","","","","","","","","","","","","","","","","","","",""
"","","","","","html-slider-response","94","1283983","0.0-17.0-0.26","e9202174-8daa-4cbb-a128-44f6840870fb","1000","
                  <p style=""text-align: center;"">₪43
                                                <br>60%</p>
                  <p id=""wtp"" style=""text-align:center; margin-top: 0px; margin-bottom: 0px; font-size: 40px"";>&ensp;</p>","-","viewing","0","17","2A,7A,9A,15B","","","","","","","","","","","","","","","","","","","",""
"","","","","","html-slider-response","95","1285956","0.0-17.0-1.26","e9202174-8daa-4cbb-a128-44f6840870fb","1972","
                  <p style=""text-align: center;"">₪43
                                                <br>60%</p>
                  <p id=""wtp"" style=""text-align:center; margin-top: 0px; margin-bottom: 0px; font-size: 40px"";>מוכנים לשלם: <span id=""c_p_y""></span></p>","20","evaluation","28","17","2A,7A,9A,15B","60","43","20","","","","","","","","","","","","","","","","",""
"","","","","","html-keyboard-response","96","1287236","0.0-17.0-2.26","e9202174-8daa-4cbb-a128-44f6840870fb","null","<p style=""text-align: center;"">+</p>","null","fixation","","","","","","","","","","","","","","","","","","","","","","",""
"","","","","","html-slider-response","97","1288245","0.0-17.0-0.27","e9202174-8daa-4cbb-a128-44f6840870fb","1000","
                  <p style=""text-align: center;"">₪36
                                                <br>70%</p>
                  <p id=""wtp"" style=""text-align:center; margin-top: 0px; margin-bottom: 0px; font-size: 40px"";>&ensp;</p>","-","viewing","0","13","3A,5C,10B","","","","","","","","","","","","","","","","","","","",""
"","","","","","html-slider-response","98","1289868","0.0-17.0-1.27","e9202174-8daa-4cbb-a128-44f6840870fb","1621","
                  <p style=""text-align: center;"">₪36
                                                <br>70%</p>
                  <p id=""wtp"" style=""text-align:center; margin-top: 0px; margin-bottom: 0px; font-size: 40px"";>מוכנים לשלם: <span id=""c_p_y""></span></p>","0","evaluation","19","13","3A,5C,10B","70","36","0","","","","","","","","","","","","","","","","",""
"","","","","","html-keyboard-response","99","1290889","0.0-17.0-2.27","e9202174-8daa-4cbb-a128-44f6840870fb","null","<p style=""text-align: center;"">+</p>","null","fixation","","","","","","","","","","","","","","","","","","","","","","",""
"","","","","","html-slider-response","100","1291891","0.0-17.0-0.28","e9202174-8daa-4cbb-a128-44f6840870fb","1000","
                  <p style=""text-align: center;"">₪4
                                                <br>75%</p>
                  <p id=""wtp"" style=""text-align:center; margin-top: 0px; margin-bottom: 0px; font-size: 40px"";>&ensp;</p>","-","viewing","0","3","12B,20B,23B,27C,29C","","","","","","","","","","","","","","","","","","","",""
"","","","","","html-slider-response","101","1293012","0.0-17.0-1.28","e9202174-8daa-4cbb-a128-44f6840870fb","1120","
                  <p style=""text-align: center;"">₪4
                                                <br>75%</p>
                  <p id=""wtp"" style=""text-align:center; margin-top: 0px; margin-bottom: 0px; font-size: 40px"";>מוכנים לשלם: <span id=""c_p_y""></span></p>","0","evaluation","16","3","12B,20B,23B,27C,29C","75","4","0","","","","","","","","","","","","","","","","",""
"","","","","","html-keyboard-response","102","1294450","0.0-17.0-2.28","e9202174-8daa-4cbb-a128-44f6840870fb","null","<p style=""text-align: center;"">+</p>","null","fixation","","","","","","","","","","","","","","","","","","","","","","",""
"","","","","","html-slider-response","103","1295461","0.0-17.0-0.29","e9202174-8daa-4cbb-a128-44f6840870fb","1000","
                  <p style=""text-align: center;"">₪64
                                                <br>50%</p>
                  <p id=""wtp"" style=""text-align:center; margin-top: 0px; margin-bottom: 0px; font-size: 40px"";>&ensp;</p>","-","viewing","0","25","1B,3B,4A","","","","","","","","","","","","","","","","","","","",""
"","","","","","html-slider-response","104","1297956","0.0-17.0-1.29","e9202174-8daa-4cbb-a128-44f6840870fb","2494","
                  <p style=""text-align: center;"">₪64
                                                <br>50%</p>
                  <p id=""wtp"" style=""text-align:center; margin-top: 0px; margin-bottom: 0px; font-size: 40px"";>מוכנים לשלם: <span id=""c_p_y""></span></p>","22","evaluation","70","25","1B,3B,4A","50","64","22","","","","","","","","","","","","","","","","",""
"","","","","","html-keyboard-response","105","1298805","0.0-17.0-2.29","e9202174-8daa-4cbb-a128-44f6840870fb","null","<p style=""text-align: center;"">+</p>","null","fixation","","","","","","","","","","","","","","","","","","","","","","",""
"","","","","","html-slider-response","106","1299812","0.0-17.0-0.30","e9202174-8daa-4cbb-a128-44f6840870fb","1000","
                  <p style=""text-align: center;"">₪39
                                                <br>60%</p>
                  <p id=""wtp"" style=""text-align:center; margin-top: 0px; margin-bottom: 0px; font-size: 40px"";>&ensp;</p>","-","viewing","0","15","9C,25B","","","","","","","","","","","","","","","","","","","",""
"","","","","","html-slider-response","107","1300876","0.0-17.0-1.30","e9202174-8daa-4cbb-a128-44f6840870fb","1064","
                  <p style=""text-align: center;"">₪39
                                                <br>60%</p>
                  <p id=""wtp"" style=""text-align:center; margin-top: 0px; margin-bottom: 0px; font-size: 40px"";>מוכנים לשלם: <span id=""c_p_y""></span></p>","0","evaluation","57","15","9C,25B","60","39","0","","","","","","","","","","","","","","","","",""
"","","","","","html-keyboard-response","108","1301508","0.0-17.0-2.30","e9202174-8daa-4cbb-a128-44f6840870fb","null","<p style=""text-align: center;"">+</p>","null","fixation","","","","","","","","","","","","","","","","","","","","","","",""
"","","","","","html-keyboard-response","109","1302524","0.0-18.0","e9202174-8daa-4cbb-a128-44f6840870fb","null","<p style=""text-align: center;"">+</p>","null","fixation","","","","","","","","","","","","","","","","","","","","","","",""
"","","","","","html-keyboard-response","110","1305476","0.0-19.0","e9202174-8daa-4cbb-a128-44f6840870fb","null","<p>הפסקה.
          <br>לחצו כדי להמשיך.</p>","1","scan_wait","","","","","","","","","","","","","","","","","","","","","","",""
"","","","","","html-keyboard-response","111","1306477","0.0-20.0","e9202174-8daa-4cbb-a128-44f6840870fb","null","<p style=""text-align: center;"">+</p>","null","fixation","","","","","","","","","","","","","","","","","","","","","","",""
"","","","","","html-slider-response","112","1307488","0.0-21.0-0.0","e9202174-8daa-4cbb-a128-44f6840870fb","1000","
                  <p style=""text-align: center;"">₪36
                                                <br>30%</p>
                  <p id=""wtp"" style=""text-align:center; margin-top: 0px; margin-bottom: 0px; font-size: 40px"";>&ensp;</p>","-","viewing","0","11","3C,20A,22A","","","","","","","","","","","","","","","","","","","",""
"","","","","","html-slider-response","113","1309596","0.0-21.0-1.0","e9202174-8daa-4cbb-a128-44f6840870fb","2107","
                  <p style=""text-align: center;"">₪36
                                                <br>30%</p>
                  <p id=""wtp"" style=""text-align:center; margin-top: 0px; margin-bottom: 0px; font-size: 40px"";>מוכנים לשלם: <span id=""c_p_y""></span></p>","1","evaluation","21","11","3C,20A,22A","30","36","1","","","","","","","","","","","","","","","","",""
"","","","","","html-keyboard-response","114","1310618","0.0-21.0-2.0","e9202174-8daa-4cbb-a128-44f6840870fb","null","<p style=""text-align: center;"">+</p>","null","fixation","","","","","","","","","","","","","","","","","","","","","","",""
"","","","","","html-slider-response","115","1311628","0.0-21.0-0.1","e9202174-8daa-4cbb-a128-44f6840870fb","1000","
                  <p style=""text-align: center;"">₪4
                                                <br>25%</p>
                  <p id=""wtp"" style=""text-align:center; margin-top: 0px; margin-bottom: 0px; font-size: 40px"";>&ensp;</p>","-","viewing","0","1","6C,29B,30C","","","","","","","","","","","","","","","","","","","",""
"","","","","","html-slider-response","116","1313196","0.0-21.0-1.1","e9202174-8daa-4cbb-a128-44f6840870fb","1567","
                  <p style=""text-align: center;"">₪4
                                                <br>25%</p>
                  <p id=""wtp"" style=""text-align:center; margin-top: 0px; margin-bottom: 0px; font-size: 40px"";>מוכנים לשלם: <span id=""c_p_y""></span></p>","0","evaluation","34","1","6C,29B,30C","25","4","0","","","","","","","","","","","","","","","","",""
"","","","","","html-keyboard-response","117","1313769","0.0-21.0-2.1","e9202174-8daa-4cbb-a128-44f6840870fb","null","<p style=""text-align: center;"">+</p>","null","fixation","","","","","","","","","","","","","","","","","","","","","","",""
"","","","","","html-slider-response","118","1314772","0.0-21.0-0.2","e9202174-8daa-4cbb-a128-44f6840870fb","1000","
                  <p style=""text-align: center;"">₪61
                                                <br>55%</p>
                  <p id=""wtp"" style=""text-align:center; margin-top: 0px; margin-bottom: 0px; font-size: 40px"";>&ensp;</p>","-","viewing","0","23","7B,26B","","","","","","","","","","","","","","","","","","","",""
"","","","","","html-slider-response","119","1317732","0.0-21.0-1.2","e9202174-8daa-4cbb-a128-44f6840870fb","2958","
                  <p style=""text-align: center;"">₪61
                                                <br>55%</p>
                  <p id=""wtp"" style=""text-align:center; margin-top: 0px; margin-bottom: 0px; font-size: 40px"";>מוכנים לשלם: <span id=""c_p_y""></span></p>","39","evaluation","68","23","7B,26B","55","61","39","","","","","","","","","","","","","","","","",""
"","","","","","html-keyboard-response","120","1318747","0.0-21.0-2.2","e9202174-8daa-4cbb-a128-44f6840870fb","null","<p style=""text-align: center;"">+</p>","null","fixation","","","","","","","","","","","","","","","","","","","","","","",""
"","","","","","html-slider-response","121","1319750","0.0-21.0-0.3","e9202174-8daa-4cbb-a128-44f6840870fb","1000","
                  <p style=""text-align: center;"">₪11
                                                <br>75%</p>
                  <p id=""wtp"" style=""text-align:center; margin-top: 0px; margin-bottom: 0px; font-size: 40px"";>&ensp;</p>","-","viewing","0","7","6B,18B,22C,24C,29A","","","","","","","","","","","","","","","","","","","",""
"","","","","","html-slider-response","122","1320676","0.0-21.0-1.3","e9202174-8daa-4cbb-a128-44f6840870fb","925","
                  <p style=""text-align: center;"">₪11
                                                <br>75%</p>
                  <p id=""wtp"" style=""text-align:center; margin-top: 0px; margin-bottom: 0px; font-size: 40px"";>מוכנים לשלם: <span id=""c_p_y""></span></p>","0","evaluation","2","7","6B,18B,22C,24C,29A","75","11","0","","","","","","","","","","","","","","","","",""
"","","","","","html-keyboard-response","123","1321331","0.0-21.0-2.3","e9202174-8daa-4cbb-a128-44f6840870fb","null","<p style=""text-align: center;"">+</p>","null","fixation","","","","","","","","","","","","","","","","","","","","","","",""
"","","","","","html-slider-response","124","1322341","0.0-21.0-0.4","e9202174-8daa-4cbb-a128-44f6840870fb","1000","
                  <p style=""text-align: center;"">₪58
                                                <br>30%</p>
                  <p id=""wtp"" style=""text-align:center; margin-top: 0px; margin-bottom: 0px; font-size: 40px"";>&ensp;</p>","-","viewing","0","19","13C,30A","","","","","","","","","","","","","","","","","","","",""
"","","","","","html-slider-response","125","1323972","0.0-21.0-1.4","e9202174-8daa-4cbb-a128-44f6840870fb","1630","
                  <p style=""text-align: center;"">₪58
                                                <br>30%</p>
                  <p id=""wtp"" style=""text-align:center; margin-top: 0px; margin-bottom: 0px; font-size: 40px"";>מוכנים לשלם: <span id=""c_p_y""></span></p>","0","evaluation","60","19","13C,30A","30","58","0","","","","","","","","","","","","","","","","",""
"","","","","","html-keyboard-response","126","1324928","0.0-21.0-2.4","e9202174-8daa-4cbb-a128-44f6840870fb","null","<p style=""text-align: center;"">+</p>","null","fixation","","","","","","","","","","","","","","","","","","","","","","",""
"","","","","","html-slider-response","127","1325942","0.0-21.0-0.5","e9202174-8daa-4cbb-a128-44f6840870fb","1000","
                  <p style=""text-align: center;"">₪79
                                                <br>40%</p>
                  <p id=""wtp"" style=""text-align:center; margin-top: 0px; margin-bottom: 0px; font-size: 40px"";>&ensp;</p>","-","viewing","0","30","9B","","","","","","","","","","","","","","","","","","","",""
"","","","","","html-slider-response","128","1329492","0.0-21.0-1.5","e9202174-8daa-4cbb-a128-44f6840870fb","3549","
                  <p style=""text-align: center;"">₪79
                                                <br>40%</p>
                  <p id=""wtp"" style=""text-align:center; margin-top: 0px; margin-bottom: 0px; font-size: 40px"";>מוכנים לשלם: <span id=""c_p_y""></span></p>","28","evaluation","76","30","9B","40","79","28","","","","","","","","","","","","","","","","",""
"","","","","","html-keyboard-response","129","1330687","0.0-21.0-2.5","e9202174-8daa-4cbb-a128-44f6840870fb","null","<p style=""text-align: center;"">+</p>","null","fixation","","","","","","","","","","","","","","","","","","","","","","",""
"","","","","","html-slider-response","130","1331690","0.0-21.0-0.6","e9202174-8daa-4cbb-a128-44f6840870fb","1000","
                  <p style=""text-align: center;"">₪71
                                                <br>55%</p>
                  <p id=""wtp"" style=""text-align:center; margin-top: 0px; margin-bottom: 0px; font-size: 40px"";>&ensp;</p>","-","viewing","0","27","5B,18A","","","","","","","","","","","","","","","","","","","",""
"","","","","","html-slider-response","131","1334620","0.0-21.0-1.6","e9202174-8daa-4cbb-a128-44f6840870fb","2929","
                  <p style=""text-align: center;"">₪71
                                                <br>55%</p>
                  <p id=""wtp"" style=""text-align:center; margin-top: 0px; margin-bottom: 0px; font-size: 40px"";>מוכנים לשלם: <span id=""c_p_y""></span></p>","33","evaluation","14","27","5B,18A","55","71","33","","","","","","","","","","","","","","","","",""
"","","","","","html-keyboard-response","132","1335506","0.0-21.0-2.6","e9202174-8daa-4cbb-a128-44f6840870fb","null","<p style=""text-align: center;"">+</p>","null","fixation","","","","","","","","","","","","","","","","","","","","","","",""
"","","","","","html-slider-response","133","1336515","0.0-21.0-0.7","e9202174-8daa-4cbb-a128-44f6840870fb","1000","
                  <p style=""text-align: center;"">₪11
                                                <br>25%</p>
                  <p id=""wtp"" style=""text-align:center; margin-top: 0px; margin-bottom: 0px; font-size: 40px"";>&ensp;</p>","-","viewing","0","5","12A,27B,28B,30B","","","","","","","","","","","","","","","","","","","",""
"","","","","","html-slider-response","134","1337188","0.0-21.0-1.7","e9202174-8daa-4cbb-a128-44f6840870fb","672","
                  <p style=""text-align: center;"">₪11
                                                <br>25%</p>
                  <p id=""wtp"" style=""text-align:center; margin-top: 0px; margin-bottom: 0px; font-size: 40px"";>מוכנים לשלם: <span id=""c_p_y""></span></p>","0","evaluation","59","5","12A,27B,28B,30B","25","11","0","","","","","","","","","","","","","","","","",""
"","","","","","html-keyboard-response","135","1338391","0.0-21.0-2.7","e9202174-8daa-4cbb-a128-44f6840870fb","null","<p style=""text-align: center;"">+</p>","null","fixation","","","","","","","","","","","","","","","","","","","","","","",""
"","","","","","html-slider-response","136","1339406","0.0-21.0-0.8","e9202174-8daa-4cbb-a128-44f6840870fb","1000","
                  <p style=""text-align: center;"">₪36
                                                <br>60%</p>
                  <p id=""wtp"" style=""text-align:center; margin-top: 0px; margin-bottom: 0px; font-size: 40px"";>&ensp;</p>","-","viewing","0","12","1C,7C,15C","","","","","","","","","","","","","","","","","","","",""
"","","","","","html-slider-response","137","1342196","0.0-21.0-1.8","e9202174-8daa-4cbb-a128-44f6840870fb","2789","
                  <p style=""text-align: center;"">₪36
                                                <br>60%</p>
                  <p id=""wtp"" style=""text-align:center; margin-top: 0px; margin-bottom: 0px; font-size: 40px"";>מוכנים לשלם: <span id=""c_p_y""></span></p>","24","evaluation","59","12","1C,7C,15C","60","36","24","","","","","","","","","","","","","","","","",""
"","","","","","html-keyboard-response","138","1343256","0.0-21.0-2.8","e9202174-8daa-4cbb-a128-44f6840870fb","null","<p style=""text-align: center;"">+</p>","null","fixation","","","","","","","","","","","","","","","","","","","","","","",""
"","","","","","html-slider-response","139","1344258","0.0-21.0-0.9","e9202174-8daa-4cbb-a128-44f6840870fb","1000","
                  <p style=""text-align: center;"">₪36
                                                <br>75%</p>
                  <p id=""wtp"" style=""text-align:center; margin-top: 0px; margin-bottom: 0px; font-size: 40px"";>&ensp;</p>","-","viewing","0","14","4B,5A,13B,16B","","","","","","","","","","","","","","","","","","","",""
"","","","","","html-slider-response","140","1345068","0.0-21.0-1.9","e9202174-8daa-4cbb-a128-44f6840870fb","808","
                  <p style=""text-align: center;"">₪36
                                                <br>75%</p>
                  <p id=""wtp"" style=""text-align:center; margin-top: 0px; margin-bottom: 0px; font-size: 40px"";>מוכנים לשלם: <span id=""c_p_y""></span></p>","20","evaluation","64","14","4B,5A,13B,16B","75","36","20","","","","","","","","","","","","","","","","",""
"","","","","","html-keyboard-response","141","1346579","0.0-21.0-2.9","e9202174-8daa-4cbb-a128-44f6840870fb","null","<p style=""text-align: center;"">+</p>","null","fixation","","","","","","","","","","","","","","","","","","","","","","",""
"","","","","","html-slider-response","142","1347582","0.0-21.0-0.10","e9202174-8daa-4cbb-a128-44f6840870fb","1000","
                  <p style=""text-align: center;"">₪11
                                                <br>45%</p>
                  <p id=""wtp"" style=""text-align:center; margin-top: 0px; margin-bottom: 0px; font-size: 40px"";>&ensp;</p>","-","viewing","0","6","14B,21C,25C","","","","","","","","","","","","","","","","","","","",""
"","","","","","html-slider-response","143","1349116","0.0-21.0-1.10","e9202174-8daa-4cbb-a128-44f6840870fb","1533","
                  <p style=""text-align: center;"">₪11
                                                <br>45%</p>
                  <p id=""wtp"" style=""text-align:center; margin-top: 0px; margin-bottom: 0px; font-size: 40px"";>מוכנים לשלם: <span id=""c_p_y""></span></p>","0","evaluation","71","6","14B,21C,25C","45","11","0","","","","","","","","","","","","","","","","",""
"","","","","","html-keyboard-response","144","1350595","0.0-21.0-2.10","e9202174-8daa-4cbb-a128-44f6840870fb","null","<p style=""text-align: center;"">+</p>","null","fixation","","","","","","","","","","","","","","","","","","","","","","",""
"","","","","","html-slider-response","145","1351601","0.0-21.0-0.11","e9202174-8daa-4cbb-a128-44f6840870fb","1000","
                  <p style=""text-align: center;"">₪71
                                                <br>45%</p>
                  <p id=""wtp"" style=""text-align:center; margin-top: 0px; margin-bottom: 0px; font-size: 40px"";>&ensp;</p>","-","viewing","0","26","2B,16A","","","","","","","","","","","","","","","","","","","",""
"","","","","","html-slider-response","146","1354596","0.0-21.0-1.11","e9202174-8daa-4cbb-a128-44f6840870fb","2994","
                  <p style=""text-align: center;"">₪71
                                                <br>45%</p>
                  <p id=""wtp"" style=""text-align:center; margin-top: 0px; margin-bottom: 0px; font-size: 40px"";>מוכנים לשלם: <span id=""c_p_y""></span></p>","38","evaluation","75","26","2B,16A","45","71","38","","","","","","","","","","","","","","","","",""
"","","","","","html-keyboard-response","147","1355430","0.0-21.0-2.11","e9202174-8daa-4cbb-a128-44f6840870fb","null","<p style=""text-align: center;"">+</p>","null","fixation","","","","","","","","","","","","","","","","","","","","","","",""
"","","","","","html-slider-response","148","1356437","0.0-21.0-0.12","e9202174-8daa-4cbb-a128-44f6840870fb","1000","
                  <p style=""text-align: center;"">₪18
                                                <br>50%</p>
                  <p id=""wtp"" style=""text-align:center; margin-top: 0px; margin-bottom: 0px; font-size: 40px"";>&ensp;</p>","-","viewing","0","10","2C,16C,22B,28A","","","","","","","","","","","","","","","","","","","",""
"","","","","","html-slider-response","149","1357700","0.0-21.0-1.12","e9202174-8daa-4cbb-a128-44f6840870fb","1262","
                  <p style=""text-align: center;"">₪18
                                                <br>50%</p>
                  <p id=""wtp"" style=""text-align:center; margin-top: 0px; margin-bottom: 0px; font-size: 40px"";>מוכנים לשלם: <span id=""c_p_y""></span></p>","20","evaluation","51","10","2C,16C,22B,28A","50","18","20","","","","","","","","","","","","","","","","",""
"","","","","","html-keyboard-response","150","1358547","0.0-21.0-2.12","e9202174-8daa-4cbb-a128-44f6840870fb","null","<p style=""text-align: center;"">+</p>","null","fixation","","","","","","","","","","","","","","","","","","","","","","",""
"","","","","","html-slider-response","151","1359560","0.0-21.0-0.13","e9202174-8daa-4cbb-a128-44f6840870fb","1000","
                  <p style=""text-align: center;"">₪43
                                                <br>75%</p>
                  <p id=""wtp"" style=""text-align:center; margin-top: 0px; margin-bottom: 0px; font-size: 40px"";>&ensp;</p>","-","viewing","0","18","11B,19B,24A,26A","","","","","","","","","","","","","","","","","","","",""
"","","","","","html-slider-response","152","1361220","0.0-21.0-1.13","e9202174-8daa-4cbb-a128-44f6840870fb","1658","
                  <p style=""text-align: center;"">₪43
                                                <br>75%</p>
                  <p id=""wtp"" style=""text-align:center; margin-top: 0px; margin-bottom: 0px; font-size: 40px"";>מוכנים לשלם: <span id=""c_p_y""></span></p>","21","evaluation","74","18","11B,19B,24A,26A","75","43","21","","","","","","","","","","","","","","","","",""
"","","","","","html-keyboard-response","153","1362494","0.0-21.0-2.13","e9202174-8daa-4cbb-a128-44f6840870fb","null","<p style=""text-align: center;"">+</p>","null","fixation","","","","","","","","","","","","","","","","","","","","","","",""
"","","","","","html-slider-response","154","1363500","0.0-21.0-0.14","e9202174-8daa-4cbb-a128-44f6840870fb","1000","
                  <p style=""text-align: center;"">₪64
                                                <br>50%</p>
                  <p id=""wtp"" style=""text-align:center; margin-top: 0px; margin-bottom: 0px; font-size: 40px"";>&ensp;</p>","-","viewing","0","25","1B,3B,4A","","","","","","","","","","","","","","","","","","","",""
"","","","","","html-slider-response","155","1366708","0.0-21.0-1.14","e9202174-8daa-4cbb-a128-44f6840870fb","3207","
                  <p style=""text-align: center;"">₪64
                                                <br>50%</p>
                  <p id=""wtp"" style=""text-align:center; margin-top: 0px; margin-bottom: 0px; font-size: 40px"";>מוכנים לשלם: <span id=""c_p_y""></span></p>","32","evaluation","52","25","1B,3B,4A","50","64","32","","","","","","","","","","","","","","","","",""
"","","","","","html-keyboard-response","156","1367949","0.0-21.0-2.14","e9202174-8daa-4cbb-a128-44f6840870fb","null","<p style=""text-align: center;"">+</p>","null","fixation","","","","","","","","","","","","","","","","","","","","","","",""
"","","","","","html-slider-response","157","1368952","0.0-21.0-0.15","e9202174-8daa-4cbb-a128-44f6840870fb","1000","
                  <p style=""text-align: center;"">₪16
                                                <br>20%</p>
                  <p id=""wtp"" style=""text-align:center; margin-top: 0px; margin-bottom: 0px; font-size: 40px"";>&ensp;</p>","-","viewing","0","8","14C,17A,20C,27A","","","","","","","","","","","","","","","","","","","",""
"","","","","","html-slider-response","158","1372916","0.0-21.0-1.15","e9202174-8daa-4cbb-a128-44f6840870fb","3962","
                  <p style=""text-align: center;"">₪16
                                                <br>20%</p>
                  <p id=""wtp"" style=""text-align:center; margin-top: 0px; margin-bottom: 0px; font-size: 40px"";>מוכנים לשלם: <span id=""c_p_y""></span></p>","0","evaluation","25","8","14C,17A,20C,27A","20","16","0","","","","","","","","","","","","","","","","",""
"","","","","","html-keyboard-response","159","1374002","0.0-21.0-2.15","e9202174-8daa-4cbb-a128-44f6840870fb","null","<p style=""text-align: center;"">+</p>","null","fixation","","","","","","","","","","","","","","","","","","","","","","",""
"","","","","","html-slider-response","160","1375003","0.0-21.0-0.16","e9202174-8daa-4cbb-a128-44f6840870fb","1000","
                  <p style=""text-align: center;"">₪61
                                                <br>45%</p>
                  <p id=""wtp"" style=""text-align:center; margin-top: 0px; margin-bottom: 0px; font-size: 40px"";>&ensp;</p>","-","viewing","0","22","10A,11A","","","","","","","","","","","","","","","","","","","",""
"","","","","","html-slider-response","161","1378004","0.0-21.0-1.16","e9202174-8daa-4cbb-a128-44f6840870fb","3000","
                  <p style=""text-align: center;"">₪61
                                                <br>45%</p>
                  <p id=""wtp"" style=""text-align:center; margin-top: 0px; margin-bottom: 0px; font-size: 40px"";>מוכנים לשלם: <span id=""c_p_y""></span></p>","40","evaluation","53","22","10A,11A","45","61","40","","","","","","","","","","","","","","","","",""
"","","","","","html-keyboard-response","162","1379165","0.0-21.0-2.16","e9202174-8daa-4cbb-a128-44f6840870fb","null","<p style=""text-align: center;"">+</p>","null","fixation","","","","","","","","","","","","","","","","","","","","","","",""
"","","","","","html-slider-response","163","1380176","0.0-21.0-0.17","e9202174-8daa-4cbb-a128-44f6840870fb","1000","
                  <p style=""text-align: center;"">₪76
                                                <br>65%</p>
                  <p id=""wtp"" style=""text-align:center; margin-top: 0px; margin-bottom: 0px; font-size: 40px"";>&ensp;</p>","-","viewing","0","29","8C,19A,24B","","","","","","","","","","","","","","","","","","","",""
"","","","","","html-slider-response","164","1381860","0.0-21.0-1.17","e9202174-8daa-4cbb-a128-44f6840870fb","1682","
                  <p style=""text-align: center;"">₪76
                                                <br>65%</p>
                  <p id=""wtp"" style=""text-align:center; margin-top: 0px; margin-bottom: 0px; font-size: 40px"";>מוכנים לשלם: <span id=""c_p_y""></span></p>","40","evaluation","33","29","8C,19A,24B","65","76","40","","","","","","","","","","","","","","","","",""
"","","","","","html-keyboard-response","165","1382912","0.0-21.0-2.17","e9202174-8daa-4cbb-a128-44f6840870fb","null","<p style=""text-align: center;"">+</p>","null","fixation","","","","","","","","","","","","","","","","","","","","","","",""
"","","","","","html-slider-response","166","1383917","0.0-21.0-0.18","e9202174-8daa-4cbb-a128-44f6840870fb","1000","
                  <p style=""text-align: center;"">₪11
                                                <br>20%</p>
                  <p id=""wtp"" style=""text-align:center; margin-top: 0px; margin-bottom: 0px; font-size: 40px"";>&ensp;</p>","-","viewing","0","4","12C,17C,23C,28C","","","","","","","","","","","","","","","","","","","",""
"","","","","","html-slider-response","167","1384820","0.0-21.0-1.18","e9202174-8daa-4cbb-a128-44f6840870fb","902","
                  <p style=""text-align: center;"">₪11
                                                <br>20%</p>
                  <p id=""wtp"" style=""text-align:center; margin-top: 0px; margin-bottom: 0px; font-size: 40px"";>מוכנים לשלם: <span id=""c_p_y""></span></p>","0","evaluation","57","4","12C,17C,23C,28C","20","11","0","","","","","","","","","","","","","","","","",""
"","","","","","html-keyboard-response","168","1386162","0.0-21.0-2.18","e9202174-8daa-4cbb-a128-44f6840870fb","null","<p style=""text-align: center;"">+</p>","null","fixation","","","","","","","","","","","","","","","","","","","","","","",""
"","","","","","html-slider-response","169","1387164","0.0-21.0-0.19","e9202174-8daa-4cbb-a128-44f6840870fb","1000","
                  <p style=""text-align: center;"">₪71
                                                <br>75%</p>
                  <p id=""wtp"" style=""text-align:center; margin-top: 0px; margin-bottom: 0px; font-size: 40px"";>&ensp;</p>","-","viewing","0","28","8B","","","","","","","","","","","","","","","","","","","",""
"","","","","","html-slider-response","170","1389284","0.0-21.0-1.19","e9202174-8daa-4cbb-a128-44f6840870fb","2119","
                  <p style=""text-align: center;"">₪71
                                                <br>75%</p>
                  <p id=""wtp"" style=""text-align:center; margin-top: 0px; margin-bottom: 0px; font-size: 40px"";>מוכנים לשלם: <span id=""c_p_y""></span></p>","40","evaluation","38","28","8B","75","71","40","","","","","","","","","","","","","","","","",""
"","","","","","html-keyboard-response","171","1390197","0.0-21.0-2.19","e9202174-8daa-4cbb-a128-44f6840870fb","null","<p style=""text-align: center;"">+</p>","null","fixation","","","","","","","","","","","","","","","","","","","","","","",""
"","","","","","html-slider-response","172","1391208","0.0-21.0-0.20","e9202174-8daa-4cbb-a128-44f6840870fb","1000","
                  <p style=""text-align: center;"">₪4
                                                <br>50%</p>
                  <p id=""wtp"" style=""text-align:center; margin-top: 0px; margin-bottom: 0px; font-size: 40px"";>&ensp;</p>","-","viewing","0","2","4C,17B","","","","","","","","","","","","","","","","","","","",""
"","","","","","html-slider-response","173","1392004","0.0-21.0-1.20","e9202174-8daa-4cbb-a128-44f6840870fb","795","
                  <p style=""text-align: center;"">₪4
                                                <br>50%</p>
                  <p id=""wtp"" style=""text-align:center; margin-top: 0px; margin-bottom: 0px; font-size: 40px"";>מוכנים לשלם: <span id=""c_p_y""></span></p>","0","evaluation","44","2","4C,17B","50","4","0","","","","","","","","","","","","","","","","",""
"","","","","","html-keyboard-response","174","1392618","0.0-21.0-2.20","e9202174-8daa-4cbb-a128-44f6840870fb","null","<p style=""text-align: center;"">+</p>","null","fixation","","","","","","","","","","","","","","","","","","","","","","",""
"","","","","","html-slider-response","175","1393619","0.0-21.0-0.21","e9202174-8daa-4cbb-a128-44f6840870fb","1000","
                  <p style=""text-align: center;"">₪39
                                                <br>65%</p>
                  <p id=""wtp"" style=""text-align:center; margin-top: 0px; margin-bottom: 0px; font-size: 40px"";>&ensp;</p>","-","viewing","0","16","1A,15A,26C","","","","","","","","","","","","","","","","","","","",""
"","","","","","html-slider-response","176","1395588","0.0-21.0-1.21","e9202174-8daa-4cbb-a128-44f6840870fb","1969","
                  <p style=""text-align: center;"">₪39
                                                <br>65%</p>
                  <p id=""wtp"" style=""text-align:center; margin-top: 0px; margin-bottom: 0px; font-size: 40px"";>מוכנים לשלם: <span id=""c_p_y""></span></p>","20","evaluation","36","16","1A,15A,26C","65","39","20","","","","","","","","","","","","","","","","",""
"","","","","","html-keyboard-response","177","1396342","0.0-21.0-2.21","e9202174-8daa-4cbb-a128-44f6840870fb","null","<p style=""text-align: center;"">+</p>","null","fixation","","","","","","","","","","","","","","","","","","","","","","",""
"","","","","","html-slider-response","178","1397344","0.0-21.0-0.22","e9202174-8daa-4cbb-a128-44f6840870fb","1000","
                  <p style=""text-align: center;"">₪79
                                                <br>65%</p>
                  <p id=""wtp"" style=""text-align:center; margin-top: 0px; margin-bottom: 0px; font-size: 40px"";>&ensp;</p>","-","viewing","0","31","8A","","","","","","","","","","","","","","","","","","","",""
"","","","","","html-slider-response","179","1400076","0.0-21.0-1.22","e9202174-8daa-4cbb-a128-44f6840870fb","2731","
                  <p style=""text-align: center;"">₪79
                                                <br>65%</p>
                  <p id=""wtp"" style=""text-align:center; margin-top: 0px; margin-bottom: 0px; font-size: 40px"";>מוכנים לשלם: <span id=""c_p_y""></span></p>","60","evaluation","12","31","8A","65","79","60","","","","","","","","","","","","","","","","",""
"","","","","","html-keyboard-response","180","1401295","0.0-21.0-2.22","e9202174-8daa-4cbb-a128-44f6840870fb","null","<p style=""text-align: center;"">+</p>","null","fixation","","","","","","","","","","","","","","","","","","","","","","",""
"","","","","","html-slider-response","181","1402299","0.0-21.0-0.23","e9202174-8daa-4cbb-a128-44f6840870fb","1000","
                  <p style=""text-align: center;"">₪39
                                                <br>60%</p>
                  <p id=""wtp"" style=""text-align:center; margin-top: 0px; margin-bottom: 0px; font-size: 40px"";>&ensp;</p>","-","viewing","0","15","9C,25B","","","","","","","","","","","","","","","","","","","",""
"","","","","","html-slider-response","182","1403364","0.0-21.0-1.23","e9202174-8daa-4cbb-a128-44f6840870fb","1065","
                  <p style=""text-align: center;"">₪39
                                                <br>60%</p>
                  <p id=""wtp"" style=""text-align:center; margin-top: 0px; margin-bottom: 0px; font-size: 40px"";>מוכנים לשלם: <span id=""c_p_y""></span></p>","0","evaluation","64","15","9C,25B","60","39","0","","","","","","","","","","","","","","","","",""
"","","","","","html-keyboard-response","183","1404717","0.0-21.0-2.23","e9202174-8daa-4cbb-a128-44f6840870fb","null","<p style=""text-align: center;"">+</p>","null","fixation","","","","","","","","","","","","","","","","","","","","","","",""
"","","","","","html-slider-response","184","1405717","0.0-21.0-0.24","e9202174-8daa-4cbb-a128-44f6840870fb","1000","
                  <p style=""text-align: center;"">₪18
                                                <br>25%</p>
                  <p id=""wtp"" style=""text-align:center; margin-top: 0px; margin-bottom: 0px; font-size: 40px"";>&ensp;</p>","-","viewing","0","9","14A,23A","","","","","","","","","","","","","","","","","","","",""
"","","","","","html-slider-response","185","1406964","0.0-21.0-1.24","e9202174-8daa-4cbb-a128-44f6840870fb","1246","
                  <p style=""text-align: center;"">₪18
                                                <br>25%</p>
                  <p id=""wtp"" style=""text-align:center; margin-top: 0px; margin-bottom: 0px; font-size: 40px"";>מוכנים לשלם: <span id=""c_p_y""></span></p>","0","evaluation","27","9","14A,23A","25","18","0","","","","","","","","","","","","","","","","",""
"","","","","","html-keyboard-response","186","1408037","0.0-21.0-2.24","e9202174-8daa-4cbb-a128-44f6840870fb","null","<p style=""text-align: center;"">+</p>","null","fixation","","","","","","","","","","","","","","","","","","","","","","",""
"","","","","","html-slider-response","187","1409038","0.0-21.0-0.25","e9202174-8daa-4cbb-a128-44f6840870fb","1000","
                  <p style=""text-align: center;"">₪4
                                                <br>75%</p>
                  <p id=""wtp"" style=""text-align:center; margin-top: 0px; margin-bottom: 0px; font-size: 40px"";>&ensp;</p>","-","viewing","0","3","12B,20B,23B,27C,29C","","","","","","","","","","","","","","","","","","","",""
"","","","","","html-slider-response","188","1411868","0.0-21.0-1.25","e9202174-8daa-4cbb-a128-44f6840870fb","2829","
                  <p style=""text-align: center;"">₪4
                                                <br>75%</p>
                  <p id=""wtp"" style=""text-align:center; margin-top: 0px; margin-bottom: 0px; font-size: 40px"";>מוכנים לשלם: <span id=""c_p_y""></span></p>","0","evaluation","37","3","12B,20B,23B,27C,29C","75","4","0","","","","","","","","","","","","","","","","",""
"","","","","","html-keyboard-response","189","1413019","0.0-21.0-2.25","e9202174-8daa-4cbb-a128-44f6840870fb","null","<p style=""text-align: center;"">+</p>","null","fixation","","","","","","","","","","","","","","","","","","","","","","",""
"","","","","","html-slider-response","190","1414030","0.0-21.0-0.26","e9202174-8daa-4cbb-a128-44f6840870fb","1000","
                  <p style=""text-align: center;"">₪58
                                                <br>45%</p>
                  <p id=""wtp"" style=""text-align:center; margin-top: 0px; margin-bottom: 0px; font-size: 40px"";>&ensp;</p>","-","viewing","0","21","11C,18C,25A","","","","","","","","","","","","","","","","","","","",""
"","","","","","html-slider-response","191","1415148","0.0-21.0-1.26","e9202174-8daa-4cbb-a128-44f6840870fb","1116","
                  <p style=""text-align: center;"">₪58
                                                <br>45%</p>
                  <p id=""wtp"" style=""text-align:center; margin-top: 0px; margin-bottom: 0px; font-size: 40px"";>מוכנים לשלם: <span id=""c_p_y""></span></p>","0","evaluation","75","21","11C,18C,25A","45","58","0","","","","","","","","","","","","","","","","",""
"","","","","","html-keyboard-response","192","1415666","0.0-21.0-2.26","e9202174-8daa-4cbb-a128-44f6840870fb","null","<p style=""text-align: center;"">+</p>","null","fixation","","","","","","","","","","","","","","","","","","","","","","",""
"","","","","","html-slider-response","193","1416683","0.0-21.0-0.27","e9202174-8daa-4cbb-a128-44f6840870fb","1000","
                  <p style=""text-align: center;"">₪36
                                                <br>70%</p>
                  <p id=""wtp"" style=""text-align:center; margin-top: 0px; margin-bottom: 0px; font-size: 40px"";>&ensp;</p>","-","viewing","0","13","3A,5C,10B","","","","","","","","","","","","","","","","","","","",""
"","","","","","html-slider-response","194","1418804","0.0-21.0-1.27","e9202174-8daa-4cbb-a128-44f6840870fb","2120","
                  <p style=""text-align: center;"">₪36
                                                <br>70%</p>
                  <p id=""wtp"" style=""text-align:center; margin-top: 0px; margin-bottom: 0px; font-size: 40px"";>מוכנים לשלם: <span id=""c_p_y""></span></p>","20","evaluation","6","13","3A,5C,10B","70","36","20","","","","","","","","","","","","","","","","",""
"","","","","","html-keyboard-response","195","1420117","0.0-21.0-2.27","e9202174-8daa-4cbb-a128-44f6840870fb","null","<p style=""text-align: center;"">+</p>","null","fixation","","","","","","","","","","","","","","","","","","","","","","",""
"","","","","","html-slider-response","196","1421126","0.0-21.0-0.28","e9202174-8daa-4cbb-a128-44f6840870fb","1000","
                  <p style=""text-align: center;"">₪58
                                                <br>40%</p>
                  <p id=""wtp"" style=""text-align:center; margin-top: 0px; margin-bottom: 0px; font-size: 40px"";>&ensp;</p>","-","viewing","0","20","10C,13A,19C,21B","","","","","","","","","","","","","","","","","","","",""
"","","","","","html-slider-response","197","1424980","0.0-21.0-1.28","e9202174-8daa-4cbb-a128-44f6840870fb","3853","
                  <p style=""text-align: center;"">₪58
                                                <br>40%</p>
                  <p id=""wtp"" style=""text-align:center; margin-top: 0px; margin-bottom: 0px; font-size: 40px"";>מוכנים לשלם: <span id=""c_p_y""></span></p>","41","evaluation","6","20","10C,13A,19C,21B","40","58","41","","","","","","","","","","","","","","","","",""
"","","","","","html-keyboard-response","198","1425838","0.0-21.0-2.28","e9202174-8daa-4cbb-a128-44f6840870fb","null","<p style=""text-align: center;"">+</p>","null","fixation","","","","","","","","","","","","","","","","","","","","","","",""
"","","","","","html-slider-response","199","1426843","0.0-21.0-0.29","e9202174-8daa-4cbb-a128-44f6840870fb","1000","
                  <p style=""text-align: center;"">₪43
                                                <br>60%</p>
                  <p id=""wtp"" style=""text-align:center; margin-top: 0px; margin-bottom: 0px; font-size: 40px"";>&ensp;</p>","-","viewing","0","17","2A,7A,9A,15B","","","","","","","","","","","","","","","","","","","",""
"","","","","","html-slider-response","200","1428748","0.0-21.0-1.29","e9202174-8daa-4cbb-a128-44f6840870fb","1904","
                  <p style=""text-align: center;"">₪43
                                                <br>60%</p>
                  <p id=""wtp"" style=""text-align:center; margin-top: 0px; margin-bottom: 0px; font-size: 40px"";>מוכנים לשלם: <span id=""c_p_y""></span></p>","40","evaluation","47","17","2A,7A,9A,15B","60","43","40","","","","","","","","","","","","","","","","",""
"","","","","","html-keyboard-response","201","1429372","0.0-21.0-2.29","e9202174-8daa-4cbb-a128-44f6840870fb","null","<p style=""text-align: center;"">+</p>","null","fixation","","","","","","","","","","","","","","","","","","","","","","",""
"","","","","","html-slider-response","202","1430381","0.0-21.0-0.30","e9202174-8daa-4cbb-a128-44f6840870fb","1000","
                  <p style=""text-align: center;"">₪64
                                                <br>25%</p>
                  <p id=""wtp"" style=""text-align:center; margin-top: 0px; margin-bottom: 0px; font-size: 40px"";>&ensp;</p>","-","viewing","0","24","6A,21A","","","","","","","","","","","","","","","","","","","",""
"","","","","","html-slider-response","203","1434393","0.0-21.0-1.30","e9202174-8daa-4cbb-a128-44f6840870fb","null","
                  <p style=""text-align: center;"">₪64
                                                <br>25%</p>
                  <p id=""wtp"" style=""text-align:center; margin-top: 0px; margin-bottom: 0px; font-size: 40px"";>מוכנים לשלם: <span id=""c_p_y""></span></p>","null","evaluation","68","24","6A,21A","25","64","22","","","","","","","","","","","","","","","","",""
"","","","","","html-keyboard-response","204","1435538","0.0-21.0-2.30","e9202174-8daa-4cbb-a128-44f6840870fb","null","<p style=""text-align: center;"">+</p>","null","fixation","","","","","","","","","","","","","","","","","","","","","","",""
"","","","","","html-keyboard-response","205","1436554","0.0-22.0","e9202174-8daa-4cbb-a128-44f6840870fb","null","<p style=""text-align: center;"">+</p>","null","fixation","","","","","","","","","","","","","","","","","","","","","","",""
"","","","","","html-keyboard-response","206","1440396","0.0-23.0","e9202174-8daa-4cbb-a128-44f6840870fb","null","<p>הפסקה.
          <br>לחצו כדי להמשיך.</p>","1","scan_wait","","","","","","","","","","","","","","","","","","","","","","",""
"","","","","","html-keyboard-response","207","1441408","0.0-24.0","e9202174-8daa-4cbb-a128-44f6840870fb","null","<p style=""text-align: center;"">+</p>","null","fixation","","","","","","","","","","","","","","","","","","","","","","",""
"","","","","","html-slider-response","208","1442423","0.0-25.0-0.0","e9202174-8daa-4cbb-a128-44f6840870fb","1000","
                  <p style=""text-align: center;"">₪64
                                                <br>25%</p>
                  <p id=""wtp"" style=""text-align:center; margin-top: 0px; margin-bottom: 0px; font-size: 40px"";>&ensp;</p>","-","viewing","0","24","6A,21A","","","","","","","","","","","","","","","","","","","",""
"","","","","","html-slider-response","209","1445116","0.0-25.0-1.0","e9202174-8daa-4cbb-a128-44f6840870fb","2692","
                  <p style=""text-align: center;"">₪64
                                                <br>25%</p>
                  <p id=""wtp"" style=""text-align:center; margin-top: 0px; margin-bottom: 0px; font-size: 40px"";>מוכנים לשלם: <span id=""c_p_y""></span></p>","20","evaluation","20","24","6A,21A","25","64","20","","","","","","","","","","","","","","","","",""
"","","","","","html-keyboard-response","210","1446301","0.0-25.0-2.0","e9202174-8daa-4cbb-a128-44f6840870fb","null","<p style=""text-align: center;"">+</p>","null","fixation","","","","","","","","","","","","","","","","","","","","","","",""
"","","","","","html-slider-response","211","1447313","0.0-25.0-0.1","e9202174-8daa-4cbb-a128-44f6840870fb","1000","
                  <p style=""text-align: center;"">₪36
                                                <br>75%</p>
                  <p id=""wtp"" style=""text-align:center; margin-top: 0px; margin-bottom: 0px; font-size: 40px"";>&ensp;</p>","-","viewing","0","14","4B,5A,13B,16B","","","","","","","","","","","","","","","","","","","",""
"","","","","","html-slider-response","212","1448748","0.0-25.0-1.1","e9202174-8daa-4cbb-a128-44f6840870fb","1434","
                  <p style=""text-align: center;"">₪36
                                                <br>75%</p>
                  <p id=""wtp"" style=""text-align:center; margin-top: 0px; margin-bottom: 0px; font-size: 40px"";>מוכנים לשלם: <span id=""c_p_y""></span></p>","0","evaluation","47","14","4B,5A,13B,16B","75","36","0","","","","","","","","","","","","","","","","",""
"","","","","","html-keyboard-response","213","1450141","0.0-25.0-2.1","e9202174-8daa-4cbb-a128-44f6840870fb","null","<p style=""text-align: center;"">+</p>","null","fixation","","","","","","","","","","","","","","","","","","","","","","",""
"","","","","","html-slider-response","214","1451148","0.0-25.0-0.2","e9202174-8daa-4cbb-a128-44f6840870fb","1000","
                  <p style=""text-align: center;"">₪79
                                                <br>65%</p>
                  <p id=""wtp"" style=""text-align:center; margin-top: 0px; margin-bottom: 0px; font-size: 40px"";>&ensp;</p>","-","viewing","0","31","8A","","","","","","","","","","","","","","","","","","","",""
"","","","","","html-slider-response","215","1453876","0.0-25.0-1.2","e9202174-8daa-4cbb-a128-44f6840870fb","2728","
                  <p style=""text-align: center;"">₪79
                                                <br>65%</p>
                  <p id=""wtp"" style=""text-align:center; margin-top: 0px; margin-bottom: 0px; font-size: 40px"";>מוכנים לשלם: <span id=""c_p_y""></span></p>","58","evaluation","15","31","8A","65","79","58","","","","","","","","","","","","","","","","",""
"","","","","","html-keyboard-response","216","1455138","0.0-25.0-2.2","e9202174-8daa-4cbb-a128-44f6840870fb","null","<p style=""text-align: center;"">+</p>","null","fixation","","","","","","","","","","","","","","","","","","","","","","",""
"","","","","","html-slider-response","217","1456140","0.0-25.0-0.3","e9202174-8daa-4cbb-a128-44f6840870fb","1000","
                  <p style=""text-align: center;"">₪43
                                                <br>75%</p>
                  <p id=""wtp"" style=""text-align:center; margin-top: 0px; margin-bottom: 0px; font-size: 40px"";>&ensp;</p>","-","viewing","0","18","11B,19B,24A,26A","","","","","","","","","","","","","","","","","","","",""
"","","","","","html-slider-response","218","1459268","0.0-25.0-1.3","e9202174-8daa-4cbb-a128-44f6840870fb","3128","
                  <p style=""text-align: center;"">₪43
                                                <br>75%</p>
                  <p id=""wtp"" style=""text-align:center; margin-top: 0px; margin-bottom: 0px; font-size: 40px"";>מוכנים לשלם: <span id=""c_p_y""></span></p>","40","evaluation","21","18","11B,19B,24A,26A","75","43","40","","","","","","","","","","","","","","","","",""
"","","","","","html-keyboard-response","219","1460331","0.0-25.0-2.3","e9202174-8daa-4cbb-a128-44f6840870fb","null","<p style=""text-align: center;"">+</p>","null","fixation","","","","","","","","","","","","","","","","","","","","","","",""
"","","","","","html-slider-response","220","1461342","0.0-25.0-0.4","e9202174-8daa-4cbb-a128-44f6840870fb","1000","
                  <p style=""text-align: center;"">₪11
                                                <br>45%</p>
                  <p id=""wtp"" style=""text-align:center; margin-top: 0px; margin-bottom: 0px; font-size: 40px"";>&ensp;</p>","-","viewing","0","6","14B,21C,25C","","","","","","","","","","","","","","","","","","","",""
"","","","","","html-slider-response","221","1463492","0.0-25.0-1.4","e9202174-8daa-4cbb-a128-44f6840870fb","2149","
                  <p style=""text-align: center;"">₪11
                                                <br>45%</p>
                  <p id=""wtp"" style=""text-align:center; margin-top: 0px; margin-bottom: 0px; font-size: 40px"";>מוכנים לשלם: <span id=""c_p_y""></span></p>","20","evaluation","18","6","14B,21C,25C","45","11","20","","","","","","","","","","","","","","","","",""
"","","","","","html-keyboard-response","222","1464836","0.0-25.0-2.4","e9202174-8daa-4cbb-a128-44f6840870fb","null","<p style=""text-align: center;"">+</p>","null","fixation","","","","","","","","","","","","","","","","","","","","","","",""
"","","","","","html-slider-response","223","1465840","0.0-25.0-0.5","e9202174-8daa-4cbb-a128-44f6840870fb","1000","
                  <p style=""text-align: center;"">₪39
                                                <br>65%</p>
                  <p id=""wtp"" style=""text-align:center; margin-top: 0px; margin-bottom: 0px; font-size: 40px"";>&ensp;</p>","-","viewing","0","16","1A,15A,26C","","","","","","","","","","","","","","","","","","","",""
"","","","","","html-slider-response","224","1468052","0.0-25.0-1.5","e9202174-8daa-4cbb-a128-44f6840870fb","2211","
                  <p style=""text-align: center;"">₪39
                                                <br>65%</p>
                  <p id=""wtp"" style=""text-align:center; margin-top: 0px; margin-bottom: 0px; font-size: 40px"";>מוכנים לשלם: <span id=""c_p_y""></span></p>","0","evaluation","26","16","1A,15A,26C","65","39","0","","","","","","","","","","","","","","","","",""
"","","","","","html-keyboard-response","225","1469039","0.0-25.0-2.5","e9202174-8daa-4cbb-a128-44f6840870fb","null","<p style=""text-align: center;"">+</p>","null","fixation","","","","","","","","","","","","","","","","","","","","","","",""
"","","","","","html-slider-response","226","1470050","0.0-25.0-0.6","e9202174-8daa-4cbb-a128-44f6840870fb","1000","
                  <p style=""text-align: center;"">₪18
                                                <br>25%</p>
                  <p id=""wtp"" style=""text-align:center; margin-top: 0px; margin-bottom: 0px; font-size: 40px"";>&ensp;</p>","-","viewing","0","9","14A,23A","","","","","","","","","","","","","","","","","","","",""
"","","","","","html-slider-response","227","1472149","0.0-25.0-1.6","e9202174-8daa-4cbb-a128-44f6840870fb","2098","
                  <p style=""text-align: center;"">₪18
                                                <br>25%</p>
                  <p id=""wtp"" style=""text-align:center; margin-top: 0px; margin-bottom: 0px; font-size: 40px"";>מוכנים לשלם: <span id=""c_p_y""></span></p>","3","evaluation","4","9","14A,23A","25","18","3","","","","","","","","","","","","","","","","",""
"","","","","","html-keyboard-response","228","1472671","0.0-25.0-2.6","e9202174-8daa-4cbb-a128-44f6840870fb","null","<p style=""text-align: center;"">+</p>","null","fixation","","","","","","","","","","","","","","","","","","","","","","",""
"","","","","","html-slider-response","229","1473673","0.0-25.0-0.7","e9202174-8daa-4cbb-a128-44f6840870fb","1000","
                  <p style=""text-align: center;"">₪71
                                                <br>75%</p>
                  <p id=""wtp"" style=""text-align:center; margin-top: 0px; margin-bottom: 0px; font-size: 40px"";>&ensp;</p>","-","viewing","0","28","8B","","","","","","","","","","","","","","","","","","","",""
"","","","","","html-slider-response","230","1475980","0.0-25.0-1.7","e9202174-8daa-4cbb-a128-44f6840870fb","2306","
                  <p style=""text-align: center;"">₪71
                                                <br>75%</p>
                  <p id=""wtp"" style=""text-align:center; margin-top: 0px; margin-bottom: 0px; font-size: 40px"";>מוכנים לשלם: <span id=""c_p_y""></span></p>","60","evaluation","35","28","8B","75","71","60","","","","","","","","","","","","","","","","",""
"","","","","","html-keyboard-response","231","1477157","0.0-25.0-2.7","e9202174-8daa-4cbb-a128-44f6840870fb","null","<p style=""text-align: center;"">+</p>","null","fixation","","","","","","","","","","","","","","","","","","","","","","",""
"","","","","","html-slider-response","232","1478161","0.0-25.0-0.8","e9202174-8daa-4cbb-a128-44f6840870fb","1000","
                  <p style=""text-align: center;"">₪61
                                                <br>55%</p>
                  <p id=""wtp"" style=""text-align:center; margin-top: 0px; margin-bottom: 0px; font-size: 40px"";>&ensp;</p>","-","viewing","0","23","7B,26B","","","","","","","","","","","","","","","","","","","",""
"","","","","","html-slider-response","233","1479740","0.0-25.0-1.8","e9202174-8daa-4cbb-a128-44f6840870fb","1577","
                  <p style=""text-align: center;"">₪61
                                                <br>55%</p>
                  <p id=""wtp"" style=""text-align:center; margin-top: 0px; margin-bottom: 0px; font-size: 40px"";>מוכנים לשלם: <span id=""c_p_y""></span></p>","41","evaluation","47","23","7B,26B","55","61","41","","","","","","","","","","","","","","","","",""
"","","","","","html-keyboard-response","234","1480873","0.0-25.0-2.8","e9202174-8daa-4cbb-a128-44f6840870fb","null","<p style=""text-align: center;"">+</p>","null","fixation","","","","","","","","","","","","","","","","","","","","","","",""
"","","","","","html-slider-response","235","1481882","0.0-25.0-0.9","e9202174-8daa-4cbb-a128-44f6840870fb","1000","
                  <p style=""text-align: center;"">₪61
                                                <br>45%</p>
                  <p id=""wtp"" style=""text-align:center; margin-top: 0px; margin-bottom: 0px; font-size: 40px"";>&ensp;</p>","-","viewing","0","22","10A,11A","","","","","","","","","","","","","","","","","","","",""
"","","","","","html-slider-response","236","1485716","0.0-25.0-1.9","e9202174-8daa-4cbb-a128-44f6840870fb","3833","
                  <p style=""text-align: center;"">₪61
                                                <br>45%</p>
                  <p id=""wtp"" style=""text-align:center; margin-top: 0px; margin-bottom: 0px; font-size: 40px"";>מוכנים לשלם: <span id=""c_p_y""></span></p>","41","evaluation","36","22","10A,11A","45","61","41","","","","","","","","","","","","","","","","",""
"","","","","","html-keyboard-response","237","1486539","0.0-25.0-2.9","e9202174-8daa-4cbb-a128-44f6840870fb","null","<p style=""text-align: center;"">+</p>","null","fixation","","","","","","","","","","","","","","","","","","","","","","",""
"","","","","","html-slider-response","238","1487546","0.0-25.0-0.10","e9202174-8daa-4cbb-a128-44f6840870fb","1000","
                  <p style=""text-align: center;"">₪4
                                                <br>25%</p>
                  <p id=""wtp"" style=""text-align:center; margin-top: 0px; margin-bottom: 0px; font-size: 40px"";>&ensp;</p>","-","viewing","0","1","6C,29B,30C","","","","","","","","","","","","","","","","","","","",""
"","","","","","html-slider-response","239","1488108","0.0-25.0-1.10","e9202174-8daa-4cbb-a128-44f6840870fb","561","
                  <p style=""text-align: center;"">₪4
                                                <br>25%</p>
                  <p id=""wtp"" style=""text-align:center; margin-top: 0px; margin-bottom: 0px; font-size: 40px"";>מוכנים לשלם: <span id=""c_p_y""></span></p>","0","evaluation","39","1","6C,29B,30C","25","4","0","","","","","","","","","","","","","","","","",""
"","","","","","html-keyboard-response","240","1489388","0.0-25.0-2.10","e9202174-8daa-4cbb-a128-44f6840870fb","null","<p style=""text-align: center;"">+</p>","null","fixation","","","","","","","","","","","","","","","","","","","","","","",""
"","","","","","html-slider-response","241","1490403","0.0-25.0-0.11","e9202174-8daa-4cbb-a128-44f6840870fb","1000","
                  <p style=""text-align: center;"">₪58
                                                <br>30%</p>
                  <p id=""wtp"" style=""text-align:center; margin-top: 0px; margin-bottom: 0px; font-size: 40px"";>&ensp;</p>","-","viewing","0","19","13C,30A","","","","","","","","","","","","","","","","","","","",""
"","","","","","html-slider-response","242","1492492","0.0-25.0-1.11","e9202174-8daa-4cbb-a128-44f6840870fb","2087","
                  <p style=""text-align: center;"">₪58
                                                <br>30%</p>
                  <p id=""wtp"" style=""text-align:center; margin-top: 0px; margin-bottom: 0px; font-size: 40px"";>מוכנים לשלם: <span id=""c_p_y""></span></p>","0","evaluation","57","19","13C,30A","30","58","0","","","","","","","","","","","","","","","","",""
"","","","","","html-keyboard-response","243","1493648","0.0-25.0-2.11","e9202174-8daa-4cbb-a128-44f6840870fb","null","<p style=""text-align: center;"">+</p>","null","fixation","","","","","","","","","","","","","","","","","","","","","","",""
"","","","","","html-slider-response","244","1494652","0.0-25.0-0.12","e9202174-8daa-4cbb-a128-44f6840870fb","1000","
                  <p style=""text-align: center;"">₪64
                                                <br>50%</p>
                  <p id=""wtp"" style=""text-align:center; margin-top: 0px; margin-bottom: 0px; font-size: 40px"";>&ensp;</p>","-","viewing","0","25","1B,3B,4A","","","","","","","","","","","","","","","","","","","",""
"","","","","","html-slider-response","245","1496452","0.0-25.0-1.12","e9202174-8daa-4cbb-a128-44f6840870fb","1799","
                  <p style=""text-align: center;"">₪64
                                                <br>50%</p>
                  <p id=""wtp"" style=""text-align:center; margin-top: 0px; margin-bottom: 0px; font-size: 40px"";>מוכנים לשלם: <span id=""c_p_y""></span></p>","39","evaluation","29","25","1B,3B,4A","50","64","39","","","","","","","","","","","","","","","","",""
"","","","","","html-keyboard-response","246","1497874","0.0-25.0-2.12","e9202174-8daa-4cbb-a128-44f6840870fb","null","<p style=""text-align: center;"">+</p>","null","fixation","","","","","","","","","","","","","","","","","","","","","","",""
"","","","","","html-slider-response","247","1498876","0.0-25.0-0.13","e9202174-8daa-4cbb-a128-44f6840870fb","1000","
                  <p style=""text-align: center;"">₪43
                                                <br>60%</p>
                  <p id=""wtp"" style=""text-align:center; margin-top: 0px; margin-bottom: 0px; font-size: 40px"";>&ensp;</p>","-","viewing","0","17","2A,7A,9A,15B","","","","","","","","","","","","","","","","","","","",""
"","","","","","html-slider-response","248","1500772","0.0-25.0-1.13","e9202174-8daa-4cbb-a128-44f6840870fb","1895","
                  <p style=""text-align: center;"">₪43
                                                <br>60%</p>
                  <p id=""wtp"" style=""text-align:center; margin-top: 0px; margin-bottom: 0px; font-size: 40px"";>מוכנים לשלם: <span id=""c_p_y""></span></p>","21","evaluation","46","17","2A,7A,9A,15B","60","43","21","","","","","","","","","","","","","","","","",""
