"success","timeout","failed_images","failed_audio","failed_video","trial_type","trial_index","time_elapsed","internal_node_id","subject_id","rt","stimulus","response","part","slider_start","ID","set_ID","prob","amount","last_location","actual_choice","actual_EV","binary_id","trinary_id","catch","direction","A_key","S_key","D_key","choice_prob","choice_amount","chosen_part","potential_prize_prob","potential_prize_amount","won_prize","total_prize","prize_cost","remaining_budget","accuracy"
"true","false","[]","[]","[]","preload","0","64","0.0-0.0","5c08b639-fa5d-4e77-8594-9ab1660fa3c0","","","","","","","","","","","","","","","","","","","","","","","","","","","","",""
"","","","","","html-keyboard-response","1","1920061","0.0-1.0","5c08b639-fa5d-4e77-8594-9ab1660fa3c0","null","
          <h1>שלום וברוכים הבאים!</h1>
          <p>לפניכם ניסוי בקבלת החלטות עם שני חלקים.
          <br><br>לחצו על העכבר כדי להמשיך.</p>","0","example","","","","","","","","","","","","","","","","","","","","","","","","",""
"","","","","","html-keyboard-response","2","1930476","0.0-2.0","5c08b639-fa5d-4e77-8594-9ab1660fa3c0","null","
        <h1>חלק 1</h1>
        <p>בקרוב יוצגו בפניכם הגרלות.
        <br>עליכם לבחור את המחיר המירבי שתהיו מוכנים לשלם כדי להשתתף בהגרלה שתוצג.
        <br>יש לכם תקציב של ₪80 לכל הגרלה. 
        <br>נסו להעריך כל הגרלה בנפרד ולחשוב כמה היא שווה עבורכם, ₪80 זמינים לכל הגרלה בנפרד.
        <br><br>לחצו על העכבר כדי להמשיך.</p>","1","instructions","","","","","","","","","","","","","","","","","","","","","","","","",""
"","","","","","html-keyboard-response","3","1940980","0.0-3.0","5c08b639-fa5d-4e77-8594-9ab1660fa3c0","null","
        <p>בסוף הניסוי, המחשב יבחר את אחת ההגרלות ויקבע מחיר לכרטיס עבורה. 
        <br>במידה והמחיר שבחרתם נמוך מהמחיר שנבחר על ידי המחשב, לא תשתתפו בהגרלה ותשארו עם מלוא התקציב.
        <br>במידה והמחיר שבחרתם גבוה מהמחיר שנבחר על ידי המחשב, תשלמו את המחיר שנקבע ותשתתפו בהגרלה.
        <br><br>לחצו על העכבר כדי להמשיך.</p>","1","instructions","","","","","","","","","","","","","","","","","","","","","","","","",""
"","","","","","html-slider-response","4","1949557","0.0-4.0","5c08b639-fa5d-4e77-8594-9ab1660fa3c0","8471","
        <p style=""font-size: 42px;"">נתחיל עם דוגמא: 
        <br>ההגרלה מטה מציעה 65% סיכוי לזכות ב-₪40 
        <br>&emsp;&emsp;&emsp;&emsp;&emsp;&emsp;&emsp;&emsp;&ensp;35% סיכוי לזכות ב-₪0.
        <br><br>מה המחיר המירבי שתהיו מוכנים לשלם על כרטיס להגרלה זו בין 0 ל-₪80?
        <br>הזיזו את העכבר על פני המלבן ולחצו כדי לבצע בחירה.</p>
        
        <p style=""text-align: center;"">₪40<br>65%</p>

        <p id=""wtp"" style=""text-align:center; margin-top: 0px; margin-bottom: 0px; font-size: 40px"";>מוכנים לשלם: <span id=""c_p_y""></span></p>","0","example","0","","","","","","","","","","","","","","","","","","","","","","","",""
"","","","","","html-keyboard-response","5","1956373","0.0-5.0","5c08b639-fa5d-4e77-8594-9ab1660fa3c0","6556","<p>יפה מאוד!
                <br> בחרתם שתהיו מוכנים לשלם ₪0 כדי להשתתף בהגרלה:
                <br><p style=""text-align: center;"">₪40<br>65%</p>
                <p>נשמע נכון?
                <br>נניח שהגרלה זו נבחרה בסוף הניסוי.
                <br>כעת המחשב יקבע מחיר עבורה באקראי.
                <br>לחצו על העכבר להמשך.</p>"," ","example","","","","","","","","","","","","","","","","","","","","","","","","",""
"","","","","","html-keyboard-response","6","1960492","0.0-6.0","5c08b639-fa5d-4e77-8594-9ab1660fa3c0","null","<p>המחשב קבע מחיר: ₪15
                <br>ואתם בחרתם לשלם לכל היותר: ₪0
                <br><br>מכיוון שהמחיר שבחרתם נמוך מהמחיר שנקבע, לא תתשתתפו בהגרלה.
                <br>במקרה כזה, בסוף הניסוי תקבלו את כל התקציב ההתחלתי של ₪80.
                <br><br>לחצו על העכבר להמשך.</p>","1","example","","","","","","","","","","","","","","","","","","","","","","","","",""
"","","","","","html-slider-response","7","1967373","0.0-7.0","5c08b639-fa5d-4e77-8594-9ab1660fa3c0","6628","<p style=""font-size: 42px;"">הנה עוד דוגמא:
                <br>ההגרלה מטה מציעה 35% סיכוי לזכות ב-₪18 
                <br>&emsp;&emsp;&emsp;&emsp;&emsp;&emsp;&emsp;&emsp;&ensp;65% סיכוי לזכות ב-₪0.</p>
        
                <p style=""text-align: center;"">₪18<br>35%</p>
                <p id=""wtp"" style=""text-align:center; margin-top: 0px; margin-bottom: 0px; font-size: 40px"";>מוכנים לשלם: <span id=""c_p_y""></span></p>","5","example","75","","","","","","","","","","","","","","","","","","","","","","","",""
"","","","","","html-keyboard-response","8","1968692","0.0-8.0","5c08b639-fa5d-4e77-8594-9ab1660fa3c0","null","<p>הייתם מוכנים לשלם  ₪5 כדי להשתתף בהגרלה:
                <p style=""text-align: center;"">₪18<br>35%</p>
                <p>כעת נניח שהמחשב בחר את ההגרלה הזו בסוף הניסוי, וקבע עבורה מחיר.
                <br><br>לחצו על העכבר כדי להמשיך.</p>","1","instructions","","","","","","","","","","","","","","","","","","","","","","","","",""
"","","","","","html-keyboard-response","9","1977548","0.0-9.0","5c08b639-fa5d-4e77-8594-9ab1660fa3c0","null","<p>המחשב קבע מחיר להגרלה: ₪5
                <br>ואתם בחרתם לשלם לכל היותר: ₪5
                <br><br>כעת המחיר שנקבע זהה לזה שבחרתם, אז תשלמו את המחיר שקבע המחשב (₪5) ותשתתפו בהגרלה.
                <br>במקרה כזה, תסיימו את הניסוי עם תקציב של ₪75 ועם סיכוי לזכות ב-₪18 נוספים מההגרלה.
                <br>כלומר, תוכלו לקבל ₪75 אם לא תזכו בהגרלה, או ₪93 אם תזכו בהגרלה.
                <br><br>לחצו על העכבר להמשך.</p>","1","example","","","","","","","","","","","","","","","","","","","","","","","","",""
"","","","","","html-keyboard-response","10","1982180","0.0-10.0","5c08b639-fa5d-4e77-8594-9ab1660fa3c0","null","<p>במהלך הניסוי, קודם תראו את ההגרלה ורק לאחר מכן תוכלו לבחור.
                <p>כמו כן, יהיו לכם מספר שניות מוגבל להגיב.
                <p>בואו ננסה זאת עם ההגרלה הקודמת.
                <br>לחצו על העכבר כדי להמשיך.</p>","1","instructions","","","","","","","","","","","","","","","","","","","","","","","","",""
"","","","","","html-slider-response","11","1983447","0.0-11.0","5c08b639-fa5d-4e77-8594-9ab1660fa3c0","1000","
                    <p style=""text-align: center;"">₪18<br>35%</p>
                    <p id=""wtp"" style=""text-align:center; margin-top: 0px; margin-bottom: 0px; font-size: 40px"";>&ensp;</p>","41","instructions","0","","","","","","","","","","","","","","","","","","","","","","","",""
"","","","","","html-slider-response","12","1986068","0.0-12.0","5c08b639-fa5d-4e77-8594-9ab1660fa3c0","2354","
                    <p style=""text-align: center;"">₪18<br>35%</p>
                    <p id=""wtp"" style=""text-align:center; margin-top: 0px; margin-bottom: 0px; font-size: 40px"";>מוכנים לשלם: <span id=""c_p_y""></span></p>","0","instructions","39","","","","","","","","","","","","","","","","","","","","","","","",""
"","","","","","html-keyboard-response","13","1988101","0.0-13.0","5c08b639-fa5d-4e77-8594-9ab1660fa3c0","1782","<p>יפה. הפעם בחרתם לשלם לכל היותר ₪0.
                <br><br>לחצו על העכבר כדי להמשיך.</p>"," ","instructions","","","","","","","","","","","","","","","","","","","","","","","","",""
"","","","","","html-keyboard-response","14","1993844","0.0-15.0","5c08b639-fa5d-4e77-8594-9ab1660fa3c0","null","<p>כעת נתחיל את הניסוי.
                <br><br>אתם תראו הגרלות ותתבקשו לבחור כמה תהיו מוכנים לשלם כדי להשתתף בהן.
                <br>יש לכם תקציב של ₪80 עבור כל הגרלה.
                <br>בסוף הניסוי הגרלה אחת תבחר באקראי ותשוחק.
                <br><br>לחצו על העכבר כדי להתחיל את הניסוי.</p>","1","instructions","","","","","","","","","","","","","","","","","","","","","","","","",""
"","","","","","html-keyboard-response","15","1995123","0.0-16.0","5c08b639-fa5d-4e77-8594-9ab1660fa3c0","null","<p style=""text-align: center;"">+</p>","null","fixation","","","","","","","","","","","","","","","","","","","","","","","","",""
"","","","","","html-slider-response","16","1996128","0.0-17.0-0.0","5c08b639-fa5d-4e77-8594-9ab1660fa3c0","1000","
                  <p style=""text-align: center;"">₪36
                                                <br>70%</p>
                  <p id=""wtp"" style=""text-align:center; margin-top: 0px; margin-bottom: 0px; font-size: 40px"";>&ensp;</p>","-","viewing","0","13","3A,5C,10B","","","","","","","","","","","","","","","","","","","","","",""
"","","","","","html-slider-response","17","2000135","0.0-17.0-1.0","5c08b639-fa5d-4e77-8594-9ab1660fa3c0","null","
                  <p style=""text-align: center;"">₪36
                                                <br>70%</p>
                  <p id=""wtp"" style=""text-align:center; margin-top: 0px; margin-bottom: 0px; font-size: 40px"";>מוכנים לשלם: <span id=""c_p_y""></span></p>","null","evaluation","75","13","3A,5C,10B","70","36","4","","","","","","","","","","","","","","","","","","",""
"","","","","","html-keyboard-response","18","2001180","0.0-17.0-2.0","5c08b639-fa5d-4e77-8594-9ab1660fa3c0","null","<p style=""text-align: center;"">+</p>","null","fixation","","","","","","","","","","","","","","","","","","","","","","","","",""
"","","","","","html-slider-response","19","2002183","0.0-17.0-0.1","5c08b639-fa5d-4e77-8594-9ab1660fa3c0","1000","
                  <p style=""text-align: center;"">₪11
                                                <br>75%</p>
                  <p id=""wtp"" style=""text-align:center; margin-top: 0px; margin-bottom: 0px; font-size: 40px"";>&ensp;</p>","-","viewing","0","7","6B,18B,22C,24C,29A","","","","","","","","","","","","","","","","","","","","","",""
"","","","","","html-slider-response","20","2003708","0.0-17.0-1.1","5c08b639-fa5d-4e77-8594-9ab1660fa3c0","1524","
                  <p style=""text-align: center;"">₪11
                                                <br>75%</p>
                  <p id=""wtp"" style=""text-align:center; margin-top: 0px; margin-bottom: 0px; font-size: 40px"";>מוכנים לשלם: <span id=""c_p_y""></span></p>","0","evaluation","11","7","6B,18B,22C,24C,29A","75","11","0","","","","","","","","","","","","","","","","","","",""
"","","","","","html-keyboard-response","21","2004825","0.0-17.0-2.1","5c08b639-fa5d-4e77-8594-9ab1660fa3c0","null","<p style=""text-align: center;"">+</p>","null","fixation","","","","","","","","","","","","","","","","","","","","","","","","",""
"","","","","","html-slider-response","22","2005839","0.0-17.0-0.2","5c08b639-fa5d-4e77-8594-9ab1660fa3c0","1000","
                  <p style=""text-align: center;"">₪11
                                                <br>25%</p>
                  <p id=""wtp"" style=""text-align:center; margin-top: 0px; margin-bottom: 0px; font-size: 40px"";>&ensp;</p>","-","viewing","0","5","12A,27B,28B,30B","","","","","","","","","","","","","","","","","","","","","",""
"","","","","","html-slider-response","23","2006972","0.0-17.0-1.2","5c08b639-fa5d-4e77-8594-9ab1660fa3c0","1132","
                  <p style=""text-align: center;"">₪11
                                                <br>25%</p>
                  <p id=""wtp"" style=""text-align:center; margin-top: 0px; margin-bottom: 0px; font-size: 40px"";>מוכנים לשלם: <span id=""c_p_y""></span></p>","0","evaluation","52","5","12A,27B,28B,30B","25","11","0","","","","","","","","","","","","","","","","","","",""
"","","","","","html-keyboard-response","24","2007630","0.0-17.0-2.2","5c08b639-fa5d-4e77-8594-9ab1660fa3c0","null","<p style=""text-align: center;"">+</p>","null","fixation","","","","","","","","","","","","","","","","","","","","","","","","",""
"","","","","","html-slider-response","25","2008645","0.0-17.0-0.3","5c08b639-fa5d-4e77-8594-9ab1660fa3c0","1000","
                  <p style=""text-align: center;"">₪43
                                                <br>75%</p>
                  <p id=""wtp"" style=""text-align:center; margin-top: 0px; margin-bottom: 0px; font-size: 40px"";>&ensp;</p>","-","viewing","0","18","11B,19B,24A,26A","","","","","","","","","","","","","","","","","","","","","",""
"","","","","","html-slider-response","26","2010284","0.0-17.0-1.3","5c08b639-fa5d-4e77-8594-9ab1660fa3c0","1638","
                  <p style=""text-align: center;"">₪43
                                                <br>75%</p>
                  <p id=""wtp"" style=""text-align:center; margin-top: 0px; margin-bottom: 0px; font-size: 40px"";>מוכנים לשלם: <span id=""c_p_y""></span></p>","5","evaluation","34","18","11B,19B,24A,26A","75","43","5","","","","","","","","","","","","","","","","","","",""
"","","","","","html-keyboard-response","27","2010808","0.0-17.0-2.3","5c08b639-fa5d-4e77-8594-9ab1660fa3c0","null","<p style=""text-align: center;"">+</p>","null","fixation","","","","","","","","","","","","","","","","","","","","","","","","",""
"","","","","","html-slider-response","28","2011823","0.0-17.0-0.4","5c08b639-fa5d-4e77-8594-9ab1660fa3c0","1000","
                  <p style=""text-align: center;"">₪36
                                                <br>60%</p>
                  <p id=""wtp"" style=""text-align:center; margin-top: 0px; margin-bottom: 0px; font-size: 40px"";>&ensp;</p>","-","viewing","0","12","1C,7C,15C","","","","","","","","","","","","","","","","","","","","","",""
"","","","","","html-slider-response","29","2013788","0.0-17.0-1.4","5c08b639-fa5d-4e77-8594-9ab1660fa3c0","1964","
                  <p style=""text-align: center;"">₪36
                                                <br>60%</p>
                  <p id=""wtp"" style=""text-align:center; margin-top: 0px; margin-bottom: 0px; font-size: 40px"";>מוכנים לשלם: <span id=""c_p_y""></span></p>","5","evaluation","20","12","1C,7C,15C","60","36","5","","","","","","","","","","","","","","","","","","",""
"","","","","","html-keyboard-response","30","2015288","0.0-17.0-2.4","5c08b639-fa5d-4e77-8594-9ab1660fa3c0","null","<p style=""text-align: center;"">+</p>","null","fixation","","","","","","","","","","","","","","","","","","","","","","","","",""
"","","","","","html-slider-response","31","2016289","0.0-17.0-0.5","5c08b639-fa5d-4e77-8594-9ab1660fa3c0","1000","
                  <p style=""text-align: center;"">₪64
                                                <br>50%</p>
                  <p id=""wtp"" style=""text-align:center; margin-top: 0px; margin-bottom: 0px; font-size: 40px"";>&ensp;</p>","-","viewing","0","25","1B,3B,4A","","","","","","","","","","","","","","","","","","","","","",""
"","","","","","html-slider-response","32","2017772","0.0-17.0-1.5","5c08b639-fa5d-4e77-8594-9ab1660fa3c0","1483","
                  <p style=""text-align: center;"">₪64
                                                <br>50%</p>
                  <p id=""wtp"" style=""text-align:center; margin-top: 0px; margin-bottom: 0px; font-size: 40px"";>מוכנים לשלם: <span id=""c_p_y""></span></p>","0","evaluation","79","25","1B,3B,4A","50","64","0","","","","","","","","","","","","","","","","","","",""
"","","","","","html-keyboard-response","33","2018351","0.0-17.0-2.5","5c08b639-fa5d-4e77-8594-9ab1660fa3c0","null","<p style=""text-align: center;"">+</p>","null","fixation","","","","","","","","","","","","","","","","","","","","","","","","",""
"","","","","","html-slider-response","34","2019353","0.0-17.0-0.6","5c08b639-fa5d-4e77-8594-9ab1660fa3c0","1000","
                  <p style=""text-align: center;"">₪58
                                                <br>45%</p>
                  <p id=""wtp"" style=""text-align:center; margin-top: 0px; margin-bottom: 0px; font-size: 40px"";>&ensp;</p>","-","viewing","0","21","11C,18C,25A","","","","","","","","","","","","","","","","","","","","","",""
"","","","","","html-slider-response","35","2020556","0.0-17.0-1.6","5c08b639-fa5d-4e77-8594-9ab1660fa3c0","1203","
                  <p style=""text-align: center;"">₪58
                                                <br>45%</p>
                  <p id=""wtp"" style=""text-align:center; margin-top: 0px; margin-bottom: 0px; font-size: 40px"";>מוכנים לשלם: <span id=""c_p_y""></span></p>","0","evaluation","30","21","11C,18C,25A","45","58","0","","","","","","","","","","","","","","","","","","",""
"","","","","","html-keyboard-response","36","2021432","0.0-17.0-2.6","5c08b639-fa5d-4e77-8594-9ab1660fa3c0","null","<p style=""text-align: center;"">+</p>","null","fixation","","","","","","","","","","","","","","","","","","","","","","","","",""
"","","","","","html-slider-response","37","2022439","0.0-17.0-0.7","5c08b639-fa5d-4e77-8594-9ab1660fa3c0","1000","
                  <p style=""text-align: center;"">₪43
                                                <br>60%</p>
                  <p id=""wtp"" style=""text-align:center; margin-top: 0px; margin-bottom: 0px; font-size: 40px"";>&ensp;</p>","-","viewing","0","17","2A,7A,9A,15B","","","","","","","","","","","","","","","","","","","","","",""
"","","","","","html-slider-response","38","2025116","0.0-17.0-1.7","5c08b639-fa5d-4e77-8594-9ab1660fa3c0","2676","
                  <p style=""text-align: center;"">₪43
                                                <br>60%</p>
                  <p id=""wtp"" style=""text-align:center; margin-top: 0px; margin-bottom: 0px; font-size: 40px"";>מוכנים לשלם: <span id=""c_p_y""></span></p>","4","evaluation","62","17","2A,7A,9A,15B","60","43","5","","","","","","","","","","","","","","","","","","",""
"","","","","","html-keyboard-response","39","2025902","0.0-17.0-2.7","5c08b639-fa5d-4e77-8594-9ab1660fa3c0","null","<p style=""text-align: center;"">+</p>","null","fixation","","","","","","","","","","","","","","","","","","","","","","","","",""
"","","","","","html-slider-response","40","2026903","0.0-17.0-0.8","5c08b639-fa5d-4e77-8594-9ab1660fa3c0","1000","
                  <p style=""text-align: center;"">₪16
                                                <br>20%</p>
                  <p id=""wtp"" style=""text-align:center; margin-top: 0px; margin-bottom: 0px; font-size: 40px"";>&ensp;</p>","-","viewing","0","8","14C,17A,20C,27A","","","","","","","","","","","","","","","","","","","","","",""
"","","","","","html-slider-response","41","2027980","0.0-17.0-1.8","5c08b639-fa5d-4e77-8594-9ab1660fa3c0","1075","
                  <p style=""text-align: center;"">₪16
                                                <br>20%</p>
                  <p id=""wtp"" style=""text-align:center; margin-top: 0px; margin-bottom: 0px; font-size: 40px"";>מוכנים לשלם: <span id=""c_p_y""></span></p>","0","evaluation","25","8","14C,17A,20C,27A","20","16","0","","","","","","","","","","","","","","","","","","",""
"","","","","","html-keyboard-response","42","2028853","0.0-17.0-2.8","5c08b639-fa5d-4e77-8594-9ab1660fa3c0","null","<p style=""text-align: center;"">+</p>","null","fixation","","","","","","","","","","","","","","","","","","","","","","","","",""
"","","","","","html-slider-response","43","2029855","0.0-17.0-0.9","5c08b639-fa5d-4e77-8594-9ab1660fa3c0","1000","
                  <p style=""text-align: center;"">₪76
                                                <br>65%</p>
                  <p id=""wtp"" style=""text-align:center; margin-top: 0px; margin-bottom: 0px; font-size: 40px"";>&ensp;</p>","-","viewing","0","29","8C,19A,24B","","","","","","","","","","","","","","","","","","","","","",""
"","","","","","html-slider-response","44","2031292","0.0-17.0-1.9","5c08b639-fa5d-4e77-8594-9ab1660fa3c0","1436","
                  <p style=""text-align: center;"">₪76
                                                <br>65%</p>
                  <p id=""wtp"" style=""text-align:center; margin-top: 0px; margin-bottom: 0px; font-size: 40px"";>מוכנים לשלם: <span id=""c_p_y""></span></p>","4","evaluation","26","29","8C,19A,24B","65","76","5","","","","","","","","","","","","","","","","","","",""
"","","","","","html-keyboard-response","45","2032709","0.0-17.0-2.9","5c08b639-fa5d-4e77-8594-9ab1660fa3c0","null","<p style=""text-align: center;"">+</p>","null","fixation","","","","","","","","","","","","","","","","","","","","","","","","",""
"","","","","","html-slider-response","46","2033714","0.0-17.0-0.10","5c08b639-fa5d-4e77-8594-9ab1660fa3c0","1000","
                  <p style=""text-align: center;"">₪4
                                                <br>75%</p>
                  <p id=""wtp"" style=""text-align:center; margin-top: 0px; margin-bottom: 0px; font-size: 40px"";>&ensp;</p>","-","viewing","0","3","12B,20B,23B,27C,29C","","","","","","","","","","","","","","","","","","","","","",""
"","","","","","html-slider-response","47","2034636","0.0-17.0-1.10","5c08b639-fa5d-4e77-8594-9ab1660fa3c0","921","
                  <p style=""text-align: center;"">₪4
                                                <br>75%</p>
                  <p id=""wtp"" style=""text-align:center; margin-top: 0px; margin-bottom: 0px; font-size: 40px"";>מוכנים לשלם: <span id=""c_p_y""></span></p>","0","evaluation","32","3","12B,20B,23B,27C,29C","75","4","0","","","","","","","","","","","","","","","","","","",""
"","","","","","html-keyboard-response","48","2035448","0.0-17.0-2.10","5c08b639-fa5d-4e77-8594-9ab1660fa3c0","null","<p style=""text-align: center;"">+</p>","null","fixation","","","","","","","","","","","","","","","","","","","","","","","","",""
"","","","","","html-slider-response","49","2036449","0.0-17.0-0.11","5c08b639-fa5d-4e77-8594-9ab1660fa3c0","1000","
                  <p style=""text-align: center;"">₪39
                                                <br>65%</p>
                  <p id=""wtp"" style=""text-align:center; margin-top: 0px; margin-bottom: 0px; font-size: 40px"";>&ensp;</p>","-","viewing","0","16","1A,15A,26C","","","","","","","","","","","","","","","","","","","","","",""
"","","","","","html-slider-response","50","2038444","0.0-17.0-1.11","5c08b639-fa5d-4e77-8594-9ab1660fa3c0","1994","
                  <p style=""text-align: center;"">₪39
                                                <br>65%</p>
                  <p id=""wtp"" style=""text-align:center; margin-top: 0px; margin-bottom: 0px; font-size: 40px"";>מוכנים לשלם: <span id=""c_p_y""></span></p>","4","evaluation","28","16","1A,15A,26C","65","39","5","","","","","","","","","","","","","","","","","","",""
"","","","","","html-keyboard-response","51","2039157","0.0-17.0-2.11","5c08b639-fa5d-4e77-8594-9ab1660fa3c0","null","<p style=""text-align: center;"">+</p>","null","fixation","","","","","","","","","","","","","","","","","","","","","","","","",""
"","","","","","html-slider-response","52","2040168","0.0-17.0-0.12","5c08b639-fa5d-4e77-8594-9ab1660fa3c0","1000","
                  <p style=""text-align: center;"">₪61
                                                <br>45%</p>
                  <p id=""wtp"" style=""text-align:center; margin-top: 0px; margin-bottom: 0px; font-size: 40px"";>&ensp;</p>","-","viewing","0","22","10A,11A","","","","","","","","","","","","","","","","","","","","","",""
"","","","","","html-slider-response","53","2042044","0.0-17.0-1.12","5c08b639-fa5d-4e77-8594-9ab1660fa3c0","1875","
                  <p style=""text-align: center;"">₪61
                                                <br>45%</p>
                  <p id=""wtp"" style=""text-align:center; margin-top: 0px; margin-bottom: 0px; font-size: 40px"";>מוכנים לשלם: <span id=""c_p_y""></span></p>","0","evaluation","11","22","10A,11A","45","61","0","","","","","","","","","","","","","","","","","","",""
"","","","","","html-keyboard-response","54","2043385","0.0-17.0-2.12","5c08b639-fa5d-4e77-8594-9ab1660fa3c0","null","<p style=""text-align: center;"">+</p>","null","fixation","","","","","","","","","","","","","","","","","","","","","","","","",""
"","","","","","html-slider-response","55","2044396","0.0-17.0-0.13","5c08b639-fa5d-4e77-8594-9ab1660fa3c0","1000","
                  <p style=""text-align: center;"">₪11
                                                <br>20%</p>
                  <p id=""wtp"" style=""text-align:center; margin-top: 0px; margin-bottom: 0px; font-size: 40px"";>&ensp;</p>","-","viewing","0","4","12C,17C,23C,28C","","","","","","","","","","","","","","","","","","","","","",""
"","","","","","html-slider-response","56","2045724","0.0-17.0-1.13","5c08b639-fa5d-4e77-8594-9ab1660fa3c0","1327","
                  <p style=""text-align: center;"">₪11
                                                <br>20%</p>
                  <p id=""wtp"" style=""text-align:center; margin-top: 0px; margin-bottom: 0px; font-size: 40px"";>מוכנים לשלם: <span id=""c_p_y""></span></p>","0","evaluation","24","4","12C,17C,23C,28C","20","11","1","","","","","","","","","","","","","","","","","","",""
"","","","","","html-keyboard-response","57","2046856","0.0-17.0-2.13","5c08b639-fa5d-4e77-8594-9ab1660fa3c0","null","<p style=""text-align: center;"">+</p>","null","fixation","","","","","","","","","","","","","","","","","","","","","","","","",""
"","","","","","html-slider-response","58","2047858","0.0-17.0-0.14","5c08b639-fa5d-4e77-8594-9ab1660fa3c0","1000","
                  <p style=""text-align: center;"">₪58
                                                <br>30%</p>
                  <p id=""wtp"" style=""text-align:center; margin-top: 0px; margin-bottom: 0px; font-size: 40px"";>&ensp;</p>","-","viewing","0","19","13C,30A","","","","","","","","","","","","","","","","","","","","","",""
"","","","","","html-slider-response","59","2049308","0.0-17.0-1.14","5c08b639-fa5d-4e77-8594-9ab1660fa3c0","1448","
                  <p style=""text-align: center;"">₪58
                                                <br>30%</p>
                  <p id=""wtp"" style=""text-align:center; margin-top: 0px; margin-bottom: 0px; font-size: 40px"";>מוכנים לשלם: <span id=""c_p_y""></span></p>","0","evaluation","25","19","13C,30A","30","58","0","","","","","","","","","","","","","","","","","","",""
"","","","","","html-keyboard-response","60","2050332","0.0-17.0-2.14","5c08b639-fa5d-4e77-8594-9ab1660fa3c0","null","<p style=""text-align: center;"">+</p>","null","fixation","","","","","","","","","","","","","","","","","","","","","","","","",""
"","","","","","html-slider-response","61","2051340","0.0-17.0-0.15","5c08b639-fa5d-4e77-8594-9ab1660fa3c0","1000","
                  <p style=""text-align: center;"">₪61
                                                <br>55%</p>
                  <p id=""wtp"" style=""text-align:center; margin-top: 0px; margin-bottom: 0px; font-size: 40px"";>&ensp;</p>","-","viewing","0","23","7B,26B","","","","","","","","","","","","","","","","","","","","","",""
"","","","","","html-slider-response","62","2053604","0.0-17.0-1.15","5c08b639-fa5d-4e77-8594-9ab1660fa3c0","2264","
                  <p style=""text-align: center;"">₪61
                                                <br>55%</p>
                  <p id=""wtp"" style=""text-align:center; margin-top: 0px; margin-bottom: 0px; font-size: 40px"";>מוכנים לשלם: <span id=""c_p_y""></span></p>","4","evaluation","30","23","7B,26B","55","61","4","","","","","","","","","","","","","","","","","","",""
"","","","","","html-keyboard-response","63","2054791","0.0-17.0-2.15","5c08b639-fa5d-4e77-8594-9ab1660fa3c0","null","<p style=""text-align: center;"">+</p>","null","fixation","","","","","","","","","","","","","","","","","","","","","","","","",""
"","","","","","html-slider-response","64","2055798","0.0-17.0-0.16","5c08b639-fa5d-4e77-8594-9ab1660fa3c0","1000","
                  <p style=""text-align: center;"">₪79
                                                <br>65%</p>
                  <p id=""wtp"" style=""text-align:center; margin-top: 0px; margin-bottom: 0px; font-size: 40px"";>&ensp;</p>","-","viewing","0","31","8A","","","","","","","","","","","","","","","","","","","","","",""
"","","","","","html-slider-response","65","2058004","0.0-17.0-1.16","5c08b639-fa5d-4e77-8594-9ab1660fa3c0","2206","
                  <p style=""text-align: center;"">₪79
                                                <br>65%</p>
                  <p id=""wtp"" style=""text-align:center; margin-top: 0px; margin-bottom: 0px; font-size: 40px"";>מוכנים לשלם: <span id=""c_p_y""></span></p>","10","evaluation","61","31","8A","65","79","10","","","","","","","","","","","","","","","","","","",""
"","","","","","html-keyboard-response","66","2059172","0.0-17.0-2.16","5c08b639-fa5d-4e77-8594-9ab1660fa3c0","null","<p style=""text-align: center;"">+</p>","null","fixation","","","","","","","","","","","","","","","","","","","","","","","","",""
"","","","","","html-slider-response","67","2060175","0.0-17.0-0.17","5c08b639-fa5d-4e77-8594-9ab1660fa3c0","1000","
                  <p style=""text-align: center;"">₪71
                                                <br>55%</p>
                  <p id=""wtp"" style=""text-align:center; margin-top: 0px; margin-bottom: 0px; font-size: 40px"";>&ensp;</p>","-","viewing","0","27","5B,18A","","","","","","","","","","","","","","","","","","","","","",""
"","","","","","html-slider-response","68","2061948","0.0-17.0-1.17","5c08b639-fa5d-4e77-8594-9ab1660fa3c0","1772","
                  <p style=""text-align: center;"">₪71
                                                <br>55%</p>
                  <p id=""wtp"" style=""text-align:center; margin-top: 0px; margin-bottom: 0px; font-size: 40px"";>מוכנים לשלם: <span id=""c_p_y""></span></p>","5","evaluation","40","27","5B,18A","55","71","5","","","","","","","","","","","","","","","","","","",""
"","","","","","html-keyboard-response","69","2063179","0.0-17.0-2.17","5c08b639-fa5d-4e77-8594-9ab1660fa3c0","null","<p style=""text-align: center;"">+</p>","null","fixation","","","","","","","","","","","","","","","","","","","","","","","","",""
"","","","","","html-slider-response","70","2064191","0.0-17.0-0.18","5c08b639-fa5d-4e77-8594-9ab1660fa3c0","1000","
                  <p style=""text-align: center;"">₪71
                                                <br>45%</p>
                  <p id=""wtp"" style=""text-align:center; margin-top: 0px; margin-bottom: 0px; font-size: 40px"";>&ensp;</p>","-","viewing","0","26","2B,16A","","","","","","","","","","","","","","","","","","","","","",""
"","","","","","html-slider-response","71","2065100","0.0-17.0-1.18","5c08b639-fa5d-4e77-8594-9ab1660fa3c0","907","
                  <p style=""text-align: center;"">₪71
                                                <br>45%</p>
                  <p id=""wtp"" style=""text-align:center; margin-top: 0px; margin-bottom: 0px; font-size: 40px"";>מוכנים לשלם: <span id=""c_p_y""></span></p>","0","evaluation","44","26","2B,16A","45","71","0","","","","","","","","","","","","","","","","","","",""
"","","","","","html-keyboard-response","72","2065779","0.0-17.0-2.18","5c08b639-fa5d-4e77-8594-9ab1660fa3c0","null","<p style=""text-align: center;"">+</p>","null","fixation","","","","","","","","","","","","","","","","","","","","","","","","",""
"","","","","","html-slider-response","73","2066792","0.0-17.0-0.19","5c08b639-fa5d-4e77-8594-9ab1660fa3c0","1000","
                  <p style=""text-align: center;"">₪58
                                                <br>40%</p>
                  <p id=""wtp"" style=""text-align:center; margin-top: 0px; margin-bottom: 0px; font-size: 40px"";>&ensp;</p>","-","viewing","0","20","10C,13A,19C,21B","","","","","","","","","","","","","","","","","","","","","",""
"","","","","","html-slider-response","74","2068004","0.0-17.0-1.19","5c08b639-fa5d-4e77-8594-9ab1660fa3c0","1211","
                  <p style=""text-align: center;"">₪58
                                                <br>40%</p>
                  <p id=""wtp"" style=""text-align:center; margin-top: 0px; margin-bottom: 0px; font-size: 40px"";>מוכנים לשלם: <span id=""c_p_y""></span></p>","0","evaluation","76","20","10C,13A,19C,21B","40","58","0","","","","","","","","","","","","","","","","","","",""
"","","","","","html-keyboard-response","75","2068675","0.0-17.0-2.19","5c08b639-fa5d-4e77-8594-9ab1660fa3c0","null","<p style=""text-align: center;"">+</p>","null","fixation","","","","","","","","","","","","","","","","","","","","","","","","",""
"","","","","","html-slider-response","76","2069677","0.0-17.0-0.20","5c08b639-fa5d-4e77-8594-9ab1660fa3c0","1000","
                  <p style=""text-align: center;"">₪36
                                                <br>75%</p>
                  <p id=""wtp"" style=""text-align:center; margin-top: 0px; margin-bottom: 0px; font-size: 40px"";>&ensp;</p>","-","viewing","0","14","4B,5A,13B,16B","","","","","","","","","","","","","","","","","","","","","",""
"","","","","","html-slider-response","77","2071436","0.0-17.0-1.20","5c08b639-fa5d-4e77-8594-9ab1660fa3c0","1758","
                  <p style=""text-align: center;"">₪36
                                                <br>75%</p>
                  <p id=""wtp"" style=""text-align:center; margin-top: 0px; margin-bottom: 0px; font-size: 40px"";>מוכנים לשלם: <span id=""c_p_y""></span></p>","4","evaluation","33","14","4B,5A,13B,16B","75","36","5","","","","","","","","","","","","","","","","","","",""
"","","","","","html-keyboard-response","78","2072927","0.0-17.0-2.20","5c08b639-fa5d-4e77-8594-9ab1660fa3c0","null","<p style=""text-align: center;"">+</p>","null","fixation","","","","","","","","","","","","","","","","","","","","","","","","",""
"","","","","","html-slider-response","79","2073929","0.0-17.0-0.21","5c08b639-fa5d-4e77-8594-9ab1660fa3c0","1000","
                  <p style=""text-align: center;"">₪39
                                                <br>60%</p>
                  <p id=""wtp"" style=""text-align:center; margin-top: 0px; margin-bottom: 0px; font-size: 40px"";>&ensp;</p>","-","viewing","0","15","9C,25B","","","","","","","","","","","","","","","","","","","","","",""
"","","","","","html-slider-response","80","2075140","0.0-17.0-1.21","5c08b639-fa5d-4e77-8594-9ab1660fa3c0","1210","
                  <p style=""text-align: center;"">₪39
                                                <br>60%</p>
                  <p id=""wtp"" style=""text-align:center; margin-top: 0px; margin-bottom: 0px; font-size: 40px"";>מוכנים לשלם: <span id=""c_p_y""></span></p>","0","evaluation","59","15","9C,25B","60","39","0","","","","","","","","","","","","","","","","","","",""
"","","","","","html-keyboard-response","81","2076061","0.0-17.0-2.21","5c08b639-fa5d-4e77-8594-9ab1660fa3c0","null","<p style=""text-align: center;"">+</p>","null","fixation","","","","","","","","","","","","","","","","","","","","","","","","",""
"","","","","","html-slider-response","82","2077063","0.0-17.0-0.22","5c08b639-fa5d-4e77-8594-9ab1660fa3c0","1000","
                  <p style=""text-align: center;"">₪18
                                                <br>25%</p>
                  <p id=""wtp"" style=""text-align:center; margin-top: 0px; margin-bottom: 0px; font-size: 40px"";>&ensp;</p>","-","viewing","0","9","14A,23A","","","","","","","","","","","","","","","","","","","","","",""
"","","","","","html-slider-response","83","2078044","0.0-17.0-1.22","5c08b639-fa5d-4e77-8594-9ab1660fa3c0","980","
                  <p style=""text-align: center;"">₪18
                                                <br>25%</p>
                  <p id=""wtp"" style=""text-align:center; margin-top: 0px; margin-bottom: 0px; font-size: 40px"";>מוכנים לשלם: <span id=""c_p_y""></span></p>","0","evaluation","3","9","14A,23A","25","18","0","","","","","","","","","","","","","","","","","","",""
"","","","","","html-keyboard-response","84","2079136","0.0-17.0-2.22","5c08b639-fa5d-4e77-8594-9ab1660fa3c0","null","<p style=""text-align: center;"">+</p>","null","fixation","","","","","","","","","","","","","","","","","","","","","","","","",""
"","","","","","html-slider-response","85","2080138","0.0-17.0-0.23","5c08b639-fa5d-4e77-8594-9ab1660fa3c0","1000","
                  <p style=""text-align: center;"">₪79
                                                <br>40%</p>
                  <p id=""wtp"" style=""text-align:center; margin-top: 0px; margin-bottom: 0px; font-size: 40px"";>&ensp;</p>","-","viewing","0","30","9B","","","","","","","","","","","","","","","","","","","","","",""
"","","","","","html-slider-response","86","2081684","0.0-17.0-1.23","5c08b639-fa5d-4e77-8594-9ab1660fa3c0","1545","
                  <p style=""text-align: center;"">₪79
                                                <br>40%</p>
                  <p id=""wtp"" style=""text-align:center; margin-top: 0px; margin-bottom: 0px; font-size: 40px"";>מוכנים לשלם: <span id=""c_p_y""></span></p>","0","evaluation","43","30","9B","40","79","0","","","","","","","","","","","","","","","","","","",""
"","","","","","html-keyboard-response","87","2082993","0.0-17.0-2.23","5c08b639-fa5d-4e77-8594-9ab1660fa3c0","null","<p style=""text-align: center;"">+</p>","null","fixation","","","","","","","","","","","","","","","","","","","","","","","","",""
"","","","","","html-slider-response","88","2083996","0.0-17.0-0.24","5c08b639-fa5d-4e77-8594-9ab1660fa3c0","1000","
                  <p style=""text-align: center;"">₪64
                                                <br>25%</p>
                  <p id=""wtp"" style=""text-align:center; margin-top: 0px; margin-bottom: 0px; font-size: 40px"";>&ensp;</p>","-","viewing","0","24","6A,21A","","","","","","","","","","","","","","","","","","","","","",""
"","","","","","html-slider-response","89","2085732","0.0-17.0-1.24","5c08b639-fa5d-4e77-8594-9ab1660fa3c0","1735","
                  <p style=""text-align: center;"">₪64
                                                <br>25%</p>
                  <p id=""wtp"" style=""text-align:center; margin-top: 0px; margin-bottom: 0px; font-size: 40px"";>מוכנים לשלם: <span id=""c_p_y""></span></p>","0","evaluation","54","24","6A,21A","25","64","0","","","","","","","","","","","","","","","","","","",""
"","","","","","html-keyboard-response","90","2086849","0.0-17.0-2.24","5c08b639-fa5d-4e77-8594-9ab1660fa3c0","null","<p style=""text-align: center;"">+</p>","null","fixation","","","","","","","","","","","","","","","","","","","","","","","","",""
"","","","","","html-slider-response","91","2087861","0.0-17.0-0.25","5c08b639-fa5d-4e77-8594-9ab1660fa3c0","1000","
                  <p style=""text-align: center;"">₪36
                                                <br>30%</p>
                  <p id=""wtp"" style=""text-align:center; margin-top: 0px; margin-bottom: 0px; font-size: 40px"";>&ensp;</p>","-","viewing","0","11","3C,20A,22A","","","","","","","","","","","","","","","","","","","","","",""
"","","","","","html-slider-response","92","2088740","0.0-17.0-1.25","5c08b639-fa5d-4e77-8594-9ab1660fa3c0","878","
                  <p style=""text-align: center;"">₪36
                                                <br>30%</p>
                  <p id=""wtp"" style=""text-align:center; margin-top: 0px; margin-bottom: 0px; font-size: 40px"";>מוכנים לשלם: <span id=""c_p_y""></span></p>","0","evaluation","61","11","3C,20A,22A","30","36","0","","","","","","","","","","","","","","","","","","",""
"","","","","","html-keyboard-response","93","2089854","0.0-17.0-2.25","5c08b639-fa5d-4e77-8594-9ab1660fa3c0","null","<p style=""text-align: center;"">+</p>","null","fixation","","","","","","","","","","","","","","","","","","","","","","","","",""
"","","","","","html-slider-response","94","2090864","0.0-17.0-0.26","5c08b639-fa5d-4e77-8594-9ab1660fa3c0","1000","
                  <p style=""text-align: center;"">₪18
                                                <br>50%</p>
                  <p id=""wtp"" style=""text-align:center; margin-top: 0px; margin-bottom: 0px; font-size: 40px"";>&ensp;</p>","-","viewing","0","10","2C,16C,22B,28A","","","","","","","","","","","","","","","","","","","","","",""
"","","","","","html-slider-response","95","2092004","0.0-17.0-1.26","5c08b639-fa5d-4e77-8594-9ab1660fa3c0","1139","
                  <p style=""text-align: center;"">₪18
                                                <br>50%</p>
                  <p id=""wtp"" style=""text-align:center; margin-top: 0px; margin-bottom: 0px; font-size: 40px"";>מוכנים לשלם: <span id=""c_p_y""></span></p>","0","evaluation","24","10","2C,16C,22B,28A","50","18","0","","","","","","","","","","","","","","","","","","",""
"","","","","","html-keyboard-response","96","2092679","0.0-17.0-2.26","5c08b639-fa5d-4e77-8594-9ab1660fa3c0","null","<p style=""text-align: center;"">+</p>","null","fixation","","","","","","","","","","","","","","","","","","","","","","","","",""
"","","","","","html-slider-response","97","2093686","0.0-17.0-0.27","5c08b639-fa5d-4e77-8594-9ab1660fa3c0","1000","
                  <p style=""text-align: center;"">₪4
                                                <br>50%</p>
                  <p id=""wtp"" style=""text-align:center; margin-top: 0px; margin-bottom: 0px; font-size: 40px"";>&ensp;</p>","-","viewing","0","2","4C,17B","","","","","","","","","","","","","","","","","","","","","",""
"","","","","","html-slider-response","98","2094500","0.0-17.0-1.27","5c08b639-fa5d-4e77-8594-9ab1660fa3c0","813","
                  <p style=""text-align: center;"">₪4
                                                <br>50%</p>
                  <p id=""wtp"" style=""text-align:center; margin-top: 0px; margin-bottom: 0px; font-size: 40px"";>מוכנים לשלם: <span id=""c_p_y""></span></p>","0","evaluation","35","2","4C,17B","50","4","0","","","","","","","","","","","","","","","","","","",""
"","","","","","html-keyboard-response","99","2095556","0.0-17.0-2.27","5c08b639-fa5d-4e77-8594-9ab1660fa3c0","null","<p style=""text-align: center;"">+</p>","null","fixation","","","","","","","","","","","","","","","","","","","","","","","","",""
"","","","","","html-slider-response","100","2096571","0.0-17.0-0.28","5c08b639-fa5d-4e77-8594-9ab1660fa3c0","1000","
                  <p style=""text-align: center;"">₪71
                                                <br>75%</p>
                  <p id=""wtp"" style=""text-align:center; margin-top: 0px; margin-bottom: 0px; font-size: 40px"";>&ensp;</p>","-","viewing","0","28","8B","","","","","","","","","","","","","","","","","","","","","",""
"","","","","","html-slider-response","101","2098180","0.0-17.0-1.28","5c08b639-fa5d-4e77-8594-9ab1660fa3c0","1609","
                  <p style=""text-align: center;"">₪71
                                                <br>75%</p>
                  <p id=""wtp"" style=""text-align:center; margin-top: 0px; margin-bottom: 0px; font-size: 40px"";>מוכנים לשלם: <span id=""c_p_y""></span></p>","4","evaluation","9","28","8B","75","71","5","","","","","","","","","","","","","","","","","","",""
"","","","","","html-keyboard-response","102","2098820","0.0-17.0-2.28","5c08b639-fa5d-4e77-8594-9ab1660fa3c0","null","<p style=""text-align: center;"">+</p>","null","fixation","","","","","","","","","","","","","","","","","","","","","","","","",""
"","","","","","html-slider-response","103","2099827","0.0-17.0-0.29","5c08b639-fa5d-4e77-8594-9ab1660fa3c0","1000","
                  <p style=""text-align: center;"">₪11
                                                <br>45%</p>
                  <p id=""wtp"" style=""text-align:center; margin-top: 0px; margin-bottom: 0px; font-size: 40px"";>&ensp;</p>","-","viewing","0","6","14B,21C,25C","","","","","","","","","","","","","","","","","","","","","",""
"","","","","","html-slider-response","104","2100740","0.0-17.0-1.29","5c08b639-fa5d-4e77-8594-9ab1660fa3c0","912","
                  <p style=""text-align: center;"">₪11
                                                <br>45%</p>
                  <p id=""wtp"" style=""text-align:center; margin-top: 0px; margin-bottom: 0px; font-size: 40px"";>מוכנים לשלם: <span id=""c_p_y""></span></p>","0","evaluation","57","6","14B,21C,25C","45","11","0","","","","","","","","","","","","","","","","","","",""
"","","","","","html-keyboard-response","105","2101905","0.0-17.0-2.29","5c08b639-fa5d-4e77-8594-9ab1660fa3c0","null","<p style=""text-align: center;"">+</p>","null","fixation","","","","","","","","","","","","","","","","","","","","","","","","",""
"","","","","","html-slider-response","106","2102906","0.0-17.0-0.30","5c08b639-fa5d-4e77-8594-9ab1660fa3c0","1000","
                  <p style=""text-align: center;"">₪4
                                                <br>25%</p>
                  <p id=""wtp"" style=""text-align:center; margin-top: 0px; margin-bottom: 0px; font-size: 40px"";>&ensp;</p>","-","viewing","0","1","6C,29B,30C","","","","","","","","","","","","","","","","","","","","","",""
"","","","","","html-slider-response","107","2103740","0.0-17.0-1.30","5c08b639-fa5d-4e77-8594-9ab1660fa3c0","833","
                  <p style=""text-align: center;"">₪4
                                                <br>25%</p>
                  <p id=""wtp"" style=""text-align:center; margin-top: 0px; margin-bottom: 0px; font-size: 40px"";>מוכנים לשלם: <span id=""c_p_y""></span></p>","0","evaluation","60","1","6C,29B,30C","25","4","0","","","","","","","","","","","","","","","","","","",""
"","","","","","html-keyboard-response","108","2104818","0.0-17.0-2.30","5c08b639-fa5d-4e77-8594-9ab1660fa3c0","null","<p style=""text-align: center;"">+</p>","null","fixation","","","","","","","","","","","","","","","","","","","","","","","","",""
"","","","","","html-keyboard-response","109","2105827","0.0-18.0","5c08b639-fa5d-4e77-8594-9ab1660fa3c0","null","<p style=""text-align: center;"">+</p>","null","fixation","","","","","","","","","","","","","","","","","","","","","","","","",""
"","","","","","html-keyboard-response","110","2107252","0.0-19.0","5c08b639-fa5d-4e77-8594-9ab1660fa3c0","null","<p>הפסקה.
          <br>לחצו כדי להמשיך.</p>","1","scan_wait","","","","","","","","","","","","","","","","","","","","","","","","",""
"","","","","","html-keyboard-response","111","2108259","0.0-20.0","5c08b639-fa5d-4e77-8594-9ab1660fa3c0","null","<p style=""text-align: center;"">+</p>","null","fixation","","","","","","","","","","","","","","","","","","","","","","","","",""
"","","","","","html-slider-response","112","2109261","0.0-21.0-0.0","5c08b639-fa5d-4e77-8594-9ab1660fa3c0","1000","
                  <p style=""text-align: center;"">₪36
                                                <br>70%</p>
                  <p id=""wtp"" style=""text-align:center; margin-top: 0px; margin-bottom: 0px; font-size: 40px"";>&ensp;</p>","-","viewing","0","13","3A,5C,10B","","","","","","","","","","","","","","","","","","","","","",""
"","","","","","html-slider-response","113","2111020","0.0-21.0-1.0","5c08b639-fa5d-4e77-8594-9ab1660fa3c0","1758","
                  <p style=""text-align: center;"">₪36
                                                <br>70%</p>
                  <p id=""wtp"" style=""text-align:center; margin-top: 0px; margin-bottom: 0px; font-size: 40px"";>מוכנים לשלם: <span id=""c_p_y""></span></p>","4","evaluation","67","13","3A,5C,10B","70","36","5","","","","","","","","","","","","","","","","","","",""
"","","","","","html-keyboard-response","114","2112038","0.0-21.0-2.0","5c08b639-fa5d-4e77-8594-9ab1660fa3c0","null","<p style=""text-align: center;"">+</p>","null","fixation","","","","","","","","","","","","","","","","","","","","","","","","",""
"","","","","","html-slider-response","115","2113040","0.0-21.0-0.1","5c08b639-fa5d-4e77-8594-9ab1660fa3c0","1000","
                  <p style=""text-align: center;"">₪58
                                                <br>45%</p>
                  <p id=""wtp"" style=""text-align:center; margin-top: 0px; margin-bottom: 0px; font-size: 40px"";>&ensp;</p>","-","viewing","0","21","11C,18C,25A","","","","","","","","","","","","","","","","","","","","","",""
"","","","","","html-slider-response","116","2114332","0.0-21.0-1.1","5c08b639-fa5d-4e77-8594-9ab1660fa3c0","1291","
                  <p style=""text-align: center;"">₪58
                                                <br>45%</p>
                  <p id=""wtp"" style=""text-align:center; margin-top: 0px; margin-bottom: 0px; font-size: 40px"";>מוכנים לשלם: <span id=""c_p_y""></span></p>","0","evaluation","14","21","11C,18C,25A","45","58","0","","","","","","","","","","","","","","","","","","",""
"","","","","","html-keyboard-response","117","2115151","0.0-21.0-2.1","5c08b639-fa5d-4e77-8594-9ab1660fa3c0","null","<p style=""text-align: center;"">+</p>","null","fixation","","","","","","","","","","","","","","","","","","","","","","","","",""
"","","","","","html-slider-response","118","2116166","0.0-21.0-0.2","5c08b639-fa5d-4e77-8594-9ab1660fa3c0","1000","
                  <p style=""text-align: center;"">₪11
                                                <br>25%</p>
                  <p id=""wtp"" style=""text-align:center; margin-top: 0px; margin-bottom: 0px; font-size: 40px"";>&ensp;</p>","-","viewing","0","5","12A,27B,28B,30B","","","","","","","","","","","","","","","","","","","","","",""
"","","","","","html-slider-response","119","2117388","0.0-21.0-1.2","5c08b639-fa5d-4e77-8594-9ab1660fa3c0","1221","
                  <p style=""text-align: center;"">₪11
                                                <br>25%</p>
                  <p id=""wtp"" style=""text-align:center; margin-top: 0px; margin-bottom: 0px; font-size: 40px"";>מוכנים לשלם: <span id=""c_p_y""></span></p>","0","evaluation","29","5","12A,27B,28B,30B","25","11","0","","","","","","","","","","","","","","","","","","",""
"","","","","","html-keyboard-response","120","2118544","0.0-21.0-2.2","5c08b639-fa5d-4e77-8594-9ab1660fa3c0","null","<p style=""text-align: center;"">+</p>","null","fixation","","","","","","","","","","","","","","","","","","","","","","","","",""
"","","","","","html-slider-response","121","2119546","0.0-21.0-0.3","5c08b639-fa5d-4e77-8594-9ab1660fa3c0","1000","
                  <p style=""text-align: center;"">₪58
                                                <br>30%</p>
                  <p id=""wtp"" style=""text-align:center; margin-top: 0px; margin-bottom: 0px; font-size: 40px"";>&ensp;</p>","-","viewing","0","19","13C,30A","","","","","","","","","","","","","","","","","","","","","",""
"","","","","","html-slider-response","122","2120725","0.0-21.0-1.3","5c08b639-fa5d-4e77-8594-9ab1660fa3c0","1178","
                  <p style=""text-align: center;"">₪58
                                                <br>30%</p>
                  <p id=""wtp"" style=""text-align:center; margin-top: 0px; margin-bottom: 0px; font-size: 40px"";>מוכנים לשלם: <span id=""c_p_y""></span></p>","0","evaluation","62","19","13C,30A","30","58","0","","","","","","","","","","","","","","","","","","",""
"","","","","","html-keyboard-response","123","2121251","0.0-21.0-2.3","5c08b639-fa5d-4e77-8594-9ab1660fa3c0","null","<p style=""text-align: center;"">+</p>","null","fixation","","","","","","","","","","","","","","","","","","","","","","","","",""
"","","","","","html-slider-response","124","2122253","0.0-21.0-0.4","5c08b639-fa5d-4e77-8594-9ab1660fa3c0","1000","
                  <p style=""text-align: center;"">₪36
                                                <br>75%</p>
                  <p id=""wtp"" style=""text-align:center; margin-top: 0px; margin-bottom: 0px; font-size: 40px"";>&ensp;</p>","-","viewing","0","14","4B,5A,13B,16B","","","","","","","","","","","","","","","","","","","","","",""
"","","","","","html-slider-response","125","2123636","0.0-21.0-1.4","5c08b639-fa5d-4e77-8594-9ab1660fa3c0","1382","
                  <p style=""text-align: center;"">₪36
                                                <br>75%</p>
                  <p id=""wtp"" style=""text-align:center; margin-top: 0px; margin-bottom: 0px; font-size: 40px"";>מוכנים לשלם: <span id=""c_p_y""></span></p>","5","evaluation","12","14","4B,5A,13B,16B","75","36","5","","","","","","","","","","","","","","","","","","",""
"","","","","","html-keyboard-response","126","2124784","0.0-21.0-2.4","5c08b639-fa5d-4e77-8594-9ab1660fa3c0","null","<p style=""text-align: center;"">+</p>","null","fixation","","","","","","","","","","","","","","","","","","","","","","","","",""
"","","","","","html-slider-response","127","2125787","0.0-21.0-0.5","5c08b639-fa5d-4e77-8594-9ab1660fa3c0","1000","
                  <p style=""text-align: center;"">₪61
                                                <br>45%</p>
                  <p id=""wtp"" style=""text-align:center; margin-top: 0px; margin-bottom: 0px; font-size: 40px"";>&ensp;</p>","-","viewing","0","22","10A,11A","","","","","","","","","","","","","","","","","","","","","",""
"","","","","","html-slider-response","128","2126948","0.0-21.0-1.5","5c08b639-fa5d-4e77-8594-9ab1660fa3c0","1160","
                  <p style=""text-align: center;"">₪61
                                                <br>45%</p>
                  <p id=""wtp"" style=""text-align:center; margin-top: 0px; margin-bottom: 0px; font-size: 40px"";>מוכנים לשלם: <span id=""c_p_y""></span></p>","0","evaluation","48","22","10A,11A","45","61","0","","","","","","","","","","","","","","","","","","",""
"","","","","","html-keyboard-response","129","2128088","0.0-21.0-2.5","5c08b639-fa5d-4e77-8594-9ab1660fa3c0","null","<p style=""text-align: center;"">+</p>","null","fixation","","","","","","","","","","","","","","","","","","","","","","","","",""
"","","","","","html-slider-response","130","2129092","0.0-21.0-0.6","5c08b639-fa5d-4e77-8594-9ab1660fa3c0","1000","
                  <p style=""text-align: center;"">₪71
                                                <br>75%</p>
                  <p id=""wtp"" style=""text-align:center; margin-top: 0px; margin-bottom: 0px; font-size: 40px"";>&ensp;</p>","-","viewing","0","28","8B","","","","","","","","","","","","","","","","","","","","","",""
"","","","","","html-slider-response","131","2130581","0.0-21.0-1.6","5c08b639-fa5d-4e77-8594-9ab1660fa3c0","1487","
                  <p style=""text-align: center;"">₪71
                                                <br>75%</p>
                  <p id=""wtp"" style=""text-align:center; margin-top: 0px; margin-bottom: 0px; font-size: 40px"";>מוכנים לשלם: <span id=""c_p_y""></span></p>","10","evaluation","44","28","8B","75","71","10","","","","","","","","","","","","","","","","","","",""
"","","","","","html-keyboard-response","132","2131126","0.0-21.0-2.6","5c08b639-fa5d-4e77-8594-9ab1660fa3c0","null","<p style=""text-align: center;"">+</p>","null","fixation","","","","","","","","","","","","","","","","","","","","","","","","",""
"","","","","","html-slider-response","133","2132137","0.0-21.0-0.7","5c08b639-fa5d-4e77-8594-9ab1660fa3c0","1000","
                  <p style=""text-align: center;"">₪11
                                                <br>75%</p>
                  <p id=""wtp"" style=""text-align:center; margin-top: 0px; margin-bottom: 0px; font-size: 40px"";>&ensp;</p>","-","viewing","0","7","6B,18B,22C,24C,29A","","","","","","","","","","","","","","","","","","","","","",""
"","","","","","html-slider-response","134","2133788","0.0-21.0-1.7","5c08b639-fa5d-4e77-8594-9ab1660fa3c0","1651","
                  <p style=""text-align: center;"">₪11
                                                <br>75%</p>
                  <p id=""wtp"" style=""text-align:center; margin-top: 0px; margin-bottom: 0px; font-size: 40px"";>מוכנים לשלם: <span id=""c_p_y""></span></p>","0","evaluation","28","7","6B,18B,22C,24C,29A","75","11","0","","","","","","","","","","","","","","","","","","",""
"","","","","","html-keyboard-response","135","2134378","0.0-21.0-2.7","5c08b639-fa5d-4e77-8594-9ab1660fa3c0","null","<p style=""text-align: center;"">+</p>","null","fixation","","","","","","","","","","","","","","","","","","","","","","","","",""
"","","","","","html-slider-response","136","2135388","0.0-21.0-0.8","5c08b639-fa5d-4e77-8594-9ab1660fa3c0","1000","
                  <p style=""text-align: center;"">₪16
                                                <br>20%</p>
                  <p id=""wtp"" style=""text-align:center; margin-top: 0px; margin-bottom: 0px; font-size: 40px"";>&ensp;</p>","-","viewing","0","8","14C,17A,20C,27A","","","","","","","","","","","","","","","","","","","","","",""
"","","","","","html-slider-response","137","2136372","0.0-21.0-1.8","5c08b639-fa5d-4e77-8594-9ab1660fa3c0","984","
                  <p style=""text-align: center;"">₪16
                                                <br>20%</p>
                  <p id=""wtp"" style=""text-align:center; margin-top: 0px; margin-bottom: 0px; font-size: 40px"";>מוכנים לשלם: <span id=""c_p_y""></span></p>","0","evaluation","44","8","14C,17A,20C,27A","20","16","0","","","","","","","","","","","","","","","","","","",""
"","","","","","html-keyboard-response","138","2137110","0.0-21.0-2.8","5c08b639-fa5d-4e77-8594-9ab1660fa3c0","null","<p style=""text-align: center;"">+</p>","null","fixation","","","","","","","","","","","","","","","","","","","","","","","","",""
"","","","","","html-slider-response","139","2138124","0.0-21.0-0.9","5c08b639-fa5d-4e77-8594-9ab1660fa3c0","1000","
                  <p style=""text-align: center;"">₪43
                                                <br>60%</p>
                  <p id=""wtp"" style=""text-align:center; margin-top: 0px; margin-bottom: 0px; font-size: 40px"";>&ensp;</p>","-","viewing","0","17","2A,7A,9A,15B","","","","","","","","","","","","","","","","","","","","","",""
"","","","","","html-slider-response","140","2139772","0.0-21.0-1.9","5c08b639-fa5d-4e77-8594-9ab1660fa3c0","1647","
                  <p style=""text-align: center;"">₪43
                                                <br>60%</p>
                  <p id=""wtp"" style=""text-align:center; margin-top: 0px; margin-bottom: 0px; font-size: 40px"";>מוכנים לשלם: <span id=""c_p_y""></span></p>","0","evaluation","35","17","2A,7A,9A,15B","60","43","0","","","","","","","","","","","","","","","","","","",""
"","","","","","html-keyboard-response","141","2140509","0.0-21.0-2.9","5c08b639-fa5d-4e77-8594-9ab1660fa3c0","null","<p style=""text-align: center;"">+</p>","null","fixation","","","","","","","","","","","","","","","","","","","","","","","","",""
"","","","","","html-slider-response","142","2141511","0.0-21.0-0.10","5c08b639-fa5d-4e77-8594-9ab1660fa3c0","1000","
                  <p style=""text-align: center;"">₪71
                                                <br>45%</p>
                  <p id=""wtp"" style=""text-align:center; margin-top: 0px; margin-bottom: 0px; font-size: 40px"";>&ensp;</p>","-","viewing","0","26","2B,16A","","","","","","","","","","","","","","","","","","","","","",""
"","","","","","html-slider-response","143","2142540","0.0-21.0-1.10","5c08b639-fa5d-4e77-8594-9ab1660fa3c0","1028","
                  <p style=""text-align: center;"">₪71
                                                <br>45%</p>
                  <p id=""wtp"" style=""text-align:center; margin-top: 0px; margin-bottom: 0px; font-size: 40px"";>מוכנים לשלם: <span id=""c_p_y""></span></p>","0","evaluation","61","26","2B,16A","45","71","0","","","","","","","","","","","","","","","","","","",""
"","","","","","html-keyboard-response","144","2144026","0.0-21.0-2.10","5c08b639-fa5d-4e77-8594-9ab1660fa3c0","null","<p style=""text-align: center;"">+</p>","null","fixation","","","","","","","","","","","","","","","","","","","","","","","","",""
"","","","","","html-slider-response","145","2145033","0.0-21.0-0.11","5c08b639-fa5d-4e77-8594-9ab1660fa3c0","1000","
                  <p style=""text-align: center;"">₪4
                                                <br>50%</p>
                  <p id=""wtp"" style=""text-align:center; margin-top: 0px; margin-bottom: 0px; font-size: 40px"";>&ensp;</p>","-","viewing","0","2","4C,17B","","","","","","","","","","","","","","","","","","","","","",""
"","","","","","html-slider-response","146","2145764","0.0-21.0-1.11","5c08b639-fa5d-4e77-8594-9ab1660fa3c0","731","
                  <p style=""text-align: center;"">₪4
                                                <br>50%</p>
                  <p id=""wtp"" style=""text-align:center; margin-top: 0px; margin-bottom: 0px; font-size: 40px"";>מוכנים לשלם: <span id=""c_p_y""></span></p>","0","evaluation","34","2","4C,17B","50","4","0","","","","","","","","","","","","","","","","","","",""
"","","","","","html-keyboard-response","147","2147074","0.0-21.0-2.11","5c08b639-fa5d-4e77-8594-9ab1660fa3c0","null","<p style=""text-align: center;"">+</p>","null","fixation","","","","","","","","","","","","","","","","","","","","","","","","",""
"","","","","","html-slider-response","148","2148088","0.0-21.0-0.12","5c08b639-fa5d-4e77-8594-9ab1660fa3c0","1000","
                  <p style=""text-align: center;"">₪11
                                                <br>20%</p>
                  <p id=""wtp"" style=""text-align:center; margin-top: 0px; margin-bottom: 0px; font-size: 40px"";>&ensp;</p>","-","viewing","0","4","12C,17C,23C,28C","","","","","","","","","","","","","","","","","","","","","",""
"","","","","","html-slider-response","149","2149092","0.0-21.0-1.12","5c08b639-fa5d-4e77-8594-9ab1660fa3c0","1003","
                  <p style=""text-align: center;"">₪11
                                                <br>20%</p>
                  <p id=""wtp"" style=""text-align:center; margin-top: 0px; margin-bottom: 0px; font-size: 40px"";>מוכנים לשלם: <span id=""c_p_y""></span></p>","0","evaluation","59","4","12C,17C,23C,28C","20","11","0","","","","","","","","","","","","","","","","","","",""
"","","","","","html-keyboard-response","150","2149707","0.0-21.0-2.12","5c08b639-fa5d-4e77-8594-9ab1660fa3c0","null","<p style=""text-align: center;"">+</p>","null","fixation","","","","","","","","","","","","","","","","","","","","","","","","",""
"","","","","","html-slider-response","151","2150715","0.0-21.0-0.13","5c08b639-fa5d-4e77-8594-9ab1660fa3c0","1000","
                  <p style=""text-align: center;"">₪76
                                                <br>65%</p>
                  <p id=""wtp"" style=""text-align:center; margin-top: 0px; margin-bottom: 0px; font-size: 40px"";>&ensp;</p>","-","viewing","0","29","8C,19A,24B","","","","","","","","","","","","","","","","","","","","","",""
"","","","","","html-slider-response","152","2153500","0.0-21.0-1.13","5c08b639-fa5d-4e77-8594-9ab1660fa3c0","2784","
                  <p style=""text-align: center;"">₪76
                                                <br>65%</p>
                  <p id=""wtp"" style=""text-align:center; margin-top: 0px; margin-bottom: 0px; font-size: 40px"";>מוכנים לשלם: <span id=""c_p_y""></span></p>","4","evaluation","39","29","8C,19A,24B","65","76","5","","","","","","","","","","","","","","","","","","",""
"","","","","","html-keyboard-response","153","2154574","0.0-21.0-2.13","5c08b639-fa5d-4e77-8594-9ab1660fa3c0","null","<p style=""text-align: center;"">+</p>","null","fixation","","","","","","","","","","","","","","","","","","","","","","","","",""
"","","","","","html-slider-response","154","2155583","0.0-21.0-0.14","5c08b639-fa5d-4e77-8594-9ab1660fa3c0","1000","
                  <p style=""text-align: center;"">₪79
                                                <br>40%</p>
                  <p id=""wtp"" style=""text-align:center; margin-top: 0px; margin-bottom: 0px; font-size: 40px"";>&ensp;</p>","-","viewing","0","30","9B","","","","","","","","","","","","","","","","","","","","","",""
"","","","","","html-slider-response","155","2156631","0.0-21.0-1.14","5c08b639-fa5d-4e77-8594-9ab1660fa3c0","1052","
                  <p style=""text-align: center;"">₪79
                                                <br>40%</p>
                  <p id=""wtp"" style=""text-align:center; margin-top: 0px; margin-bottom: 0px; font-size: 40px"";>מוכנים לשלם: <span id=""c_p_y""></span></p>","0","evaluation","14","30","9B","40","79","0","","","","","","","","","","","","","","","","","","",""
"","","","","","html-keyboard-response","156","2157754","0.0-21.0-2.14","5c08b639-fa5d-4e77-8594-9ab1660fa3c0","null","<p style=""text-align: center;"">+</p>","null","fixation","","","","","","","","","","","","","","","","","","","","","","","","",""
"","","","","","html-slider-response","157","2158764","0.0-21.0-0.15","5c08b639-fa5d-4e77-8594-9ab1660fa3c0","1000","
                  <p style=""text-align: center;"">₪36
                                                <br>30%</p>
                  <p id=""wtp"" style=""text-align:center; margin-top: 0px; margin-bottom: 0px; font-size: 40px"";>&ensp;</p>","-","viewing","0","11","3C,20A,22A","","","","","","","","","","","","","","","","","","","","","",""
"","","","","","html-slider-response","158","2159503","0.0-21.0-1.15","5c08b639-fa5d-4e77-8594-9ab1660fa3c0","738","
                  <p style=""text-align: center;"">₪36
                                                <br>30%</p>
                  <p id=""wtp"" style=""text-align:center; margin-top: 0px; margin-bottom: 0px; font-size: 40px"";>מוכנים לשלם: <span id=""c_p_y""></span></p>","0","evaluation","26","11","3C,20A,22A","30","36","0","","","","","","","","","","","","","","","","","","",""
"","","","","","html-keyboard-response","159","2160675","0.0-21.0-2.15","5c08b639-fa5d-4e77-8594-9ab1660fa3c0","null","<p style=""text-align: center;"">+</p>","null","fixation","","","","","","","","","","","","","","","","","","","","","","","","",""
"","","","","","html-slider-response","160","2161686","0.0-21.0-0.16","5c08b639-fa5d-4e77-8594-9ab1660fa3c0","1000","
                  <p style=""text-align: center;"">₪43
                                                <br>75%</p>
                  <p id=""wtp"" style=""text-align:center; margin-top: 0px; margin-bottom: 0px; font-size: 40px"";>&ensp;</p>","-","viewing","0","18","11B,19B,24A,26A","","","","","","","","","","","","","","","","","","","","","",""
"","","","","","html-slider-response","161","2164975","0.0-21.0-1.16","5c08b639-fa5d-4e77-8594-9ab1660fa3c0","3288","
                  <p style=""text-align: center;"">₪43
                                                <br>75%</p>
                  <p id=""wtp"" style=""text-align:center; margin-top: 0px; margin-bottom: 0px; font-size: 40px"";>מוכנים לשלם: <span id=""c_p_y""></span></p>","7","evaluation","16","18","11B,19B,24A,26A","75","43","7","","","","","","","","","","","","","","","","","","",""
"","","","","","html-keyboard-response","162","2165788","0.0-21.0-2.16","5c08b639-fa5d-4e77-8594-9ab1660fa3c0","null","<p style=""text-align: center;"">+</p>","null","fixation","","","","","","","","","","","","","","","","","","","","","","","","",""
"","","","","","html-slider-response","163","2166791","0.0-21.0-0.17","5c08b639-fa5d-4e77-8594-9ab1660fa3c0","1000","
                  <p style=""text-align: center;"">₪18
                                                <br>25%</p>
                  <p id=""wtp"" style=""text-align:center; margin-top: 0px; margin-bottom: 0px; font-size: 40px"";>&ensp;</p>","-","viewing","0","9","14A,23A","","","","","","","","","","","","","","","","","","","","","",""
"","","","","","html-slider-response","164","2167903","0.0-21.0-1.17","5c08b639-fa5d-4e77-8594-9ab1660fa3c0","1111","
                  <p style=""text-align: center;"">₪18
                                                <br>25%</p>
                  <p id=""wtp"" style=""text-align:center; margin-top: 0px; margin-bottom: 0px; font-size: 40px"";>מוכנים לשלם: <span id=""c_p_y""></span></p>","0","evaluation","33","9","14A,23A","25","18","0","","","","","","","","","","","","","","","","","","",""
"","","","","","html-keyboard-response","165","2168688","0.0-21.0-2.17","5c08b639-fa5d-4e77-8594-9ab1660fa3c0","null","<p style=""text-align: center;"">+</p>","null","fixation","","","","","","","","","","","","","","","","","","","","","","","","",""
"","","","","","html-slider-response","166","2169692","0.0-21.0-0.18","5c08b639-fa5d-4e77-8594-9ab1660fa3c0","1000","
                  <p style=""text-align: center;"">₪71
                                                <br>55%</p>
                  <p id=""wtp"" style=""text-align:center; margin-top: 0px; margin-bottom: 0px; font-size: 40px"";>&ensp;</p>","-","viewing","0","27","5B,18A","","","","","","","","","","","","","","","","","","","","","",""
"","","","","","html-slider-response","167","2172319","0.0-21.0-1.18","5c08b639-fa5d-4e77-8594-9ab1660fa3c0","2627","
                  <p style=""text-align: center;"">₪71
                                                <br>55%</p>
                  <p id=""wtp"" style=""text-align:center; margin-top: 0px; margin-bottom: 0px; font-size: 40px"";>מוכנים לשלם: <span id=""c_p_y""></span></p>","4","evaluation","19","27","5B,18A","55","71","4","","","","","","","","","","","","","","","","","","",""
"","","","","","html-keyboard-response","168","2173455","0.0-21.0-2.18","5c08b639-fa5d-4e77-8594-9ab1660fa3c0","null","<p style=""text-align: center;"">+</p>","null","fixation","","","","","","","","","","","","","","","","","","","","","","","","",""
"","","","","","html-slider-response","169","2174464","0.0-21.0-0.19","5c08b639-fa5d-4e77-8594-9ab1660fa3c0","1000","
                  <p style=""text-align: center;"">₪39
                                                <br>65%</p>
                  <p id=""wtp"" style=""text-align:center; margin-top: 0px; margin-bottom: 0px; font-size: 40px"";>&ensp;</p>","-","viewing","0","16","1A,15A,26C","","","","","","","","","","","","","","","","","","","","","",""
"","","","","","html-slider-response","170","2175607","0.0-21.0-1.19","5c08b639-fa5d-4e77-8594-9ab1660fa3c0","1142","
                  <p style=""text-align: center;"">₪39
                                                <br>65%</p>
                  <p id=""wtp"" style=""text-align:center; margin-top: 0px; margin-bottom: 0px; font-size: 40px"";>מוכנים לשלם: <span id=""c_p_y""></span></p>","5","evaluation","23","16","1A,15A,26C","65","39","5","","","","","","","","","","","","","","","","","","",""
"","","","","","html-keyboard-response","171","2176156","0.0-21.0-2.19","5c08b639-fa5d-4e77-8594-9ab1660fa3c0","null","<p style=""text-align: center;"">+</p>","null","fixation","","","","","","","","","","","","","","","","","","","","","","","","",""
"","","","","","html-slider-response","172","2177167","0.0-21.0-0.20","5c08b639-fa5d-4e77-8594-9ab1660fa3c0","1000","
                  <p style=""text-align: center;"">₪61
                                                <br>55%</p>
                  <p id=""wtp"" style=""text-align:center; margin-top: 0px; margin-bottom: 0px; font-size: 40px"";>&ensp;</p>","-","viewing","0","23","7B,26B","","","","","","","","","","","","","","","","","","","","","",""
"","","","","","html-slider-response","173","2178999","0.0-21.0-1.20","5c08b639-fa5d-4e77-8594-9ab1660fa3c0","1831","
                  <p style=""text-align: center;"">₪61
                                                <br>55%</p>
                  <p id=""wtp"" style=""text-align:center; margin-top: 0px; margin-bottom: 0px; font-size: 40px"";>מוכנים לשלם: <span id=""c_p_y""></span></p>","5","evaluation","73","23","7B,26B","55","61","5","","","","","","","","","","","","","","","","","","",""
"","","","","","html-keyboard-response","174","2180051","0.0-21.0-2.20","5c08b639-fa5d-4e77-8594-9ab1660fa3c0","null","<p style=""text-align: center;"">+</p>","null","fixation","","","","","","","","","","","","","","","","","","","","","","","","",""
"","","","","","html-slider-response","175","2181054","0.0-21.0-0.21","5c08b639-fa5d-4e77-8594-9ab1660fa3c0","1000","
                  <p style=""text-align: center;"">₪18
                                                <br>50%</p>
                  <p id=""wtp"" style=""text-align:center; margin-top: 0px; margin-bottom: 0px; font-size: 40px"";>&ensp;</p>","-","viewing","0","10","2C,16C,22B,28A","","","","","","","","","","","","","","","","","","","","","",""
"","","","","","html-slider-response","176","2181903","0.0-21.0-1.21","5c08b639-fa5d-4e77-8594-9ab1660fa3c0","848","
                  <p style=""text-align: center;"">₪18
                                                <br>50%</p>
                  <p id=""wtp"" style=""text-align:center; margin-top: 0px; margin-bottom: 0px; font-size: 40px"";>מוכנים לשלם: <span id=""c_p_y""></span></p>","0","evaluation","8","10","2C,16C,22B,28A","50","18","0","","","","","","","","","","","","","","","","","","",""
"","","","","","html-keyboard-response","177","2182802","0.0-21.0-2.21","5c08b639-fa5d-4e77-8594-9ab1660fa3c0","null","<p style=""text-align: center;"">+</p>","null","fixation","","","","","","","","","","","","","","","","","","","","","","","","",""
"","","","","","html-slider-response","178","2183806","0.0-21.0-0.22","5c08b639-fa5d-4e77-8594-9ab1660fa3c0","1000","
                  <p style=""text-align: center;"">₪36
                                                <br>60%</p>
                  <p id=""wtp"" style=""text-align:center; margin-top: 0px; margin-bottom: 0px; font-size: 40px"";>&ensp;</p>","-","viewing","0","12","1C,7C,15C","","","","","","","","","","","","","","","","","","","","","",""
"","","","","","html-slider-response","179","2184854","0.0-21.0-1.22","5c08b639-fa5d-4e77-8594-9ab1660fa3c0","1048","
                  <p style=""text-align: center;"">₪36
                                                <br>60%</p>
                  <p id=""wtp"" style=""text-align:center; margin-top: 0px; margin-bottom: 0px; font-size: 40px"";>מוכנים לשלם: <span id=""c_p_y""></span></p>","5","evaluation","7","12","1C,7C,15C","60","36","5","","","","","","","","","","","","","","","","","","",""
"","","","","","html-keyboard-response","180","2185548","0.0-21.0-2.22","5c08b639-fa5d-4e77-8594-9ab1660fa3c0","null","<p style=""text-align: center;"">+</p>","null","fixation","","","","","","","","","","","","","","","","","","","","","","","","",""
"","","","","","html-slider-response","181","2186549","0.0-21.0-0.23","5c08b639-fa5d-4e77-8594-9ab1660fa3c0","1000","
                  <p style=""text-align: center;"">₪64
                                                <br>25%</p>
                  <p id=""wtp"" style=""text-align:center; margin-top: 0px; margin-bottom: 0px; font-size: 40px"";>&ensp;</p>","-","viewing","0","24","6A,21A","","","","","","","","","","","","","","","","","","","","","",""
"","","","","","html-slider-response","182","2187951","0.0-21.0-1.23","5c08b639-fa5d-4e77-8594-9ab1660fa3c0","1402","
                  <p style=""text-align: center;"">₪64
                                                <br>25%</p>
                  <p id=""wtp"" style=""text-align:center; margin-top: 0px; margin-bottom: 0px; font-size: 40px"";>מוכנים לשלם: <span id=""c_p_y""></span></p>","0","evaluation","37","24","6A,21A","25","64","0","","","","","","","","","","","","","","","","","","",""
"","","","","","html-keyboard-response","183","2188519","0.0-21.0-2.23","5c08b639-fa5d-4e77-8594-9ab1660fa3c0","null","<p style=""text-align: center;"">+</p>","null","fixation","","","","","","","","","","","","","","","","","","","","","","","","",""
"","","","","","html-slider-response","184","2189526","0.0-21.0-0.24","5c08b639-fa5d-4e77-8594-9ab1660fa3c0","1000","
                  <p style=""text-align: center;"">₪4
                                                <br>25%</p>
                  <p id=""wtp"" style=""text-align:center; margin-top: 0px; margin-bottom: 0px; font-size: 40px"";>&ensp;</p>","-","viewing","0","1","6C,29B,30C","","","","","","","","","","","","","","","","","","","","","",""
"","","","","","html-slider-response","185","2190487","0.0-21.0-1.24","5c08b639-fa5d-4e77-8594-9ab1660fa3c0","959","
                  <p style=""text-align: center;"">₪4
                                                <br>25%</p>
                  <p id=""wtp"" style=""text-align:center; margin-top: 0px; margin-bottom: 0px; font-size: 40px"";>מוכנים לשלם: <span id=""c_p_y""></span></p>","0","evaluation","57","1","6C,29B,30C","25","4","0","","","","","","","","","","","","","","","","","","",""
"","","","","","html-keyboard-response","186","2191799","0.0-21.0-2.24","5c08b639-fa5d-4e77-8594-9ab1660fa3c0","null","<p style=""text-align: center;"">+</p>","null","fixation","","","","","","","","","","","","","","","","","","","","","","","","",""
"","","","","","html-slider-response","187","2192813","0.0-21.0-0.25","5c08b639-fa5d-4e77-8594-9ab1660fa3c0","1000","
                  <p style=""text-align: center;"">₪79
                                                <br>65%</p>
                  <p id=""wtp"" style=""text-align:center; margin-top: 0px; margin-bottom: 0px; font-size: 40px"";>&ensp;</p>","-","viewing","0","31","8A","","","","","","","","","","","","","","","","","","","","","",""
"","","","","","html-slider-response","188","2194119","0.0-21.0-1.25","5c08b639-fa5d-4e77-8594-9ab1660fa3c0","1305","
                  <p style=""text-align: center;"">₪79
                                                <br>65%</p>
                  <p id=""wtp"" style=""text-align:center; margin-top: 0px; margin-bottom: 0px; font-size: 40px"";>מוכנים לשלם: <span id=""c_p_y""></span></p>","6","evaluation","22","31","8A","65","79","6","","","","","","","","","","","","","","","","","","",""
"","","","","","html-keyboard-response","189","2194679","0.0-21.0-2.25","5c08b639-fa5d-4e77-8594-9ab1660fa3c0","null","<p style=""text-align: center;"">+</p>","null","fixation","","","","","","","","","","","","","","","","","","","","","","","","",""
"","","","","","html-slider-response","190","2195694","0.0-21.0-0.26","5c08b639-fa5d-4e77-8594-9ab1660fa3c0","1000","
                  <p style=""text-align: center;"">₪39
                                                <br>60%</p>
                  <p id=""wtp"" style=""text-align:center; margin-top: 0px; margin-bottom: 0px; font-size: 40px"";>&ensp;</p>","-","viewing","0","15","9C,25B","","","","","","","","","","","","","","","","","","","","","",""
"","","","","","html-slider-response","191","2196799","0.0-21.0-1.26","5c08b639-fa5d-4e77-8594-9ab1660fa3c0","1104","
                  <p style=""text-align: center;"">₪39
                                                <br>60%</p>
                  <p id=""wtp"" style=""text-align:center; margin-top: 0px; margin-bottom: 0px; font-size: 40px"";>מוכנים לשלם: <span id=""c_p_y""></span></p>","5","evaluation","14","15","9C,25B","60","39","5","","","","","","","","","","","","","","","","","","",""
"","","","","","html-keyboard-response","192","2197962","0.0-21.0-2.26","5c08b639-fa5d-4e77-8594-9ab1660fa3c0","null","<p style=""text-align: center;"">+</p>","null","fixation","","","","","","","","","","","","","","","","","","","","","","","","",""
"","","","","","html-slider-response","193","2198974","0.0-21.0-0.27","5c08b639-fa5d-4e77-8594-9ab1660fa3c0","1000","
                  <p style=""text-align: center;"">₪4
                                                <br>75%</p>
                  <p id=""wtp"" style=""text-align:center; margin-top: 0px; margin-bottom: 0px; font-size: 40px"";>&ensp;</p>","-","viewing","0","3","12B,20B,23B,27C,29C","","","","","","","","","","","","","","","","","","","","","",""
"","","","","","html-slider-response","194","2200415","0.0-21.0-1.27","5c08b639-fa5d-4e77-8594-9ab1660fa3c0","1440","
                  <p style=""text-align: center;"">₪4
                                                <br>75%</p>
                  <p id=""wtp"" style=""text-align:center; margin-top: 0px; margin-bottom: 0px; font-size: 40px"";>מוכנים לשלם: <span id=""c_p_y""></span></p>","0","evaluation","29","3","12B,20B,23B,27C,29C","75","4","0","","","","","","","","","","","","","","","","","","",""
"","","","","","html-keyboard-response","195","2201148","0.0-21.0-2.27","5c08b639-fa5d-4e77-8594-9ab1660fa3c0","null","<p style=""text-align: center;"">+</p>","null","fixation","","","","","","","","","","","","","","","","","","","","","","","","",""
"","","","","","html-slider-response","196","2202153","0.0-21.0-0.28","5c08b639-fa5d-4e77-8594-9ab1660fa3c0","1000","
                  <p style=""text-align: center;"">₪64
                                                <br>50%</p>
                  <p id=""wtp"" style=""text-align:center; margin-top: 0px; margin-bottom: 0px; font-size: 40px"";>&ensp;</p>","-","viewing","0","25","1B,3B,4A","","","","","","","","","","","","","","","","","","","","","",""
"","","","","","html-slider-response","197","2203799","0.0-21.0-1.28","5c08b639-fa5d-4e77-8594-9ab1660fa3c0","1644","
                  <p style=""text-align: center;"">₪64
                                                <br>50%</p>
                  <p id=""wtp"" style=""text-align:center; margin-top: 0px; margin-bottom: 0px; font-size: 40px"";>מוכנים לשלם: <span id=""c_p_y""></span></p>","2","evaluation","2","25","1B,3B,4A","50","64","3","","","","","","","","","","","","","","","","","","",""
"","","","","","html-keyboard-response","198","2204615","0.0-21.0-2.28","5c08b639-fa5d-4e77-8594-9ab1660fa3c0","null","<p style=""text-align: center;"">+</p>","null","fixation","","","","","","","","","","","","","","","","","","","","","","","","",""
"","","","","","html-slider-response","199","2205626","0.0-21.0-0.29","5c08b639-fa5d-4e77-8594-9ab1660fa3c0","1000","
                  <p style=""text-align: center;"">₪11
                                                <br>45%</p>
                  <p id=""wtp"" style=""text-align:center; margin-top: 0px; margin-bottom: 0px; font-size: 40px"";>&ensp;</p>","-","viewing","0","6","14B,21C,25C","","","","","","","","","","","","","","","","","","","","","",""
"","","","","","html-slider-response","200","2206870","0.0-21.0-1.29","5c08b639-fa5d-4e77-8594-9ab1660fa3c0","1244","
                  <p style=""text-align: center;"">₪11
                                                <br>45%</p>
                  <p id=""wtp"" style=""text-align:center; margin-top: 0px; margin-bottom: 0px; font-size: 40px"";>מוכנים לשלם: <span id=""c_p_y""></span></p>","0","evaluation","43","6","14B,21C,25C","45","11","0","","","","","","","","","","","","","","","","","","",""
"","","","","","html-keyboard-response","201","2207962","0.0-21.0-2.29","5c08b639-fa5d-4e77-8594-9ab1660fa3c0","null","<p style=""text-align: center;"">+</p>","null","fixation","","","","","","","","","","","","","","","","","","","","","","","","",""
"","","","","","html-slider-response","202","2208964","0.0-21.0-0.30","5c08b639-fa5d-4e77-8594-9ab1660fa3c0","1000","
                  <p style=""text-align: center;"">₪58
                                                <br>40%</p>
                  <p id=""wtp"" style=""text-align:center; margin-top: 0px; margin-bottom: 0px; font-size: 40px"";>&ensp;</p>","-","viewing","0","20","10C,13A,19C,21B","","","","","","","","","","","","","","","","","","","","","",""
"","","","","","html-slider-response","203","2210391","0.0-21.0-1.30","5c08b639-fa5d-4e77-8594-9ab1660fa3c0","1426","
                  <p style=""text-align: center;"">₪58
                                                <br>40%</p>
                  <p id=""wtp"" style=""text-align:center; margin-top: 0px; margin-bottom: 0px; font-size: 40px"";>מוכנים לשלם: <span id=""c_p_y""></span></p>","2","evaluation","15","20","10C,13A,19C,21B","40","58","2","","","","","","","","","","","","","","","","","","",""
"","","","","","html-keyboard-response","204","2211637","0.0-21.0-2.30","5c08b639-fa5d-4e77-8594-9ab1660fa3c0","null","<p style=""text-align: center;"">+</p>","null","fixation","","","","","","","","","","","","","","","","","","","","","","","","",""
"","","","","","html-keyboard-response","205","2212650","0.0-22.0","5c08b639-fa5d-4e77-8594-9ab1660fa3c0","null","<p style=""text-align: center;"">+</p>","null","fixation","","","","","","","","","","","","","","","","","","","","","","","","",""
"","","","","","html-keyboard-response","206","2213679","0.0-23.0","5c08b639-fa5d-4e77-8594-9ab1660fa3c0","null","<p>הפסקה.
          <br>לחצו כדי להמשיך.</p>","1","scan_wait","","","","","","","","","","","","","","","","","","","","","","","","",""
"","","","","","html-keyboard-response","207","2214682","0.0-24.0","5c08b639-fa5d-4e77-8594-9ab1660fa3c0","null","<p style=""text-align: center;"">+</p>","null","fixation","","","","","","","","","","","","","","","","","","","","","","","","",""
"","","","","","html-slider-response","208","2215696","0.0-25.0-0.0","5c08b639-fa5d-4e77-8594-9ab1660fa3c0","1000","
                  <p style=""text-align: center;"">₪36
                                                <br>30%</p>
                  <p id=""wtp"" style=""text-align:center; margin-top: 0px; margin-bottom: 0px; font-size: 40px"";>&ensp;</p>","-","viewing","0","11","3C,20A,22A","","","","","","","","","","","","","","","","","","","","","",""
"","","","","","html-slider-response","209","2216676","0.0-25.0-1.0","5c08b639-fa5d-4e77-8594-9ab1660fa3c0","981","
                  <p style=""text-align: center;"">₪36
                                                <br>30%</p>
                  <p id=""wtp"" style=""text-align:center; margin-top: 0px; margin-bottom: 0px; font-size: 40px"";>מוכנים לשלם: <span id=""c_p_y""></span></p>","0","evaluation","50","11","3C,20A,22A","30","36","0","","","","","","","","","","","","","","","","","","",""
"","","","","","html-keyboard-response","210","2217885","0.0-25.0-2.0","5c08b639-fa5d-4e77-8594-9ab1660fa3c0","null","<p style=""text-align: center;"">+</p>","null","fixation","","","","","","","","","","","","","","","","","","","","","","","","",""
"","","","","","html-slider-response","211","2218888","0.0-25.0-0.1","5c08b639-fa5d-4e77-8594-9ab1660fa3c0","1000","
                  <p style=""text-align: center;"">₪36
                                                <br>75%</p>
                  <p id=""wtp"" style=""text-align:center; margin-top: 0px; margin-bottom: 0px; font-size: 40px"";>&ensp;</p>","-","viewing","0","14","4B,5A,13B,16B","","","","","","","","","","","","","","","","","","","","","",""
"","","","","","html-slider-response","212","2221684","0.0-25.0-1.1","5c08b639-fa5d-4e77-8594-9ab1660fa3c0","2796","
                  <p style=""text-align: center;"">₪36
                                                <br>75%</p>
                  <p id=""wtp"" style=""text-align:center; margin-top: 0px; margin-bottom: 0px; font-size: 40px"";>מוכנים לשלם: <span id=""c_p_y""></span></p>","3","evaluation","41","14","4B,5A,13B,16B","75","36","3","","","","","","","","","","","","","","","","","","",""
"","","","","","html-keyboard-response","213","2222958","0.0-25.0-2.1","5c08b639-fa5d-4e77-8594-9ab1660fa3c0","null","<p style=""text-align: center;"">+</p>","null","fixation","","","","","","","","","","","","","","","","","","","","","","","","",""
"","","","","","html-slider-response","214","2223967","0.0-25.0-0.2","5c08b639-fa5d-4e77-8594-9ab1660fa3c0","1000","
                  <p style=""text-align: center;"">₪11
                                                <br>20%</p>
                  <p id=""wtp"" style=""text-align:center; margin-top: 0px; margin-bottom: 0px; font-size: 40px"";>&ensp;</p>","-","viewing","0","4","12C,17C,23C,28C","","","","","","","","","","","","","","","","","","","","","",""
"","","","","","html-slider-response","215","2225660","0.0-25.0-1.2","5c08b639-fa5d-4e77-8594-9ab1660fa3c0","1692","
                  <p style=""text-align: center;"">₪11
                                                <br>20%</p>
                  <p id=""wtp"" style=""text-align:center; margin-top: 0px; margin-bottom: 0px; font-size: 40px"";>מוכנים לשלם: <span id=""c_p_y""></span></p>","0","evaluation","40","4","12C,17C,23C,28C","20","11","0","","","","","","","","","","","","","","","","","","",""
"","","","","","html-keyboard-response","216","2226880","0.0-25.0-2.2","5c08b639-fa5d-4e77-8594-9ab1660fa3c0","null","<p style=""text-align: center;"">+</p>","null","fixation","","","","","","","","","","","","","","","","","","","","","","","","",""
"","","","","","html-slider-response","217","2227886","0.0-25.0-0.3","5c08b639-fa5d-4e77-8594-9ab1660fa3c0","1000","
                  <p style=""text-align: center;"">₪4
                                                <br>75%</p>
                  <p id=""wtp"" style=""text-align:center; margin-top: 0px; margin-bottom: 0px; font-size: 40px"";>&ensp;</p>","-","viewing","0","3","12B,20B,23B,27C,29C","","","","","","","","","","","","","","","","","","","","","",""
"","","","","","html-slider-response","218","2228956","0.0-25.0-1.3","5c08b639-fa5d-4e77-8594-9ab1660fa3c0","1069","
                  <p style=""text-align: center;"">₪4
                                                <br>75%</p>
                  <p id=""wtp"" style=""text-align:center; margin-top: 0px; margin-bottom: 0px; font-size: 40px"";>מוכנים לשלם: <span id=""c_p_y""></span></p>","0","evaluation","19","3","12B,20B,23B,27C,29C","75","4","0","","","","","","","","","","","","","","","","","","",""
"","","","","","html-keyboard-response","219","2230037","0.0-25.0-2.3","5c08b639-fa5d-4e77-8594-9ab1660fa3c0","null","<p style=""text-align: center;"">+</p>","null","fixation","","","","","","","","","","","","","","","","","","","","","","","","",""
"","","","","","html-slider-response","220","2231038","0.0-25.0-0.4","5c08b639-fa5d-4e77-8594-9ab1660fa3c0","1000","
                  <p style=""text-align: center;"">₪61
                                                <br>55%</p>
                  <p id=""wtp"" style=""text-align:center; margin-top: 0px; margin-bottom: 0px; font-size: 40px"";>&ensp;</p>","-","viewing","0","23","7B,26B","","","","","","","","","","","","","","","","","","","","","",""
"","","","","","html-slider-response","221","2232484","0.0-25.0-1.4","5c08b639-fa5d-4e77-8594-9ab1660fa3c0","1445","
                  <p style=""text-align: center;"">₪61
                                                <br>55%</p>
                  <p id=""wtp"" style=""text-align:center; margin-top: 0px; margin-bottom: 0px; font-size: 40px"";>מוכנים לשלם: <span id=""c_p_y""></span></p>","0","evaluation","61","23","7B,26B","55","61","0","","","","","","","","","","","","","","","","","","",""
"","","","","","html-keyboard-response","222","2233240","0.0-25.0-2.4","5c08b639-fa5d-4e77-8594-9ab1660fa3c0","null","<p style=""text-align: center;"">+</p>","null","fixation","","","","","","","","","","","","","","","","","","","","","","","","",""
"","","","","","html-slider-response","223","2234254","0.0-25.0-0.5","5c08b639-fa5d-4e77-8594-9ab1660fa3c0","1000","
                  <p style=""text-align: center;"">₪11
                                                <br>25%</p>
                  <p id=""wtp"" style=""text-align:center; margin-top: 0px; margin-bottom: 0px; font-size: 40px"";>&ensp;</p>","-","viewing","0","5","12A,27B,28B,30B","","","","","","","","","","","","","","","","","","","","","",""
"","","","","","html-slider-response","224","2235524","0.0-25.0-1.5","5c08b639-fa5d-4e77-8594-9ab1660fa3c0","1270","
                  <p style=""text-align: center;"">₪11
                                                <br>25%</p>
                  <p id=""wtp"" style=""text-align:center; margin-top: 0px; margin-bottom: 0px; font-size: 40px"";>מוכנים לשלם: <span id=""c_p_y""></span></p>","0","evaluation","64","5","12A,27B,28B,30B","25","11","0","","","","","","","","","","","","","","","","","","",""
"","","","","","html-keyboard-response","225","2236121","0.0-25.0-2.5","5c08b639-fa5d-4e77-8594-9ab1660fa3c0","null","<p style=""text-align: center;"">+</p>","null","fixation","","","","","","","","","","","","","","","","","","","","","","","","",""
"","","","","","html-slider-response","226","2237127","0.0-25.0-0.6","5c08b639-fa5d-4e77-8594-9ab1660fa3c0","1000","
                  <p style=""text-align: center;"">₪58
                                                <br>40%</p>
                  <p id=""wtp"" style=""text-align:center; margin-top: 0px; margin-bottom: 0px; font-size: 40px"";>&ensp;</p>","-","viewing","0","20","10C,13A,19C,21B","","","","","","","","","","","","","","","","","","","","","",""
"","","","","","html-slider-response","227","2239276","0.0-25.0-1.6","5c08b639-fa5d-4e77-8594-9ab1660fa3c0","2148","
                  <p style=""text-align: center;"">₪58
                                                <br>40%</p>
                  <p id=""wtp"" style=""text-align:center; margin-top: 0px; margin-bottom: 0px; font-size: 40px"";>מוכנים לשלם: <span id=""c_p_y""></span></p>","0","evaluation","44","20","10C,13A,19C,21B","40","58","0","","","","","","","","","","","","","","","","","","",""
"","","","","","html-keyboard-response","228","2240309","0.0-25.0-2.6","5c08b639-fa5d-4e77-8594-9ab1660fa3c0","null","<p style=""text-align: center;"">+</p>","null","fixation","","","","","","","","","","","","","","","","","","","","","","","","",""
"","","","","","html-slider-response","229","2241323","0.0-25.0-0.7","5c08b639-fa5d-4e77-8594-9ab1660fa3c0","1000","
                  <p style=""text-align: center;"">₪4
                                                <br>50%</p>
                  <p id=""wtp"" style=""text-align:center; margin-top: 0px; margin-bottom: 0px; font-size: 40px"";>&ensp;</p>","-","viewing","0","2","4C,17B","","","","","","","","","","","","","","","","","","","","","",""
"","","","","","html-slider-response","230","2242404","0.0-25.0-1.7","5c08b639-fa5d-4e77-8594-9ab1660fa3c0","1080","
                  <p style=""text-align: center;"">₪4
                                                <br>50%</p>
                  <p id=""wtp"" style=""text-align:center; margin-top: 0px; margin-bottom: 0px; font-size: 40px"";>מוכנים לשלם: <span id=""c_p_y""></span></p>","0","evaluation","69","2","4C,17B","50","4","0","","","","","","","","","","","","","","","","","","",""
"","","","","","html-keyboard-response","231","2243176","0.0-25.0-2.7","5c08b639-fa5d-4e77-8594-9ab1660fa3c0","null","<p style=""text-align: center;"">+</p>","null","fixation","","","","","","","","","","","","","","","","","","","","","","","","",""
"","","","","","html-slider-response","232","2244179","0.0-25.0-0.8","5c08b639-fa5d-4e77-8594-9ab1660fa3c0","1000","
                  <p style=""text-align: center;"">₪36
                                                <br>60%</p>
                  <p id=""wtp"" style=""text-align:center; margin-top: 0px; margin-bottom: 0px; font-size: 40px"";>&ensp;</p>","-","viewing","0","12","1C,7C,15C","","","","","","","","","","","","","","","","","","","","","",""
"","","","","","html-slider-response","233","2245164","0.0-25.0-1.8","5c08b639-fa5d-4e77-8594-9ab1660fa3c0","984","
                  <p style=""text-align: center;"">₪36
                                                <br>60%</p>
                  <p id=""wtp"" style=""text-align:center; margin-top: 0px; margin-bottom: 0px; font-size: 40px"";>מוכנים לשלם: <span id=""c_p_y""></span></p>","4","evaluation","29","12","1C,7C,15C","60","36","4","","","","","","","","","","","","","","","","","","",""
"","","","","","html-keyboard-response","234","2246060","0.0-25.0-2.8","5c08b639-fa5d-4e77-8594-9ab1660fa3c0","null","<p style=""text-align: center;"">+</p>","null","fixation","","","","","","","","","","","","","","","","","","","","","","","","",""
"","","","","","html-slider-response","235","2247063","0.0-25.0-0.9","5c08b639-fa5d-4e77-8594-9ab1660fa3c0","1000","
                  <p style=""text-align: center;"">₪39
                                                <br>65%</p>
                  <p id=""wtp"" style=""text-align:center; margin-top: 0px; margin-bottom: 0px; font-size: 40px"";>&ensp;</p>","-","viewing","0","16","1A,15A,26C","","","","","","","","","","","","","","","","","","","","","",""
"","","","","","html-slider-response","236","2248164","0.0-25.0-1.9","5c08b639-fa5d-4e77-8594-9ab1660fa3c0","1100","
                  <p style=""text-align: center;"">₪39
                                                <br>65%</p>
                  <p id=""wtp"" style=""text-align:center; margin-top: 0px; margin-bottom: 0px; font-size: 40px"";>מוכנים לשלם: <span id=""c_p_y""></span></p>","5","evaluation","7","16","1A,15A,26C","65","39","5","","","","","","","","","","","","","","","","","","",""
"","","","","","html-keyboard-response","237","2249351","0.0-25.0-2.9","5c08b639-fa5d-4e77-8594-9ab1660fa3c0","null","<p style=""text-align: center;"">+</p>","null","fixation","","","","","","","","","","","","","","","","","","","","","","","","",""
"","","","","","html-slider-response","238","2250359","0.0-25.0-0.10","5c08b639-fa5d-4e77-8594-9ab1660fa3c0","1000","
                  <p style=""text-align: center;"">₪64
                                                <br>25%</p>
                  <p id=""wtp"" style=""text-align:center; margin-top: 0px; margin-bottom: 0px; font-size: 40px"";>&ensp;</p>","-","viewing","0","24","6A,21A","","","","","","","","","","","","","","","","","","","","","",""
"","","","","","html-slider-response","239","2251308","0.0-25.0-1.10","5c08b639-fa5d-4e77-8594-9ab1660fa3c0","948","
                  <p style=""text-align: center;"">₪64
                                                <br>25%</p>
                  <p id=""wtp"" style=""text-align:center; margin-top: 0px; margin-bottom: 0px; font-size: 40px"";>מוכנים לשלם: <span id=""c_p_y""></span></p>","0","evaluation","44","24","6A,21A","25","64","0","","","","","","","","","","","","","","","","","","",""
"","","","","","html-keyboard-response","240","2252812","0.0-25.0-2.10","5c08b639-fa5d-4e77-8594-9ab1660fa3c0","null","<p style=""text-align: center;"">+</p>","null","fixation","","","","","","","","","","","","","","","","","","","","","","","","",""
"","","","","","html-slider-response","241","2253821","0.0-25.0-0.11","5c08b639-fa5d-4e77-8594-9ab1660fa3c0","1000","
                  <p style=""text-align: center;"">₪61
                                                <br>45%</p>
                  <p id=""wtp"" style=""text-align:center; margin-top: 0px; margin-bottom: 0px; font-size: 40px"";>&ensp;</p>","-","viewing","0","22","10A,11A","","","","","","","","","","","","","","","","","","","","","",""
"","","","","","html-slider-response","242","2254868","0.0-25.0-1.11","5c08b639-fa5d-4e77-8594-9ab1660fa3c0","1046","
                  <p style=""text-align: center;"">₪61
                                                <br>45%</p>
                  <p id=""wtp"" style=""text-align:center; margin-top: 0px; margin-bottom: 0px; font-size: 40px"";>מוכנים לשלם: <span id=""c_p_y""></span></p>","0","evaluation","24","22","10A,11A","45","61","0","","","","","","","","","","","","","","","","","","",""
"","","","","","html-keyboard-response","243","2255456","0.0-25.0-2.11","5c08b639-fa5d-4e77-8594-9ab1660fa3c0","null","<p style=""text-align: center;"">+</p>","null","fixation","","","","","","","","","","","","","","","","","","","","","","","","",""
"","","","","","html-slider-response","244","2256463","0.0-25.0-0.12","5c08b639-fa5d-4e77-8594-9ab1660fa3c0","1000","
                  <p style=""text-align: center;"">₪79
                                                <br>40%</p>
                  <p id=""wtp"" style=""text-align:center; margin-top: 0px; margin-bottom: 0px; font-size: 40px"";>&ensp;</p>","-","viewing","0","30","9B","","","","","","","","","","","","","","","","","","","","","",""
"","","","","","html-slider-response","245","2257428","0.0-25.0-1.12","5c08b639-fa5d-4e77-8594-9ab1660fa3c0","965","
                  <p style=""text-align: center;"">₪79
                                                <br>40%</p>
