"success","timeout","failed_images","failed_audio","failed_video","trial_type","trial_index","time_elapsed","internal_node_id","subject_id","rt","stimulus","response","part","slider_start","ID","set_ID","prob","amount","last_location","actual_choice","actual_EV","binary_id","trinary_id","catch","A_key","D_key","choice_prob","choice_amount","chosen_part","potential_prize_prob","potential_prize_amount","won_prize","total_prize","prize_cost","remaining_budget","accuracy"
"true","false","[]","[]","[]","preload","0","173","0.0-0.0","7f24b687-4d3e-4756-bf2d-223cca5dcdb8","","","","","","","","","","","","","","","","","","","","","","","","","","",""
"","","","","","html-keyboard-response","1","756727","0.0-1.0","7f24b687-4d3e-4756-bf2d-223cca5dcdb8","null","
          <h1>שלום וברוכים הבאים!</h1>
          <p>לפניכם ניסוי בקבלת החלטות עם שני חלקים.
          <br><br>לחצו על העכבר כדי להמשיך.</p>","0","example","","","","","","","","","","","","","","","","","","","","","","",""
"","","","","","html-keyboard-response","2","773407","0.0-2.0","7f24b687-4d3e-4756-bf2d-223cca5dcdb8","null","
        <h1>חלק 1</h1>
        <p>בקרוב יוצגו בפניכם הגרלות.
        <br>עליכם לבחור את המחיר המירבי שתהיו מוכנים לשלם כדי להשתתף בהגרלה שתוצג.
        <br>יש לכם תקציב של ₪80 לכל הגרלה. 
        <br>נסו להעריך כל הגרלה בנפרד ולחשוב כמה היא שווה עבורכם, ₪80 זמינים לכל הגרלה בנפרד.
        <br><br>לחצו על העכבר כדי להמשיך.</p>","1","instructions","","","","","","","","","","","","","","","","","","","","","","",""
"","","","","","html-keyboard-response","3","780695","0.0-3.0","7f24b687-4d3e-4756-bf2d-223cca5dcdb8","null","
        <p>בסוף הניסוי, המחשב יבחר את אחת ההגרלות ויקבע מחיר לכרטיס עבורה. 
        <br>במידה והמחיר שבחרתם נמוך מהמחיר שנבחר על ידי המחשב, לא תשתתפו בהגרלה ותשארו עם מלוא התקציב.
        <br>במידה והמחיר שבחרתם גבוה מהמחיר שנבחר על ידי המחשב, תשלמו את המחיר שנקבע ותשתתפו בהגרלה.
        <br><br>לחצו על העכבר כדי להמשיך.</p>","1","instructions","","","","","","","","","","","","","","","","","","","","","","",""
"","","","","","html-slider-response","4","797775","0.0-4.0","7f24b687-4d3e-4756-bf2d-223cca5dcdb8","16966","
        <p style=""font-size: 42px;"">נתחיל עם דוגמא: 
        <br>ההגרלה מטה מציעה 65% סיכוי לזכות ב-₪40 
        <br>&emsp;&emsp;&emsp;&emsp;&emsp;&emsp;&emsp;&emsp;&ensp;35% סיכוי לזכות ב-₪0.
        <br><br>מה המחיר המירבי שתהיו מוכנים לשלם על כרטיס להגרלה זו בין 0 ל-₪80?
        <br>הזיזו את העכבר על פני המלבן ולחצו כדי לבצע בחירה.</p>
        
        <p style=""text-align: center;"">₪40<br>65%</p>

        <p id=""wtp"" style=""text-align:center; margin-top: 0px; margin-bottom: 0px; font-size: 40px"";>מוכנים לשלם: <span id=""c_p_y""></span></p>","30","example","16","","","","","","","","","","","","","","","","","","","","","",""
"","","","","","html-keyboard-response","5","813055","0.0-5.0","7f24b687-4d3e-4756-bf2d-223cca5dcdb8","null","<p>יפה מאוד!
                <br> בחרתם שתהיו מוכנים לשלם ₪30 כדי להשתתף בהגרלה:
                <br><p style=""text-align: center;"">₪40<br>65%</p>
                <p>נשמע נכון?
                <br>נניח שהגרלה זו נבחרה בסוף הניסוי.
                <br>כעת המחשב יקבע מחיר עבורה באקראי.
                <br>לחצו על העכבר להמשך.</p>","1","example","","","","","","","","","","","","","","","","","","","","","","",""
"","","","","","html-keyboard-response","6","827095","0.0-6.0","7f24b687-4d3e-4756-bf2d-223cca5dcdb8","null","<p>המחשב קבע מחיר: ₪76
                <br>ואתם בחרתם לשלם לכל היותר: ₪30
                <br><br>מכיוון שהמחיר שבחרתם נמוך מהמחיר שנקבע, לא תתשתתפו בהגרלה.
                <br>במקרה כזה, בסוף הניסוי תקבלו את כל התקציב ההתחלתי של ₪80.
                <br><br>לחצו על העכבר להמשך.</p>","1","example","","","","","","","","","","","","","","","","","","","","","","",""
"","","","","","html-slider-response","7","834783","0.0-7.0","7f24b687-4d3e-4756-bf2d-223cca5dcdb8","7436","<p style=""font-size: 42px;"">הנה עוד דוגמא:
                <br>ההגרלה מטה מציעה 35% סיכוי לזכות ב-₪18 
                <br>&emsp;&emsp;&emsp;&emsp;&emsp;&emsp;&emsp;&emsp;&ensp;65% סיכוי לזכות ב-₪0.</p>
        
                <p style=""text-align: center;"">₪18<br>35%</p>
                <p id=""wtp"" style=""text-align:center; margin-top: 0px; margin-bottom: 0px; font-size: 40px"";>מוכנים לשלם: <span id=""c_p_y""></span></p>","5","example","0","","","","","","","","","","","","","","","","","","","","","",""
"","","","","","html-keyboard-response","8","842647","0.0-8.0","7f24b687-4d3e-4756-bf2d-223cca5dcdb8","null","<p>הייתם מוכנים לשלם  ₪5 כדי להשתתף בהגרלה:
                <p style=""text-align: center;"">₪18<br>35%</p>
                <p>כעת נניח שהמחשב בחר את ההגרלה הזו בסוף הניסוי, וקבע עבורה מחיר.
                <br><br>לחצו על העכבר כדי להמשיך.</p>","1","instructions","","","","","","","","","","","","","","","","","","","","","","",""
"","","","","","html-keyboard-response","9","867423","0.0-9.0","7f24b687-4d3e-4756-bf2d-223cca5dcdb8","null","<p>המחשב קבע מחיר להגרלה: ₪0<br>ואתם בחרתם לשלם לכל היותר: ₪5
                <br><br>כעת המחיר שנקבע נמוך מזה שבחרתם, אז תשלמו את המחיר שקבע המחשב (₪0) ותשתתפו בהגרלה.
                <br>במקרה כזה, תסיימו את הניסוי עם תקציב של ₪80 ועם סיכוי לזכות ב-₪18 נוספים מההגרלה.
                <br>כלומר, תוכלו לקבל ₪80 אם לא תזכו בהגרלה, או ₪98 אם תזכו בהגרלה.
                <br><br>לחצו על העכבר להמשך.</p>","1","example","","","","","","","","","","","","","","","","","","","","","","",""
"","","","","","html-keyboard-response","10","875191","0.0-10.0","7f24b687-4d3e-4756-bf2d-223cca5dcdb8","null","<p>במהלך הניסוי, קודם תראו את ההגרלה ורק לאחר מכן תוכלו לבחור.
                <p>כמו כן, יהיו לכם מספר שניות מוגבל להגיב.
                <p>בואו ננסה זאת עם ההגרלה הקודמת.
                <br>לחצו על העכבר כדי להמשיך.</p>","1","instructions","","","","","","","","","","","","","","","","","","","","","","",""
"","","","","","html-slider-response","11","876447","0.0-11.0","7f24b687-4d3e-4756-bf2d-223cca5dcdb8","1000","
                    <p style=""text-align: center;"">₪18<br>35%</p>
                    <p id=""wtp"" style=""text-align:center; margin-top: 0px; margin-bottom: 0px; font-size: 40px"";>&ensp;</p>","25","instructions","0","","","","","","","","","","","","","","","","","","","","","",""
"","","","","","html-slider-response","12","879447","0.0-12.0","7f24b687-4d3e-4756-bf2d-223cca5dcdb8","2737","
                    <p style=""text-align: center;"">₪18<br>35%</p>
                    <p id=""wtp"" style=""text-align:center; margin-top: 0px; margin-bottom: 0px; font-size: 40px"";>מוכנים לשלם: <span id=""c_p_y""></span></p>","5","instructions","18","","","","","","","","","","","","","","","","","","","","","",""
"","","","","","html-keyboard-response","13","883911","0.0-13.0","7f24b687-4d3e-4756-bf2d-223cca5dcdb8","null","<p>יפה. הפעם בחרתם לשלם לכל היותר ₪5.
                <br><br>לחצו על העכבר כדי להמשיך.</p>","1","instructions","","","","","","","","","","","","","","","","","","","","","","",""
"","","","","","html-keyboard-response","14","900287","0.0-15.0","7f24b687-4d3e-4756-bf2d-223cca5dcdb8","null","<p>כעת נתחיל את הניסוי.
                <br><br>אתם תראו הגרלות ותתבקשו לבחור כמה תהיו מוכנים לשלם כדי להשתתף בהן.
                <br>יש לכם תקציב של ₪80 עבור כל הגרלה.
                <br>בסוף הניסוי הגרלה אחת תבחר באקראי ותשוחק.
                <br><br>לחצו על העכבר כדי להתחיל את הניסוי.</p>","1","instructions","","","","","","","","","","","","","","","","","","","","","","",""
"","","","","","html-keyboard-response","15","901552","0.0-16.0","7f24b687-4d3e-4756-bf2d-223cca5dcdb8","null","<p style=""text-align: center;"">+</p>","null","fixation","","","","","","","","","","","","","","","","","","","","","","",""
"","","","","","html-slider-response","16","902554","0.0-17.0-0.0","7f24b687-4d3e-4756-bf2d-223cca5dcdb8","1000","
                  <p style=""text-align: center;"">₪58
                                                <br>45%</p>
                  <p id=""wtp"" style=""text-align:center; margin-top: 0px; margin-bottom: 0px; font-size: 40px"";>&ensp;</p>","-","viewing","0","21","11C,18C,25A","","","","","","","","","","","","","","","","","","","",""
"","","","","","html-slider-response","17","906569","0.0-17.0-1.0","7f24b687-4d3e-4756-bf2d-223cca5dcdb8","null","
                  <p style=""text-align: center;"">₪58
                                                <br>45%</p>
                  <p id=""wtp"" style=""text-align:center; margin-top: 0px; margin-bottom: 0px; font-size: 40px"";>מוכנים לשלם: <span id=""c_p_y""></span></p>","null","evaluation","27","21","11C,18C,25A","45","58","28","","","","","","","","","","","","","","","","",""
"","","","","","html-keyboard-response","18","907512","0.0-17.0-2.0","7f24b687-4d3e-4756-bf2d-223cca5dcdb8","null","<p style=""text-align: center;"">+</p>","null","fixation","","","","","","","","","","","","","","","","","","","","","","",""
"","","","","","html-slider-response","19","908521","0.0-17.0-0.1","7f24b687-4d3e-4756-bf2d-223cca5dcdb8","1000","
                  <p style=""text-align: center;"">₪11
                                                <br>45%</p>
                  <p id=""wtp"" style=""text-align:center; margin-top: 0px; margin-bottom: 0px; font-size: 40px"";>&ensp;</p>","-","viewing","0","6","14B,21C,25C","","","","","","","","","","","","","","","","","","","",""
"","","","","","html-slider-response","20","911583","0.0-17.0-1.1","7f24b687-4d3e-4756-bf2d-223cca5dcdb8","3060","
                  <p style=""text-align: center;"">₪11
                                                <br>45%</p>
                  <p id=""wtp"" style=""text-align:center; margin-top: 0px; margin-bottom: 0px; font-size: 40px"";>מוכנים לשלם: <span id=""c_p_y""></span></p>","2","evaluation","27","6","14B,21C,25C","45","11","2","","","","","","","","","","","","","","","","",""
"","","","","","html-keyboard-response","21","912571","0.0-17.0-2.1","7f24b687-4d3e-4756-bf2d-223cca5dcdb8","null","<p style=""text-align: center;"">+</p>","null","fixation","","","","","","","","","","","","","","","","","","","","","","",""
"","","","","","html-slider-response","22","913575","0.0-17.0-0.2","7f24b687-4d3e-4756-bf2d-223cca5dcdb8","1000","
                  <p style=""text-align: center;"">₪39
                                                <br>65%</p>
                  <p id=""wtp"" style=""text-align:center; margin-top: 0px; margin-bottom: 0px; font-size: 40px"";>&ensp;</p>","-","viewing","0","16","1A,15A,26C","","","","","","","","","","","","","","","","","","","",""
"","","","","","html-slider-response","23","917551","0.0-17.0-1.2","7f24b687-4d3e-4756-bf2d-223cca5dcdb8","3974","
                  <p style=""text-align: center;"">₪39
                                                <br>65%</p>
                  <p id=""wtp"" style=""text-align:center; margin-top: 0px; margin-bottom: 0px; font-size: 40px"";>מוכנים לשלם: <span id=""c_p_y""></span></p>","26","evaluation","14","16","1A,15A,26C","65","39","26","","","","","","","","","","","","","","","","",""
"","","","","","html-keyboard-response","24","918417","0.0-17.0-2.2","7f24b687-4d3e-4756-bf2d-223cca5dcdb8","null","<p style=""text-align: center;"">+</p>","null","fixation","","","","","","","","","","","","","","","","","","","","","","",""
"","","","","","html-slider-response","25","919428","0.0-17.0-0.3","7f24b687-4d3e-4756-bf2d-223cca5dcdb8","1000","
                  <p style=""text-align: center;"">₪18
                                                <br>50%</p>
                  <p id=""wtp"" style=""text-align:center; margin-top: 0px; margin-bottom: 0px; font-size: 40px"";>&ensp;</p>","-","viewing","0","10","2C,16C,22B,28A","","","","","","","","","","","","","","","","","","","",""
"","","","","","html-slider-response","26","922431","0.0-17.0-1.3","7f24b687-4d3e-4756-bf2d-223cca5dcdb8","3002","
                  <p style=""text-align: center;"">₪18
                                                <br>50%</p>
                  <p id=""wtp"" style=""text-align:center; margin-top: 0px; margin-bottom: 0px; font-size: 40px"";>מוכנים לשלם: <span id=""c_p_y""></span></p>","7","evaluation","67","10","2C,16C,22B,28A","50","18","7","","","","","","","","","","","","","","","","",""
"","","","","","html-keyboard-response","27","923142","0.0-17.0-2.3","7f24b687-4d3e-4756-bf2d-223cca5dcdb8","null","<p style=""text-align: center;"">+</p>","null","fixation","","","","","","","","","","","","","","","","","","","","","","",""
"","","","","","html-slider-response","28","924156","0.0-17.0-0.4","7f24b687-4d3e-4756-bf2d-223cca5dcdb8","1000","
                  <p style=""text-align: center;"">₪71
                                                <br>75%</p>
                  <p id=""wtp"" style=""text-align:center; margin-top: 0px; margin-bottom: 0px; font-size: 40px"";>&ensp;</p>","-","viewing","0","28","8B","","","","","","","","","","","","","","","","","","","",""
"","","","","","html-slider-response","29","928167","0.0-17.0-1.4","7f24b687-4d3e-4756-bf2d-223cca5dcdb8","null","
                  <p style=""text-align: center;"">₪71
                                                <br>75%</p>
                  <p id=""wtp"" style=""text-align:center; margin-top: 0px; margin-bottom: 0px; font-size: 40px"";>מוכנים לשלם: <span id=""c_p_y""></span></p>","null","evaluation","52","28","8B","75","71","50","","","","","","","","","","","","","","","","",""
"","","","","","html-keyboard-response","30","929014","0.0-17.0-2.4","7f24b687-4d3e-4756-bf2d-223cca5dcdb8","null","<p style=""text-align: center;"">+</p>","null","fixation","","","","","","","","","","","","","","","","","","","","","","",""
"","","","","","html-slider-response","31","930028","0.0-17.0-0.5","7f24b687-4d3e-4756-bf2d-223cca5dcdb8","1000","
                  <p style=""text-align: center;"">₪64
                                                <br>50%</p>
                  <p id=""wtp"" style=""text-align:center; margin-top: 0px; margin-bottom: 0px; font-size: 40px"";>&ensp;</p>","-","viewing","0","25","1B,3B,4A","","","","","","","","","","","","","","","","","","","",""
"","","","","","html-slider-response","32","932567","0.0-17.0-1.5","7f24b687-4d3e-4756-bf2d-223cca5dcdb8","2538","
                  <p style=""text-align: center;"">₪64
                                                <br>50%</p>
                  <p id=""wtp"" style=""text-align:center; margin-top: 0px; margin-bottom: 0px; font-size: 40px"";>מוכנים לשלם: <span id=""c_p_y""></span></p>","25","evaluation","14","25","1B,3B,4A","50","64","25","","","","","","","","","","","","","","","","",""
"","","","","","html-keyboard-response","33","934020","0.0-17.0-2.5","7f24b687-4d3e-4756-bf2d-223cca5dcdb8","null","<p style=""text-align: center;"">+</p>","null","fixation","","","","","","","","","","","","","","","","","","","","","","",""
"","","","","","html-slider-response","34","935033","0.0-17.0-0.6","7f24b687-4d3e-4756-bf2d-223cca5dcdb8","1000","
                  <p style=""text-align: center;"">₪79
                                                <br>65%</p>
                  <p id=""wtp"" style=""text-align:center; margin-top: 0px; margin-bottom: 0px; font-size: 40px"";>&ensp;</p>","-","viewing","0","31","8A","","","","","","","","","","","","","","","","","","","",""
"","","","","","html-slider-response","35","936606","0.0-17.0-1.6","7f24b687-4d3e-4756-bf2d-223cca5dcdb8","1573","
                  <p style=""text-align: center;"">₪79
                                                <br>65%</p>
                  <p id=""wtp"" style=""text-align:center; margin-top: 0px; margin-bottom: 0px; font-size: 40px"";>מוכנים לשלם: <span id=""c_p_y""></span></p>","51","evaluation","3","31","8A","65","79","51","","","","","","","","","","","","","","","","",""
"","","","","","html-keyboard-response","36","937120","0.0-17.0-2.6","7f24b687-4d3e-4756-bf2d-223cca5dcdb8","null","<p style=""text-align: center;"">+</p>","null","fixation","","","","","","","","","","","","","","","","","","","","","","",""
"","","","","","html-slider-response","37","938137","0.0-17.0-0.7","7f24b687-4d3e-4756-bf2d-223cca5dcdb8","1000","
                  <p style=""text-align: center;"">₪58
                                                <br>40%</p>
                  <p id=""wtp"" style=""text-align:center; margin-top: 0px; margin-bottom: 0px; font-size: 40px"";>&ensp;</p>","-","viewing","0","20","10C,13A,19C,21B","","","","","","","","","","","","","","","","","","","",""
"","","","","","html-slider-response","38","941318","0.0-17.0-1.7","7f24b687-4d3e-4756-bf2d-223cca5dcdb8","3181","
                  <p style=""text-align: center;"">₪58
                                                <br>40%</p>
                  <p id=""wtp"" style=""text-align:center; margin-top: 0px; margin-bottom: 0px; font-size: 40px"";>מוכנים לשלם: <span id=""c_p_y""></span></p>","8","evaluation","17","20","10C,13A,19C,21B","40","58","8","","","","","","","","","","","","","","","","",""
"","","","","","html-keyboard-response","39","942137","0.0-17.0-2.7","7f24b687-4d3e-4756-bf2d-223cca5dcdb8","null","<p style=""text-align: center;"">+</p>","null","fixation","","","","","","","","","","","","","","","","","","","","","","",""
"","","","","","html-slider-response","40","943143","0.0-17.0-0.8","7f24b687-4d3e-4756-bf2d-223cca5dcdb8","1000","
                  <p style=""text-align: center;"">₪64
                                                <br>25%</p>
                  <p id=""wtp"" style=""text-align:center; margin-top: 0px; margin-bottom: 0px; font-size: 40px"";>&ensp;</p>","-","viewing","0","24","6A,21A","","","","","","","","","","","","","","","","","","","",""
"","","","","","html-slider-response","41","944302","0.0-17.0-1.8","7f24b687-4d3e-4756-bf2d-223cca5dcdb8","1158","
                  <p style=""text-align: center;"">₪64
                                                <br>25%</p>
                  <p id=""wtp"" style=""text-align:center; margin-top: 0px; margin-bottom: 0px; font-size: 40px"";>מוכנים לשלם: <span id=""c_p_y""></span></p>","0","evaluation","17","24","6A,21A","25","64","0","","","","","","","","","","","","","","","","",""
"","","","","","html-keyboard-response","42","945192","0.0-17.0-2.8","7f24b687-4d3e-4756-bf2d-223cca5dcdb8","null","<p style=""text-align: center;"">+</p>","null","fixation","","","","","","","","","","","","","","","","","","","","","","",""
"","","","","","html-slider-response","43","946209","0.0-17.0-0.9","7f24b687-4d3e-4756-bf2d-223cca5dcdb8","1000","
                  <p style=""text-align: center;"">₪11
                                                <br>75%</p>
                  <p id=""wtp"" style=""text-align:center; margin-top: 0px; margin-bottom: 0px; font-size: 40px"";>&ensp;</p>","-","viewing","0","7","6B,18B,22C,24C,29A","","","","","","","","","","","","","","","","","","","",""
"","","","","","html-slider-response","44","950213","0.0-17.0-1.9","7f24b687-4d3e-4756-bf2d-223cca5dcdb8","null","
                  <p style=""text-align: center;"">₪11
                                                <br>75%</p>
                  <p id=""wtp"" style=""text-align:center; margin-top: 0px; margin-bottom: 0px; font-size: 40px"";>מוכנים לשלם: <span id=""c_p_y""></span></p>","null","evaluation","29","7","6B,18B,22C,24C,29A","75","11","5","","","","","","","","","","","","","","","","",""
"","","","","","html-keyboard-response","45","951561","0.0-17.0-2.9","7f24b687-4d3e-4756-bf2d-223cca5dcdb8","null","<p style=""text-align: center;"">+</p>","null","fixation","","","","","","","","","","","","","","","","","","","","","","",""
"","","","","","html-slider-response","46","952564","0.0-17.0-0.10","7f24b687-4d3e-4756-bf2d-223cca5dcdb8","1000","
                  <p style=""text-align: center;"">₪43
                                                <br>75%</p>
                  <p id=""wtp"" style=""text-align:center; margin-top: 0px; margin-bottom: 0px; font-size: 40px"";>&ensp;</p>","-","viewing","0","18","11B,19B,24A,26A","","","","","","","","","","","","","","","","","","","",""
"","","","","","html-slider-response","47","955646","0.0-17.0-1.10","7f24b687-4d3e-4756-bf2d-223cca5dcdb8","3081","
                  <p style=""text-align: center;"">₪43
                                                <br>75%</p>
                  <p id=""wtp"" style=""text-align:center; margin-top: 0px; margin-bottom: 0px; font-size: 40px"";>מוכנים לשלם: <span id=""c_p_y""></span></p>","58","evaluation","67","18","11B,19B,24A,26A","75","43","58","","","","","","","","","","","","","","","","",""
"","","","","","html-keyboard-response","48","956874","0.0-17.0-2.10","7f24b687-4d3e-4756-bf2d-223cca5dcdb8","null","<p style=""text-align: center;"">+</p>","null","fixation","","","","","","","","","","","","","","","","","","","","","","",""
"","","","","","html-slider-response","49","957879","0.0-17.0-0.11","7f24b687-4d3e-4756-bf2d-223cca5dcdb8","1000","
                  <p style=""text-align: center;"">₪11
                                                <br>20%</p>
                  <p id=""wtp"" style=""text-align:center; margin-top: 0px; margin-bottom: 0px; font-size: 40px"";>&ensp;</p>","-","viewing","0","4","12C,17C,23C,28C","","","","","","","","","","","","","","","","","","","",""
"","","","","","html-slider-response","50","961502","0.0-17.0-1.11","7f24b687-4d3e-4756-bf2d-223cca5dcdb8","3622","
                  <p style=""text-align: center;"">₪11
                                                <br>20%</p>
                  <p id=""wtp"" style=""text-align:center; margin-top: 0px; margin-bottom: 0px; font-size: 40px"";>מוכנים לשלם: <span id=""c_p_y""></span></p>","2","evaluation","15","4","12C,17C,23C,28C","20","11","2","","","","","","","","","","","","","","","","",""
"","","","","","html-keyboard-response","51","962742","0.0-17.0-2.11","7f24b687-4d3e-4756-bf2d-223cca5dcdb8","null","<p style=""text-align: center;"">+</p>","null","fixation","","","","","","","","","","","","","","","","","","","","","","",""
"","","","","","html-slider-response","52","963747","0.0-17.0-0.12","7f24b687-4d3e-4756-bf2d-223cca5dcdb8","1000","
                  <p style=""text-align: center;"">₪16
                                                <br>20%</p>
                  <p id=""wtp"" style=""text-align:center; margin-top: 0px; margin-bottom: 0px; font-size: 40px"";>&ensp;</p>","-","viewing","0","8","14C,17A,20C,27A","","","","","","","","","","","","","","","","","","","",""
"","","","","","html-slider-response","53","967071","0.0-17.0-1.12","7f24b687-4d3e-4756-bf2d-223cca5dcdb8","3323","
                  <p style=""text-align: center;"">₪16
                                                <br>20%</p>
                  <p id=""wtp"" style=""text-align:center; margin-top: 0px; margin-bottom: 0px; font-size: 40px"";>מוכנים לשלם: <span id=""c_p_y""></span></p>","5","evaluation","49","8","14C,17A,20C,27A","20","16","5","","","","","","","","","","","","","","","","",""
"","","","","","html-keyboard-response","54","968146","0.0-17.0-2.12","7f24b687-4d3e-4756-bf2d-223cca5dcdb8","null","<p style=""text-align: center;"">+</p>","null","fixation","","","","","","","","","","","","","","","","","","","","","","",""
"","","","","","html-slider-response","55","969161","0.0-17.0-0.13","7f24b687-4d3e-4756-bf2d-223cca5dcdb8","1000","
                  <p style=""text-align: center;"">₪61
                                                <br>55%</p>
                  <p id=""wtp"" style=""text-align:center; margin-top: 0px; margin-bottom: 0px; font-size: 40px"";>&ensp;</p>","-","viewing","0","23","7B,26B","","","","","","","","","","","","","","","","","","","",""
"","","","","","html-slider-response","56","972942","0.0-17.0-1.13","7f24b687-4d3e-4756-bf2d-223cca5dcdb8","3780","
                  <p style=""text-align: center;"">₪61
                                                <br>55%</p>
                  <p id=""wtp"" style=""text-align:center; margin-top: 0px; margin-bottom: 0px; font-size: 40px"";>מוכנים לשלם: <span id=""c_p_y""></span></p>","32","evaluation","29","23","7B,26B","55","61","32","","","","","","","","","","","","","","","","",""
"","","","","","html-keyboard-response","57","974034","0.0-17.0-2.13","7f24b687-4d3e-4756-bf2d-223cca5dcdb8","null","<p style=""text-align: center;"">+</p>","null","fixation","","","","","","","","","","","","","","","","","","","","","","",""
"","","","","","html-slider-response","58","975041","0.0-17.0-0.14","7f24b687-4d3e-4756-bf2d-223cca5dcdb8","1000","
                  <p style=""text-align: center;"">₪4
                                                <br>50%</p>
                  <p id=""wtp"" style=""text-align:center; margin-top: 0px; margin-bottom: 0px; font-size: 40px"";>&ensp;</p>","-","viewing","0","2","4C,17B","","","","","","","","","","","","","","","","","","","",""
"","","","","","html-slider-response","59","978222","0.0-17.0-1.14","7f24b687-4d3e-4756-bf2d-223cca5dcdb8","3180","
                  <p style=""text-align: center;"">₪4
                                                <br>50%</p>
                  <p id=""wtp"" style=""text-align:center; margin-top: 0px; margin-bottom: 0px; font-size: 40px"";>מוכנים לשלם: <span id=""c_p_y""></span></p>","0","evaluation","0","2","4C,17B","50","4","0","","","","","","","","","","","","","","","","",""
"","","","","","html-keyboard-response","60","979529","0.0-17.0-2.14","7f24b687-4d3e-4756-bf2d-223cca5dcdb8","null","<p style=""text-align: center;"">+</p>","null","fixation","","","","","","","","","","","","","","","","","","","","","","",""
"","","","","","html-slider-response","61","980533","0.0-17.0-0.15","7f24b687-4d3e-4756-bf2d-223cca5dcdb8","1000","
                  <p style=""text-align: center;"">₪79
                                                <br>40%</p>
                  <p id=""wtp"" style=""text-align:center; margin-top: 0px; margin-bottom: 0px; font-size: 40px"";>&ensp;</p>","-","viewing","0","30","9B","","","","","","","","","","","","","","","","","","","",""
"","","","","","html-slider-response","62","984454","0.0-17.0-1.15","7f24b687-4d3e-4756-bf2d-223cca5dcdb8","3920","
                  <p style=""text-align: center;"">₪79
                                                <br>40%</p>
                  <p id=""wtp"" style=""text-align:center; margin-top: 0px; margin-bottom: 0px; font-size: 40px"";>מוכנים לשלם: <span id=""c_p_y""></span></p>","27","evaluation","0","30","9B","40","79","27","","","","","","","","","","","","","","","","",""
"","","","","","html-keyboard-response","63","985358","0.0-17.0-2.15","7f24b687-4d3e-4756-bf2d-223cca5dcdb8","null","<p style=""text-align: center;"">+</p>","null","fixation","","","","","","","","","","","","","","","","","","","","","","",""
"","","","","","html-slider-response","64","986371","0.0-17.0-0.16","7f24b687-4d3e-4756-bf2d-223cca5dcdb8","1000","
                  <p style=""text-align: center;"">₪36
                                                <br>75%</p>
                  <p id=""wtp"" style=""text-align:center; margin-top: 0px; margin-bottom: 0px; font-size: 40px"";>&ensp;</p>","-","viewing","0","14","4B,5A,13B,16B","","","","","","","","","","","","","","","","","","","",""
"","","","","","html-slider-response","65","989518","0.0-17.0-1.16","7f24b687-4d3e-4756-bf2d-223cca5dcdb8","3147","
                  <p style=""text-align: center;"">₪36
                                                <br>75%</p>
                  <p id=""wtp"" style=""text-align:center; margin-top: 0px; margin-bottom: 0px; font-size: 40px"";>מוכנים לשלם: <span id=""c_p_y""></span></p>","29","evaluation","13","14","4B,5A,13B,16B","75","36","29","","","","","","","","","","","","","","","","",""
"","","","","","html-keyboard-response","66","990196","0.0-17.0-2.16","7f24b687-4d3e-4756-bf2d-223cca5dcdb8","null","<p style=""text-align: center;"">+</p>","null","fixation","","","","","","","","","","","","","","","","","","","","","","",""
"","","","","","html-slider-response","67","991198","0.0-17.0-0.17","7f24b687-4d3e-4756-bf2d-223cca5dcdb8","1000","
                  <p style=""text-align: center;"">₪18
                                                <br>25%</p>
                  <p id=""wtp"" style=""text-align:center; margin-top: 0px; margin-bottom: 0px; font-size: 40px"";>&ensp;</p>","-","viewing","0","9","14A,23A","","","","","","","","","","","","","","","","","","","",""
"","","","","","html-slider-response","68","995208","0.0-17.0-1.17","7f24b687-4d3e-4756-bf2d-223cca5dcdb8","null","
                  <p style=""text-align: center;"">₪18
                                                <br>25%</p>
                  <p id=""wtp"" style=""text-align:center; margin-top: 0px; margin-bottom: 0px; font-size: 40px"";>מוכנים לשלם: <span id=""c_p_y""></span></p>","null","evaluation","54","9","14A,23A","25","18","3","","","","","","","","","","","","","","","","",""
"","","","","","html-keyboard-response","69","996399","0.0-17.0-2.17","7f24b687-4d3e-4756-bf2d-223cca5dcdb8","null","<p style=""text-align: center;"">+</p>","null","fixation","","","","","","","","","","","","","","","","","","","","","","",""
"","","","","","html-slider-response","70","997406","0.0-17.0-0.18","7f24b687-4d3e-4756-bf2d-223cca5dcdb8","1000","
                  <p style=""text-align: center;"">₪43
                                                <br>60%</p>
                  <p id=""wtp"" style=""text-align:center; margin-top: 0px; margin-bottom: 0px; font-size: 40px"";>&ensp;</p>","-","viewing","0","17","2A,7A,9A,15B","","","","","","","","","","","","","","","","","","","",""
"","","","","","html-slider-response","71","999574","0.0-17.0-1.18","7f24b687-4d3e-4756-bf2d-223cca5dcdb8","2167","
                  <p style=""text-align: center;"">₪43
                                                <br>60%</p>
                  <p id=""wtp"" style=""text-align:center; margin-top: 0px; margin-bottom: 0px; font-size: 40px"";>מוכנים לשלם: <span id=""c_p_y""></span></p>","31","evaluation","63","17","2A,7A,9A,15B","60","43","31","","","","","","","","","","","","","","","","",""
"","","","","","html-keyboard-response","72","1000472","0.0-17.0-2.18","7f24b687-4d3e-4756-bf2d-223cca5dcdb8","null","<p style=""text-align: center;"">+</p>","null","fixation","","","","","","","","","","","","","","","","","","","","","","",""
"","","","","","html-slider-response","73","1001482","0.0-17.0-0.19","7f24b687-4d3e-4756-bf2d-223cca5dcdb8","1000","
                  <p style=""text-align: center;"">₪61
                                                <br>45%</p>
                  <p id=""wtp"" style=""text-align:center; margin-top: 0px; margin-bottom: 0px; font-size: 40px"";>&ensp;</p>","-","viewing","0","22","10A,11A","","","","","","","","","","","","","","","","","","","",""
"","","","","","html-slider-response","74","1004550","0.0-17.0-1.19","7f24b687-4d3e-4756-bf2d-223cca5dcdb8","3067","
                  <p style=""text-align: center;"">₪61
                                                <br>45%</p>
                  <p id=""wtp"" style=""text-align:center; margin-top: 0px; margin-bottom: 0px; font-size: 40px"";>מוכנים לשלם: <span id=""c_p_y""></span></p>","19","evaluation","68","22","10A,11A","45","61","19","","","","","","","","","","","","","","","","",""
"","","","","","html-keyboard-response","75","1005118","0.0-17.0-2.19","7f24b687-4d3e-4756-bf2d-223cca5dcdb8","null","<p style=""text-align: center;"">+</p>","null","fixation","","","","","","","","","","","","","","","","","","","","","","",""
"","","","","","html-slider-response","76","1006122","0.0-17.0-0.20","7f24b687-4d3e-4756-bf2d-223cca5dcdb8","1000","
                  <p style=""text-align: center;"">₪36
                                                <br>30%</p>
                  <p id=""wtp"" style=""text-align:center; margin-top: 0px; margin-bottom: 0px; font-size: 40px"";>&ensp;</p>","-","viewing","0","11","3C,20A,22A","","","","","","","","","","","","","","","","","","","",""
"","","","","","html-slider-response","77","1009902","0.0-17.0-1.20","7f24b687-4d3e-4756-bf2d-223cca5dcdb8","3779","
                  <p style=""text-align: center;"">₪36
                                                <br>30%</p>
                  <p id=""wtp"" style=""text-align:center; margin-top: 0px; margin-bottom: 0px; font-size: 40px"";>מוכנים לשלם: <span id=""c_p_y""></span></p>","10","evaluation","48","11","3C,20A,22A","30","36","11","","","","","","","","","","","","","","","","",""
"","","","","","html-keyboard-response","78","1010643","0.0-17.0-2.20","7f24b687-4d3e-4756-bf2d-223cca5dcdb8","null","<p style=""text-align: center;"">+</p>","null","fixation","","","","","","","","","","","","","","","","","","","","","","",""
"","","","","","html-slider-response","79","1011659","0.0-17.0-0.21","7f24b687-4d3e-4756-bf2d-223cca5dcdb8","1000","
                  <p style=""text-align: center;"">₪4
                                                <br>75%</p>
                  <p id=""wtp"" style=""text-align:center; margin-top: 0px; margin-bottom: 0px; font-size: 40px"";>&ensp;</p>","-","viewing","0","3","12B,20B,23B,27C,29C","","","","","","","","","","","","","","","","","","","",""
"","","","","","html-slider-response","80","1014734","0.0-17.0-1.21","7f24b687-4d3e-4756-bf2d-223cca5dcdb8","3074","
                  <p style=""text-align: center;"">₪4
                                                <br>75%</p>
                  <p id=""wtp"" style=""text-align:center; margin-top: 0px; margin-bottom: 0px; font-size: 40px"";>מוכנים לשלם: <span id=""c_p_y""></span></p>","6","evaluation","35","3","12B,20B,23B,27C,29C","75","4","7","","","","","","","","","","","","","","","","",""
"","","","","","html-keyboard-response","81","1015248","0.0-17.0-2.21","7f24b687-4d3e-4756-bf2d-223cca5dcdb8","null","<p style=""text-align: center;"">+</p>","null","fixation","","","","","","","","","","","","","","","","","","","","","","",""
"","","","","","html-slider-response","82","1016264","0.0-17.0-0.22","7f24b687-4d3e-4756-bf2d-223cca5dcdb8","1000","
                  <p style=""text-align: center;"">₪36
                                                <br>60%</p>
                  <p id=""wtp"" style=""text-align:center; margin-top: 0px; margin-bottom: 0px; font-size: 40px"";>&ensp;</p>","-","viewing","0","12","1C,7C,15C","","","","","","","","","","","","","","","","","","","",""
"","","","","","html-slider-response","83","1019582","0.0-17.0-1.22","7f24b687-4d3e-4756-bf2d-223cca5dcdb8","3317","
                  <p style=""text-align: center;"">₪36
                                                <br>60%</p>
                  <p id=""wtp"" style=""text-align:center; margin-top: 0px; margin-bottom: 0px; font-size: 40px"";>מוכנים לשלם: <span id=""c_p_y""></span></p>","23","evaluation","13","12","1C,7C,15C","60","36","23","","","","","","","","","","","","","","","","",""
"","","","","","html-keyboard-response","84","1020683","0.0-17.0-2.22","7f24b687-4d3e-4756-bf2d-223cca5dcdb8","null","<p style=""text-align: center;"">+</p>","null","fixation","","","","","","","","","","","","","","","","","","","","","","",""
"","","","","","html-slider-response","85","1021686","0.0-17.0-0.23","7f24b687-4d3e-4756-bf2d-223cca5dcdb8","1000","
                  <p style=""text-align: center;"">₪71
                                                <br>55%</p>
                  <p id=""wtp"" style=""text-align:center; margin-top: 0px; margin-bottom: 0px; font-size: 40px"";>&ensp;</p>","-","viewing","0","27","5B,18A","","","","","","","","","","","","","","","","","","","",""
"","","","","","html-slider-response","86","1025654","0.0-17.0-1.23","7f24b687-4d3e-4756-bf2d-223cca5dcdb8","3966","
                  <p style=""text-align: center;"">₪71
                                                <br>55%</p>
                  <p id=""wtp"" style=""text-align:center; margin-top: 0px; margin-bottom: 0px; font-size: 40px"";>מוכנים לשלם: <span id=""c_p_y""></span></p>","35","evaluation","76","27","5B,18A","55","71","35","","","","","","","","","","","","","","","","",""
"","","","","","html-keyboard-response","87","1026254","0.0-17.0-2.23","7f24b687-4d3e-4756-bf2d-223cca5dcdb8","null","<p style=""text-align: center;"">+</p>","null","fixation","","","","","","","","","","","","","","","","","","","","","","",""
"","","","","","html-slider-response","88","1027260","0.0-17.0-0.24","7f24b687-4d3e-4756-bf2d-223cca5dcdb8","1000","
                  <p style=""text-align: center;"">₪39
                                                <br>60%</p>
                  <p id=""wtp"" style=""text-align:center; margin-top: 0px; margin-bottom: 0px; font-size: 40px"";>&ensp;</p>","-","viewing","0","15","9C,25B","","","","","","","","","","","","","","","","","","","",""
"","","","","","html-slider-response","89","1030110","0.0-17.0-1.24","7f24b687-4d3e-4756-bf2d-223cca5dcdb8","2849","
                  <p style=""text-align: center;"">₪39
                                                <br>60%</p>
                  <p id=""wtp"" style=""text-align:center; margin-top: 0px; margin-bottom: 0px; font-size: 40px"";>מוכנים לשלם: <span id=""c_p_y""></span></p>","26","evaluation","68","15","9C,25B","60","39","26","","","","","","","","","","","","","","","","",""
"","","","","","html-keyboard-response","90","1030660","0.0-17.0-2.24","7f24b687-4d3e-4756-bf2d-223cca5dcdb8","null","<p style=""text-align: center;"">+</p>","null","fixation","","","","","","","","","","","","","","","","","","","","","","",""
"","","","","","html-slider-response","91","1031676","0.0-17.0-0.25","7f24b687-4d3e-4756-bf2d-223cca5dcdb8","1000","
                  <p style=""text-align: center;"">₪58
                                                <br>30%</p>
                  <p id=""wtp"" style=""text-align:center; margin-top: 0px; margin-bottom: 0px; font-size: 40px"";>&ensp;</p>","-","viewing","0","19","13C,30A","","","","","","","","","","","","","","","","","","","",""
"","","","","","html-slider-response","92","1035206","0.0-17.0-1.25","7f24b687-4d3e-4756-bf2d-223cca5dcdb8","3528","
                  <p style=""text-align: center;"">₪58
                                                <br>30%</p>
                  <p id=""wtp"" style=""text-align:center; margin-top: 0px; margin-bottom: 0px; font-size: 40px"";>מוכנים לשלם: <span id=""c_p_y""></span></p>","15","evaluation","63","19","13C,30A","30","58","15","","","","","","","","","","","","","","","","",""
"","","","","","html-keyboard-response","93","1036437","0.0-17.0-2.25","7f24b687-4d3e-4756-bf2d-223cca5dcdb8","null","<p style=""text-align: center;"">+</p>","null","fixation","","","","","","","","","","","","","","","","","","","","","","",""
"","","","","","html-slider-response","94","1037452","0.0-17.0-0.26","7f24b687-4d3e-4756-bf2d-223cca5dcdb8","1000","
                  <p style=""text-align: center;"">₪71
                                                <br>45%</p>
                  <p id=""wtp"" style=""text-align:center; margin-top: 0px; margin-bottom: 0px; font-size: 40px"";>&ensp;</p>","-","viewing","0","26","2B,16A","","","","","","","","","","","","","","","","","","","",""
"","","","","","html-slider-response","95","1040934","0.0-17.0-1.26","7f24b687-4d3e-4756-bf2d-223cca5dcdb8","3481","
                  <p style=""text-align: center;"">₪71
                                                <br>45%</p>
                  <p id=""wtp"" style=""text-align:center; margin-top: 0px; margin-bottom: 0px; font-size: 40px"";>מוכנים לשלם: <span id=""c_p_y""></span></p>","19","evaluation","55","26","2B,16A","45","71","19","","","","","","","","","","","","","","","","",""
"","","","","","html-keyboard-response","96","1042346","0.0-17.0-2.26","7f24b687-4d3e-4756-bf2d-223cca5dcdb8","null","<p style=""text-align: center;"">+</p>","null","fixation","","","","","","","","","","","","","","","","","","","","","","",""
"","","","","","html-slider-response","97","1043357","0.0-17.0-0.27","7f24b687-4d3e-4756-bf2d-223cca5dcdb8","1000","
                  <p style=""text-align: center;"">₪76
                                                <br>65%</p>
                  <p id=""wtp"" style=""text-align:center; margin-top: 0px; margin-bottom: 0px; font-size: 40px"";>&ensp;</p>","-","viewing","0","29","8C,19A,24B","","","","","","","","","","","","","","","","","","","",""
"","","","","","html-slider-response","98","1046286","0.0-17.0-1.27","7f24b687-4d3e-4756-bf2d-223cca5dcdb8","2927","
                  <p style=""text-align: center;"">₪76
                                                <br>65%</p>
                  <p id=""wtp"" style=""text-align:center; margin-top: 0px; margin-bottom: 0px; font-size: 40px"";>מוכנים לשלם: <span id=""c_p_y""></span></p>","39","evaluation","41","29","8C,19A,24B","65","76","39","","","","","","","","","","","","","","","","",""
"","","","","","html-keyboard-response","99","1047064","0.0-17.0-2.27","7f24b687-4d3e-4756-bf2d-223cca5dcdb8","null","<p style=""text-align: center;"">+</p>","null","fixation","","","","","","","","","","","","","","","","","","","","","","",""
"","","","","","html-slider-response","100","1048067","0.0-17.0-0.28","7f24b687-4d3e-4756-bf2d-223cca5dcdb8","1000","
                  <p style=""text-align: center;"">₪11
                                                <br>25%</p>
                  <p id=""wtp"" style=""text-align:center; margin-top: 0px; margin-bottom: 0px; font-size: 40px"";>&ensp;</p>","-","viewing","0","5","12A,27B,28B,30B","","","","","","","","","","","","","","","","","","","",""
"","","","","","html-slider-response","101","1050974","0.0-17.0-1.28","7f24b687-4d3e-4756-bf2d-223cca5dcdb8","2907","
                  <p style=""text-align: center;"">₪11
                                                <br>25%</p>
                  <p id=""wtp"" style=""text-align:center; margin-top: 0px; margin-bottom: 0px; font-size: 40px"";>מוכנים לשלם: <span id=""c_p_y""></span></p>","5","evaluation","11","5","12A,27B,28B,30B","25","11","5","","","","","","","","","","","","","","","","",""
"","","","","","html-keyboard-response","102","1052388","0.0-17.0-2.28","7f24b687-4d3e-4756-bf2d-223cca5dcdb8","null","<p style=""text-align: center;"">+</p>","null","fixation","","","","","","","","","","","","","","","","","","","","","","",""
"","","","","","html-slider-response","103","1053393","0.0-17.0-0.29","7f24b687-4d3e-4756-bf2d-223cca5dcdb8","1000","
                  <p style=""text-align: center;"">₪36
                                                <br>70%</p>
                  <p id=""wtp"" style=""text-align:center; margin-top: 0px; margin-bottom: 0px; font-size: 40px"";>&ensp;</p>","-","viewing","0","13","3A,5C,10B","","","","","","","","","","","","","","","","","","","",""
"","","","","","html-slider-response","104","1057401","0.0-17.0-1.29","7f24b687-4d3e-4756-bf2d-223cca5dcdb8","null","
                  <p style=""text-align: center;"">₪36
                                                <br>70%</p>
                  <p id=""wtp"" style=""text-align:center; margin-top: 0px; margin-bottom: 0px; font-size: 40px"";>מוכנים לשלם: <span id=""c_p_y""></span></p>","null","evaluation","28","13","3A,5C,10B","70","36","28","","","","","","","","","","","","","","","","",""
"","","","","","html-keyboard-response","105","1058854","0.0-17.0-2.29","7f24b687-4d3e-4756-bf2d-223cca5dcdb8","null","<p style=""text-align: center;"">+</p>","null","fixation","","","","","","","","","","","","","","","","","","","","","","",""
"","","","","","html-slider-response","106","1059868","0.0-17.0-0.30","7f24b687-4d3e-4756-bf2d-223cca5dcdb8","1000","
                  <p style=""text-align: center;"">₪4
                                                <br>25%</p>
                  <p id=""wtp"" style=""text-align:center; margin-top: 0px; margin-bottom: 0px; font-size: 40px"";>&ensp;</p>","-","viewing","0","1","6C,29B,30C","","","","","","","","","","","","","","","","","","","",""
"","","","","","html-slider-response","107","1062390","0.0-17.0-1.30","7f24b687-4d3e-4756-bf2d-223cca5dcdb8","2521","
                  <p style=""text-align: center;"">₪4
                                                <br>25%</p>
                  <p id=""wtp"" style=""text-align:center; margin-top: 0px; margin-bottom: 0px; font-size: 40px"";>מוכנים לשלם: <span id=""c_p_y""></span></p>","2","evaluation","12","1","6C,29B,30C","25","4","3","","","","","","","","","","","","","","","","",""
"","","","","","html-keyboard-response","108","1063443","0.0-17.0-2.30","7f24b687-4d3e-4756-bf2d-223cca5dcdb8","null","<p style=""text-align: center;"">+</p>","null","fixation","","","","","","","","","","","","","","","","","","","","","","",""
"","","","","","html-keyboard-response","109","1064444","0.0-18.0","7f24b687-4d3e-4756-bf2d-223cca5dcdb8","null","<p style=""text-align: center;"">+</p>","null","fixation","","","","","","","","","","","","","","","","","","","","","","",""
"","","","","","html-keyboard-response","110","1083974","0.0-19.0","7f24b687-4d3e-4756-bf2d-223cca5dcdb8","null","<p>הפסקה.
          <br>לחצו כדי להמשיך.</p>","1","scan_wait","","","","","","","","","","","","","","","","","","","","","","",""
"","","","","","html-keyboard-response","111","1084975","0.0-20.0","7f24b687-4d3e-4756-bf2d-223cca5dcdb8","null","<p style=""text-align: center;"">+</p>","null","fixation","","","","","","","","","","","","","","","","","","","","","","",""
"","","","","","html-slider-response","112","1085982","0.0-21.0-0.0","7f24b687-4d3e-4756-bf2d-223cca5dcdb8","1000","
                  <p style=""text-align: center;"">₪64
                                                <br>25%</p>
                  <p id=""wtp"" style=""text-align:center; margin-top: 0px; margin-bottom: 0px; font-size: 40px"";>&ensp;</p>","-","viewing","0","24","6A,21A","","","","","","","","","","","","","","","","","","","",""
"","","","","","html-slider-response","113","1089992","0.0-21.0-1.0","7f24b687-4d3e-4756-bf2d-223cca5dcdb8","null","
                  <p style=""text-align: center;"">₪64
                                                <br>25%</p>
                  <p id=""wtp"" style=""text-align:center; margin-top: 0px; margin-bottom: 0px; font-size: 40px"";>מוכנים לשלם: <span id=""c_p_y""></span></p>","null","evaluation","25","24","6A,21A","25","64","20","","","","","","","","","","","","","","","","",""
"","","","","","html-keyboard-response","114","1090662","0.0-21.0-2.0","7f24b687-4d3e-4756-bf2d-223cca5dcdb8","null","<p style=""text-align: center;"">+</p>","null","fixation","","","","","","","","","","","","","","","","","","","","","","",""
"","","","","","html-slider-response","115","1091673","0.0-21.0-0.1","7f24b687-4d3e-4756-bf2d-223cca5dcdb8","1000","
                  <p style=""text-align: center;"">₪11
                                                <br>45%</p>
                  <p id=""wtp"" style=""text-align:center; margin-top: 0px; margin-bottom: 0px; font-size: 40px"";>&ensp;</p>","-","viewing","0","6","14B,21C,25C","","","","","","","","","","","","","","","","","","","",""
"","","","","","html-slider-response","116","1094390","0.0-21.0-1.1","7f24b687-4d3e-4756-bf2d-223cca5dcdb8","2716","
                  <p style=""text-align: center;"">₪11
                                                <br>45%</p>
                  <p id=""wtp"" style=""text-align:center; margin-top: 0px; margin-bottom: 0px; font-size: 40px"";>מוכנים לשלם: <span id=""c_p_y""></span></p>","1","evaluation","54","6","14B,21C,25C","45","11","2","","","","","","","","","","","","","","","","",""
"","","","","","html-keyboard-response","117","1095008","0.0-21.0-2.1","7f24b687-4d3e-4756-bf2d-223cca5dcdb8","null","<p style=""text-align: center;"">+</p>","null","fixation","","","","","","","","","","","","","","","","","","","","","","",""
"","","","","","html-slider-response","118","1096022","0.0-21.0-0.2","7f24b687-4d3e-4756-bf2d-223cca5dcdb8","1000","
                  <p style=""text-align: center;"">₪4
                                                <br>25%</p>
                  <p id=""wtp"" style=""text-align:center; margin-top: 0px; margin-bottom: 0px; font-size: 40px"";>&ensp;</p>","-","viewing","0","1","6C,29B,30C","","","","","","","","","","","","","","","","","","","",""
"","","","","","html-slider-response","119","1097358","0.0-21.0-1.2","7f24b687-4d3e-4756-bf2d-223cca5dcdb8","1335","
                  <p style=""text-align: center;"">₪4
                                                <br>25%</p>
                  <p id=""wtp"" style=""text-align:center; margin-top: 0px; margin-bottom: 0px; font-size: 40px"";>מוכנים לשלם: <span id=""c_p_y""></span></p>","2","evaluation","67","1","6C,29B,30C","25","4","2","","","","","","","","","","","","","","","","",""
"","","","","","html-keyboard-response","120","1097925","0.0-21.0-2.2","7f24b687-4d3e-4756-bf2d-223cca5dcdb8","null","<p style=""text-align: center;"">+</p>","null","fixation","","","","","","","","","","","","","","","","","","","","","","",""
"","","","","","html-slider-response","121","1098933","0.0-21.0-0.3","7f24b687-4d3e-4756-bf2d-223cca5dcdb8","1000","
                  <p style=""text-align: center;"">₪58
                                                <br>30%</p>
                  <p id=""wtp"" style=""text-align:center; margin-top: 0px; margin-bottom: 0px; font-size: 40px"";>&ensp;</p>","-","viewing","0","19","13C,30A","","","","","","","","","","","","","","","","","","","",""
"","","","","","html-slider-response","122","1101638","0.0-21.0-1.3","7f24b687-4d3e-4756-bf2d-223cca5dcdb8","2704","
                  <p style=""text-align: center;"">₪58
                                                <br>30%</p>
                  <p id=""wtp"" style=""text-align:center; margin-top: 0px; margin-bottom: 0px; font-size: 40px"";>מוכנים לשלם: <span id=""c_p_y""></span></p>","10","evaluation","7","19","13C,30A","30","58","11","","","","","","","","","","","","","","","","",""
"","","","","","html-keyboard-response","123","1102729","0.0-21.0-2.3","7f24b687-4d3e-4756-bf2d-223cca5dcdb8","null","<p style=""text-align: center;"">+</p>","null","fixation","","","","","","","","","","","","","","","","","","","","","","",""
"","","","","","html-slider-response","124","1103741","0.0-21.0-0.4","7f24b687-4d3e-4756-bf2d-223cca5dcdb8","1000","
                  <p style=""text-align: center;"">₪39
                                                <br>65%</p>
                  <p id=""wtp"" style=""text-align:center; margin-top: 0px; margin-bottom: 0px; font-size: 40px"";>&ensp;</p>","-","viewing","0","16","1A,15A,26C","","","","","","","","","","","","","","","","","","","",""
"","","","","","html-slider-response","125","1107038","0.0-21.0-1.4","7f24b687-4d3e-4756-bf2d-223cca5dcdb8","3296","
                  <p style=""text-align: center;"">₪39
                                                <br>65%</p>
                  <p id=""wtp"" style=""text-align:center; margin-top: 0px; margin-bottom: 0px; font-size: 40px"";>מוכנים לשלם: <span id=""c_p_y""></span></p>","28","evaluation","21","16","1A,15A,26C","65","39","28","","","","","","","","","","","","","","","","",""
"","","","","","html-keyboard-response","126","1108369","0.0-21.0-2.4","7f24b687-4d3e-4756-bf2d-223cca5dcdb8","null","<p style=""text-align: center;"">+</p>","null","fixation","","","","","","","","","","","","","","","","","","","","","","",""
"","","","","","html-slider-response","127","1109377","0.0-21.0-0.5","7f24b687-4d3e-4756-bf2d-223cca5dcdb8","1000","
                  <p style=""text-align: center;"">₪71
                                                <br>45%</p>
                  <p id=""wtp"" style=""text-align:center; margin-top: 0px; margin-bottom: 0px; font-size: 40px"";>&ensp;</p>","-","viewing","0","26","2B,16A","","","","","","","","","","","","","","","","","","","",""
"","","","","","html-slider-response","128","1112070","0.0-21.0-1.5","7f24b687-4d3e-4756-bf2d-223cca5dcdb8","2692","
                  <p style=""text-align: center;"">₪71
                                                <br>45%</p>
                  <p id=""wtp"" style=""text-align:center; margin-top: 0px; margin-bottom: 0px; font-size: 40px"";>מוכנים לשלם: <span id=""c_p_y""></span></p>","25","evaluation","65","26","2B,16A","45","71","25","","","","","","","","","","","","","","","","",""
"","","","","","html-keyboard-response","129","1113453","0.0-21.0-2.5","7f24b687-4d3e-4756-bf2d-223cca5dcdb8","null","<p style=""text-align: center;"">+</p>","null","fixation","","","","","","","","","","","","","","","","","","","","","","",""
"","","","","","html-slider-response","130","1114454","0.0-21.0-0.6","7f24b687-4d3e-4756-bf2d-223cca5dcdb8","1000","
                  <p style=""text-align: center;"">₪36
                                                <br>70%</p>
                  <p id=""wtp"" style=""text-align:center; margin-top: 0px; margin-bottom: 0px; font-size: 40px"";>&ensp;</p>","-","viewing","0","13","3A,5C,10B","","","","","","","","","","","","","","","","","","","",""
"","","","","","html-slider-response","131","1118454","0.0-21.0-1.6","7f24b687-4d3e-4756-bf2d-223cca5dcdb8","3999","
                  <p style=""text-align: center;"">₪36
                                                <br>70%</p>
                  <p id=""wtp"" style=""text-align:center; margin-top: 0px; margin-bottom: 0px; font-size: 40px"";>מוכנים לשלם: <span id=""c_p_y""></span></p>","36","evaluation","43","13","3A,5C,10B","70","36","36","","","","","","","","","","","","","","","","",""
"","","","","","html-keyboard-response","132","1119394","0.0-21.0-2.6","7f24b687-4d3e-4756-bf2d-223cca5dcdb8","null","<p style=""text-align: center;"">+</p>","null","fixation","","","","","","","","","","","","","","","","","","","","","","",""
"","","","","","html-slider-response","133","1120402","0.0-21.0-0.7","7f24b687-4d3e-4756-bf2d-223cca5dcdb8","1000","
                  <p style=""text-align: center;"">₪11
                                                <br>75%</p>
                  <p id=""wtp"" style=""text-align:center; margin-top: 0px; margin-bottom: 0px; font-size: 40px"";>&ensp;</p>","-","viewing","0","7","6B,18B,22C,24C,29A","","","","","","","","","","","","","","","","","","","",""
"","","","","","html-slider-response","134","1123654","0.0-21.0-1.7","7f24b687-4d3e-4756-bf2d-223cca5dcdb8","3251","
                  <p style=""text-align: center;"">₪11
                                                <br>75%</p>
                  <p id=""wtp"" style=""text-align:center; margin-top: 0px; margin-bottom: 0px; font-size: 40px"";>מוכנים לשלם: <span id=""c_p_y""></span></p>","40","evaluation","62","7","6B,18B,22C,24C,29A","75","11","40","","","","","","","","","","","","","","","","",""
"","","","","","html-keyboard-response","135","1124719","0.0-21.0-2.7","7f24b687-4d3e-4756-bf2d-223cca5dcdb8","null","<p style=""text-align: center;"">+</p>","null","fixation","","","","","","","","","","","","","","","","","","","","","","",""
"","","","","","html-slider-response","136","1125725","0.0-21.0-0.8","7f24b687-4d3e-4756-bf2d-223cca5dcdb8","1000","
                  <p style=""text-align: center;"">₪61
                                                <br>45%</p>
                  <p id=""wtp"" style=""text-align:center; margin-top: 0px; margin-bottom: 0px; font-size: 40px"";>&ensp;</p>","-","viewing","0","22","10A,11A","","","","","","","","","","","","","","","","","","","",""
"","","","","","html-slider-response","137","1128798","0.0-21.0-1.8","7f24b687-4d3e-4756-bf2d-223cca5dcdb8","3071","
                  <p style=""text-align: center;"">₪61
                                                <br>45%</p>
                  <p id=""wtp"" style=""text-align:center; margin-top: 0px; margin-bottom: 0px; font-size: 40px"";>מוכנים לשלם: <span id=""c_p_y""></span></p>","21","evaluation","71","22","10A,11A","45","61","21","","","","","","","","","","","","","","","","",""
"","","","","","html-keyboard-response","138","1130170","0.0-21.0-2.8","7f24b687-4d3e-4756-bf2d-223cca5dcdb8","null","<p style=""text-align: center;"">+</p>","null","fixation","","","","","","","","","","","","","","","","","","","","","","",""
"","","","","","html-slider-response","139","1131180","0.0-21.0-0.9","7f24b687-4d3e-4756-bf2d-223cca5dcdb8","1000","
                  <p style=""text-align: center;"">₪43
                                                <br>75%</p>
                  <p id=""wtp"" style=""text-align:center; margin-top: 0px; margin-bottom: 0px; font-size: 40px"";>&ensp;</p>","-","viewing","0","18","11B,19B,24A,26A","","","","","","","","","","","","","","","","","","","",""
"","","","","","html-slider-response","140","1133805","0.0-21.0-1.9","7f24b687-4d3e-4756-bf2d-223cca5dcdb8","2624","
                  <p style=""text-align: center;"">₪43
                                                <br>75%</p>
                  <p id=""wtp"" style=""text-align:center; margin-top: 0px; margin-bottom: 0px; font-size: 40px"";>מוכנים לשלם: <span id=""c_p_y""></span></p>","62","evaluation","43","18","11B,19B,24A,26A","75","43","62","","","","","","","","","","","","","","","","",""
"","","","","","html-keyboard-response","141","1134738","0.0-21.0-2.9","7f24b687-4d3e-4756-bf2d-223cca5dcdb8","null","<p style=""text-align: center;"">+</p>","null","fixation","","","","","","","","","","","","","","","","","","","","","","",""
"","","","","","html-slider-response","142","1135749","0.0-21.0-0.10","7f24b687-4d3e-4756-bf2d-223cca5dcdb8","1000","
                  <p style=""text-align: center;"">₪11
                                                <br>20%</p>
                  <p id=""wtp"" style=""text-align:center; margin-top: 0px; margin-bottom: 0px; font-size: 40px"";>&ensp;</p>","-","viewing","0","4","12C,17C,23C,28C","","","","","","","","","","","","","","","","","","","",""
"","","","","","html-slider-response","143","1137909","0.0-21.0-1.10","7f24b687-4d3e-4756-bf2d-223cca5dcdb8","2160","
                  <p style=""text-align: center;"">₪11
                                                <br>20%</p>
                  <p id=""wtp"" style=""text-align:center; margin-top: 0px; margin-bottom: 0px; font-size: 40px"";>מוכנים לשלם: <span id=""c_p_y""></span></p>","16","evaluation","34","4","12C,17C,23C,28C","20","11","16","","","","","","","","","","","","","","","","",""
"","","","","","html-keyboard-response","144","1138502","0.0-21.0-2.10","7f24b687-4d3e-4756-bf2d-223cca5dcdb8","null","<p style=""text-align: center;"">+</p>","null","fixation","","","","","","","","","","","","","","","","","","","","","","",""
"","","","","","html-slider-response","145","1139505","0.0-21.0-0.11","7f24b687-4d3e-4756-bf2d-223cca5dcdb8","1000","
                  <p style=""text-align: center;"">₪11
                                                <br>25%</p>
                  <p id=""wtp"" style=""text-align:center; margin-top: 0px; margin-bottom: 0px; font-size: 40px"";>&ensp;</p>","-","viewing","0","5","12A,27B,28B,30B","","","","","","","","","","","","","","","","","","","",""
"","","","","","html-slider-response","146","1140341","0.0-21.0-1.11","7f24b687-4d3e-4756-bf2d-223cca5dcdb8","836","
                  <p style=""text-align: center;"">₪11
                                                <br>25%</p>
                  <p id=""wtp"" style=""text-align:center; margin-top: 0px; margin-bottom: 0px; font-size: 40px"";>מוכנים לשלם: <span id=""c_p_y""></span></p>","0","evaluation","39","5","12A,27B,28B,30B","25","11","0","","","","","","","","","","","","","","","","",""
"","","","","","html-keyboard-response","147","1141177","0.0-21.0-2.11","7f24b687-4d3e-4756-bf2d-223cca5dcdb8","null","<p style=""text-align: center;"">+</p>","null","fixation","","","","","","","","","","","","","","","","","","","","","","",""
"","","","","","html-slider-response","148","1142191","0.0-21.0-0.12","7f24b687-4d3e-4756-bf2d-223cca5dcdb8","1000","
                  <p style=""text-align: center;"">₪71
                                                <br>55%</p>
                  <p id=""wtp"" style=""text-align:center; margin-top: 0px; margin-bottom: 0px; font-size: 40px"";>&ensp;</p>","-","viewing","0","27","5B,18A","","","","","","","","","","","","","","","","","","","",""
"","","","","","html-slider-response","149","1144758","0.0-21.0-1.12","7f24b687-4d3e-4756-bf2d-223cca5dcdb8","2566","
                  <p style=""text-align: center;"">₪71
                                                <br>55%</p>
                  <p id=""wtp"" style=""text-align:center; margin-top: 0px; margin-bottom: 0px; font-size: 40px"";>מוכנים לשלם: <span id=""c_p_y""></span></p>","42","evaluation","66","27","5B,18A","55","71","42","","","","","","","","","","","","","","","","",""
"","","","","","html-keyboard-response","150","1145323","0.0-21.0-2.12","7f24b687-4d3e-4756-bf2d-223cca5dcdb8","null","<p style=""text-align: center;"">+</p>","null","fixation","","","","","","","","","","","","","","","","","","","","","","",""
"","","","","","html-slider-response","151","1146329","0.0-21.0-0.13","7f24b687-4d3e-4756-bf2d-223cca5dcdb8","1000","
                  <p style=""text-align: center;"">₪58
                                                <br>40%</p>
                  <p id=""wtp"" style=""text-align:center; margin-top: 0px; margin-bottom: 0px; font-size: 40px"";>&ensp;</p>","-","viewing","0","20","10C,13A,19C,21B","","","","","","","","","","","","","","","","","","","",""
"","","","","","html-slider-response","152","1149741","0.0-21.0-1.13","7f24b687-4d3e-4756-bf2d-223cca5dcdb8","3412","
                  <p style=""text-align: center;"">₪58
                                                <br>40%</p>
                  <p id=""wtp"" style=""text-align:center; margin-top: 0px; margin-bottom: 0px; font-size: 40px"";>מוכנים לשלם: <span id=""c_p_y""></span></p>","25","evaluation","80","20","10C,13A,19C,21B","40","58","25","","","","","","","","","","","","","","","","",""
"","","","","","html-keyboard-response","153","1151167","0.0-21.0-2.13","7f24b687-4d3e-4756-bf2d-223cca5dcdb8","null","<p style=""text-align: center;"">+</p>","null","fixation","","","","","","","","","","","","","","","","","","","","","","",""
"","","","","","html-slider-response","154","1152180","0.0-21.0-0.14","7f24b687-4d3e-4756-bf2d-223cca5dcdb8","1000","
                  <p style=""text-align: center;"">₪36
                                                <br>60%</p>
                  <p id=""wtp"" style=""text-align:center; margin-top: 0px; margin-bottom: 0px; font-size: 40px"";>&ensp;</p>","-","viewing","0","12","1C,7C,15C","","","","","","","","","","","","","","","","","","","",""
"","","","","","html-slider-response","155","1155293","0.0-21.0-1.14","7f24b687-4d3e-4756-bf2d-223cca5dcdb8","3112","
                  <p style=""text-align: center;"">₪36
                                                <br>60%</p>
                  <p id=""wtp"" style=""text-align:center; margin-top: 0px; margin-bottom: 0px; font-size: 40px"";>מוכנים לשלם: <span id=""c_p_y""></span></p>","20","evaluation","53","12","1C,7C,15C","60","36","20","","","","","","","","","","","","","","","","",""
"","","","","","html-keyboard-response","156","1156023","0.0-21.0-2.14","7f24b687-4d3e-4756-bf2d-223cca5dcdb8","null","<p style=""text-align: center;"">+</p>","null","fixation","","","","","","","","","","","","","","","","","","","","","","",""
"","","","","","html-slider-response","157","1157038","0.0-21.0-0.15","7f24b687-4d3e-4756-bf2d-223cca5dcdb8","1000","
                  <p style=""text-align: center;"">₪39
                                                <br>60%</p>
                  <p id=""wtp"" style=""text-align:center; margin-top: 0px; margin-bottom: 0px; font-size: 40px"";>&ensp;</p>","-","viewing","0","15","9C,25B","","","","","","","","","","","","","","","","","","","",""
"","","","","","html-slider-response","158","1158934","0.0-21.0-1.15","7f24b687-4d3e-4756-bf2d-223cca5dcdb8","1895","
                  <p style=""text-align: center;"">₪39
                                                <br>60%</p>
                  <p id=""wtp"" style=""text-align:center; margin-top: 0px; margin-bottom: 0px; font-size: 40px"";>מוכנים לשלם: <span id=""c_p_y""></span></p>","20","evaluation","58","15","9C,25B","60","39","20","","","","","","","","","","","","","","","","",""
"","","","","","html-keyboard-response","159","1159581","0.0-21.0-2.15","7f24b687-4d3e-4756-bf2d-223cca5dcdb8","null","<p style=""text-align: center;"">+</p>","null","fixation","","","","","","","","","","","","","","","","","","","","","","",""
"","","","","","html-slider-response","160","1160592","0.0-21.0-0.16","7f24b687-4d3e-4756-bf2d-223cca5dcdb8","1000","
                  <p style=""text-align: center;"">₪61
                                                <br>55%</p>
                  <p id=""wtp"" style=""text-align:center; margin-top: 0px; margin-bottom: 0px; font-size: 40px"";>&ensp;</p>","-","viewing","0","23","7B,26B","","","","","","","","","","","","","","","","","","","",""
"","","","","","html-slider-response","161","1164596","0.0-21.0-1.16","7f24b687-4d3e-4756-bf2d-223cca5dcdb8","null","
                  <p style=""text-align: center;"">₪61
                                                <br>55%</p>
                  <p id=""wtp"" style=""text-align:center; margin-top: 0px; margin-bottom: 0px; font-size: 40px"";>מוכנים לשלם: <span id=""c_p_y""></span></p>","null","evaluation","50","23","7B,26B","55","61","34","","","","","","","","","","","","","","","","",""
"","","","","","html-keyboard-response","162","1166093","0.0-21.0-2.16","7f24b687-4d3e-4756-bf2d-223cca5dcdb8","null","<p style=""text-align: center;"">+</p>","null","fixation","","","","","","","","","","","","","","","","","","","","","","",""
"","","","","","html-slider-response","163","1167096","0.0-21.0-0.17","7f24b687-4d3e-4756-bf2d-223cca5dcdb8","1000","
                  <p style=""text-align: center;"">₪79
                                                <br>65%</p>
                  <p id=""wtp"" style=""text-align:center; margin-top: 0px; margin-bottom: 0px; font-size: 40px"";>&ensp;</p>","-","viewing","0","31","8A","","","","","","","","","","","","","","","","","","","",""
"","","","","","html-slider-response","164","1169550","0.0-21.0-1.17","7f24b687-4d3e-4756-bf2d-223cca5dcdb8","2453","
                  <p style=""text-align: center;"">₪79
                                                <br>65%</p>
                  <p id=""wtp"" style=""text-align:center; margin-top: 0px; margin-bottom: 0px; font-size: 40px"";>מוכנים לשלם: <span id=""c_p_y""></span></p>","44","evaluation","53","31","8A","65","79","44","","","","","","","","","","","","","","","","",""
"","","","","","html-keyboard-response","165","1170365","0.0-21.0-2.17","7f24b687-4d3e-4756-bf2d-223cca5dcdb8","null","<p style=""text-align: center;"">+</p>","null","fixation","","","","","","","","","","","","","","","","","","","","","","",""
"","","","","","html-slider-response","166","1171370","0.0-21.0-0.18","7f24b687-4d3e-4756-bf2d-223cca5dcdb8","1000","
                  <p style=""text-align: center;"">₪71
                                                <br>75%</p>
                  <p id=""wtp"" style=""text-align:center; margin-top: 0px; margin-bottom: 0px; font-size: 40px"";>&ensp;</p>","-","viewing","0","28","8B","","","","","","","","","","","","","","","","","","","",""
"","","","","","html-slider-response","167","1175062","0.0-21.0-1.18","7f24b687-4d3e-4756-bf2d-223cca5dcdb8","3690","
                  <p style=""text-align: center;"">₪71
                                                <br>75%</p>
                  <p id=""wtp"" style=""text-align:center; margin-top: 0px; margin-bottom: 0px; font-size: 40px"";>מוכנים לשלם: <span id=""c_p_y""></span></p>","46","evaluation","41","28","8B","75","71","46","","","","","","","","","","","","","","","","",""
"","","","","","html-keyboard-response","168","1176340","0.0-21.0-2.18","7f24b687-4d3e-4756-bf2d-223cca5dcdb8","null","<p style=""text-align: center;"">+</p>","null","fixation","","","","","","","","","","","","","","","","","","","","","","",""
"","","","","","html-slider-response","169","1177345","0.0-21.0-0.19","7f24b687-4d3e-4756-bf2d-223cca5dcdb8","1000","
                  <p style=""text-align: center;"">₪16
                                                <br>20%</p>
                  <p id=""wtp"" style=""text-align:center; margin-top: 0px; margin-bottom: 0px; font-size: 40px"";>&ensp;</p>","-","viewing","0","8","14C,17A,20C,27A","","","","","","","","","","","","","","","","","","","",""
"","","","","","html-slider-response","170","1181270","0.0-21.0-1.19","7f24b687-4d3e-4756-bf2d-223cca5dcdb8","3924","
                  <p style=""text-align: center;"">₪16
                                                <br>20%</p>
                  <p id=""wtp"" style=""text-align:center; margin-top: 0px; margin-bottom: 0px; font-size: 40px"";>מוכנים לשלם: <span id=""c_p_y""></span></p>","5","evaluation","20","8","14C,17A,20C,27A","20","16","5","","","","","","","","","","","","","","","","",""
"","","","","","html-keyboard-response","171","1182536","0.0-21.0-2.19","7f24b687-4d3e-4756-bf2d-223cca5dcdb8","null","<p style=""text-align: center;"">+</p>","null","fixation","","","","","","","","","","","","","","","","","","","","","","",""
"","","","","","html-slider-response","172","1183548","0.0-21.0-0.20","7f24b687-4d3e-4756-bf2d-223cca5dcdb8","1000","
                  <p style=""text-align: center;"">₪43
                                                <br>60%</p>
                  <p id=""wtp"" style=""text-align:center; margin-top: 0px; margin-bottom: 0px; font-size: 40px"";>&ensp;</p>","-","viewing","0","17","2A,7A,9A,15B","","","","","","","","","","","","","","","","","","","",""
"","","","","","html-slider-response","173","1186294","0.0-21.0-1.20","7f24b687-4d3e-4756-bf2d-223cca5dcdb8","2745","
                  <p style=""text-align: center;"">₪43
                                                <br>60%</p>
                  <p id=""wtp"" style=""text-align:center; margin-top: 0px; margin-bottom: 0px; font-size: 40px"";>מוכנים לשלם: <span id=""c_p_y""></span></p>","37","evaluation","18","17","2A,7A,9A,15B","60","43","37","","","","","","","","","","","","","","","","",""
"","","","","","html-keyboard-response","174","1187552","0.0-21.0-2.20","7f24b687-4d3e-4756-bf2d-223cca5dcdb8","null","<p style=""text-align: center;"">+</p>","null","fixation","","","","","","","","","","","","","","","","","","","","","","",""
"","","","","","html-slider-response","175","1188554","0.0-21.0-0.21","7f24b687-4d3e-4756-bf2d-223cca5dcdb8","1000","
                  <p style=""text-align: center;"">₪36
                                                <br>75%</p>
                  <p id=""wtp"" style=""text-align:center; margin-top: 0px; margin-bottom: 0px; font-size: 40px"";>&ensp;</p>","-","viewing","0","14","4B,5A,13B,16B","","","","","","","","","","","","","","","","","","","",""
"","","","","","html-slider-response","176","1192222","0.0-21.0-1.21","7f24b687-4d3e-4756-bf2d-223cca5dcdb8","3667","
                  <p style=""text-align: center;"">₪36
                                                <br>75%</p>
                  <p id=""wtp"" style=""text-align:center; margin-top: 0px; margin-bottom: 0px; font-size: 40px"";>מוכנים לשלם: <span id=""c_p_y""></span></p>","80","evaluation","49","14","4B,5A,13B,16B","75","36","80","","","","","","","","","","","","","","","","",""
"","","","","","html-keyboard-response","177","1193336","0.0-21.0-2.21","7f24b687-4d3e-4756-bf2d-223cca5dcdb8","null","<p style=""text-align: center;"">+</p>","null","fixation","","","","","","","","","","","","","","","","","","","","","","",""
"","","","","","html-slider-response","178","1194339","0.0-21.0-0.22","7f24b687-4d3e-4756-bf2d-223cca5dcdb8","1000","
                  <p style=""text-align: center;"">₪36
                                                <br>30%</p>
                  <p id=""wtp"" style=""text-align:center; margin-top: 0px; margin-bottom: 0px; font-size: 40px"";>&ensp;</p>","-","viewing","0","11","3C,20A,22A","","","","","","","","","","","","","","","","","","","",""
"","","","","","html-slider-response","179","1195894","0.0-21.0-1.22","7f24b687-4d3e-4756-bf2d-223cca5dcdb8","1554","
                  <p style=""text-align: center;"">₪36
                                                <br>30%</p>
                  <p id=""wtp"" style=""text-align:center; margin-top: 0px; margin-bottom: 0px; font-size: 40px"";>מוכנים לשלם: <span id=""c_p_y""></span></p>","12","evaluation","56","11","3C,20A,22A","30","36","12","","","","","","","","","","","","","","","","",""
"","","","","","html-keyboard-response","180","1196507","0.0-21.0-2.22","7f24b687-4d3e-4756-bf2d-223cca5dcdb8","null","<p style=""text-align: center;"">+</p>","null","fixation","","","","","","","","","","","","","","","","","","","","","","",""
"","","","","","html-slider-response","181","1197510","0.0-21.0-0.23","7f24b687-4d3e-4756-bf2d-223cca5dcdb8","1000","
                  <p style=""text-align: center;"">₪4
                                                <br>50%</p>
                  <p id=""wtp"" style=""text-align:center; margin-top: 0px; margin-bottom: 0px; font-size: 40px"";>&ensp;</p>","-","viewing","0","2","4C,17B","","","","","","","","","","","","","","","","","","","",""
"","","","","","html-slider-response","182","1201390","0.0-21.0-1.23","7f24b687-4d3e-4756-bf2d-223cca5dcdb8","3879","
                  <p style=""text-align: center;"">₪4
                                                <br>50%</p>
                  <p id=""wtp"" style=""text-align:center; margin-top: 0px; margin-bottom: 0px; font-size: 40px"";>מוכנים לשלם: <span id=""c_p_y""></span></p>","1","evaluation","43","2","4C,17B","50","4","1","","","","","","","","","","","","","","","","",""
"","","","","","html-keyboard-response","183","1202213","0.0-21.0-2.23","7f24b687-4d3e-4756-bf2d-223cca5dcdb8","null","<p style=""text-align: center;"">+</p>","null","fixation","","","","","","","","","","","","","","","","","","","","","","",""
"","","","","","html-slider-response","184","1203216","0.0-21.0-0.24","7f24b687-4d3e-4756-bf2d-223cca5dcdb8","1000","
                  <p style=""text-align: center;"">₪4
                                                <br>75%</p>
                  <p id=""wtp"" style=""text-align:center; margin-top: 0px; margin-bottom: 0px; font-size: 40px"";>&ensp;</p>","-","viewing","0","3","12B,20B,23B,27C,29C","","","","","","","","","","","","","","","","","","","",""
"","","","","","html-slider-response","185","1205918","0.0-21.0-1.24","7f24b687-4d3e-4756-bf2d-223cca5dcdb8","2701","
                  <p style=""text-align: center;"">₪4
                                                <br>75%</p>
                  <p id=""wtp"" style=""text-align:center; margin-top: 0px; margin-bottom: 0px; font-size: 40px"";>מוכנים לשלם: <span id=""c_p_y""></span></p>","12","evaluation","66","3","12B,20B,23B,27C,29C","75","4","12","","","","","","","","","","","","","","","","",""
"","","","","","html-keyboard-response","186","1206744","0.0-21.0-2.24","7f24b687-4d3e-4756-bf2d-223cca5dcdb8","null","<p style=""text-align: center;"">+</p>","null","fixation","","","","","","","","","","","","","","","","","","","","","","",""
"","","","","","html-slider-response","187","1207751","0.0-21.0-0.25","7f24b687-4d3e-4756-bf2d-223cca5dcdb8","1000","
                  <p style=""text-align: center;"">₪76
                                                <br>65%</p>
                  <p id=""wtp"" style=""text-align:center; margin-top: 0px; margin-bottom: 0px; font-size: 40px"";>&ensp;</p>","-","viewing","0","29","8C,19A,24B","","","","","","","","","","","","","","","","","","","",""
"","","","","","html-slider-response","188","1210406","0.0-21.0-1.25","7f24b687-4d3e-4756-bf2d-223cca5dcdb8","2654","
                  <p style=""text-align: center;"">₪76
                                                <br>65%</p>
                  <p id=""wtp"" style=""text-align:center; margin-top: 0px; margin-bottom: 0px; font-size: 40px"";>מוכנים לשלם: <span id=""c_p_y""></span></p>","49","evaluation","13","29","8C,19A,24B","65","76","49","","","","","","","","","","","","","","","","",""
"","","","","","html-keyboard-response","189","1211553","0.0-21.0-2.25","7f24b687-4d3e-4756-bf2d-223cca5dcdb8","null","<p style=""text-align: center;"">+</p>","null","fixation","","","","","","","","","","","","","","","","","","","","","","",""
"","","","","","html-slider-response","190","1212568","0.0-21.0-0.26","7f24b687-4d3e-4756-bf2d-223cca5dcdb8","1000","
                  <p style=""text-align: center;"">₪64
                                                <br>50%</p>
                  <p id=""wtp"" style=""text-align:center; margin-top: 0px; margin-bottom: 0px; font-size: 40px"";>&ensp;</p>","-","viewing","0","25","1B,3B,4A","","","","","","","","","","","","","","","","","","","",""
"","","","","","html-slider-response","191","1215046","0.0-21.0-1.26","7f24b687-4d3e-4756-bf2d-223cca5dcdb8","2477","
                  <p style=""text-align: center;"">₪64
                                                <br>50%</p>
                  <p id=""wtp"" style=""text-align:center; margin-top: 0px; margin-bottom: 0px; font-size: 40px"";>מוכנים לשלם: <span id=""c_p_y""></span></p>","10","evaluation","79","25","1B,3B,4A","50","64","10","","","","","","","","","","","","","","","","",""
"","","","","","html-keyboard-response","192","1215908","0.0-21.0-2.26","7f24b687-4d3e-4756-bf2d-223cca5dcdb8","null","<p style=""text-align: center;"">+</p>","null","fixation","","","","","","","","","","","","","","","","","","","","","","",""
"","","","","","html-slider-response","193","1216917","0.0-21.0-0.27","7f24b687-4d3e-4756-bf2d-223cca5dcdb8","1000","
                  <p style=""text-align: center;"">₪18
                                                <br>25%</p>
                  <p id=""wtp"" style=""text-align:center; margin-top: 0px; margin-bottom: 0px; font-size: 40px"";>&ensp;</p>","-","viewing","0","9","14A,23A","","","","","","","","","","","","","","","","","","","",""
"","","","","","html-slider-response","194","1220038","0.0-21.0-1.27","7f24b687-4d3e-4756-bf2d-223cca5dcdb8","3120","
                  <p style=""text-align: center;"">₪18
                                                <br>25%</p>
                  <p id=""wtp"" style=""text-align:center; margin-top: 0px; margin-bottom: 0px; font-size: 40px"";>מוכנים לשלם: <span id=""c_p_y""></span></p>","10","evaluation","44","9","14A,23A","25","18","10","","","","","","","","","","","","","","","","",""
"","","","","","html-keyboard-response","195","1221224","0.0-21.0-2.27","7f24b687-4d3e-4756-bf2d-223cca5dcdb8","null","<p style=""text-align: center;"">+</p>","null","fixation","","","","","","","","","","","","","","","","","","","","","","",""
"","","","","","html-slider-response","196","1222232","0.0-21.0-0.28","7f24b687-4d3e-4756-bf2d-223cca5dcdb8","1000","
                  <p style=""text-align: center;"">₪79
                                                <br>40%</p>
                  <p id=""wtp"" style=""text-align:center; margin-top: 0px; margin-bottom: 0px; font-size: 40px"";>&ensp;</p>","-","viewing","0","30","9B","","","","","","","","","","","","","","","","","","","",""
"","","","","","html-slider-response","197","1226046","0.0-21.0-1.28","7f24b687-4d3e-4756-bf2d-223cca5dcdb8","3813","
                  <p style=""text-align: center;"">₪79
                                                <br>40%</p>
                  <p id=""wtp"" style=""text-align:center; margin-top: 0px; margin-bottom: 0px; font-size: 40px"";>מוכנים לשלם: <span id=""c_p_y""></span></p>","30","evaluation","25","30","9B","40","79","30","","","","","","","","","","","","","","","","",""
"","","","","","html-keyboard-response","198","1226556","0.0-21.0-2.28","7f24b687-4d3e-4756-bf2d-223cca5dcdb8","null","<p style=""text-align: center;"">+</p>","null","fixation","","","","","","","","","","","","","","","","","","","","","","",""
"","","","","","html-slider-response","199","1227573","0.0-21.0-0.29","7f24b687-4d3e-4756-bf2d-223cca5dcdb8","1000","
                  <p style=""text-align: center;"">₪58
                                                <br>45%</p>
                  <p id=""wtp"" style=""text-align:center; margin-top: 0px; margin-bottom: 0px; font-size: 40px"";>&ensp;</p>","-","viewing","0","21","11C,18C,25A","","","","","","","","","","","","","","","","","","","",""
"","","","","","html-slider-response","200","1231190","0.0-21.0-1.29","7f24b687-4d3e-4756-bf2d-223cca5dcdb8","3617","
                  <p style=""text-align: center;"">₪58
                                                <br>45%</p>
                  <p id=""wtp"" style=""text-align:center; margin-top: 0px; margin-bottom: 0px; font-size: 40px"";>מוכנים לשלם: <span id=""c_p_y""></span></p>","25","evaluation","37","21","11C,18C,25A","45","58","25","","","","","","","","","","","","","","","","",""
"","","","","","html-keyboard-response","201","1231908","0.0-21.0-2.29","7f24b687-4d3e-4756-bf2d-223cca5dcdb8","null","<p style=""text-align: center;"">+</p>","null","fixation","","","","","","","","","","","","","","","","","","","","","","",""
"","","","","","html-slider-response","202","1232914","0.0-21.0-0.30","7f24b687-4d3e-4756-bf2d-223cca5dcdb8","1000","
                  <p style=""text-align: center;"">₪18
                                                <br>50%</p>
                  <p id=""wtp"" style=""text-align:center; margin-top: 0px; margin-bottom: 0px; font-size: 40px"";>&ensp;</p>","-","viewing","0","10","2C,16C,22B,28A","","","","","","","","","","","","","","","","","","","",""
"","","","","","html-slider-response","203","1235870","0.0-21.0-1.30","7f24b687-4d3e-4756-bf2d-223cca5dcdb8","2955","
                  <p style=""text-align: center;"">₪18
                                                <br>50%</p>
                  <p id=""wtp"" style=""text-align:center; margin-top: 0px; margin-bottom: 0px; font-size: 40px"";>מוכנים לשלם: <span id=""c_p_y""></span></p>","15","evaluation","28","10","2C,16C,22B,28A","50","18","15","","","","","","","","","","","","","","","","",""
"","","","","","html-keyboard-response","204","1236868","0.0-21.0-2.30","7f24b687-4d3e-4756-bf2d-223cca5dcdb8","null","<p style=""text-align: center;"">+</p>","null","fixation","","","","","","","","","","","","","","","","","","","","","","",""
"","","","","","html-keyboard-response","205","1237871","0.0-22.0","7f24b687-4d3e-4756-bf2d-223cca5dcdb8","null","<p style=""text-align: center;"">+</p>","null","fixation","","","","","","","","","","","","","","","","","","","","","","",""
"","","","","","html-keyboard-response","206","1244286","0.0-23.0","7f24b687-4d3e-4756-bf2d-223cca5dcdb8","null","<p>הפסקה.
          <br>לחצו כדי להמשיך.</p>","1","scan_wait","","","","","","","","","","","","","","","","","","","","","","",""
"","","","","","html-keyboard-response","207","1245293","0.0-24.0","7f24b687-4d3e-4756-bf2d-223cca5dcdb8","null","<p style=""text-align: center;"">+</p>","null","fixation","","","","","","","","","","","","","","","","","","","","","","",""
"","","","","","html-slider-response","208","1246294","0.0-25.0-0.0","7f24b687-4d3e-4756-bf2d-223cca5dcdb8","1000","
                  <p style=""text-align: center;"">₪18
                                                <br>25%</p>
                  <p id=""wtp"" style=""text-align:center; margin-top: 0px; margin-bottom: 0px; font-size: 40px"";>&ensp;</p>","-","viewing","0","9","14A,23A","","","","","","","","","","","","","","","","","","","",""
"","","","","","html-slider-response","209","1250303","0.0-25.0-1.0","7f24b687-4d3e-4756-bf2d-223cca5dcdb8","null","
                  <p style=""text-align: center;"">₪18
                                                <br>25%</p>
                  <p id=""wtp"" style=""text-align:center; margin-top: 0px; margin-bottom: 0px; font-size: 40px"";>מוכנים לשלם: <span id=""c_p_y""></span></p>","null","evaluation","29","9","14A,23A","25","18","14","","","","","","","","","","","","","","","","",""
"","","","","","html-keyboard-response","210","1251477","0.0-25.0-2.0","7f24b687-4d3e-4756-bf2d-223cca5dcdb8","null","<p style=""text-align: center;"">+</p>","null","fixation","","","","","","","","","","","","","","","","","","","","","","",""
"","","","","","html-slider-response","211","1252480","0.0-25.0-0.1","7f24b687-4d3e-4756-bf2d-223cca5dcdb8","1000","
                  <p style=""text-align: center;"">₪43
                                                <br>60%</p>
                  <p id=""wtp"" style=""text-align:center; margin-top: 0px; margin-bottom: 0px; font-size: 40px"";>&ensp;</p>","-","viewing","0","17","2A,7A,9A,15B","","","","","","","","","","","","","","","","","","","",""
"","","","","","html-slider-response","212","1256046","0.0-25.0-1.1","7f24b687-4d3e-4756-bf2d-223cca5dcdb8","3565","
                  <p style=""text-align: center;"">₪43
                                                <br>60%</p>
                  <p id=""wtp"" style=""text-align:center; margin-top: 0px; margin-bottom: 0px; font-size: 40px"";>מוכנים לשלם: <span id=""c_p_y""></span></p>","39","evaluation","15","17","2A,7A,9A,15B","60","43","39","","","","","","","","","","","","","","","","",""
"","","","","","html-keyboard-response","213","1256642","0.0-25.0-2.1","7f24b687-4d3e-4756-bf2d-223cca5dcdb8","null","<p style=""text-align: center;"">+</p>","null","fixation","","","","","","","","","","","","","","","","","","","","","","",""
"","","","","","html-slider-response","214","1257654","0.0-25.0-0.2","7f24b687-4d3e-4756-bf2d-223cca5dcdb8","1000","
                  <p style=""text-align: center;"">₪64
                                                <br>25%</p>
                  <p id=""wtp"" style=""text-align:center; margin-top: 0px; margin-bottom: 0px; font-size: 40px"";>&ensp;</p>","-","viewing","0","24","6A,21A","","","","","","","","","","","","","","","","","","","",""
"","","","","","html-slider-response","215","1260014","0.0-25.0-1.2","7f24b687-4d3e-4756-bf2d-223cca5dcdb8","2359","
                  <p style=""text-align: center;"">₪64
                                                <br>25%</p>
                  <p id=""wtp"" style=""text-align:center; margin-top: 0px; margin-bottom: 0px; font-size: 40px"";>מוכנים לשלם: <span id=""c_p_y""></span></p>","19","evaluation","60","24","6A,21A","25","64","19","","","","","","","","","","","","","","","","",""
"","","","","","html-keyboard-response","216","1260688","0.0-25.0-2.2","7f24b687-4d3e-4756-bf2d-223cca5dcdb8","null","<p style=""text-align: center;"">+</p>","null","fixation","","","","","","","","","","","","","","","","","","","","","","",""
"","","","","","html-slider-response","217","1261702","0.0-25.0-0.3","7f24b687-4d3e-4756-bf2d-223cca5dcdb8","1000","
                  <p style=""text-align: center;"">₪58
                                                <br>30%</p>
                  <p id=""wtp"" style=""text-align:center; margin-top: 0px; margin-bottom: 0px; font-size: 40px"";>&ensp;</p>","-","viewing","0","19","13C,30A","","","","","","","","","","","","","","","","","","","",""
"","","","","","html-slider-response","218","1265190","0.0-25.0-1.3","7f24b687-4d3e-4756-bf2d-223cca5dcdb8","3487","
                  <p style=""text-align: center;"">₪58
                                                <br>30%</p>
                  <p id=""wtp"" style=""text-align:center; margin-top: 0px; margin-bottom: 0px; font-size: 40px"";>מוכנים לשלם: <span id=""c_p_y""></span></p>","16","evaluation","9","19","13C,30A","30","58","17","","","","","","","","","","","","","","","","",""
"","","","","","html-keyboard-response","219","1266256","0.0-25.0-2.3","7f24b687-4d3e-4756-bf2d-223cca5dcdb8","null","<p style=""text-align: center;"">+</p>","null","fixation","","","","","","","","","","","","","","","","","","","","","","",""
"","","","","","html-slider-response","220","1267271","0.0-25.0-0.4","7f24b687-4d3e-4756-bf2d-223cca5dcdb8","1000","
                  <p style=""text-align: center;"">₪61
                                                <br>55%</p>
                  <p id=""wtp"" style=""text-align:center; margin-top: 0px; margin-bottom: 0px; font-size: 40px"";>&ensp;</p>","-","viewing","0","23","7B,26B","","","","","","","","","","","","","","","","","","","",""
"","","","","","html-slider-response","221","1269318","0.0-25.0-1.4","7f24b687-4d3e-4756-bf2d-223cca5dcdb8","2046","
                  <p style=""text-align: center;"">₪61
                                                <br>55%</p>
                  <p id=""wtp"" style=""text-align:center; margin-top: 0px; margin-bottom: 0px; font-size: 40px"";>מוכנים לשלם: <span id=""c_p_y""></span></p>","47","evaluation","18","23","7B,26B","55","61","47","","","","","","","","","","","","","","","","",""
"","","","","","html-keyboard-response","222","1270372","0.0-25.0-2.4","7f24b687-4d3e-4756-bf2d-223cca5dcdb8","null","<p style=""text-align: center;"">+</p>","null","fixation","","","","","","","","","","","","","","","","","","","","","","",""
"","","","","","html-slider-response","223","1271385","0.0-25.0-0.5","7f24b687-4d3e-4756-bf2d-223cca5dcdb8","1000","
                  <p style=""text-align: center;"">₪4
                                                <br>50%</p>
                  <p id=""wtp"" style=""text-align:center; margin-top: 0px; margin-bottom: 0px; font-size: 40px"";>&ensp;</p>","-","viewing","0","2","4C,17B","","","","","","","","","","","","","","","","","","","",""
"","","","","","html-slider-response","224","1273606","0.0-25.0-1.5","7f24b687-4d3e-4756-bf2d-223cca5dcdb8","2219","
                  <p style=""text-align: center;"">₪4
                                                <br>50%</p>
                  <p id=""wtp"" style=""text-align:center; margin-top: 0px; margin-bottom: 0px; font-size: 40px"";>מוכנים לשלם: <span id=""c_p_y""></span></p>","2","evaluation","45","2","4C,17B","50","4","2","","","","","","","","","","","","","","","","",""
"","","","","","html-keyboard-response","225","1274877","0.0-25.0-2.5","7f24b687-4d3e-4756-bf2d-223cca5dcdb8","null","<p style=""text-align: center;"">+</p>","null","fixation","","","","","","","","","","","","","","","","","","","","","","",""
"","","","","","html-slider-response","226","1275889","0.0-25.0-0.6","7f24b687-4d3e-4756-bf2d-223cca5dcdb8","1000","
                  <p style=""text-align: center;"">₪11
                                                <br>45%</p>
                  <p id=""wtp"" style=""text-align:center; margin-top: 0px; margin-bottom: 0px; font-size: 40px"";>&ensp;</p>","-","viewing","0","6","14B,21C,25C","","","","","","","","","","","","","","","","","","","",""
"","","","","","html-slider-response","227","1278758","0.0-25.0-1.6","7f24b687-4d3e-4756-bf2d-223cca5dcdb8","2867","
                  <p style=""text-align: center;"">₪11
                                                <br>45%</p>
                  <p id=""wtp"" style=""text-align:center; margin-top: 0px; margin-bottom: 0px; font-size: 40px"";>מוכנים לשלם: <span id=""c_p_y""></span></p>","9","evaluation","46","6","14B,21C,25C","45","11","9","","","","","","","","","","","","","","","","",""
"","","","","","html-keyboard-response","228","1280160","0.0-25.0-2.6","7f24b687-4d3e-4756-bf2d-223cca5dcdb8","null","<p style=""text-align: center;"">+</p>","null","fixation","","","","","","","","","","","","","","","","","","","","","","",""
"","","","","","html-slider-response","229","1281166","0.0-25.0-0.7","7f24b687-4d3e-4756-bf2d-223cca5dcdb8","1000","
                  <p style=""text-align: center;"">₪36
                                                <br>30%</p>
                  <p id=""wtp"" style=""text-align:center; margin-top: 0px; margin-bottom: 0px; font-size: 40px"";>&ensp;</p>","-","viewing","0","11","3C,20A,22A","","","","","","","","","","","","","","","","","","","",""
"","","","","","html-slider-response","230","1285178","0.0-25.0-1.7","7f24b687-4d3e-4756-bf2d-223cca5dcdb8","null","
                  <p style=""text-align: center;"">₪36
                                                <br>30%</p>
                  <p id=""wtp"" style=""text-align:center; margin-top: 0px; margin-bottom: 0px; font-size: 40px"";>מוכנים לשלם: <span id=""c_p_y""></span></p>","null","evaluation","42","11","3C,20A,22A","30","36","10","","","","","","","","","","","","","","","","",""
"","","","","","html-keyboard-response","231","1286000","0.0-25.0-2.7","7f24b687-4d3e-4756-bf2d-223cca5dcdb8","null","<p style=""text-align: center;"">+</p>","null","fixation","","","","","","","","","","","","","","","","","","","","","","",""
"","","","","","html-slider-response","232","1287003","0.0-25.0-0.8","7f24b687-4d3e-4756-bf2d-223cca5dcdb8","1000","
                  <p style=""text-align: center;"">₪18
                                                <br>50%</p>
                  <p id=""wtp"" style=""text-align:center; margin-top: 0px; margin-bottom: 0px; font-size: 40px"";>&ensp;</p>","-","viewing","0","10","2C,16C,22B,28A","","","","","","","","","","","","","","","","","","","",""
"","","","","","html-slider-response","233","1288790","0.0-25.0-1.8","7f24b687-4d3e-4756-bf2d-223cca5dcdb8","1786","
                  <p style=""text-align: center;"">₪18
                                                <br>50%</p>
                  <p id=""wtp"" style=""text-align:center; margin-top: 0px; margin-bottom: 0px; font-size: 40px"";>מוכנים לשלם: <span id=""c_p_y""></span></p>","4","evaluation","4","10","2C,16C,22B,28A","50","18","4","","","","","","","","","","","","","","","","",""
"","","","","","html-keyboard-response","234","1289429","0.0-25.0-2.8","7f24b687-4d3e-4756-bf2d-223cca5dcdb8","null","<p style=""text-align: center;"">+</p>","null","fixation","","","","","","","","","","","","","","","","","","","","","","",""
"","","","","","html-slider-response","235","1290438","0.0-25.0-0.9","7f24b687-4d3e-4756-bf2d-223cca5dcdb8","1000","
                  <p style=""text-align: center;"">₪4
                                                <br>25%</p>
                  <p id=""wtp"" style=""text-align:center; margin-top: 0px; margin-bottom: 0px; font-size: 40px"";>&ensp;</p>","-","viewing","0","1","6C,29B,30C","","","","","","","","","","","","","","","","","","","",""
"","","","","","html-slider-response","236","1292614","0.0-25.0-1.9","7f24b687-4d3e-4756-bf2d-223cca5dcdb8","2175","
                  <p style=""text-align: center;"">₪4
                                                <br>25%</p>
                  <p id=""wtp"" style=""text-align:center; margin-top: 0px; margin-bottom: 0px; font-size: 40px"";>מוכנים לשלם: <span id=""c_p_y""></span></p>","2","evaluation","25","1","6C,29B,30C","25","4","2","","","","","","","","","","","","","","","","",""
"","","","","","html-keyboard-response","237","1293281","0.0-25.0-2.9","7f24b687-4d3e-4756-bf2d-223cca5dcdb8","null","<p style=""text-align: center;"">+</p>","null","fixation","","","","","","","","","","","","","","","","","","","","","","",""
"","","","","","html-slider-response","238","1294291","0.0-25.0-0.10","7f24b687-4d3e-4756-bf2d-223cca5dcdb8","1000","
                  <p style=""text-align: center;"">₪58
                                                <br>45%</p>
                  <p id=""wtp"" style=""text-align:center; margin-top: 0px; margin-bottom: 0px; font-size: 40px"";>&ensp;</p>","-","viewing","0","21","11C,18C,25A","","","","","","","","","","","","","","","","","","","",""
"","","","","","html-slider-response","239","1298278","0.0-25.0-1.10","7f24b687-4d3e-4756-bf2d-223cca5dcdb8","3985","
                  <p style=""text-align: center;"">₪58
                                                <br>45%</p>
                  <p id=""wtp"" style=""text-align:center; margin-top: 0px; margin-bottom: 0px; font-size: 40px"";>מוכנים לשלם: <span id=""c_p_y""></span></p>","22","evaluation","19","21","11C,18C,25A","45","58","22","","","","","","","","","","","","","","","","",""
"","","","","","html-keyboard-response","240","1299732","0.0-25.0-2.10","7f24b687-4d3e-4756-bf2d-223cca5dcdb8","null","<p style=""text-align: center;"">+</p>","null","fixation","","","","","","","","","","","","","","","","","","","","","","",""
"","","","","","html-slider-response","241","1300748","0.0-25.0-0.11","7f24b687-4d3e-4756-bf2d-223cca5dcdb8","1000","
                  <p style=""text-align: center;"">₪36
                                                <br>75%</p>
                  <p id=""wtp"" style=""text-align:center; margin-top: 0px; margin-bottom: 0px; font-size: 40px"";>&ensp;</p>","-","viewing","0","14","4B,5A,13B,16B","","","","","","","","","","","","","","","","","","","",""
"","","","","","html-slider-response","242","1303358","0.0-25.0-1.11","7f24b687-4d3e-4756-bf2d-223cca5dcdb8","2609","
                  <p style=""text-align: center;"">₪36
                                                <br>75%</p>
                  <p id=""wtp"" style=""text-align:center; margin-top: 0px; margin-bottom: 0px; font-size: 40px"";>מוכנים לשלם: <span id=""c_p_y""></span></p>","80","evaluation","71","14","4B,5A,13B,16B","75","36","80","","","","","","","","","","","","","","","","",""
"","","","","","html-keyboard-response","243","1304400","0.0-25.0-2.11","7f24b687-4d3e-4756-bf2d-223cca5dcdb8","null","<p style=""text-align: center;"">+</p>","null","fixation","","","","","","","","","","","","","","","","","","","","","","",""
"","","","","","html-slider-response","244","1305414","0.0-25.0-0.12","7f24b687-4d3e-4756-bf2d-223cca5dcdb8","1000","
                  <p style=""text-align: center;"">₪39
                                                <br>65%</p>
                  <p id=""wtp"" style=""text-align:center; margin-top: 0px; margin-bottom: 0px; font-size: 40px"";>&ensp;</p>","-","viewing","0","16","1A,15A,26C","","","","","","","","","","","","","","","","","","","",""
"","","","","","html-slider-response","245","1307470","0.0-25.0-1.12","7f24b687-4d3e-4756-bf2d-223cca5dcdb8","2055","
                  <p style=""text-align: center;"">₪39
                                                <br>65%</p>
                  <p id=""wtp"" style=""text-align:center; margin-top: 0px; margin-bottom: 0px; font-size: 40px"";>מוכנים לשלם: <span id=""c_p_y""></span></p>","49","evaluation","53","16","1A,15A,26C","65","39","49","","","","","","","","","","","","","","","","",""
"","","","","","html-keyboard-response","246","1308293","0.0-25.0-2.12","7f24b687-4d3e-4756-bf2d-223cca5dcdb8","null","<p style=""text-align: center;"">+</p>","null","fixation","","","","","","","","","","","","","","","","","","","","","","",""
"","","","","","html-slider-response","247","1309294","0.0-25.0-0.13","7f24b687-4d3e-4756-bf2d-223cca5dcdb8","1000","
                  <p style=""text-align: center;"">₪58
                                                <br>40%</p>
                  <p id=""wtp"" style=""text-align:center; margin-top: 0px; margin-bottom: 0px; font-size: 40px"";>&ensp;</p>","-","viewing","0","20","10C,13A,19C,21B","","","","","","","","","","","","","","","","","","","",""
"","","","","","html-slider-response","248","1311926","0.0-25.0-1.13","7f24b687-4d3e-4756-bf2d-223cca5dcdb8","2630","
                  <p style=""text-align: center;"">₪58
                                                <br>40%</p>
                  <p id=""wtp"" style=""text-align:center; margin-top: 0px; margin-bottom: 0px; font-size: 40px"";>מוכנים לשלם: <span id=""c_p_y""></span></p>","29","evaluation","22","20","10C,13A,19C,21B","40","58","29","","","","","","","","","","","","","","","","",""
