"success","timeout","failed_images","failed_audio","failed_video","trial_type","trial_index","time_elapsed","internal_node_id","subject_id","rt","stimulus","response","part","slider_start","ID","set_ID","prob","amount","last_location","actual_choice","actual_EV","binary_id","trinary_id","catch","direction","A_key","S_key","D_key","choice_prob","choice_amount","chosen_part","won_prize","potential_prize_amount","potential_prize_prob","total_prize","accuracy"
"true","false","[]","[]","[]","preload","0","19","0.0-0.0","6192926d-37ed-49cd-9399-7ac50c7c25c0","","","","","","","","","","","","","","","","","","","","","","","","","","",""
"","","","","","html-keyboard-response","1","648200","0.0-1.0","6192926d-37ed-49cd-9399-7ac50c7c25c0","null","
          <h1>שלום וברוכים הבאים!</h1>
          <p>לפניכם ניסוי בקבלת החלטות עם שני חלקים.
          <br><br>לחצו על העכבר כדי להמשיך.</p>","0","example","","","","","","","","","","","","","","","","","","","","","","",""
"","","","","","html-keyboard-response","2","668103","0.0-2.0","6192926d-37ed-49cd-9399-7ac50c7c25c0","null","
        <h1>חלק 1</h1>
        <p>בקרוב יוצגו בפניכם הגרלות.
        <br>עליכם לבחור את המחיר המירבי שתהיו מוכנים לשלם כדי להשתתף בהגרלה שתוצג.
        <br>יש לכם תקציב של ₪80 לכל הגרלה. 
        <br>נסו להעריך כל הגרלה בנפרד ולחשוב כמה היא שווה עבורכם, ₪80 זמינים לכל הגרלה בנפרד.
        <br><br>לחצו על העכבר כדי להמשיך.</p>","1","instructions","","","","","","","","","","","","","","","","","","","","","","",""
"","","","","","html-keyboard-response","3","685423","0.0-3.0","6192926d-37ed-49cd-9399-7ac50c7c25c0","null","
        <p>בסוף הניסוי, המחשב יבחר את אחת ההגרלות ויקבע מחיר לכרטיס עבורה. 
        <br>במידה והמחיר שבחרתם נמוך מהמחיר שנבחר על ידי המחשב, לא תשתתפו בהגרלה ותשארו עם מלוא התקציב.
        <br>במידה והמחיר שבחרתם גבוה מהמחיר שנבחר על ידי המחשב, תשלמו את המחיר שנקבע ותשתתפו בהגרלה.
        <br><br>לחצו על העכבר כדי להמשיך.</p>","1","instructions","","","","","","","","","","","","","","","","","","","","","","",""
"","","","","","html-slider-response","4","706247","0.0-4.0","6192926d-37ed-49cd-9399-7ac50c7c25c0","20722","
        <p style=""font-size: 42px;"">נתחיל עם דוגמא: 
        <br>ההגרלה מטה מציעה 65% סיכוי לזכות ב-₪40 
        <br>&emsp;&emsp;&emsp;&emsp;&emsp;&emsp;&emsp;&emsp;&ensp;35% סיכוי לזכות ב-₪0.
        <br><br>מה המחיר המירבי שתהיו מוכנים לשלם על כרטיס להגרלה זו בין 0 ל-₪80?
        <br>הזיזו את העכבר על פני המלבן ולחצו כדי לבצע בחירה.</p>
        
        <p style=""text-align: center;"">₪40<br>65%</p>

        <p id=""wtp"" style=""text-align:center; margin-top: 0px; margin-bottom: 0px; font-size: 40px"";>מוכנים לשלם: <span id=""c_p_y""></span></p>","60","example","38","","","","","","","","","","","","","","","","","","","","","",""
"","","","","","html-keyboard-response","5","720374","0.0-5.0","6192926d-37ed-49cd-9399-7ac50c7c25c0","null","<p>יפה מאוד!
                <br> בחרתם שתהיו מוכנים לשלם ₪60 כדי להשתתף בהגרלה:
                <br><p style=""text-align: center;"">₪40<br>65%</p>
                <p>נשמע נכון?
                <br>נניח שהגרלה זו נבחרה בסוף הניסוי.
                <br>כעת המחשב יקבע מחיר עבורה באקראי.
                <br>לחצו על העכבר להמשך.</p>","1","example","","","","","","","","","","","","","","","","","","","","","","",""
"","","","","","html-keyboard-response","6","737855","0.0-6.0","6192926d-37ed-49cd-9399-7ac50c7c25c0","null","<p>המחשב קבע מחיר: ₪66
                <br>ואתם בחרתם לשלם לכל היותר: ₪60
                <br><br>מכיוון שהמחיר שבחרתם נמוך מהמחיר שנקבע, לא תתשתתפו בהגרלה.
                <br>במקרה כזה, בסוף הניסוי תקבלו את כל התקציב ההתחלתי של ₪80.
                <br><br>לחצו על העכבר להמשך.</p>","1","example","","","","","","","","","","","","","","","","","","","","","","",""
"","","","","","html-slider-response","7","747535","0.0-7.0","6192926d-37ed-49cd-9399-7ac50c7c25c0","9425","<p style=""font-size: 42px;"">הנה עוד דוגמא:
                <br>ההגרלה מטה מציעה 35% סיכוי לזכות ב-₪18 
                <br>&emsp;&emsp;&emsp;&emsp;&emsp;&emsp;&emsp;&emsp;&ensp;65% סיכוי לזכות ב-₪0.</p>
        
                <p style=""text-align: center;"">₪18<br>35%</p>
                <p id=""wtp"" style=""text-align:center; margin-top: 0px; margin-bottom: 0px; font-size: 40px"";>מוכנים לשלם: <span id=""c_p_y""></span></p>","5","example","27","","","","","","","","","","","","","","","","","","","","","",""
"","","","","","html-keyboard-response","8","748974","0.0-8.0","6192926d-37ed-49cd-9399-7ac50c7c25c0","null","<p>הייתם מוכנים לשלם  ₪5 כדי להשתתף בהגרלה:
                <p style=""text-align: center;"">₪18<br>35%</p>
                <p>כעת נניח שהמחשב בחר את ההגרלה הזו בסוף הניסוי, וקבע עבורה מחיר.
                <br><br>לחצו על העכבר כדי להמשיך.</p>","1","instructions","","","","","","","","","","","","","","","","","","","","","","",""
"","","","","","html-keyboard-response","9","765942","0.0-9.0","6192926d-37ed-49cd-9399-7ac50c7c25c0","null","<p>המחשב קבע מחיר להגרלה: ₪1<br>ואתם בחרתם לשלם לכל היותר: ₪5
                <br><br>כעת המחיר שנקבע נמוך מזה שבחרתם, אז תשלמו את המחיר שקבע המחשב (₪1) ותשתתפו בהגרלה.
                <br>במקרה כזה, תסיימו את הניסוי עם תקציב של ₪79 ועם סיכוי לזכות ב-₪18 נוספים מההגרלה.
                <br>כלומר, תוכלו לקבל ₪79 אם לא תזכו בהגרלה, או ₪97 אם תזכו בהגרלה.
                <br><br>לחצו על העכבר להמשך.</p>","1","example","","","","","","","","","","","","","","","","","","","","","","",""
"","","","","","html-keyboard-response","10","776542","0.0-10.0","6192926d-37ed-49cd-9399-7ac50c7c25c0","null","<p>במהלך הניסוי, קודם תראו את ההגרלה ורק לאחר מכן תוכלו לבחור.
                <p>כמו כן, יהיו לכם מספר שניות מוגבל להגיב.
                <p>בואו ננסה זאת עם ההגרלה הקודמת.
                <br>לחצו על העכבר כדי להמשיך.</p>","1","instructions","","","","","","","","","","","","","","","","","","","","","","",""
"","","","","","html-slider-response","11","777799","0.0-11.0","6192926d-37ed-49cd-9399-7ac50c7c25c0","1000","
                    <p style=""text-align: center;"">₪18<br>35%</p>
                    <p id=""wtp"" style=""text-align:center; margin-top: 0px; margin-bottom: 0px; font-size: 40px"";>&ensp;</p>","43","instructions","0","","","","","","","","","","","","","","","","","","","","","",""
"","","","","","html-slider-response","12","782071","0.0-12.0","6192926d-37ed-49cd-9399-7ac50c7c25c0","null","
                    <p style=""text-align: center;"">₪18<br>35%</p>
                    <p id=""wtp"" style=""text-align:center; margin-top: 0px; margin-bottom: 0px; font-size: 40px"";>מוכנים לשלם: <span id=""c_p_y""></span></p>","null","instructions","31","","","","","","","","","","","","","","","","","","","","","",""
"","","","","","html-keyboard-response","13","788351","0.0-13.0","6192926d-37ed-49cd-9399-7ac50c7c25c0","null","<p>לא הגבתם בזמן המוקצב לתגובה. 
                <br>נסו להגיב מהר יותר בפעם הבאה.
                <br><br>לחצו על העכבר כדי להמשיך.</p>","1","instructions","","","","","","","","","","","","","","","","","","","","","","",""
"","","","","","html-slider-response","14","791527","0.0-14.0-0.0","6192926d-37ed-49cd-9399-7ac50c7c25c0","2914","
                    <p style=""text-align: center;"">₪40<br>65%</p>
                    <p id=""wtp"" style=""text-align:center; margin-top: 0px; margin-bottom: 0px; font-size: 40px"";>מוכנים לשלם: <span id=""c_p_y""></span></p>","51","instructions","46","","","","","","","","","","","","","","","","","","","","","",""
"","","","","","html-keyboard-response","15","795863","0.0-14.0-1.0","6192926d-37ed-49cd-9399-7ac50c7c25c0","null","<p>יפה. הפעם בחרתם לשלם לכל היותר ₪51.
                <br><br>לחצו על העכבר כדי להמשיך.</p>","1","instructions","","","","","","","","","","","","","","","","","","","","","","",""
"","","","","","html-keyboard-response","16","806887","0.0-15.0","6192926d-37ed-49cd-9399-7ac50c7c25c0","null","<p>כעת נתחיל את הניסוי.
                <br><br>אתם תראו הגרלות ותתבקשו לבחור כמה תהיו מוכנים לשלם כדי להשתתף בהן.
                <br>יש לכם תקציב של ₪80 עבור כל הגרלה.
                <br>בסוף הניסוי הגרלה אחת תבחר באקראי ותשוחק.
                <br><br>לחצו על העכבר כדי להתחיל את הניסוי.</p>","1","instructions","","","","","","","","","","","","","","","","","","","","","","",""
"","","","","","html-keyboard-response","17","808159","0.0-16.0","6192926d-37ed-49cd-9399-7ac50c7c25c0","null","<p style=""text-align: center;"">+</p>","null","fixation","","","","","","","","","","","","","","","","","","","","","","",""
"","","","","","html-slider-response","18","809161","0.0-17.0-0.0","6192926d-37ed-49cd-9399-7ac50c7c25c0","1000","
                  <p style=""text-align: center;"">₪61
                                                <br>45%</p>
                  <p id=""wtp"" style=""text-align:center; margin-top: 0px; margin-bottom: 0px; font-size: 40px"";>&ensp;</p>","-","viewing","0","22","10A,11A","","","","","","","","","","","","","","","","","","","",""
"","","","","","html-slider-response","19","813166","0.0-17.0-1.0","6192926d-37ed-49cd-9399-7ac50c7c25c0","null","
                  <p style=""text-align: center;"">₪61
                                                <br>45%</p>
                  <p id=""wtp"" style=""text-align:center; margin-top: 0px; margin-bottom: 0px; font-size: 40px"";>מוכנים לשלם: <span id=""c_p_y""></span></p>","null","evaluation","12","22","10A,11A","45","61","29","","","","","","","","","","","","","","","","",""
"","","","","","html-keyboard-response","20","814428","0.0-17.0-2.0","6192926d-37ed-49cd-9399-7ac50c7c25c0","null","<p style=""text-align: center;"">+</p>","null","fixation","","","","","","","","","","","","","","","","","","","","","","",""
"","","","","","html-slider-response","21","815434","0.0-17.0-0.1","6192926d-37ed-49cd-9399-7ac50c7c25c0","1000","
                  <p style=""text-align: center;"">₪71
                                                <br>45%</p>
                  <p id=""wtp"" style=""text-align:center; margin-top: 0px; margin-bottom: 0px; font-size: 40px"";>&ensp;</p>","-","viewing","0","26","2B,16A","","","","","","","","","","","","","","","","","","","",""
"","","","","","html-slider-response","22","818479","0.0-17.0-1.1","6192926d-37ed-49cd-9399-7ac50c7c25c0","3045","
                  <p style=""text-align: center;"">₪71
                                                <br>45%</p>
                  <p id=""wtp"" style=""text-align:center; margin-top: 0px; margin-bottom: 0px; font-size: 40px"";>מוכנים לשלם: <span id=""c_p_y""></span></p>","50","evaluation","59","26","2B,16A","45","71","50","","","","","","","","","","","","","","","","",""
"","","","","","html-keyboard-response","23","819178","0.0-17.0-2.1","6192926d-37ed-49cd-9399-7ac50c7c25c0","null","<p style=""text-align: center;"">+</p>","null","fixation","","","","","","","","","","","","","","","","","","","","","","",""
"","","","","","html-slider-response","24","820186","0.0-17.0-0.2","6192926d-37ed-49cd-9399-7ac50c7c25c0","1000","
                  <p style=""text-align: center;"">₪79
                                                <br>40%</p>
                  <p id=""wtp"" style=""text-align:center; margin-top: 0px; margin-bottom: 0px; font-size: 40px"";>&ensp;</p>","-","viewing","0","30","9B","","","","","","","","","","","","","","","","","","","",""
"","","","","","html-slider-response","25","823942","0.0-17.0-1.2","6192926d-37ed-49cd-9399-7ac50c7c25c0","3754","
                  <p style=""text-align: center;"">₪79
                                                <br>40%</p>
                  <p id=""wtp"" style=""text-align:center; margin-top: 0px; margin-bottom: 0px; font-size: 40px"";>מוכנים לשלם: <span id=""c_p_y""></span></p>","40","evaluation","65","30","9B","40","79","40","","","","","","","","","","","","","","","","",""
"","","","","","html-keyboard-response","26","825258","0.0-17.0-2.2","6192926d-37ed-49cd-9399-7ac50c7c25c0","null","<p style=""text-align: center;"">+</p>","null","fixation","","","","","","","","","","","","","","","","","","","","","","",""
"","","","","","html-slider-response","27","826265","0.0-17.0-0.3","6192926d-37ed-49cd-9399-7ac50c7c25c0","1000","
                  <p style=""text-align: center;"">₪4
                                                <br>75%</p>
                  <p id=""wtp"" style=""text-align:center; margin-top: 0px; margin-bottom: 0px; font-size: 40px"";>&ensp;</p>","-","viewing","0","3","12B,20B,23B,27C,29C","","","","","","","","","","","","","","","","","","","",""
"","","","","","html-slider-response","28","828991","0.0-17.0-1.3","6192926d-37ed-49cd-9399-7ac50c7c25c0","2724","
                  <p style=""text-align: center;"">₪4
                                                <br>75%</p>
                  <p id=""wtp"" style=""text-align:center; margin-top: 0px; margin-bottom: 0px; font-size: 40px"";>מוכנים לשלם: <span id=""c_p_y""></span></p>","0","evaluation","16","3","12B,20B,23B,27C,29C","75","4","1","","","","","","","","","","","","","","","","",""
"","","","","","html-keyboard-response","29","830399","0.0-17.0-2.3","6192926d-37ed-49cd-9399-7ac50c7c25c0","null","<p style=""text-align: center;"">+</p>","null","fixation","","","","","","","","","","","","","","","","","","","","","","",""
"","","","","","html-slider-response","30","831405","0.0-17.0-0.4","6192926d-37ed-49cd-9399-7ac50c7c25c0","1000","
                  <p style=""text-align: center;"">₪4
                                                <br>25%</p>
                  <p id=""wtp"" style=""text-align:center; margin-top: 0px; margin-bottom: 0px; font-size: 40px"";>&ensp;</p>","-","viewing","0","1","6C,29B,30C","","","","","","","","","","","","","","","","","","","",""
"","","","","","html-slider-response","31","834326","0.0-17.0-1.4","6192926d-37ed-49cd-9399-7ac50c7c25c0","2921","
                  <p style=""text-align: center;"">₪4
                                                <br>25%</p>
                  <p id=""wtp"" style=""text-align:center; margin-top: 0px; margin-bottom: 0px; font-size: 40px"";>מוכנים לשלם: <span id=""c_p_y""></span></p>","0","evaluation","76","1","6C,29B,30C","25","4","0","","","","","","","","","","","","","","","","",""
"","","","","","html-keyboard-response","32","835590","0.0-17.0-2.4","6192926d-37ed-49cd-9399-7ac50c7c25c0","null","<p style=""text-align: center;"">+</p>","null","fixation","","","","","","","","","","","","","","","","","","","","","","",""
"","","","","","html-slider-response","33","836606","0.0-17.0-0.5","6192926d-37ed-49cd-9399-7ac50c7c25c0","1000","
                  <p style=""text-align: center;"">₪43
                                                <br>60%</p>
                  <p id=""wtp"" style=""text-align:center; margin-top: 0px; margin-bottom: 0px; font-size: 40px"";>&ensp;</p>","-","viewing","0","17","2A,7A,9A,15B","","","","","","","","","","","","","","","","","","","",""
"","","","","","html-slider-response","34","840611","0.0-17.0-1.5","6192926d-37ed-49cd-9399-7ac50c7c25c0","null","
                  <p style=""text-align: center;"">₪43
                                                <br>60%</p>
                  <p id=""wtp"" style=""text-align:center; margin-top: 0px; margin-bottom: 0px; font-size: 40px"";>מוכנים לשלם: <span id=""c_p_y""></span></p>","null","evaluation","47","17","2A,7A,9A,15B","60","43","50","","","","","","","","","","","","","","","","",""
"","","","","","html-keyboard-response","35","841398","0.0-17.0-2.5","6192926d-37ed-49cd-9399-7ac50c7c25c0","null","<p style=""text-align: center;"">+</p>","null","fixation","","","","","","","","","","","","","","","","","","","","","","",""
"","","","","","html-slider-response","36","842404","0.0-17.0-0.6","6192926d-37ed-49cd-9399-7ac50c7c25c0","1000","
                  <p style=""text-align: center;"">₪18
                                                <br>50%</p>
                  <p id=""wtp"" style=""text-align:center; margin-top: 0px; margin-bottom: 0px; font-size: 40px"";>&ensp;</p>","-","viewing","0","10","2C,16C,22B,28A","","","","","","","","","","","","","","","","","","","",""
"","","","","","html-slider-response","37","844766","0.0-17.0-1.6","6192926d-37ed-49cd-9399-7ac50c7c25c0","2362","
                  <p style=""text-align: center;"">₪18
                                                <br>50%</p>
                  <p id=""wtp"" style=""text-align:center; margin-top: 0px; margin-bottom: 0px; font-size: 40px"";>מוכנים לשלם: <span id=""c_p_y""></span></p>","13","evaluation","26","10","2C,16C,22B,28A","50","18","14","","","","","","","","","","","","","","","","",""
"","","","","","html-keyboard-response","38","845811","0.0-17.0-2.6","6192926d-37ed-49cd-9399-7ac50c7c25c0","null","<p style=""text-align: center;"">+</p>","null","fixation","","","","","","","","","","","","","","","","","","","","","","",""
"","","","","","html-slider-response","39","846818","0.0-17.0-0.7","6192926d-37ed-49cd-9399-7ac50c7c25c0","1000","
                  <p style=""text-align: center;"">₪79
                                                <br>65%</p>
                  <p id=""wtp"" style=""text-align:center; margin-top: 0px; margin-bottom: 0px; font-size: 40px"";>&ensp;</p>","-","viewing","0","31","8A","","","","","","","","","","","","","","","","","","","",""
"","","","","","html-slider-response","40","850006","0.0-17.0-1.7","6192926d-37ed-49cd-9399-7ac50c7c25c0","3188","
                  <p style=""text-align: center;"">₪79
                                                <br>65%</p>
                  <p id=""wtp"" style=""text-align:center; margin-top: 0px; margin-bottom: 0px; font-size: 40px"";>מוכנים לשלם: <span id=""c_p_y""></span></p>","72","evaluation","9","31","8A","65","79","72","","","","","","","","","","","","","","","","",""
"","","","","","html-keyboard-response","41","851446","0.0-17.0-2.7","6192926d-37ed-49cd-9399-7ac50c7c25c0","null","<p style=""text-align: center;"">+</p>","null","fixation","","","","","","","","","","","","","","","","","","","","","","",""
"","","","","","html-slider-response","42","852455","0.0-17.0-0.8","6192926d-37ed-49cd-9399-7ac50c7c25c0","1000","
                  <p style=""text-align: center;"">₪11
                                                <br>75%</p>
                  <p id=""wtp"" style=""text-align:center; margin-top: 0px; margin-bottom: 0px; font-size: 40px"";>&ensp;</p>","-","viewing","0","7","6B,18B,22C,24C,29A","","","","","","","","","","","","","","","","","","","",""
"","","","","","html-slider-response","43","854887","0.0-17.0-1.8","6192926d-37ed-49cd-9399-7ac50c7c25c0","2431","
                  <p style=""text-align: center;"">₪11
                                                <br>75%</p>
                  <p id=""wtp"" style=""text-align:center; margin-top: 0px; margin-bottom: 0px; font-size: 40px"";>מוכנים לשלם: <span id=""c_p_y""></span></p>","13","evaluation","37","7","6B,18B,22C,24C,29A","75","11","14","","","","","","","","","","","","","","","","",""
"","","","","","html-keyboard-response","44","856212","0.0-17.0-2.8","6192926d-37ed-49cd-9399-7ac50c7c25c0","null","<p style=""text-align: center;"">+</p>","null","fixation","","","","","","","","","","","","","","","","","","","","","","",""
"","","","","","html-slider-response","45","857226","0.0-17.0-0.9","6192926d-37ed-49cd-9399-7ac50c7c25c0","1000","
                  <p style=""text-align: center;"">₪58
                                                <br>30%</p>
                  <p id=""wtp"" style=""text-align:center; margin-top: 0px; margin-bottom: 0px; font-size: 40px"";>&ensp;</p>","-","viewing","0","19","13C,30A","","","","","","","","","","","","","","","","","","","",""
"","","","","","html-slider-response","46","859694","0.0-17.0-1.9","6192926d-37ed-49cd-9399-7ac50c7c25c0","2468","
                  <p style=""text-align: center;"">₪58
                                                <br>30%</p>
                  <p id=""wtp"" style=""text-align:center; margin-top: 0px; margin-bottom: 0px; font-size: 40px"";>מוכנים לשלם: <span id=""c_p_y""></span></p>","22","evaluation","70","19","13C,30A","30","58","22","","","","","","","","","","","","","","","","",""
"","","","","","html-keyboard-response","47","860603","0.0-17.0-2.9","6192926d-37ed-49cd-9399-7ac50c7c25c0","null","<p style=""text-align: center;"">+</p>","null","fixation","","","","","","","","","","","","","","","","","","","","","","",""
"","","","","","html-slider-response","48","861606","0.0-17.0-0.10","6192926d-37ed-49cd-9399-7ac50c7c25c0","1000","
                  <p style=""text-align: center;"">₪58
                                                <br>40%</p>
                  <p id=""wtp"" style=""text-align:center; margin-top: 0px; margin-bottom: 0px; font-size: 40px"";>&ensp;</p>","-","viewing","0","20","10C,13A,19C,21B","","","","","","","","","","","","","","","","","","","",""
"","","","","","html-slider-response","49","864942","0.0-17.0-1.10","6192926d-37ed-49cd-9399-7ac50c7c25c0","3336","
                  <p style=""text-align: center;"">₪58
                                                <br>40%</p>
                  <p id=""wtp"" style=""text-align:center; margin-top: 0px; margin-bottom: 0px; font-size: 40px"";>מוכנים לשלם: <span id=""c_p_y""></span></p>","34","evaluation","13","20","10C,13A,19C,21B","40","58","34","","","","","","","","","","","","","","","","",""
"","","","","","html-keyboard-response","50","866439","0.0-17.0-2.10","6192926d-37ed-49cd-9399-7ac50c7c25c0","null","<p style=""text-align: center;"">+</p>","null","fixation","","","","","","","","","","","","","","","","","","","","","","",""
"","","","","","html-slider-response","51","867442","0.0-17.0-0.11","6192926d-37ed-49cd-9399-7ac50c7c25c0","1000","
                  <p style=""text-align: center;"">₪4
                                                <br>50%</p>
                  <p id=""wtp"" style=""text-align:center; margin-top: 0px; margin-bottom: 0px; font-size: 40px"";>&ensp;</p>","-","viewing","0","2","4C,17B","","","","","","","","","","","","","","","","","","","",""
"","","","","","html-slider-response","52","869647","0.0-17.0-1.11","6192926d-37ed-49cd-9399-7ac50c7c25c0","2203","
                  <p style=""text-align: center;"">₪4
                                                <br>50%</p>
                  <p id=""wtp"" style=""text-align:center; margin-top: 0px; margin-bottom: 0px; font-size: 40px"";>מוכנים לשלם: <span id=""c_p_y""></span></p>","1","evaluation","47","2","4C,17B","50","4","1","","","","","","","","","","","","","","","","",""
"","","","","","html-keyboard-response","53","870357","0.0-17.0-2.11","6192926d-37ed-49cd-9399-7ac50c7c25c0","null","<p style=""text-align: center;"">+</p>","null","fixation","","","","","","","","","","","","","","","","","","","","","","",""
"","","","","","html-slider-response","54","871371","0.0-17.0-0.12","6192926d-37ed-49cd-9399-7ac50c7c25c0","1000","
                  <p style=""text-align: center;"">₪43
                                                <br>75%</p>
                  <p id=""wtp"" style=""text-align:center; margin-top: 0px; margin-bottom: 0px; font-size: 40px"";>&ensp;</p>","-","viewing","0","18","11B,19B,24A,26A","","","","","","","","","","","","","","","","","","","",""
"","","","","","html-slider-response","55","874535","0.0-17.0-1.12","6192926d-37ed-49cd-9399-7ac50c7c25c0","3163","
                  <p style=""text-align: center;"">₪43
                                                <br>75%</p>
                  <p id=""wtp"" style=""text-align:center; margin-top: 0px; margin-bottom: 0px; font-size: 40px"";>מוכנים לשלם: <span id=""c_p_y""></span></p>","69","evaluation","0","18","11B,19B,24A,26A","75","43","69","","","","","","","","","","","","","","","","",""
"","","","","","html-keyboard-response","56","875961","0.0-17.0-2.12","6192926d-37ed-49cd-9399-7ac50c7c25c0","null","<p style=""text-align: center;"">+</p>","null","fixation","","","","","","","","","","","","","","","","","","","","","","",""
"","","","","","html-slider-response","57","876965","0.0-17.0-0.13","6192926d-37ed-49cd-9399-7ac50c7c25c0","1000","
                  <p style=""text-align: center;"">₪71
                                                <br>55%</p>
                  <p id=""wtp"" style=""text-align:center; margin-top: 0px; margin-bottom: 0px; font-size: 40px"";>&ensp;</p>","-","viewing","0","27","5B,18A","","","","","","","","","","","","","","","","","","","",""
"","","","","","html-slider-response","58","880495","0.0-17.0-1.13","6192926d-37ed-49cd-9399-7ac50c7c25c0","3529","
                  <p style=""text-align: center;"">₪71
                                                <br>55%</p>
                  <p id=""wtp"" style=""text-align:center; margin-top: 0px; margin-bottom: 0px; font-size: 40px"";>מוכנים לשלם: <span id=""c_p_y""></span></p>","66","evaluation","13","27","5B,18A","55","71","66","","","","","","","","","","","","","","","","",""
"","","","","","html-keyboard-response","59","881068","0.0-17.0-2.13","6192926d-37ed-49cd-9399-7ac50c7c25c0","null","<p style=""text-align: center;"">+</p>","null","fixation","","","","","","","","","","","","","","","","","","","","","","",""
"","","","","","html-slider-response","60","882072","0.0-17.0-0.14","6192926d-37ed-49cd-9399-7ac50c7c25c0","1000","
                  <p style=""text-align: center;"">₪64
                                                <br>50%</p>
                  <p id=""wtp"" style=""text-align:center; margin-top: 0px; margin-bottom: 0px; font-size: 40px"";>&ensp;</p>","-","viewing","0","25","1B,3B,4A","","","","","","","","","","","","","","","","","","","",""
"","","","","","html-slider-response","61","886074","0.0-17.0-1.14","6192926d-37ed-49cd-9399-7ac50c7c25c0","null","
                  <p style=""text-align: center;"">₪64
                                                <br>50%</p>
                  <p id=""wtp"" style=""text-align:center; margin-top: 0px; margin-bottom: 0px; font-size: 40px"";>מוכנים לשלם: <span id=""c_p_y""></span></p>","null","evaluation","66","25","1B,3B,4A","50","64","57","","","","","","","","","","","","","","","","",""
"","","","","","html-keyboard-response","62","887282","0.0-17.0-2.14","6192926d-37ed-49cd-9399-7ac50c7c25c0","null","<p style=""text-align: center;"">+</p>","null","fixation","","","","","","","","","","","","","","","","","","","","","","",""
"","","","","","html-slider-response","63","888289","0.0-17.0-0.15","6192926d-37ed-49cd-9399-7ac50c7c25c0","1000","
                  <p style=""text-align: center;"">₪39
                                                <br>60%</p>
                  <p id=""wtp"" style=""text-align:center; margin-top: 0px; margin-bottom: 0px; font-size: 40px"";>&ensp;</p>","-","viewing","0","15","9C,25B","","","","","","","","","","","","","","","","","","","",""
"","","","","","html-slider-response","64","890022","0.0-17.0-1.15","6192926d-37ed-49cd-9399-7ac50c7c25c0","1732","
                  <p style=""text-align: center;"">₪39
                                                <br>60%</p>
                  <p id=""wtp"" style=""text-align:center; margin-top: 0px; margin-bottom: 0px; font-size: 40px"";>מוכנים לשלם: <span id=""c_p_y""></span></p>","34","evaluation","61","15","9C,25B","60","39","34","","","","","","","","","","","","","","","","",""
"","","","","","html-keyboard-response","65","891145","0.0-17.0-2.15","6192926d-37ed-49cd-9399-7ac50c7c25c0","null","<p style=""text-align: center;"">+</p>","null","fixation","","","","","","","","","","","","","","","","","","","","","","",""
"","","","","","html-slider-response","66","892163","0.0-17.0-0.16","6192926d-37ed-49cd-9399-7ac50c7c25c0","1000","
                  <p style=""text-align: center;"">₪16
                                                <br>20%</p>
                  <p id=""wtp"" style=""text-align:center; margin-top: 0px; margin-bottom: 0px; font-size: 40px"";>&ensp;</p>","-","viewing","0","8","14C,17A,20C,27A","","","","","","","","","","","","","","","","","","","",""
"","","","","","html-slider-response","67","894470","0.0-17.0-1.16","6192926d-37ed-49cd-9399-7ac50c7c25c0","2307","
                  <p style=""text-align: center;"">₪16
                                                <br>20%</p>
                  <p id=""wtp"" style=""text-align:center; margin-top: 0px; margin-bottom: 0px; font-size: 40px"";>מוכנים לשלם: <span id=""c_p_y""></span></p>","2","evaluation","58","8","14C,17A,20C,27A","20","16","2","","","","","","","","","","","","","","","","",""
"","","","","","html-keyboard-response","68","895721","0.0-17.0-2.16","6192926d-37ed-49cd-9399-7ac50c7c25c0","null","<p style=""text-align: center;"">+</p>","null","fixation","","","","","","","","","","","","","","","","","","","","","","",""
"","","","","","html-slider-response","69","896732","0.0-17.0-0.17","6192926d-37ed-49cd-9399-7ac50c7c25c0","1000","
                  <p style=""text-align: center;"">₪64
                                                <br>25%</p>
                  <p id=""wtp"" style=""text-align:center; margin-top: 0px; margin-bottom: 0px; font-size: 40px"";>&ensp;</p>","-","viewing","0","24","6A,21A","","","","","","","","","","","","","","","","","","","",""
"","","","","","html-slider-response","70","898894","0.0-17.0-1.17","6192926d-37ed-49cd-9399-7ac50c7c25c0","2162","
                  <p style=""text-align: center;"">₪64
                                                <br>25%</p>
                  <p id=""wtp"" style=""text-align:center; margin-top: 0px; margin-bottom: 0px; font-size: 40px"";>מוכנים לשלם: <span id=""c_p_y""></span></p>","17","evaluation","2","24","6A,21A","25","64","17","","","","","","","","","","","","","","","","",""
"","","","","","html-keyboard-response","71","899803","0.0-17.0-2.17","6192926d-37ed-49cd-9399-7ac50c7c25c0","null","<p style=""text-align: center;"">+</p>","null","fixation","","","","","","","","","","","","","","","","","","","","","","",""
"","","","","","html-slider-response","72","900818","0.0-17.0-0.18","6192926d-37ed-49cd-9399-7ac50c7c25c0","1000","
                  <p style=""text-align: center;"">₪36
                                                <br>60%</p>
                  <p id=""wtp"" style=""text-align:center; margin-top: 0px; margin-bottom: 0px; font-size: 40px"";>&ensp;</p>","-","viewing","0","12","1C,7C,15C","","","","","","","","","","","","","","","","","","","",""
"","","","","","html-slider-response","73","902918","0.0-17.0-1.18","6192926d-37ed-49cd-9399-7ac50c7c25c0","2099","
                  <p style=""text-align: center;"">₪36
                                                <br>60%</p>
                  <p id=""wtp"" style=""text-align:center; margin-top: 0px; margin-bottom: 0px; font-size: 40px"";>מוכנים לשלם: <span id=""c_p_y""></span></p>","38","evaluation","66","12","1C,7C,15C","60","36","38","","","","","","","","","","","","","","","","",""
"","","","","","html-keyboard-response","74","904254","0.0-17.0-2.18","6192926d-37ed-49cd-9399-7ac50c7c25c0","null","<p style=""text-align: center;"">+</p>","null","fixation","","","","","","","","","","","","","","","","","","","","","","",""
"","","","","","html-slider-response","75","905262","0.0-17.0-0.19","6192926d-37ed-49cd-9399-7ac50c7c25c0","1000","
                  <p style=""text-align: center;"">₪58
                                                <br>45%</p>
                  <p id=""wtp"" style=""text-align:center; margin-top: 0px; margin-bottom: 0px; font-size: 40px"";>&ensp;</p>","-","viewing","0","21","11C,18C,25A","","","","","","","","","","","","","","","","","","","",""
"","","","","","html-slider-response","76","906486","0.0-17.0-1.19","6192926d-37ed-49cd-9399-7ac50c7c25c0","1224","
                  <p style=""text-align: center;"">₪58
                                                <br>45%</p>
                  <p id=""wtp"" style=""text-align:center; margin-top: 0px; margin-bottom: 0px; font-size: 40px"";>מוכנים לשלם: <span id=""c_p_y""></span></p>","27","evaluation","66","21","11C,18C,25A","45","58","27","","","","","","","","","","","","","","","","",""
"","","","","","html-keyboard-response","77","907347","0.0-17.0-2.19","6192926d-37ed-49cd-9399-7ac50c7c25c0","null","<p style=""text-align: center;"">+</p>","null","fixation","","","","","","","","","","","","","","","","","","","","","","",""
"","","","","","html-slider-response","78","908357","0.0-17.0-0.20","6192926d-37ed-49cd-9399-7ac50c7c25c0","1000","
                  <p style=""text-align: center;"">₪11
                                                <br>45%</p>
                  <p id=""wtp"" style=""text-align:center; margin-top: 0px; margin-bottom: 0px; font-size: 40px"";>&ensp;</p>","-","viewing","0","6","14B,21C,25C","","","","","","","","","","","","","","","","","","","",""
"","","","","","html-slider-response","79","912365","0.0-17.0-1.20","6192926d-37ed-49cd-9399-7ac50c7c25c0","null","
                  <p style=""text-align: center;"">₪11
                                                <br>45%</p>
                  <p id=""wtp"" style=""text-align:center; margin-top: 0px; margin-bottom: 0px; font-size: 40px"";>מוכנים לשלם: <span id=""c_p_y""></span></p>","null","evaluation","62","6","14B,21C,25C","45","11","6","","","","","","","","","","","","","","","","",""
"","","","","","html-keyboard-response","80","913174","0.0-17.0-2.20","6192926d-37ed-49cd-9399-7ac50c7c25c0","null","<p style=""text-align: center;"">+</p>","null","fixation","","","","","","","","","","","","","","","","","","","","","","",""
"","","","","","html-slider-response","81","914189","0.0-17.0-0.21","6192926d-37ed-49cd-9399-7ac50c7c25c0","1000","
                  <p style=""text-align: center;"">₪39
                                                <br>65%</p>
                  <p id=""wtp"" style=""text-align:center; margin-top: 0px; margin-bottom: 0px; font-size: 40px"";>&ensp;</p>","-","viewing","0","16","1A,15A,26C","","","","","","","","","","","","","","","","","","","",""
"","","","","","html-slider-response","82","917414","0.0-17.0-1.21","6192926d-37ed-49cd-9399-7ac50c7c25c0","3224","
                  <p style=""text-align: center;"">₪39
                                                <br>65%</p>
                  <p id=""wtp"" style=""text-align:center; margin-top: 0px; margin-bottom: 0px; font-size: 40px"";>מוכנים לשלם: <span id=""c_p_y""></span></p>","47","evaluation","17","16","1A,15A,26C","65","39","47","","","","","","","","","","","","","","","","",""
"","","","","","html-keyboard-response","83","918480","0.0-17.0-2.21","6192926d-37ed-49cd-9399-7ac50c7c25c0","null","<p style=""text-align: center;"">+</p>","null","fixation","","","","","","","","","","","","","","","","","","","","","","",""
"","","","","","html-slider-response","84","919483","0.0-17.0-0.22","6192926d-37ed-49cd-9399-7ac50c7c25c0","1000","
                  <p style=""text-align: center;"">₪76
                                                <br>65%</p>
                  <p id=""wtp"" style=""text-align:center; margin-top: 0px; margin-bottom: 0px; font-size: 40px"";>&ensp;</p>","-","viewing","0","29","8C,19A,24B","","","","","","","","","","","","","","","","","","","",""
"","","","","","html-slider-response","85","922414","0.0-17.0-1.22","6192926d-37ed-49cd-9399-7ac50c7c25c0","2930","
                  <p style=""text-align: center;"">₪76
                                                <br>65%</p>
                  <p id=""wtp"" style=""text-align:center; margin-top: 0px; margin-bottom: 0px; font-size: 40px"";>מוכנים לשלם: <span id=""c_p_y""></span></p>","69","evaluation","29","29","8C,19A,24B","65","76","69","","","","","","","","","","","","","","","","",""
"","","","","","html-keyboard-response","86","923639","0.0-17.0-2.22","6192926d-37ed-49cd-9399-7ac50c7c25c0","null","<p style=""text-align: center;"">+</p>","null","fixation","","","","","","","","","","","","","","","","","","","","","","",""
"","","","","","html-slider-response","87","924641","0.0-17.0-0.23","6192926d-37ed-49cd-9399-7ac50c7c25c0","1000","
                  <p style=""text-align: center;"">₪11
                                                <br>20%</p>
                  <p id=""wtp"" style=""text-align:center; margin-top: 0px; margin-bottom: 0px; font-size: 40px"";>&ensp;</p>","-","viewing","0","4","12C,17C,23C,28C","","","","","","","","","","","","","","","","","","","",""
"","","","","","html-slider-response","88","928534","0.0-17.0-1.23","6192926d-37ed-49cd-9399-7ac50c7c25c0","3893","
                  <p style=""text-align: center;"">₪11
                                                <br>20%</p>
                  <p id=""wtp"" style=""text-align:center; margin-top: 0px; margin-bottom: 0px; font-size: 40px"";>מוכנים לשלם: <span id=""c_p_y""></span></p>","1","evaluation","65","4","12C,17C,23C,28C","20","11","2","","","","","","","","","","","","","","","","",""
"","","","","","html-keyboard-response","89","929347","0.0-17.0-2.23","6192926d-37ed-49cd-9399-7ac50c7c25c0","null","<p style=""text-align: center;"">+</p>","null","fixation","","","","","","","","","","","","","","","","","","","","","","",""
"","","","","","html-slider-response","90","930358","0.0-17.0-0.24","6192926d-37ed-49cd-9399-7ac50c7c25c0","1000","
                  <p style=""text-align: center;"">₪36
                                                <br>30%</p>
                  <p id=""wtp"" style=""text-align:center; margin-top: 0px; margin-bottom: 0px; font-size: 40px"";>&ensp;</p>","-","viewing","0","11","3C,20A,22A","","","","","","","","","","","","","","","","","","","",""
"","","","","","html-slider-response","91","932710","0.0-17.0-1.24","6192926d-37ed-49cd-9399-7ac50c7c25c0","2352","
                  <p style=""text-align: center;"">₪36
                                                <br>30%</p>
                  <p id=""wtp"" style=""text-align:center; margin-top: 0px; margin-bottom: 0px; font-size: 40px"";>מוכנים לשלם: <span id=""c_p_y""></span></p>","6","evaluation","15","11","3C,20A,22A","30","36","7","","","","","","","","","","","","","","","","",""
"","","","","","html-keyboard-response","92","933269","0.0-17.0-2.24","6192926d-37ed-49cd-9399-7ac50c7c25c0","null","<p style=""text-align: center;"">+</p>","null","fixation","","","","","","","","","","","","","","","","","","","","","","",""
"","","","","","html-slider-response","93","934271","0.0-17.0-0.25","6192926d-37ed-49cd-9399-7ac50c7c25c0","1000","
                  <p style=""text-align: center;"">₪18
                                                <br>25%</p>
                  <p id=""wtp"" style=""text-align:center; margin-top: 0px; margin-bottom: 0px; font-size: 40px"";>&ensp;</p>","-","viewing","0","9","14A,23A","","","","","","","","","","","","","","","","","","","",""
"","","","","","html-slider-response","94","935678","0.0-17.0-1.25","6192926d-37ed-49cd-9399-7ac50c7c25c0","1406","
                  <p style=""text-align: center;"">₪18
                                                <br>25%</p>
                  <p id=""wtp"" style=""text-align:center; margin-top: 0px; margin-bottom: 0px; font-size: 40px"";>מוכנים לשלם: <span id=""c_p_y""></span></p>","2","evaluation","58","9","14A,23A","25","18","3","","","","","","","","","","","","","","","","",""
"","","","","","html-keyboard-response","95","936447","0.0-17.0-2.25","6192926d-37ed-49cd-9399-7ac50c7c25c0","null","<p style=""text-align: center;"">+</p>","null","fixation","","","","","","","","","","","","","","","","","","","","","","",""
"","","","","","html-slider-response","96","937453","0.0-17.0-0.26","6192926d-37ed-49cd-9399-7ac50c7c25c0","1000","
                  <p style=""text-align: center;"">₪61
                                                <br>55%</p>
                  <p id=""wtp"" style=""text-align:center; margin-top: 0px; margin-bottom: 0px; font-size: 40px"";>&ensp;</p>","-","viewing","0","23","7B,26B","","","","","","","","","","","","","","","","","","","",""
"","","","","","html-slider-response","97","940022","0.0-17.0-1.26","6192926d-37ed-49cd-9399-7ac50c7c25c0","2568","
                  <p style=""text-align: center;"">₪61
                                                <br>55%</p>
                  <p id=""wtp"" style=""text-align:center; margin-top: 0px; margin-bottom: 0px; font-size: 40px"";>מוכנים לשלם: <span id=""c_p_y""></span></p>","46","evaluation","27","23","7B,26B","55","61","46","","","","","","","","","","","","","","","","",""
"","","","","","html-keyboard-response","98","940883","0.0-17.0-2.26","6192926d-37ed-49cd-9399-7ac50c7c25c0","null","<p style=""text-align: center;"">+</p>","null","fixation","","","","","","","","","","","","","","","","","","","","","","",""
"","","","","","html-slider-response","99","941895","0.0-17.0-0.27","6192926d-37ed-49cd-9399-7ac50c7c25c0","1000","
                  <p style=""text-align: center;"">₪36
                                                <br>75%</p>
                  <p id=""wtp"" style=""text-align:center; margin-top: 0px; margin-bottom: 0px; font-size: 40px"";>&ensp;</p>","-","viewing","0","14","4B,5A,13B,16B","","","","","","","","","","","","","","","","","","","",""
"","","","","","html-slider-response","100","944086","0.0-17.0-1.27","6192926d-37ed-49cd-9399-7ac50c7c25c0","2190","
                  <p style=""text-align: center;"">₪36
                                                <br>75%</p>
                  <p id=""wtp"" style=""text-align:center; margin-top: 0px; margin-bottom: 0px; font-size: 40px"";>מוכנים לשלם: <span id=""c_p_y""></span></p>","34","evaluation","38","14","4B,5A,13B,16B","75","36","34","","","","","","","","","","","","","","","","",""
"","","","","","html-keyboard-response","101","945525","0.0-17.0-2.27","6192926d-37ed-49cd-9399-7ac50c7c25c0","null","<p style=""text-align: center;"">+</p>","null","fixation","","","","","","","","","","","","","","","","","","","","","","",""
"","","","","","html-slider-response","102","946530","0.0-17.0-0.28","6192926d-37ed-49cd-9399-7ac50c7c25c0","1000","
                  <p style=""text-align: center;"">₪11
                                                <br>25%</p>
                  <p id=""wtp"" style=""text-align:center; margin-top: 0px; margin-bottom: 0px; font-size: 40px"";>&ensp;</p>","-","viewing","0","5","12A,27B,28B,30B","","","","","","","","","","","","","","","","","","","",""
"","","","","","html-slider-response","103","948079","0.0-17.0-1.28","6192926d-37ed-49cd-9399-7ac50c7c25c0","1547","
                  <p style=""text-align: center;"">₪11
                                                <br>25%</p>
                  <p id=""wtp"" style=""text-align:center; margin-top: 0px; margin-bottom: 0px; font-size: 40px"";>מוכנים לשלם: <span id=""c_p_y""></span></p>","0","evaluation","27","5","12A,27B,28B,30B","25","11","1","","","","","","","","","","","","","","","","",""
"","","","","","html-keyboard-response","104","949037","0.0-17.0-2.28","6192926d-37ed-49cd-9399-7ac50c7c25c0","null","<p style=""text-align: center;"">+</p>","null","fixation","","","","","","","","","","","","","","","","","","","","","","",""
"","","","","","html-slider-response","105","950045","0.0-17.0-0.29","6192926d-37ed-49cd-9399-7ac50c7c25c0","1000","
                  <p style=""text-align: center;"">₪36
                                                <br>70%</p>
                  <p id=""wtp"" style=""text-align:center; margin-top: 0px; margin-bottom: 0px; font-size: 40px"";>&ensp;</p>","-","viewing","0","13","3A,5C,10B","","","","","","","","","","","","","","","","","","","",""
"","","","","","html-slider-response","106","952807","0.0-17.0-1.29","6192926d-37ed-49cd-9399-7ac50c7c25c0","2760","
                  <p style=""text-align: center;"">₪36
                                                <br>70%</p>
                  <p id=""wtp"" style=""text-align:center; margin-top: 0px; margin-bottom: 0px; font-size: 40px"";>מוכנים לשלם: <span id=""c_p_y""></span></p>","37","evaluation","61","13","3A,5C,10B","70","36","37","","","","","","","","","","","","","","","","",""
"","","","","","html-keyboard-response","107","953508","0.0-17.0-2.29","6192926d-37ed-49cd-9399-7ac50c7c25c0","null","<p style=""text-align: center;"">+</p>","null","fixation","","","","","","","","","","","","","","","","","","","","","","",""
"","","","","","html-slider-response","108","954522","0.0-17.0-0.30","6192926d-37ed-49cd-9399-7ac50c7c25c0","1000","
                  <p style=""text-align: center;"">₪71
                                                <br>75%</p>
                  <p id=""wtp"" style=""text-align:center; margin-top: 0px; margin-bottom: 0px; font-size: 40px"";>&ensp;</p>","-","viewing","0","28","8B","","","","","","","","","","","","","","","","","","","",""
"","","","","","html-slider-response","109","956110","0.0-17.0-1.30","6192926d-37ed-49cd-9399-7ac50c7c25c0","1587","
                  <p style=""text-align: center;"">₪71
                                                <br>75%</p>
                  <p id=""wtp"" style=""text-align:center; margin-top: 0px; margin-bottom: 0px; font-size: 40px"";>מוכנים לשלם: <span id=""c_p_y""></span></p>","80","evaluation","42","28","8B","75","71","80","","","","","","","","","","","","","","","","",""
"","","","","","html-keyboard-response","110","956708","0.0-17.0-2.30","6192926d-37ed-49cd-9399-7ac50c7c25c0","null","<p style=""text-align: center;"">+</p>","null","fixation","","","","","","","","","","","","","","","","","","","","","","",""
"","","","","","html-keyboard-response","111","957711","0.0-18.0","6192926d-37ed-49cd-9399-7ac50c7c25c0","null","<p style=""text-align: center;"">+</p>","null","fixation","","","","","","","","","","","","","","","","","","","","","","",""
"","","","","","html-keyboard-response","112","959902","0.0-19.0","6192926d-37ed-49cd-9399-7ac50c7c25c0","null","<p>הפסקה.
          <br>לחצו כדי להמשיך.</p>","1","scan_wait","","","","","","","","","","","","","","","","","","","","","","",""
"","","","","","html-keyboard-response","113","960904","0.0-20.0","6192926d-37ed-49cd-9399-7ac50c7c25c0","null","<p style=""text-align: center;"">+</p>","null","fixation","","","","","","","","","","","","","","","","","","","","","","",""
"","","","","","html-slider-response","114","961913","0.0-21.0-0.0","6192926d-37ed-49cd-9399-7ac50c7c25c0","1000","
                  <p style=""text-align: center;"">₪36
                                                <br>70%</p>
                  <p id=""wtp"" style=""text-align:center; margin-top: 0px; margin-bottom: 0px; font-size: 40px"";>&ensp;</p>","-","viewing","0","13","3A,5C,10B","","","","","","","","","","","","","","","","","","","",""
"","","","","","html-slider-response","115","963847","0.0-21.0-1.0","6192926d-37ed-49cd-9399-7ac50c7c25c0","1933","
                  <p style=""text-align: center;"">₪36
                                                <br>70%</p>
                  <p id=""wtp"" style=""text-align:center; margin-top: 0px; margin-bottom: 0px; font-size: 40px"";>מוכנים לשלם: <span id=""c_p_y""></span></p>","38","evaluation","17","13","3A,5C,10B","70","36","38","","","","","","","","","","","","","","","","",""
"","","","","","html-keyboard-response","116","964402","0.0-21.0-2.0","6192926d-37ed-49cd-9399-7ac50c7c25c0","null","<p style=""text-align: center;"">+</p>","null","fixation","","","","","","","","","","","","","","","","","","","","","","",""
"","","","","","html-slider-response","117","965416","0.0-21.0-0.1","6192926d-37ed-49cd-9399-7ac50c7c25c0","1000","
                  <p style=""text-align: center;"">₪58
                                                <br>40%</p>
                  <p id=""wtp"" style=""text-align:center; margin-top: 0px; margin-bottom: 0px; font-size: 40px"";>&ensp;</p>","-","viewing","0","20","10C,13A,19C,21B","","","","","","","","","","","","","","","","","","","",""
"","","","","","html-slider-response","118","967166","0.0-21.0-1.1","6192926d-37ed-49cd-9399-7ac50c7c25c0","1749","
                  <p style=""text-align: center;"">₪58
                                                <br>40%</p>
                  <p id=""wtp"" style=""text-align:center; margin-top: 0px; margin-bottom: 0px; font-size: 40px"";>מוכנים לשלם: <span id=""c_p_y""></span></p>","21","evaluation","27","20","10C,13A,19C,21B","40","58","21","","","","","","","","","","","","","","","","",""
"","","","","","html-keyboard-response","119","968495","0.0-21.0-2.1","6192926d-37ed-49cd-9399-7ac50c7c25c0","null","<p style=""text-align: center;"">+</p>","null","fixation","","","","","","","","","","","","","","","","","","","","","","",""
"","","","","","html-slider-response","120","969508","0.0-21.0-0.2","6192926d-37ed-49cd-9399-7ac50c7c25c0","1000","
                  <p style=""text-align: center;"">₪64
                                                <br>25%</p>
                  <p id=""wtp"" style=""text-align:center; margin-top: 0px; margin-bottom: 0px; font-size: 40px"";>&ensp;</p>","-","viewing","0","24","6A,21A","","","","","","","","","","","","","","","","","","","",""
"","","","","","html-slider-response","121","973175","0.0-21.0-1.2","6192926d-37ed-49cd-9399-7ac50c7c25c0","3665","
                  <p style=""text-align: center;"">₪64
                                                <br>25%</p>
                  <p id=""wtp"" style=""text-align:center; margin-top: 0px; margin-bottom: 0px; font-size: 40px"";>מוכנים לשלם: <span id=""c_p_y""></span></p>","28","evaluation","42","24","6A,21A","25","64","28","","","","","","","","","","","","","","","","",""
"","","","","","html-keyboard-response","122","974471","0.0-21.0-2.2","6192926d-37ed-49cd-9399-7ac50c7c25c0","null","<p style=""text-align: center;"">+</p>","null","fixation","","","","","","","","","","","","","","","","","","","","","","",""
"","","","","","html-slider-response","123","975480","0.0-21.0-0.3","6192926d-37ed-49cd-9399-7ac50c7c25c0","1000","
                  <p style=""text-align: center;"">₪39
                                                <br>65%</p>
                  <p id=""wtp"" style=""text-align:center; margin-top: 0px; margin-bottom: 0px; font-size: 40px"";>&ensp;</p>","-","viewing","0","16","1A,15A,26C","","","","","","","","","","","","","","","","","","","",""
"","","","","","html-slider-response","124","978975","0.0-21.0-1.3","6192926d-37ed-49cd-9399-7ac50c7c25c0","3494","
                  <p style=""text-align: center;"">₪39
                                                <br>65%</p>
                  <p id=""wtp"" style=""text-align:center; margin-top: 0px; margin-bottom: 0px; font-size: 40px"";>מוכנים לשלם: <span id=""c_p_y""></span></p>","53","evaluation","66","16","1A,15A,26C","65","39","53","","","","","","","","","","","","","","","","",""
"","","","","","html-keyboard-response","125","979876","0.0-21.0-2.3","6192926d-37ed-49cd-9399-7ac50c7c25c0","null","<p style=""text-align: center;"">+</p>","null","fixation","","","","","","","","","","","","","","","","","","","","","","",""
"","","","","","html-slider-response","126","980886","0.0-21.0-0.4","6192926d-37ed-49cd-9399-7ac50c7c25c0","1000","
                  <p style=""text-align: center;"">₪36
                                                <br>30%</p>
                  <p id=""wtp"" style=""text-align:center; margin-top: 0px; margin-bottom: 0px; font-size: 40px"";>&ensp;</p>","-","viewing","0","11","3C,20A,22A","","","","","","","","","","","","","","","","","","","",""
"","","","","","html-slider-response","127","984591","0.0-21.0-1.4","6192926d-37ed-49cd-9399-7ac50c7c25c0","3704","
                  <p style=""text-align: center;"">₪36
                                                <br>30%</p>
                  <p id=""wtp"" style=""text-align:center; margin-top: 0px; margin-bottom: 0px; font-size: 40px"";>מוכנים לשלם: <span id=""c_p_y""></span></p>","22","evaluation","47","11","3C,20A,22A","30","36","22","","","","","","","","","","","","","","","","",""
"","","","","","html-keyboard-response","128","985779","0.0-21.0-2.4","6192926d-37ed-49cd-9399-7ac50c7c25c0","null","<p style=""text-align: center;"">+</p>","null","fixation","","","","","","","","","","","","","","","","","","","","","","",""
"","","","","","html-slider-response","129","986786","0.0-21.0-0.5","6192926d-37ed-49cd-9399-7ac50c7c25c0","1000","
                  <p style=""text-align: center;"">₪58
                                                <br>30%</p>
                  <p id=""wtp"" style=""text-align:center; margin-top: 0px; margin-bottom: 0px; font-size: 40px"";>&ensp;</p>","-","viewing","0","19","13C,30A","","","","","","","","","","","","","","","","","","","",""
"","","","","","html-slider-response","130","989862","0.0-21.0-1.5","6192926d-37ed-49cd-9399-7ac50c7c25c0","3076","
                  <p style=""text-align: center;"">₪58
                                                <br>30%</p>
                  <p id=""wtp"" style=""text-align:center; margin-top: 0px; margin-bottom: 0px; font-size: 40px"";>מוכנים לשלם: <span id=""c_p_y""></span></p>","29","evaluation","2","19","13C,30A","30","58","29","","","","","","","","","","","","","","","","",""
"","","","","","html-keyboard-response","131","991214","0.0-21.0-2.5","6192926d-37ed-49cd-9399-7ac50c7c25c0","null","<p style=""text-align: center;"">+</p>","null","fixation","","","","","","","","","","","","","","","","","","","","","","",""
"","","","","","html-slider-response","132","992228","0.0-21.0-0.6","6192926d-37ed-49cd-9399-7ac50c7c25c0","1000","
                  <p style=""text-align: center;"">₪11
                                                <br>45%</p>
                  <p id=""wtp"" style=""text-align:center; margin-top: 0px; margin-bottom: 0px; font-size: 40px"";>&ensp;</p>","-","viewing","0","6","14B,21C,25C","","","","","","","","","","","","","","","","","","","",""
"","","","","","html-slider-response","133","996006","0.0-21.0-1.6","6192926d-37ed-49cd-9399-7ac50c7c25c0","3778","
                  <p style=""text-align: center;"">₪11
                                                <br>45%</p>
                  <p id=""wtp"" style=""text-align:center; margin-top: 0px; margin-bottom: 0px; font-size: 40px"";>מוכנים לשלם: <span id=""c_p_y""></span></p>","18","evaluation","51","6","14B,21C,25C","45","11","18","","","","","","","","","","","","","","","","",""
"","","","","","html-keyboard-response","134","997428","0.0-21.0-2.6","6192926d-37ed-49cd-9399-7ac50c7c25c0","null","<p style=""text-align: center;"">+</p>","null","fixation","","","","","","","","","","","","","","","","","","","","","","",""
"","","","","","html-slider-response","135","998435","0.0-21.0-0.7","6192926d-37ed-49cd-9399-7ac50c7c25c0","1000","
                  <p style=""text-align: center;"">₪18
                                                <br>25%</p>
                  <p id=""wtp"" style=""text-align:center; margin-top: 0px; margin-bottom: 0px; font-size: 40px"";>&ensp;</p>","-","viewing","0","9","14A,23A","","","","","","","","","","","","","","","","","","","",""
"","","","","","html-slider-response","136","1000958","0.0-21.0-1.7","6192926d-37ed-49cd-9399-7ac50c7c25c0","2522","
                  <p style=""text-align: center;"">₪18
                                                <br>25%</p>
                  <p id=""wtp"" style=""text-align:center; margin-top: 0px; margin-bottom: 0px; font-size: 40px"";>מוכנים לשלם: <span id=""c_p_y""></span></p>","5","evaluation","47","9","14A,23A","25","18","6","","","","","","","","","","","","","","","","",""
"","","","","","html-keyboard-response","137","1002263","0.0-21.0-2.7","6192926d-37ed-49cd-9399-7ac50c7c25c0","null","<p style=""text-align: center;"">+</p>","null","fixation","","","","","","","","","","","","","","","","","","","","","","",""
"","","","","","html-slider-response","138","1003266","0.0-21.0-0.8","6192926d-37ed-49cd-9399-7ac50c7c25c0","1000","
                  <p style=""text-align: center;"">₪71
                                                <br>45%</p>
                  <p id=""wtp"" style=""text-align:center; margin-top: 0px; margin-bottom: 0px; font-size: 40px"";>&ensp;</p>","-","viewing","0","26","2B,16A","","","","","","","","","","","","","","","","","","","",""
"","","","","","html-slider-response","139","1006542","0.0-21.0-1.8","6192926d-37ed-49cd-9399-7ac50c7c25c0","3275","
                  <p style=""text-align: center;"">₪71
                                                <br>45%</p>
                  <p id=""wtp"" style=""text-align:center; margin-top: 0px; margin-bottom: 0px; font-size: 40px"";>מוכנים לשלם: <span id=""c_p_y""></span></p>","49","evaluation","54","26","2B,16A","45","71","49","","","","","","","","","","","","","","","","",""
"","","","","","html-keyboard-response","140","1008019","0.0-21.0-2.8","6192926d-37ed-49cd-9399-7ac50c7c25c0","null","<p style=""text-align: center;"">+</p>","null","fixation","","","","","","","","","","","","","","","","","","","","","","",""
"","","","","","html-slider-response","141","1009027","0.0-21.0-0.9","6192926d-37ed-49cd-9399-7ac50c7c25c0","1000","
                  <p style=""text-align: center;"">₪76
                                                <br>65%</p>
                  <p id=""wtp"" style=""text-align:center; margin-top: 0px; margin-bottom: 0px; font-size: 40px"";>&ensp;</p>","-","viewing","0","29","8C,19A,24B","","","","","","","","","","","","","","","","","","","",""
"","","","","","html-slider-response","142","1010447","0.0-21.0-1.9","6192926d-37ed-49cd-9399-7ac50c7c25c0","1419","
                  <p style=""text-align: center;"">₪76
                                                <br>65%</p>
                  <p id=""wtp"" style=""text-align:center; margin-top: 0px; margin-bottom: 0px; font-size: 40px"";>מוכנים לשלם: <span id=""c_p_y""></span></p>","80","evaluation","3","29","8C,19A,24B","65","76","80","","","","","","","","","","","","","","","","",""
"","","","","","html-keyboard-response","143","1011146","0.0-21.0-2.9","6192926d-37ed-49cd-9399-7ac50c7c25c0","null","<p style=""text-align: center;"">+</p>","null","fixation","","","","","","","","","","","","","","","","","","","","","","",""
"","","","","","html-slider-response","144","1012150","0.0-21.0-0.10","6192926d-37ed-49cd-9399-7ac50c7c25c0","1000","
                  <p style=""text-align: center;"">₪18
                                                <br>50%</p>
                  <p id=""wtp"" style=""text-align:center; margin-top: 0px; margin-bottom: 0px; font-size: 40px"";>&ensp;</p>","-","viewing","0","10","2C,16C,22B,28A","","","","","","","","","","","","","","","","","","","",""
"","","","","","html-slider-response","145","1014335","0.0-21.0-1.10","6192926d-37ed-49cd-9399-7ac50c7c25c0","2184","
                  <p style=""text-align: center;"">₪18
                                                <br>50%</p>
                  <p id=""wtp"" style=""text-align:center; margin-top: 0px; margin-bottom: 0px; font-size: 40px"";>מוכנים לשלם: <span id=""c_p_y""></span></p>","6","evaluation","23","10","2C,16C,22B,28A","50","18","6","","","","","","","","","","","","","","","","",""
"","","","","","html-keyboard-response","146","1015286","0.0-21.0-2.10","6192926d-37ed-49cd-9399-7ac50c7c25c0","null","<p style=""text-align: center;"">+</p>","null","fixation","","","","","","","","","","","","","","","","","","","","","","",""
"","","","","","html-slider-response","147","1016290","0.0-21.0-0.11","6192926d-37ed-49cd-9399-7ac50c7c25c0","1000","
                  <p style=""text-align: center;"">₪43
                                                <br>60%</p>
                  <p id=""wtp"" style=""text-align:center; margin-top: 0px; margin-bottom: 0px; font-size: 40px"";>&ensp;</p>","-","viewing","0","17","2A,7A,9A,15B","","","","","","","","","","","","","","","","","","","",""
"","","","","","html-slider-response","148","1019471","0.0-21.0-1.11","6192926d-37ed-49cd-9399-7ac50c7c25c0","3179","
                  <p style=""text-align: center;"">₪43
                                                <br>60%</p>
                  <p id=""wtp"" style=""text-align:center; margin-top: 0px; margin-bottom: 0px; font-size: 40px"";>מוכנים לשלם: <span id=""c_p_y""></span></p>","45","evaluation","41","17","2A,7A,9A,15B","60","43","45","","","","","","","","","","","","","","","","",""
"","","","","","html-keyboard-response","149","1020457","0.0-21.0-2.11","6192926d-37ed-49cd-9399-7ac50c7c25c0","null","<p style=""text-align: center;"">+</p>","null","fixation","","","","","","","","","","","","","","","","","","","","","","",""
"","","","","","html-slider-response","150","1021462","0.0-21.0-0.12","6192926d-37ed-49cd-9399-7ac50c7c25c0","1000","
                  <p style=""text-align: center;"">₪71
                                                <br>75%</p>
                  <p id=""wtp"" style=""text-align:center; margin-top: 0px; margin-bottom: 0px; font-size: 40px"";>&ensp;</p>","-","viewing","0","28","8B","","","","","","","","","","","","","","","","","","","",""
"","","","","","html-slider-response","151","1022526","0.0-21.0-1.12","6192926d-37ed-49cd-9399-7ac50c7c25c0","1064","
                  <p style=""text-align: center;"">₪71
                                                <br>75%</p>
                  <p id=""wtp"" style=""text-align:center; margin-top: 0px; margin-bottom: 0px; font-size: 40px"";>מוכנים לשלם: <span id=""c_p_y""></span></p>","80","evaluation","9","28","8B","75","71","80","","","","","","","","","","","","","","","","",""
"","","","","","html-keyboard-response","152","1023134","0.0-21.0-2.12","6192926d-37ed-49cd-9399-7ac50c7c25c0","null","<p style=""text-align: center;"">+</p>","null","fixation","","","","","","","","","","","","","","","","","","","","","","",""
"","","","","","html-slider-response","153","1024150","0.0-21.0-0.13","6192926d-37ed-49cd-9399-7ac50c7c25c0","1000","
                  <p style=""text-align: center;"">₪43
                                                <br>75%</p>
                  <p id=""wtp"" style=""text-align:center; margin-top: 0px; margin-bottom: 0px; font-size: 40px"";>&ensp;</p>","-","viewing","0","18","11B,19B,24A,26A","","","","","","","","","","","","","","","","","","","",""
"","","","","","html-slider-response","154","1028159","0.0-21.0-1.13","6192926d-37ed-49cd-9399-7ac50c7c25c0","null","
                  <p style=""text-align: center;"">₪43
                                                <br>75%</p>
                  <p id=""wtp"" style=""text-align:center; margin-top: 0px; margin-bottom: 0px; font-size: 40px"";>מוכנים לשלם: <span id=""c_p_y""></span></p>","null","evaluation","10","18","11B,19B,24A,26A","75","43","55","","","","","","","","","","","","","","","","",""
"","","","","","html-keyboard-response","155","1028731","0.0-21.0-2.13","6192926d-37ed-49cd-9399-7ac50c7c25c0","null","<p style=""text-align: center;"">+</p>","null","fixation","","","","","","","","","","","","","","","","","","","","","","",""
"","","","","","html-slider-response","156","1029737","0.0-21.0-0.14","6192926d-37ed-49cd-9399-7ac50c7c25c0","1000","
                  <p style=""text-align: center;"">₪36
                                                <br>75%</p>
                  <p id=""wtp"" style=""text-align:center; margin-top: 0px; margin-bottom: 0px; font-size: 40px"";>&ensp;</p>","-","viewing","0","14","4B,5A,13B,16B","","","","","","","","","","","","","","","","","","","",""
"","","","","","html-slider-response","157","1032383","0.0-21.0-1.14","6192926d-37ed-49cd-9399-7ac50c7c25c0","2644","
                  <p style=""text-align: center;"">₪36
                                                <br>75%</p>
                  <p id=""wtp"" style=""text-align:center; margin-top: 0px; margin-bottom: 0px; font-size: 40px"";>מוכנים לשלם: <span id=""c_p_y""></span></p>","35","evaluation","75","14","4B,5A,13B,16B","75","36","35","","","","","","","","","","","","","","","","",""
"","","","","","html-keyboard-response","158","1033001","0.0-21.0-2.14","6192926d-37ed-49cd-9399-7ac50c7c25c0","null","<p style=""text-align: center;"">+</p>","null","fixation","","","","","","","","","","","","","","","","","","","","","","",""
"","","","","","html-slider-response","159","1034005","0.0-21.0-0.15","6192926d-37ed-49cd-9399-7ac50c7c25c0","1000","
                  <p style=""text-align: center;"">₪61
                                                <br>55%</p>
                  <p id=""wtp"" style=""text-align:center; margin-top: 0px; margin-bottom: 0px; font-size: 40px"";>&ensp;</p>","-","viewing","0","23","7B,26B","","","","","","","","","","","","","","","","","","","",""
"","","","","","html-slider-response","160","1036351","0.0-21.0-1.15","6192926d-37ed-49cd-9399-7ac50c7c25c0","2345","
                  <p style=""text-align: center;"">₪61
                                                <br>55%</p>
                  <p id=""wtp"" style=""text-align:center; margin-top: 0px; margin-bottom: 0px; font-size: 40px"";>מוכנים לשלם: <span id=""c_p_y""></span></p>","35","evaluation","66","23","7B,26B","55","61","35","","","","","","","","","","","","","","","","",""
"","","","","","html-keyboard-response","161","1037207","0.0-21.0-2.15","6192926d-37ed-49cd-9399-7ac50c7c25c0","null","<p style=""text-align: center;"">+</p>","null","fixation","","","","","","","","","","","","","","","","","","","","","","",""
"","","","","","html-slider-response","162","1038219","0.0-21.0-0.16","6192926d-37ed-49cd-9399-7ac50c7c25c0","1000","
                  <p style=""text-align: center;"">₪64
                                                <br>50%</p>
                  <p id=""wtp"" style=""text-align:center; margin-top: 0px; margin-bottom: 0px; font-size: 40px"";>&ensp;</p>","-","viewing","0","25","1B,3B,4A","","","","","","","","","","","","","","","","","","","",""
"","","","","","html-slider-response","163","1041007","0.0-21.0-1.16","6192926d-37ed-49cd-9399-7ac50c7c25c0","2786","
                  <p style=""text-align: center;"">₪64
                                                <br>50%</p>
                  <p id=""wtp"" style=""text-align:center; margin-top: 0px; margin-bottom: 0px; font-size: 40px"";>מוכנים לשלם: <span id=""c_p_y""></span></p>","42","evaluation","1","25","1B,3B,4A","50","64","42","","","","","","","","","","","","","","","","",""
"","","","","","html-keyboard-response","164","1042280","0.0-21.0-2.16","6192926d-37ed-49cd-9399-7ac50c7c25c0","null","<p style=""text-align: center;"">+</p>","null","fixation","","","","","","","","","","","","","","","","","","","","","","",""
"","","","","","html-slider-response","165","1043280","0.0-21.0-0.17","6192926d-37ed-49cd-9399-7ac50c7c25c0","1000","
                  <p style=""text-align: center;"">₪11
                                                <br>25%</p>
                  <p id=""wtp"" style=""text-align:center; margin-top: 0px; margin-bottom: 0px; font-size: 40px"";>&ensp;</p>","-","viewing","0","5","12A,27B,28B,30B","","","","","","","","","","","","","","","","","","","",""
"","","","","","html-slider-response","166","1044774","0.0-21.0-1.17","6192926d-37ed-49cd-9399-7ac50c7c25c0","1493","
                  <p style=""text-align: center;"">₪11
                                                <br>25%</p>
                  <p id=""wtp"" style=""text-align:center; margin-top: 0px; margin-bottom: 0px; font-size: 40px"";>מוכנים לשלם: <span id=""c_p_y""></span></p>","1","evaluation","35","5","12A,27B,28B,30B","25","11","2","","","","","","","","","","","","","","","","",""
"","","","","","html-keyboard-response","167","1046159","0.0-21.0-2.17","6192926d-37ed-49cd-9399-7ac50c7c25c0","null","<p style=""text-align: center;"">+</p>","null","fixation","","","","","","","","","","","","","","","","","","","","","","",""
"","","","","","html-slider-response","168","1047167","0.0-21.0-0.18","6192926d-37ed-49cd-9399-7ac50c7c25c0","1000","
                  <p style=""text-align: center;"">₪36
                                                <br>60%</p>
                  <p id=""wtp"" style=""text-align:center; margin-top: 0px; margin-bottom: 0px; font-size: 40px"";>&ensp;</p>","-","viewing","0","12","1C,7C,15C","","","","","","","","","","","","","","","","","","","",""
"","","","","","html-slider-response","169","1050918","0.0-21.0-1.18","6192926d-37ed-49cd-9399-7ac50c7c25c0","3750","
                  <p style=""text-align: center;"">₪36
                                                <br>60%</p>
                  <p id=""wtp"" style=""text-align:center; margin-top: 0px; margin-bottom: 0px; font-size: 40px"";>מוכנים לשלם: <span id=""c_p_y""></span></p>","21","evaluation","51","12","1C,7C,15C","60","36","21","","","","","","","","","","","","","","","","",""
"","","","","","html-keyboard-response","170","1051589","0.0-21.0-2.18","6192926d-37ed-49cd-9399-7ac50c7c25c0","null","<p style=""text-align: center;"">+</p>","null","fixation","","","","","","","","","","","","","","","","","","","","","","",""
"","","","","","html-slider-response","171","1052606","0.0-21.0-0.19","6192926d-37ed-49cd-9399-7ac50c7c25c0","1000","
                  <p style=""text-align: center;"">₪79
                                                <br>40%</p>
                  <p id=""wtp"" style=""text-align:center; margin-top: 0px; margin-bottom: 0px; font-size: 40px"";>&ensp;</p>","-","viewing","0","30","9B","","","","","","","","","","","","","","","","","","","",""
"","","","","","html-slider-response","172","1056262","0.0-21.0-1.19","6192926d-37ed-49cd-9399-7ac50c7c25c0","3655","
                  <p style=""text-align: center;"">₪79
                                                <br>40%</p>
                  <p id=""wtp"" style=""text-align:center; margin-top: 0px; margin-bottom: 0px; font-size: 40px"";>מוכנים לשלם: <span id=""c_p_y""></span></p>","35","evaluation","26","30","9B","40","79","35","","","","","","","","","","","","","","","","",""
"","","","","","html-keyboard-response","173","1056878","0.0-21.0-2.19","6192926d-37ed-49cd-9399-7ac50c7c25c0","null","<p style=""text-align: center;"">+</p>","null","fixation","","","","","","","","","","","","","","","","","","","","","","",""
"","","","","","html-slider-response","174","1057890","0.0-21.0-0.20","6192926d-37ed-49cd-9399-7ac50c7c25c0","1000","
                  <p style=""text-align: center;"">₪39
                                                <br>60%</p>
                  <p id=""wtp"" style=""text-align:center; margin-top: 0px; margin-bottom: 0px; font-size: 40px"";>&ensp;</p>","-","viewing","0","15","9C,25B","","","","","","","","","","","","","","","","","","","",""
"","","","","","html-slider-response","175","1061893","0.0-21.0-1.20","6192926d-37ed-49cd-9399-7ac50c7c25c0","null","
                  <p style=""text-align: center;"">₪39
                                                <br>60%</p>
                  <p id=""wtp"" style=""text-align:center; margin-top: 0px; margin-bottom: 0px; font-size: 40px"";>מוכנים לשלם: <span id=""c_p_y""></span></p>","null","evaluation","4","15","9C,25B","60","39","14","","","","","","","","","","","","","","","","",""
"","","","","","html-keyboard-response","176","1063272","0.0-21.0-2.20","6192926d-37ed-49cd-9399-7ac50c7c25c0","null","<p style=""text-align: center;"">+</p>","null","fixation","","","","","","","","","","","","","","","","","","","","","","",""
"","","","","","html-slider-response","177","1064281","0.0-21.0-0.21","6192926d-37ed-49cd-9399-7ac50c7c25c0","1000","
                  <p style=""text-align: center;"">₪16
                                                <br>20%</p>
                  <p id=""wtp"" style=""text-align:center; margin-top: 0px; margin-bottom: 0px; font-size: 40px"";>&ensp;</p>","-","viewing","0","8","14C,17A,20C,27A","","","","","","","","","","","","","","","","","","","",""
"","","","","","html-slider-response","178","1066695","0.0-21.0-1.21","6192926d-37ed-49cd-9399-7ac50c7c25c0","2413","
                  <p style=""text-align: center;"">₪16
                                                <br>20%</p>
                  <p id=""wtp"" style=""text-align:center; margin-top: 0px; margin-bottom: 0px; font-size: 40px"";>מוכנים לשלם: <span id=""c_p_y""></span></p>","3","evaluation","76","8","14C,17A,20C,27A","20","16","3","","","","","","","","","","","","","","","","",""
"","","","","","html-keyboard-response","179","1067829","0.0-21.0-2.21","6192926d-37ed-49cd-9399-7ac50c7c25c0","null","<p style=""text-align: center;"">+</p>","null","fixation","","","","","","","","","","","","","","","","","","","","","","",""
"","","","","","html-slider-response","180","1068839","0.0-21.0-0.22","6192926d-37ed-49cd-9399-7ac50c7c25c0","1000","
                  <p style=""text-align: center;"">₪11
                                                <br>20%</p>
                  <p id=""wtp"" style=""text-align:center; margin-top: 0px; margin-bottom: 0px; font-size: 40px"";>&ensp;</p>","-","viewing","0","4","12C,17C,23C,28C","","","","","","","","","","","","","","","","","","","",""
"","","","","","html-slider-response","181","1070335","0.0-21.0-1.22","6192926d-37ed-49cd-9399-7ac50c7c25c0","1495","
                  <p style=""text-align: center;"">₪11
                                                <br>20%</p>
                  <p id=""wtp"" style=""text-align:center; margin-top: 0px; margin-bottom: 0px; font-size: 40px"";>מוכנים לשלם: <span id=""c_p_y""></span></p>","1","evaluation","58","4","12C,17C,23C,28C","20","11","1","","","","","","","","","","","","","","","","",""
"","","","","","html-keyboard-response","182","1071264","0.0-21.0-2.22","6192926d-37ed-49cd-9399-7ac50c7c25c0","null","<p style=""text-align: center;"">+</p>","null","fixation","","","","","","","","","","","","","","","","","","","","","","",""
"","","","","","html-slider-response","183","1072275","0.0-21.0-0.23","6192926d-37ed-49cd-9399-7ac50c7c25c0","1000","
                  <p style=""text-align: center;"">₪11
                                                <br>75%</p>
                  <p id=""wtp"" style=""text-align:center; margin-top: 0px; margin-bottom: 0px; font-size: 40px"";>&ensp;</p>","-","viewing","0","7","6B,18B,22C,24C,29A","","","","","","","","","","","","","","","","","","","",""
"","","","","","html-slider-response","184","1074822","0.0-21.0-1.23","6192926d-37ed-49cd-9399-7ac50c7c25c0","2546","
                  <p style=""text-align: center;"">₪11
                                                <br>75%</p>
                  <p id=""wtp"" style=""text-align:center; margin-top: 0px; margin-bottom: 0px; font-size: 40px"";>מוכנים לשלם: <span id=""c_p_y""></span></p>","8","evaluation","51","7","6B,18B,22C,24C,29A","75","11","8","","","","","","","","","","","","","","","","",""
"","","","","","html-keyboard-response","185","1075739","0.0-21.0-2.23","6192926d-37ed-49cd-9399-7ac50c7c25c0","null","<p style=""text-align: center;"">+</p>","null","fixation","","","","","","","","","","","","","","","","","","","","","","",""
"","","","","","html-slider-response","186","1076746","0.0-21.0-0.24","6192926d-37ed-49cd-9399-7ac50c7c25c0","1000","
                  <p style=""text-align: center;"">₪71
                                                <br>55%</p>
                  <p id=""wtp"" style=""text-align:center; margin-top: 0px; margin-bottom: 0px; font-size: 40px"";>&ensp;</p>","-","viewing","0","27","5B,18A","","","","","","","","","","","","","","","","","","","",""
"","","","","","html-slider-response","187","1079430","0.0-21.0-1.24","6192926d-37ed-49cd-9399-7ac50c7c25c0","2684","
                  <p style=""text-align: center;"">₪71
                                                <br>55%</p>
                  <p id=""wtp"" style=""text-align:center; margin-top: 0px; margin-bottom: 0px; font-size: 40px"";>מוכנים לשלם: <span id=""c_p_y""></span></p>","51","evaluation","32","27","5B,18A","55","71","51","","","","","","","","","","","","","","","","",""
"","","","","","html-keyboard-response","188","1079979","0.0-21.0-2.24","6192926d-37ed-49cd-9399-7ac50c7c25c0","null","<p style=""text-align: center;"">+</p>","null","fixation","","","","","","","","","","","","","","","","","","","","","","",""
"","","","","","html-slider-response","189","1080985","0.0-21.0-0.25","6192926d-37ed-49cd-9399-7ac50c7c25c0","1000","
                  <p style=""text-align: center;"">₪4
                                                <br>75%</p>
                  <p id=""wtp"" style=""text-align:center; margin-top: 0px; margin-bottom: 0px; font-size: 40px"";>&ensp;</p>","-","viewing","0","3","12B,20B,23B,27C,29C","","","","","","","","","","","","","","","","","","","",""
"","","","","","html-slider-response","190","1083855","0.0-21.0-1.25","6192926d-37ed-49cd-9399-7ac50c7c25c0","2869","
                  <p style=""text-align: center;"">₪4
                                                <br>75%</p>
                  <p id=""wtp"" style=""text-align:center; margin-top: 0px; margin-bottom: 0px; font-size: 40px"";>מוכנים לשלם: <span id=""c_p_y""></span></p>","0","evaluation","43","3","12B,20B,23B,27C,29C","75","4","1","","","","","","","","","","","","","","","","",""
"","","","","","html-keyboard-response","191","1084905","0.0-21.0-2.25","6192926d-37ed-49cd-9399-7ac50c7c25c0","null","<p style=""text-align: center;"">+</p>","null","fixation","","","","","","","","","","","","","","","","","","","","","","",""
"","","","","","html-slider-response","192","1085919","0.0-21.0-0.26","6192926d-37ed-49cd-9399-7ac50c7c25c0","1000","
                  <p style=""text-align: center;"">₪4
                                                <br>25%</p>
                  <p id=""wtp"" style=""text-align:center; margin-top: 0px; margin-bottom: 0px; font-size: 40px"";>&ensp;</p>","-","viewing","0","1","6C,29B,30C","","","","","","","","","","","","","","","","","","","",""
"","","","","","html-slider-response","193","1087590","0.0-21.0-1.26","6192926d-37ed-49cd-9399-7ac50c7c25c0","1670","
                  <p style=""text-align: center;"">₪4
                                                <br>25%</p>
                  <p id=""wtp"" style=""text-align:center; margin-top: 0px; margin-bottom: 0px; font-size: 40px"";>מוכנים לשלם: <span id=""c_p_y""></span></p>","0","evaluation","59","1","6C,29B,30C","25","4","1","","","","","","","","","","","","","","","","",""
"","","","","","html-keyboard-response","194","1088338","0.0-21.0-2.26","6192926d-37ed-49cd-9399-7ac50c7c25c0","null","<p style=""text-align: center;"">+</p>","null","fixation","","","","","","","","","","","","","","","","","","","","","","",""
"","","","","","html-slider-response","195","1089343","0.0-21.0-0.27","6192926d-37ed-49cd-9399-7ac50c7c25c0","1000","
                  <p style=""text-align: center;"">₪61
                                                <br>45%</p>
                  <p id=""wtp"" style=""text-align:center; margin-top: 0px; margin-bottom: 0px; font-size: 40px"";>&ensp;</p>","-","viewing","0","22","10A,11A","","","","","","","","","","","","","","","","","","","",""
"","","","","","html-slider-response","196","1092215","0.0-21.0-1.27","6192926d-37ed-49cd-9399-7ac50c7c25c0","2871","
                  <p style=""text-align: center;"">₪61
                                                <br>45%</p>
                  <p id=""wtp"" style=""text-align:center; margin-top: 0px; margin-bottom: 0px; font-size: 40px"";>מוכנים לשלם: <span id=""c_p_y""></span></p>","40","evaluation","68","22","10A,11A","45","61","40","","","","","","","","","","","","","","","","",""
"","","","","","html-keyboard-response","197","1093616","0.0-21.0-2.27","6192926d-37ed-49cd-9399-7ac50c7c25c0","null","<p style=""text-align: center;"">+</p>","null","fixation","","","","","","","","","","","","","","","","","","","","","","",""
"","","","","","html-slider-response","198","1094623","0.0-21.0-0.28","6192926d-37ed-49cd-9399-7ac50c7c25c0","1000","
                  <p style=""text-align: center;"">₪4
                                                <br>50%</p>
                  <p id=""wtp"" style=""text-align:center; margin-top: 0px; margin-bottom: 0px; font-size: 40px"";>&ensp;</p>","-","viewing","0","2","4C,17B","","","","","","","","","","","","","","","","","","","",""
"","","","","","html-slider-response","199","1096703","0.0-21.0-1.28","6192926d-37ed-49cd-9399-7ac50c7c25c0","2078","
                  <p style=""text-align: center;"">₪4
                                                <br>50%</p>
                  <p id=""wtp"" style=""text-align:center; margin-top: 0px; margin-bottom: 0px; font-size: 40px"";>מוכנים לשלם: <span id=""c_p_y""></span></p>","1","evaluation","7","2","4C,17B","50","4","2","","","","","","","","","","","","","","","","",""
"","","","","","html-keyboard-response","200","1097335","0.0-21.0-2.28","6192926d-37ed-49cd-9399-7ac50c7c25c0","null","<p style=""text-align: center;"">+</p>","null","fixation","","","","","","","","","","","","","","","","","","","","","","",""
"","","","","","html-slider-response","201","1098348","0.0-21.0-0.29","6192926d-37ed-49cd-9399-7ac50c7c25c0","1000","
                  <p style=""text-align: center;"">₪79
                                                <br>65%</p>
                  <p id=""wtp"" style=""text-align:center; margin-top: 0px; margin-bottom: 0px; font-size: 40px"";>&ensp;</p>","-","viewing","0","31","8A","","","","","","","","","","","","","","","","","","","",""
"","","","","","html-slider-response","202","1100670","0.0-21.0-1.29","6192926d-37ed-49cd-9399-7ac50c7c25c0","2322","
                  <p style=""text-align: center;"">₪79
                                                <br>65%</p>
                  <p id=""wtp"" style=""text-align:center; margin-top: 0px; margin-bottom: 0px; font-size: 40px"";>מוכנים לשלם: <span id=""c_p_y""></span></p>","80","evaluation","55","31","8A","65","79","80","","","","","","","","","","","","","","","","",""
"","","","","","html-keyboard-response","203","1101782","0.0-21.0-2.29","6192926d-37ed-49cd-9399-7ac50c7c25c0","null","<p style=""text-align: center;"">+</p>","null","fixation","","","","","","","","","","","","","","","","","","","","","","",""
"","","","","","html-slider-response","204","1102789","0.0-21.0-0.30","6192926d-37ed-49cd-9399-7ac50c7c25c0","1000","
                  <p style=""text-align: center;"">₪58
                                                <br>45%</p>
                  <p id=""wtp"" style=""text-align:center; margin-top: 0px; margin-bottom: 0px; font-size: 40px"";>&ensp;</p>","-","viewing","0","21","11C,18C,25A","","","","","","","","","","","","","","","","","","","",""
"","","","","","html-slider-response","205","1103839","0.0-21.0-1.30","6192926d-37ed-49cd-9399-7ac50c7c25c0","1049","
                  <p style=""text-align: center;"">₪58
                                                <br>45%</p>
                  <p id=""wtp"" style=""text-align:center; margin-top: 0px; margin-bottom: 0px; font-size: 40px"";>מוכנים לשלם: <span id=""c_p_y""></span></p>","30","evaluation","61","21","11C,18C,25A","45","58","30","","","","","","","","","","","","","","","","",""
"","","","","","html-keyboard-response","206","1105226","0.0-21.0-2.30","6192926d-37ed-49cd-9399-7ac50c7c25c0","null","<p style=""text-align: center;"">+</p>","null","fixation","","","","","","","","","","","","","","","","","","","","","","",""
"","","","","","html-keyboard-response","207","1106240","0.0-22.0","6192926d-37ed-49cd-9399-7ac50c7c25c0","null","<p style=""text-align: center;"">+</p>","null","fixation","","","","","","","","","","","","","","","","","","","","","","",""
"","","","","","html-keyboard-response","208","1107278","0.0-23.0","6192926d-37ed-49cd-9399-7ac50c7c25c0","null","<p>הפסקה.
          <br>לחצו כדי להמשיך.</p>","1","scan_wait","","","","","","","","","","","","","","","","","","","","","","",""
"","","","","","html-keyboard-response","209","1108279","0.0-24.0","6192926d-37ed-49cd-9399-7ac50c7c25c0","null","<p style=""text-align: center;"">+</p>","null","fixation","","","","","","","","","","","","","","","","","","","","","","",""
"","","","","","html-slider-response","210","1109295","0.0-25.0-0.0","6192926d-37ed-49cd-9399-7ac50c7c25c0","1000","
                  <p style=""text-align: center;"">₪64
                                                <br>50%</p>
                  <p id=""wtp"" style=""text-align:center; margin-top: 0px; margin-bottom: 0px; font-size: 40px"";>&ensp;</p>","-","viewing","0","25","1B,3B,4A","","","","","","","","","","","","","","","","","","","",""
"","","","","","html-slider-response","211","1111591","0.0-25.0-1.0","6192926d-37ed-49cd-9399-7ac50c7c25c0","2295","
                  <p style=""text-align: center;"">₪64
                                                <br>50%</p>
                  <p id=""wtp"" style=""text-align:center; margin-top: 0px; margin-bottom: 0px; font-size: 40px"";>מוכנים לשלם: <span id=""c_p_y""></span></p>","38","evaluation","78","25","1B,3B,4A","50","64","38","","","","","","","","","","","","","","","","",""
"","","","","","html-keyboard-response","212","1112632","0.0-25.0-2.0","6192926d-37ed-49cd-9399-7ac50c7c25c0","null","<p style=""text-align: center;"">+</p>","null","fixation","","","","","","","","","","","","","","","","","","","","","","",""
"","","","","","html-slider-response","213","1113634","0.0-25.0-0.1","6192926d-37ed-49cd-9399-7ac50c7c25c0","1000","
                  <p style=""text-align: center;"">₪16
                                                <br>20%</p>
                  <p id=""wtp"" style=""text-align:center; margin-top: 0px; margin-bottom: 0px; font-size: 40px"";>&ensp;</p>","-","viewing","0","8","14C,17A,20C,27A","","","","","","","","","","","","","","","","","","","",""
"","","","","","html-slider-response","214","1115350","0.0-25.0-1.1","6192926d-37ed-49cd-9399-7ac50c7c25c0","1715","
                  <p style=""text-align: center;"">₪16
                                                <br>20%</p>
                  <p id=""wtp"" style=""text-align:center; margin-top: 0px; margin-bottom: 0px; font-size: 40px"";>מוכנים לשלם: <span id=""c_p_y""></span></p>","2","evaluation","9","8","14C,17A,20C,27A","20","16","2","","","","","","","","","","","","","","","","",""
"","","","","","html-keyboard-response","215","1116120","0.0-25.0-2.1","6192926d-37ed-49cd-9399-7ac50c7c25c0","null","<p style=""text-align: center;"">+</p>","null","fixation","","","","","","","","","","","","","","","","","","","","","","",""
"","","","","","html-slider-response","216","1117125","0.0-25.0-0.2","6192926d-37ed-49cd-9399-7ac50c7c25c0","1000","
                  <p style=""text-align: center;"">₪61
                                                <br>55%</p>
                  <p id=""wtp"" style=""text-align:center; margin-top: 0px; margin-bottom: 0px; font-size: 40px"";>&ensp;</p>","-","viewing","0","23","7B,26B","","","","","","","","","","","","","","","","","","","",""
"","","","","","html-slider-response","217","1120174","0.0-25.0-1.2","6192926d-37ed-49cd-9399-7ac50c7c25c0","3048","
                  <p style=""text-align: center;"">₪61
                                                <br>55%</p>
                  <p id=""wtp"" style=""text-align:center; margin-top: 0px; margin-bottom: 0px; font-size: 40px"";>מוכנים לשלם: <span id=""c_p_y""></span></p>","36","evaluation","46","23","7B,26B","55","61","36","","","","","","","","","","","","","","","","",""
"","","","","","html-keyboard-response","218","1121624","0.0-25.0-2.2","6192926d-37ed-49cd-9399-7ac50c7c25c0","null","<p style=""text-align: center;"">+</p>","null","fixation","","","","","","","","","","","","","","","","","","","","","","",""
"","","","","","html-slider-response","219","1122631","0.0-25.0-0.3","6192926d-37ed-49cd-9399-7ac50c7c25c0","1000","
                  <p style=""text-align: center;"">₪4
                                                <br>50%</p>
                  <p id=""wtp"" style=""text-align:center; margin-top: 0px; margin-bottom: 0px; font-size: 40px"";>&ensp;</p>","-","viewing","0","2","4C,17B","","","","","","","","","","","","","","","","","","","",""
"","","","","","html-slider-response","220","1124575","0.0-25.0-1.3","6192926d-37ed-49cd-9399-7ac50c7c25c0","1942","
                  <p style=""text-align: center;"">₪4
                                                <br>50%</p>
                  <p id=""wtp"" style=""text-align:center; margin-top: 0px; margin-bottom: 0px; font-size: 40px"";>מוכנים לשלם: <span id=""c_p_y""></span></p>","1","evaluation","27","2","4C,17B","50","4","1","","","","","","","","","","","","","","","","",""
"","","","","","html-keyboard-response","221","1125897","0.0-25.0-2.3","6192926d-37ed-49cd-9399-7ac50c7c25c0","null","<p style=""text-align: center;"">+</p>","null","fixation","","","","","","","","","","","","","","","","","","","","","","",""
"","","","","","html-slider-response","222","1126907","0.0-25.0-0.4","6192926d-37ed-49cd-9399-7ac50c7c25c0","1000","
                  <p style=""text-align: center;"">₪18
                                                <br>50%</p>
                  <p id=""wtp"" style=""text-align:center; margin-top: 0px; margin-bottom: 0px; font-size: 40px"";>&ensp;</p>","-","viewing","0","10","2C,16C,22B,28A","","","","","","","","","","","","","","","","","","","",""
"","","","","","html-slider-response","223","1130392","0.0-25.0-1.4","6192926d-37ed-49cd-9399-7ac50c7c25c0","3484","
                  <p style=""text-align: center;"">₪18
                                                <br>50%</p>
                  <p id=""wtp"" style=""text-align:center; margin-top: 0px; margin-bottom: 0px; font-size: 40px"";>מוכנים לשלם: <span id=""c_p_y""></span></p>","6","evaluation","45","10","2C,16C,22B,28A","50","18","7","","","","","","","","","","","","","","","","",""
"","","","","","html-keyboard-response","224","1131711","0.0-25.0-2.4","6192926d-37ed-49cd-9399-7ac50c7c25c0","null","<p style=""text-align: center;"">+</p>","null","fixation","","","","","","","","","","","","","","","","","","","","","","",""
"","","","","","html-slider-response","225","1132722","0.0-25.0-0.5","6192926d-37ed-49cd-9399-7ac50c7c25c0","1000","
                  <p style=""text-align: center;"">₪39
                                                <br>60%</p>
                  <p id=""wtp"" style=""text-align:center; margin-top: 0px; margin-bottom: 0px; font-size: 40px"";>&ensp;</p>","-","viewing","0","15","9C,25B","","","","","","","","","","","","","","","","","","","",""
"","","","","","html-slider-response","226","1136014","0.0-25.0-1.5","6192926d-37ed-49cd-9399-7ac50c7c25c0","3291","
                  <p style=""text-align: center;"">₪39
                                                <br>60%</p>
                  <p id=""wtp"" style=""text-align:center; margin-top: 0px; margin-bottom: 0px; font-size: 40px"";>מוכנים לשלם: <span id=""c_p_y""></span></p>","42","evaluation","55","15","9C,25B","60","39","42","","","","","","","","","","","","","","","","",""
"","","","","","html-keyboard-response","227","1137107","0.0-25.0-2.5","6192926d-37ed-49cd-9399-7ac50c7c25c0","null","<p style=""text-align: center;"">+</p>","null","fixation","","","","","","","","","","","","","","","","","","","","","","",""
"","","","","","html-slider-response","228","1138124","0.0-25.0-0.6","6192926d-37ed-49cd-9399-7ac50c7c25c0","1000","
                  <p style=""text-align: center;"">₪39
                                                <br>65%</p>
                  <p id=""wtp"" style=""text-align:center; margin-top: 0px; margin-bottom: 0px; font-size: 40px"";>&ensp;</p>","-","viewing","0","16","1A,15A,26C","","","","","","","","","","","","","","","","","","","",""
"","","","","","html-slider-response","229","1141558","0.0-25.0-1.6","6192926d-37ed-49cd-9399-7ac50c7c25c0","3433","
                  <p style=""text-align: center;"">₪39
                                                <br>65%</p>
                  <p id=""wtp"" style=""text-align:center; margin-top: 0px; margin-bottom: 0px; font-size: 40px"";>מוכנים לשלם: <span id=""c_p_y""></span></p>","48","evaluation","32","16","1A,15A,26C","65","39","48","","","","","","","","","","","","","","","","",""
"","","","","","html-keyboard-response","230","1142767","0.0-25.0-2.6","6192926d-37ed-49cd-9399-7ac50c7c25c0","null","<p style=""text-align: center;"">+</p>","null","fixation","","","","","","","","","","","","","","","","","","","","","","",""
"","","","","","html-slider-response","231","1143774","0.0-25.0-0.7","6192926d-37ed-49cd-9399-7ac50c7c25c0","1000","
                  <p style=""text-align: center;"">₪71
                                                <br>75%</p>
                  <p id=""wtp"" style=""text-align:center; margin-top: 0px; margin-bottom: 0px; font-size: 40px"";>&ensp;</p>","-","viewing","0","28","8B","","","","","","","","","","","","","","","","","","","",""
"","","","","","html-slider-response","232","1145726","0.0-25.0-1.7","6192926d-37ed-49cd-9399-7ac50c7c25c0","1951","
                  <p style=""text-align: center;"">₪71
                                                <br>75%</p>
                  <p id=""wtp"" style=""text-align:center; margin-top: 0px; margin-bottom: 0px; font-size: 40px"";>מוכנים לשלם: <span id=""c_p_y""></span></p>","80","evaluation","30","28","8B","75","71","80","","","","","","","","","","","","","","","","",""
"","","","","","html-keyboard-response","233","1147050","0.0-25.0-2.7","6192926d-37ed-49cd-9399-7ac50c7c25c0","null","<p style=""text-align: center;"">+</p>","null","fixation","","","","","","","","","","","","","","","","","","","","","","",""
"","","","","","html-slider-response","234","1148052","0.0-25.0-0.8","6192926d-37ed-49cd-9399-7ac50c7c25c0","1000","
                  <p style=""text-align: center;"">₪4
                                                <br>25%</p>
                  <p id=""wtp"" style=""text-align:center; margin-top: 0px; margin-bottom: 0px; font-size: 40px"";>&ensp;</p>","-","viewing","0","1","6C,29B,30C","","","","","","","","","","","","","","","","","","","",""
"","","","","","html-slider-response","235","1150415","0.0-25.0-1.8","6192926d-37ed-49cd-9399-7ac50c7c25c0","2362","
                  <p style=""text-align: center;"">₪4
                                                <br>25%</p>
                  <p id=""wtp"" style=""text-align:center; margin-top: 0px; margin-bottom: 0px; font-size: 40px"";>מוכנים לשלם: <span id=""c_p_y""></span></p>","0","evaluation","5","1","6C,29B,30C","25","4","0","","","","","","","","","","","","","","","","",""
"","","","","","html-keyboard-response","236","1151092","0.0-25.0-2.8","6192926d-37ed-49cd-9399-7ac50c7c25c0","null","<p style=""text-align: center;"">+</p>","null","fixation","","","","","","","","","","","","","","","","","","","","","","",""
"","","","","","html-slider-response","237","1152094","0.0-25.0-0.9","6192926d-37ed-49cd-9399-7ac50c7c25c0","1000","
                  <p style=""text-align: center;"">₪43
                                                <br>60%</p>
                  <p id=""wtp"" style=""text-align:center; margin-top: 0px; margin-bottom: 0px; font-size: 40px"";>&ensp;</p>","-","viewing","0","17","2A,7A,9A,15B","","","","","","","","","","","","","","","","","","","",""
"","","","","","html-slider-response","238","1153726","0.0-25.0-1.9","6192926d-37ed-49cd-9399-7ac50c7c25c0","1631","
                  <p style=""text-align: center;"">₪43
                                                <br>60%</p>
                  <p id=""wtp"" style=""text-align:center; margin-top: 0px; margin-bottom: 0px; font-size: 40px"";>מוכנים לשלם: <span id=""c_p_y""></span></p>","47","evaluation","46","17","2A,7A,9A,15B","60","43","47","","","","","","","","","","","","","","","","",""
"","","","","","html-keyboard-response","239","1155006","0.0-25.0-2.9","6192926d-37ed-49cd-9399-7ac50c7c25c0","null","<p style=""text-align: center;"">+</p>","null","fixation","","","","","","","","","","","","","","","","","","","","","","",""
"","","","","","html-slider-response","240","1156009","0.0-25.0-0.10","6192926d-37ed-49cd-9399-7ac50c7c25c0","1000","
                  <p style=""text-align: center;"">₪11
                                                <br>45%</p>
                  <p id=""wtp"" style=""text-align:center; margin-top: 0px; margin-bottom: 0px; font-size: 40px"";>&ensp;</p>","-","viewing","0","6","14B,21C,25C","","","","","","","","","","","","","","","","","","","",""
"","","","","","html-slider-response","241","1158766","0.0-25.0-1.10","6192926d-37ed-49cd-9399-7ac50c7c25c0","2757","
                  <p style=""text-align: center;"">₪11
                                                <br>45%</p>
                  <p id=""wtp"" style=""text-align:center; margin-top: 0px; margin-bottom: 0px; font-size: 40px"";>מוכנים לשלם: <span id=""c_p_y""></span></p>","4","evaluation","6","6","14B,21C,25C","45","11","4","","","","","","","","","","","","","","","","",""
"","","","","","html-keyboard-response","242","1159986","0.0-25.0-2.10","6192926d-37ed-49cd-9399-7ac50c7c25c0","null","<p style=""text-align: center;"">+</p>","null","fixation","","","","","","","","","","","","","","","","","","","","","","",""
"","","","","","html-slider-response","243","1161001","0.0-25.0-0.11","6192926d-37ed-49cd-9399-7ac50c7c25c0","1000","
                  <p style=""text-align: center;"">₪11
                                                <br>75%</p>
                  <p id=""wtp"" style=""text-align:center; margin-top: 0px; margin-bottom: 0px; font-size: 40px"";>&ensp;</p>","-","viewing","0","7","6B,18B,22C,24C,29A","","","","","","","","","","","","","","","","","","","",""
"","","","","","html-slider-response","244","1163038","0.0-25.0-1.11","6192926d-37ed-49cd-9399-7ac50c7c25c0","2036","
                  <p style=""text-align: center;"">₪11
                                                <br>75%</p>
                  <p id=""wtp"" style=""text-align:center; margin-top: 0px; margin-bottom: 0px; font-size: 40px"";>מוכנים לשלם: <span id=""c_p_y""></span></p>","1","evaluation","69","7","6B,18B,22C,24C,29A","75","11","2","","","","","","","","","","","","","","","","",""
"","","","","","html-keyboard-response","245","1164294","0.0-25.0-2.11","6192926d-37ed-49cd-9399-7ac50c7c25c0","null","<p style=""text-align: center;"">+</p>","null","fixation","","","","","","","","","","","","","","","","","","","","","","",""
"","","","","","html-slider-response","246","1165309","0.0-25.0-0.12","6192926d-37ed-49cd-9399-7ac50c7c25c0","1000","
                  <p style=""text-align: center;"">₪61
                                                <br>45%</p>
                  <p id=""wtp"" style=""text-align:center; margin-top: 0px; margin-bottom: 0px; font-size: 40px"";>&ensp;</p>","-","viewing","0","22","10A,11A","","","","","","","","","","","","","","","","","","","",""
"","","","","","html-slider-response","247","1169317","0.0-25.0-1.12","6192926d-37ed-49cd-9399-7ac50c7c25c0","null","
                  <p style=""text-align: center;"">₪61
                                                <br>45%</p>
                  <p id=""wtp"" style=""text-align:center; margin-top: 0px; margin-bottom: 0px; font-size: 40px"";>מוכנים לשלם: <span id=""c_p_y""></span></p>","null","evaluation","1","22","10A,11A","45","61","15","","","","","","","","","","","","","","","","",""
"","","","","","html-keyboard-response","248","1170000","0.0-25.0-2.12","6192926d-37ed-49cd-9399-7ac50c7c25c0","null","<p style=""text-align: center;"">+</p>","null","fixation","","","","","","","","","","","","","","","","","","","","","","",""
"","","","","","html-slider-response","249","1171010","0.0-25.0-0.13","6192926d-37ed-49cd-9399-7ac50c7c25c0","1000","
                  <p style=""text-align: center;"">₪58
                                                <br>45%</p>
