"success","timeout","failed_images","failed_audio","failed_video","trial_type","trial_index","time_elapsed","internal_node_id","subject_id","rt","stimulus","response","part","slider_start","ID","set_ID","prob","amount","last_location","actual_choice","actual_EV","binary_id","trinary_id","catch","direction","A_key","S_key","D_key","choice_prob","choice_amount","won_prize","potential_prize_amount","potential_prize_prob","total_prize","accuracy"
"true","false","[]","[]","[]","preload","0","13","0.0-0.0","eee6843a-0aed-46f2-8001-2a382bf702b6","","","","","","","","","","","","","","","","","","","","","","","","","",""
"","","","","","html-keyboard-response","1","15596","0.0-1.0","eee6843a-0aed-46f2-8001-2a382bf702b6","null","
          <h1>שלום וברוכים הבאים!</h1>
          <p>לפניכם ניסוי בקבלת החלטות עם שני חלקים.
          <br><br>לחצו על העכבר כדי להמשיך.</p>","0","example","","","","","","","","","","","","","","","","","","","","","",""
"","","","","","html-keyboard-response","2","23044","0.0-2.0","eee6843a-0aed-46f2-8001-2a382bf702b6","null","
        <h1>חלק 1</h1>
        <p>בקרוב יוצגו בפניכם הגרלות.
        <br>עליכם לבחור את המחיר המירבי שתהיו מוכנים לשלם כדי להשתתף בהגרלה שתוצג.
        <br>יש לכם תקציב של ₪80 לכל הגרלה. 
        <br>נסו להעריך כל הגרלה בנפרד ולחשוב כמה היא שווה עבורכם, ₪80 זמינים לכל הגרלה בנפרד.
        <br><br>לחצו על העכבר כדי להמשיך.</p>","1","instructions","","","","","","","","","","","","","","","","","","","","","",""
"","","","","","html-keyboard-response","3","32668","0.0-3.0","eee6843a-0aed-46f2-8001-2a382bf702b6","null","
        <p>בסוף הניסוי, המחשב יבחר את אחת ההגרלות ויקבע מחיר לכרטיס עבורה. 
        <br>במידה והמחיר שבחרתם נמוך מהמחיר שנבחר על ידי המחשב, לא תשתתפו בהגרלה ותשארו עם מלוא התקציב.
        <br>במידה והמחיר שבחרתם גבוה מהמחיר שנבחר על ידי המחשב, תשלמו את המחיר שנקבע ותשתתפו בהגרלה.
        <br><br>לחצו על העכבר כדי להמשיך.</p>","1","instructions","","","","","","","","","","","","","","","","","","","","","",""
"","","","","","html-slider-response","4","44229","0.0-4.0","eee6843a-0aed-46f2-8001-2a382bf702b6","11453","
        <p style=""font-size: 42px;"">נתחיל עם דוגמא: 
        <br>ההגרלה מטה מציעה 65% סיכוי לזכות ב-₪40 
        <br>&emsp;&emsp;&emsp;&emsp;&emsp;&emsp;&emsp;&emsp;&ensp;35% סיכוי לזכות ב-₪0.
        <br><br>מה המחיר המירבי שתהיו מוכנים לשלם על כרטיס להגרלה זו בין 0 ל-₪80?
        <br>הזיזו את העכבר על פני המלבן ולחצו כדי לבצע בחירה.</p>
        
        <p style=""text-align: center;"">₪40<br>65%</p>

        <p id=""wtp"" style=""text-align:center; margin-top: 0px; margin-bottom: 0px; font-size: 40px"";>מוכנים לשלם: <span id=""c_p_y""></span></p>","13","example","74","","","","","","","","","","","","","","","","","","","","",""
"","","","","","html-keyboard-response","5","50260","0.0-5.0","eee6843a-0aed-46f2-8001-2a382bf702b6","null","<p>יפה מאוד!
                <br> בחרתם שתהיו מוכנים לשלם ₪13 כדי להשתתף בהגרלה:
                <br><p style=""text-align: center;"">₪40<br>65%</p>
                <p>נשמע נכון?
                <br>נניח שהגרלה זו נבחרה בסוף הניסוי.
                <br>כעת המחשב יקבע מחיר עבורה באקראי.
                <br>לחצו על העכבר להמשך.</p>","1","example","","","","","","","","","","","","","","","","","","","","","",""
"","","","","","html-keyboard-response","6","57732","0.0-6.0","eee6843a-0aed-46f2-8001-2a382bf702b6","null","<p>המחשב קבע מחיר: ₪47
                <br>ואתם בחרתם לשלם לכל היותר: ₪13
                <br><br>מכיוון שהמחיר שבחרתם נמוך מהמחיר שנקבע, לא תתשתתפו בהגרלה.
                <br>במקרה כזה, בסוף הניסוי תקבלו את כל התקציב ההתחלתי של ₪80.
                <br><br>לחצו על העכבר להמשך.</p>","1","example","","","","","","","","","","","","","","","","","","","","","",""
"","","","","","html-slider-response","7","63549","0.0-7.0","eee6843a-0aed-46f2-8001-2a382bf702b6","5562","<p style=""font-size: 42px;"">הנה עוד דוגמא:
                <br>ההגרלה מטה מציעה 35% סיכוי לזכות ב-₪18 
                <br>&emsp;&emsp;&emsp;&emsp;&emsp;&emsp;&emsp;&emsp;&ensp;65% סיכוי לזכות ב-₪0.</p>
        
                <p style=""text-align: center;"">₪18<br>35%</p>
                <p id=""wtp"" style=""text-align:center; margin-top: 0px; margin-bottom: 0px; font-size: 40px"";>מוכנים לשלם: <span id=""c_p_y""></span></p>","4","example","61","","","","","","","","","","","","","","","","","","","","",""
"","","","","","html-keyboard-response","8","68053","0.0-8.0","eee6843a-0aed-46f2-8001-2a382bf702b6","null","<p>הייתם מוכנים לשלם  ₪4 כדי להשתתף בהגרלה:
                <p style=""text-align: center;"">₪18<br>35%</p>
                <p>כעת נניח שהמחשב בחר את ההגרלה הזו בסוף הניסוי, וקבע עבורה מחיר.
                <br><br>לחצו על העכבר כדי להמשיך.</p>","1","instructions","","","","","","","","","","","","","","","","","","","","","",""
"","","","","","html-keyboard-response","9","76557","0.0-9.0","eee6843a-0aed-46f2-8001-2a382bf702b6","null","<p>המחשב קבע מחיר להגרלה: ₪1<br>ואתם בחרתם לשלם לכל היותר: ₪4
                <br><br>כעת המחיר שנקבע נמוך מזה שבחרתם, אז תשלמו את המחיר שקבע המחשב (₪1) ותשתתפו בהגרלה.
                <br>במקרה כזה, תסיימו את הניסוי עם תקציב של ₪79 ועם סיכוי לזכות ב-₪18 נוספים מההגרלה.
                <br>כלומר, תוכלו לקבל ₪79 אם לא תזכו בהגרלה, או ₪97 אם תזכו בהגרלה.
                <br><br>לחצו על העכבר להמשך.</p>","1","example","","","","","","","","","","","","","","","","","","","","","",""
"","","","","","html-keyboard-response","10","81661","0.0-10.0","eee6843a-0aed-46f2-8001-2a382bf702b6","null","<p>במהלך הניסוי, קודם תראו את ההגרלה ורק לאחר מכן תוכלו לבחור.
                <p>כמו כן, יהיו לכם מספר שניות מוגבל להגיב.
                <p>בואו ננסה זאת עם ההגרלה הקודמת.
                <br>לחצו על העכבר כדי להמשיך.</p>","1","instructions","","","","","","","","","","","","","","","","","","","","","",""
"","","","","","html-slider-response","11","82930","0.0-11.0","eee6843a-0aed-46f2-8001-2a382bf702b6","1000","
                    <p style=""text-align: center;"">₪18<br>35%</p>
                    <p id=""wtp"" style=""text-align:center; margin-top: 0px; margin-bottom: 0px; font-size: 40px"";>&ensp;</p>","54","instructions","0","","","","","","","","","","","","","","","","","","","","",""
"","","","","","html-slider-response","12","85765","0.0-12.0","eee6843a-0aed-46f2-8001-2a382bf702b6","2584","
                    <p style=""text-align: center;"">₪18<br>35%</p>
                    <p id=""wtp"" style=""text-align:center; margin-top: 0px; margin-bottom: 0px; font-size: 40px"";>מוכנים לשלם: <span id=""c_p_y""></span></p>","6","instructions","80","","","","","","","","","","","","","","","","","","","","",""
"","","","","","html-keyboard-response","13","88709","0.0-13.0","eee6843a-0aed-46f2-8001-2a382bf702b6","null","<p>יפה. הפעם בחרתם לשלם לכל היותר ₪6.
                <br><br>לחצו על העכבר כדי להמשיך.</p>","1","instructions","","","","","","","","","","","","","","","","","","","","","",""
"","","","","","html-keyboard-response","14","93349","0.0-15.0","eee6843a-0aed-46f2-8001-2a382bf702b6","null","<p>כעת נתחיל את הניסוי.
                <br><br>אתם תראו הגרלות ותתבקשו לבחור כמה תהיו מוכנים לשלם כדי להשתתף בהן.
                <br>יש לכם תקציב של ₪80 עבור כל הגרלה.
                <br>בסוף הניסוי הגרלה אחת תבחר באקראי ותשוחק.
                <br><br>לחצו על העכבר כדי להתחיל את הניסוי.</p>","1","instructions","","","","","","","","","","","","","","","","","","","","","",""
"","","","","","html-keyboard-response","15","94605","0.0-16.0","eee6843a-0aed-46f2-8001-2a382bf702b6","null","<p style=""text-align: center;"">+</p>","null","fixation","","","","","","","","","","","","","","","","","","","","","",""
"","","","","","html-slider-response","16","95607","0.0-17.0-0.0","eee6843a-0aed-46f2-8001-2a382bf702b6","1000","
                  <p style=""text-align: center;"">₪58
                                                <br>45%</p>
                  <p id=""wtp"" style=""text-align:center; margin-top: 0px; margin-bottom: 0px; font-size: 40px"";>&ensp;</p>","-","viewing","0","21","11C,18C,25A","","","","","","","","","","","","","","","","","","",""
"","","","","","html-slider-response","17","99013","0.0-17.0-1.0","eee6843a-0aed-46f2-8001-2a382bf702b6","3405","
                  <p style=""text-align: center;"">₪58
                                                <br>45%</p>
                  <p id=""wtp"" style=""text-align:center; margin-top: 0px; margin-bottom: 0px; font-size: 40px"";>מוכנים לשלם: <span id=""c_p_y""></span></p>","18","evaluation","69","21","11C,18C,25A","45","58","18","","","","","","","","","","","","","","","",""
"","","","","","html-keyboard-response","18","99556","0.0-17.0-2.0","eee6843a-0aed-46f2-8001-2a382bf702b6","null","<p style=""text-align: center;"">+</p>","null","fixation","","","","","","","","","","","","","","","","","","","","","",""
"","","","","","html-slider-response","19","100566","0.0-17.0-0.1","eee6843a-0aed-46f2-8001-2a382bf702b6","1000","
                  <p style=""text-align: center;"">₪36
                                                <br>70%</p>
                  <p id=""wtp"" style=""text-align:center; margin-top: 0px; margin-bottom: 0px; font-size: 40px"";>&ensp;</p>","-","viewing","0","13","3A,5C,10B","","","","","","","","","","","","","","","","","","",""
"","","","","","html-slider-response","20","103853","0.0-17.0-1.1","eee6843a-0aed-46f2-8001-2a382bf702b6","3285","
                  <p style=""text-align: center;"">₪36
                                                <br>70%</p>
                  <p id=""wtp"" style=""text-align:center; margin-top: 0px; margin-bottom: 0px; font-size: 40px"";>מוכנים לשלם: <span id=""c_p_y""></span></p>","8","evaluation","7","13","3A,5C,10B","70","36","8","","","","","","","","","","","","","","","",""
"","","","","","html-keyboard-response","21","104379","0.0-17.0-2.1","eee6843a-0aed-46f2-8001-2a382bf702b6","null","<p style=""text-align: center;"">+</p>","null","fixation","","","","","","","","","","","","","","","","","","","","","",""
"","","","","","html-slider-response","22","105383","0.0-17.0-0.2","eee6843a-0aed-46f2-8001-2a382bf702b6","1000","
                  <p style=""text-align: center;"">₪36
                                                <br>30%</p>
                  <p id=""wtp"" style=""text-align:center; margin-top: 0px; margin-bottom: 0px; font-size: 40px"";>&ensp;</p>","-","viewing","0","11","3C,20A,22A","","","","","","","","","","","","","","","","","","",""
"","","","","","html-slider-response","23","108469","0.0-17.0-1.2","eee6843a-0aed-46f2-8001-2a382bf702b6","3085","
                  <p style=""text-align: center;"">₪36
                                                <br>30%</p>
                  <p id=""wtp"" style=""text-align:center; margin-top: 0px; margin-bottom: 0px; font-size: 40px"";>מוכנים לשלם: <span id=""c_p_y""></span></p>","6","evaluation","24","11","3C,20A,22A","30","36","6","","","","","","","","","","","","","","","",""
"","","","","","html-keyboard-response","24","109305","0.0-17.0-2.2","eee6843a-0aed-46f2-8001-2a382bf702b6","null","<p style=""text-align: center;"">+</p>","null","fixation","","","","","","","","","","","","","","","","","","","","","",""
"","","","","","html-slider-response","25","110307","0.0-17.0-0.3","eee6843a-0aed-46f2-8001-2a382bf702b6","1000","
                  <p style=""text-align: center;"">₪43
                                                <br>75%</p>
                  <p id=""wtp"" style=""text-align:center; margin-top: 0px; margin-bottom: 0px; font-size: 40px"";>&ensp;</p>","-","viewing","0","18","11B,19B,24A,26A","","","","","","","","","","","","","","","","","","",""
"","","","","","html-slider-response","26","113901","0.0-17.0-1.3","eee6843a-0aed-46f2-8001-2a382bf702b6","3592","
                  <p style=""text-align: center;"">₪43
                                                <br>75%</p>
                  <p id=""wtp"" style=""text-align:center; margin-top: 0px; margin-bottom: 0px; font-size: 40px"";>מוכנים לשלם: <span id=""c_p_y""></span></p>","21","evaluation","65","18","11B,19B,24A,26A","75","43","21","","","","","","","","","","","","","","","",""
"","","","","","html-keyboard-response","27","115160","0.0-17.0-2.3","eee6843a-0aed-46f2-8001-2a382bf702b6","null","<p style=""text-align: center;"">+</p>","null","fixation","","","","","","","","","","","","","","","","","","","","","",""
"","","","","","html-slider-response","28","116165","0.0-17.0-0.4","eee6843a-0aed-46f2-8001-2a382bf702b6","1000","
                  <p style=""text-align: center;"">₪79
                                                <br>40%</p>
                  <p id=""wtp"" style=""text-align:center; margin-top: 0px; margin-bottom: 0px; font-size: 40px"";>&ensp;</p>","-","viewing","0","30","9B","","","","","","","","","","","","","","","","","","",""
"","","","","","html-slider-response","29","118853","0.0-17.0-1.4","eee6843a-0aed-46f2-8001-2a382bf702b6","2687","
                  <p style=""text-align: center;"">₪79
                                                <br>40%</p>
                  <p id=""wtp"" style=""text-align:center; margin-top: 0px; margin-bottom: 0px; font-size: 40px"";>מוכנים לשלם: <span id=""c_p_y""></span></p>","19","evaluation","10","30","9B","40","79","19","","","","","","","","","","","","","","","",""
"","","","","","html-keyboard-response","30","120335","0.0-17.0-2.4","eee6843a-0aed-46f2-8001-2a382bf702b6","null","<p style=""text-align: center;"">+</p>","null","fixation","","","","","","","","","","","","","","","","","","","","","",""
"","","","","","html-slider-response","31","121348","0.0-17.0-0.5","eee6843a-0aed-46f2-8001-2a382bf702b6","1000","
                  <p style=""text-align: center;"">₪11
                                                <br>25%</p>
                  <p id=""wtp"" style=""text-align:center; margin-top: 0px; margin-bottom: 0px; font-size: 40px"";>&ensp;</p>","-","viewing","0","5","12A,27B,28B,30B","","","","","","","","","","","","","","","","","","",""
"","","","","","html-slider-response","32","122965","0.0-17.0-1.5","eee6843a-0aed-46f2-8001-2a382bf702b6","1616","
                  <p style=""text-align: center;"">₪11
                                                <br>25%</p>
                  <p id=""wtp"" style=""text-align:center; margin-top: 0px; margin-bottom: 0px; font-size: 40px"";>מוכנים לשלם: <span id=""c_p_y""></span></p>","0","evaluation","79","5","12A,27B,28B,30B","25","11","1","","","","","","","","","","","","","","","",""
"","","","","","html-keyboard-response","33","123927","0.0-17.0-2.5","eee6843a-0aed-46f2-8001-2a382bf702b6","null","<p style=""text-align: center;"">+</p>","null","fixation","","","","","","","","","","","","","","","","","","","","","",""
"","","","","","html-slider-response","34","124929","0.0-17.0-0.6","eee6843a-0aed-46f2-8001-2a382bf702b6","1000","
                  <p style=""text-align: center;"">₪71
                                                <br>55%</p>
                  <p id=""wtp"" style=""text-align:center; margin-top: 0px; margin-bottom: 0px; font-size: 40px"";>&ensp;</p>","-","viewing","0","27","5B,18A","","","","","","","","","","","","","","","","","","",""
"","","","","","html-slider-response","35","127741","0.0-17.0-1.6","eee6843a-0aed-46f2-8001-2a382bf702b6","2811","
                  <p style=""text-align: center;"">₪71
                                                <br>55%</p>
                  <p id=""wtp"" style=""text-align:center; margin-top: 0px; margin-bottom: 0px; font-size: 40px"";>מוכנים לשלם: <span id=""c_p_y""></span></p>","23","evaluation","20","27","5B,18A","55","71","23","","","","","","","","","","","","","","","",""
"","","","","","html-keyboard-response","36","129054","0.0-17.0-2.6","eee6843a-0aed-46f2-8001-2a382bf702b6","null","<p style=""text-align: center;"">+</p>","null","fixation","","","","","","","","","","","","","","","","","","","","","",""
"","","","","","html-slider-response","37","130056","0.0-17.0-0.7","eee6843a-0aed-46f2-8001-2a382bf702b6","1000","
                  <p style=""text-align: center;"">₪11
                                                <br>20%</p>
                  <p id=""wtp"" style=""text-align:center; margin-top: 0px; margin-bottom: 0px; font-size: 40px"";>&ensp;</p>","-","viewing","0","4","12C,17C,23C,28C","","","","","","","","","","","","","","","","","","",""
"","","","","","html-slider-response","38","131341","0.0-17.0-1.7","eee6843a-0aed-46f2-8001-2a382bf702b6","1284","
                  <p style=""text-align: center;"">₪11
                                                <br>20%</p>
                  <p id=""wtp"" style=""text-align:center; margin-top: 0px; margin-bottom: 0px; font-size: 40px"";>מוכנים לשלם: <span id=""c_p_y""></span></p>","1","evaluation","13","4","12C,17C,23C,28C","20","11","2","","","","","","","","","","","","","","","",""
"","","","","","html-keyboard-response","39","132380","0.0-17.0-2.7","eee6843a-0aed-46f2-8001-2a382bf702b6","null","<p style=""text-align: center;"">+</p>","null","fixation","","","","","","","","","","","","","","","","","","","","","",""
"","","","","","html-slider-response","40","133382","0.0-17.0-0.8","eee6843a-0aed-46f2-8001-2a382bf702b6","1000","
                  <p style=""text-align: center;"">₪39
                                                <br>65%</p>
                  <p id=""wtp"" style=""text-align:center; margin-top: 0px; margin-bottom: 0px; font-size: 40px"";>&ensp;</p>","-","viewing","0","16","1A,15A,26C","","","","","","","","","","","","","","","","","","",""
"","","","","","html-slider-response","41","135805","0.0-17.0-1.8","eee6843a-0aed-46f2-8001-2a382bf702b6","2422","
                  <p style=""text-align: center;"">₪39
                                                <br>65%</p>
                  <p id=""wtp"" style=""text-align:center; margin-top: 0px; margin-bottom: 0px; font-size: 40px"";>מוכנים לשלם: <span id=""c_p_y""></span></p>","12","evaluation","3","16","1A,15A,26C","65","39","12","","","","","","","","","","","","","","","",""
"","","","","","html-keyboard-response","42","136626","0.0-17.0-2.8","eee6843a-0aed-46f2-8001-2a382bf702b6","null","<p style=""text-align: center;"">+</p>","null","fixation","","","","","","","","","","","","","","","","","","","","","",""
"","","","","","html-slider-response","43","137628","0.0-17.0-0.9","eee6843a-0aed-46f2-8001-2a382bf702b6","1000","
                  <p style=""text-align: center;"">₪61
                                                <br>55%</p>
                  <p id=""wtp"" style=""text-align:center; margin-top: 0px; margin-bottom: 0px; font-size: 40px"";>&ensp;</p>","-","viewing","0","23","7B,26B","","","","","","","","","","","","","","","","","","",""
"","","","","","html-slider-response","44","139925","0.0-17.0-1.9","eee6843a-0aed-46f2-8001-2a382bf702b6","2296","
                  <p style=""text-align: center;"">₪61
                                                <br>55%</p>
                  <p id=""wtp"" style=""text-align:center; margin-top: 0px; margin-bottom: 0px; font-size: 40px"";>מוכנים לשלם: <span id=""c_p_y""></span></p>","20","evaluation","25","23","7B,26B","55","61","20","","","","","","","","","","","","","","","",""
"","","","","","html-keyboard-response","45","140445","0.0-17.0-2.9","eee6843a-0aed-46f2-8001-2a382bf702b6","null","<p style=""text-align: center;"">+</p>","null","fixation","","","","","","","","","","","","","","","","","","","","","",""
"","","","","","html-slider-response","46","141447","0.0-17.0-0.10","eee6843a-0aed-46f2-8001-2a382bf702b6","1000","
                  <p style=""text-align: center;"">₪64
                                                <br>50%</p>
                  <p id=""wtp"" style=""text-align:center; margin-top: 0px; margin-bottom: 0px; font-size: 40px"";>&ensp;</p>","-","viewing","0","25","1B,3B,4A","","","","","","","","","","","","","","","","","","",""
"","","","","","html-slider-response","47","145285","0.0-17.0-1.10","eee6843a-0aed-46f2-8001-2a382bf702b6","3837","
                  <p style=""text-align: center;"">₪64
                                                <br>50%</p>
                  <p id=""wtp"" style=""text-align:center; margin-top: 0px; margin-bottom: 0px; font-size: 40px"";>מוכנים לשלם: <span id=""c_p_y""></span></p>","23","evaluation","72","25","1B,3B,4A","50","64","23","","","","","","","","","","","","","","","",""
"","","","","","html-keyboard-response","48","146188","0.0-17.0-2.10","eee6843a-0aed-46f2-8001-2a382bf702b6","null","<p style=""text-align: center;"">+</p>","null","fixation","","","","","","","","","","","","","","","","","","","","","",""
"","","","","","html-slider-response","49","147191","0.0-17.0-0.11","eee6843a-0aed-46f2-8001-2a382bf702b6","1000","
                  <p style=""text-align: center;"">₪58
                                                <br>40%</p>
                  <p id=""wtp"" style=""text-align:center; margin-top: 0px; margin-bottom: 0px; font-size: 40px"";>&ensp;</p>","-","viewing","0","20","10C,13A,19C,21B","","","","","","","","","","","","","","","","","","",""
"","","","","","html-slider-response","50","149109","0.0-17.0-1.11","eee6843a-0aed-46f2-8001-2a382bf702b6","1917","
                  <p style=""text-align: center;"">₪58
                                                <br>40%</p>
                  <p id=""wtp"" style=""text-align:center; margin-top: 0px; margin-bottom: 0px; font-size: 40px"";>מוכנים לשלם: <span id=""c_p_y""></span></p>","10","evaluation","9","20","10C,13A,19C,21B","40","58","10","","","","","","","","","","","","","","","",""
"","","","","","html-keyboard-response","51","149644","0.0-17.0-2.11","eee6843a-0aed-46f2-8001-2a382bf702b6","null","<p style=""text-align: center;"">+</p>","null","fixation","","","","","","","","","","","","","","","","","","","","","",""
"","","","","","html-slider-response","52","150649","0.0-17.0-0.12","eee6843a-0aed-46f2-8001-2a382bf702b6","1000","
                  <p style=""text-align: center;"">₪4
                                                <br>50%</p>
                  <p id=""wtp"" style=""text-align:center; margin-top: 0px; margin-bottom: 0px; font-size: 40px"";>&ensp;</p>","-","viewing","0","2","4C,17B","","","","","","","","","","","","","","","","","","",""
"","","","","","html-slider-response","53","152725","0.0-17.0-1.12","eee6843a-0aed-46f2-8001-2a382bf702b6","2076","
                  <p style=""text-align: center;"">₪4
                                                <br>50%</p>
                  <p id=""wtp"" style=""text-align:center; margin-top: 0px; margin-bottom: 0px; font-size: 40px"";>מוכנים לשלם: <span id=""c_p_y""></span></p>","1","evaluation","52","2","4C,17B","50","4","1","","","","","","","","","","","","","","","",""
"","","","","","html-keyboard-response","54","153848","0.0-17.0-2.12","eee6843a-0aed-46f2-8001-2a382bf702b6","null","<p style=""text-align: center;"">+</p>","null","fixation","","","","","","","","","","","","","","","","","","","","","",""
"","","","","","html-slider-response","55","154864","0.0-17.0-0.13","eee6843a-0aed-46f2-8001-2a382bf702b6","1000","
                  <p style=""text-align: center;"">₪58
                                                <br>30%</p>
                  <p id=""wtp"" style=""text-align:center; margin-top: 0px; margin-bottom: 0px; font-size: 40px"";>&ensp;</p>","-","viewing","0","19","13C,30A","","","","","","","","","","","","","","","","","","",""
"","","","","","html-slider-response","56","158085","0.0-17.0-1.13","eee6843a-0aed-46f2-8001-2a382bf702b6","3220","
                  <p style=""text-align: center;"">₪58
                                                <br>30%</p>
                  <p id=""wtp"" style=""text-align:center; margin-top: 0px; margin-bottom: 0px; font-size: 40px"";>מוכנים לשלם: <span id=""c_p_y""></span></p>","14","evaluation","78","19","13C,30A","30","58","14","","","","","","","","","","","","","","","",""
"","","","","","html-keyboard-response","57","159254","0.0-17.0-2.13","eee6843a-0aed-46f2-8001-2a382bf702b6","null","<p style=""text-align: center;"">+</p>","null","fixation","","","","","","","","","","","","","","","","","","","","","",""
"","","","","","html-slider-response","58","160270","0.0-17.0-0.14","eee6843a-0aed-46f2-8001-2a382bf702b6","1000","
                  <p style=""text-align: center;"">₪4
                                                <br>25%</p>
                  <p id=""wtp"" style=""text-align:center; margin-top: 0px; margin-bottom: 0px; font-size: 40px"";>&ensp;</p>","-","viewing","0","1","6C,29B,30C","","","","","","","","","","","","","","","","","","",""
"","","","","","html-slider-response","59","161093","0.0-17.0-1.14","eee6843a-0aed-46f2-8001-2a382bf702b6","821","
                  <p style=""text-align: center;"">₪4
                                                <br>25%</p>
                  <p id=""wtp"" style=""text-align:center; margin-top: 0px; margin-bottom: 0px; font-size: 40px"";>מוכנים לשלם: <span id=""c_p_y""></span></p>","0","evaluation","62","1","6C,29B,30C","25","4","0","","","","","","","","","","","","","","","",""
"","","","","","html-keyboard-response","60","162253","0.0-17.0-2.14","eee6843a-0aed-46f2-8001-2a382bf702b6","null","<p style=""text-align: center;"">+</p>","null","fixation","","","","","","","","","","","","","","","","","","","","","",""
"","","","","","html-slider-response","61","163254","0.0-17.0-0.15","eee6843a-0aed-46f2-8001-2a382bf702b6","1000","
                  <p style=""text-align: center;"">₪18
                                                <br>25%</p>
                  <p id=""wtp"" style=""text-align:center; margin-top: 0px; margin-bottom: 0px; font-size: 40px"";>&ensp;</p>","-","viewing","0","9","14A,23A","","","","","","","","","","","","","","","","","","",""
"","","","","","html-slider-response","62","164173","0.0-17.0-1.15","eee6843a-0aed-46f2-8001-2a382bf702b6","917","
                  <p style=""text-align: center;"">₪18
                                                <br>25%</p>
                  <p id=""wtp"" style=""text-align:center; margin-top: 0px; margin-bottom: 0px; font-size: 40px"";>מוכנים לשלם: <span id=""c_p_y""></span></p>","1","evaluation","52","9","14A,23A","25","18","1","","","","","","","","","","","","","","","",""
"","","","","","html-keyboard-response","63","164778","0.0-17.0-2.15","eee6843a-0aed-46f2-8001-2a382bf702b6","null","<p style=""text-align: center;"">+</p>","null","fixation","","","","","","","","","","","","","","","","","","","","","",""
"","","","","","html-slider-response","64","165780","0.0-17.0-0.16","eee6843a-0aed-46f2-8001-2a382bf702b6","1000","
                  <p style=""text-align: center;"">₪61
                                                <br>45%</p>
                  <p id=""wtp"" style=""text-align:center; margin-top: 0px; margin-bottom: 0px; font-size: 40px"";>&ensp;</p>","-","viewing","0","22","10A,11A","","","","","","","","","","","","","","","","","","",""
"","","","","","html-slider-response","65","167909","0.0-17.0-1.16","eee6843a-0aed-46f2-8001-2a382bf702b6","2127","
                  <p style=""text-align: center;"">₪61
                                                <br>45%</p>
                  <p id=""wtp"" style=""text-align:center; margin-top: 0px; margin-bottom: 0px; font-size: 40px"";>מוכנים לשלם: <span id=""c_p_y""></span></p>","8","evaluation","46","22","10A,11A","45","61","8","","","","","","","","","","","","","","","",""
"","","","","","html-keyboard-response","66","168917","0.0-17.0-2.16","eee6843a-0aed-46f2-8001-2a382bf702b6","null","<p style=""text-align: center;"">+</p>","null","fixation","","","","","","","","","","","","","","","","","","","","","",""
"","","","","","html-slider-response","67","169921","0.0-17.0-0.17","eee6843a-0aed-46f2-8001-2a382bf702b6","1000","
                  <p style=""text-align: center;"">₪71
                                                <br>75%</p>
                  <p id=""wtp"" style=""text-align:center; margin-top: 0px; margin-bottom: 0px; font-size: 40px"";>&ensp;</p>","-","viewing","0","28","8B","","","","","","","","","","","","","","","","","","",""
"","","","","","html-slider-response","68","173341","0.0-17.0-1.17","eee6843a-0aed-46f2-8001-2a382bf702b6","3418","
                  <p style=""text-align: center;"">₪71
                                                <br>75%</p>
                  <p id=""wtp"" style=""text-align:center; margin-top: 0px; margin-bottom: 0px; font-size: 40px"";>מוכנים לשלם: <span id=""c_p_y""></span></p>","25","evaluation","42","28","8B","75","71","25","","","","","","","","","","","","","","","",""
"","","","","","html-keyboard-response","69","173846","0.0-17.0-2.17","eee6843a-0aed-46f2-8001-2a382bf702b6","null","<p style=""text-align: center;"">+</p>","null","fixation","","","","","","","","","","","","","","","","","","","","","",""
"","","","","","html-slider-response","70","174849","0.0-17.0-0.18","eee6843a-0aed-46f2-8001-2a382bf702b6","1000","
                  <p style=""text-align: center;"">₪76
                                                <br>65%</p>
                  <p id=""wtp"" style=""text-align:center; margin-top: 0px; margin-bottom: 0px; font-size: 40px"";>&ensp;</p>","-","viewing","0","29","8C,19A,24B","","","","","","","","","","","","","","","","","","",""
"","","","","","html-slider-response","71","176389","0.0-17.0-1.18","eee6843a-0aed-46f2-8001-2a382bf702b6","1539","
                  <p style=""text-align: center;"">₪76
                                                <br>65%</p>
                  <p id=""wtp"" style=""text-align:center; margin-top: 0px; margin-bottom: 0px; font-size: 40px"";>מוכנים לשלם: <span id=""c_p_y""></span></p>","21","evaluation","19","29","8C,19A,24B","65","76","21","","","","","","","","","","","","","","","",""
"","","","","","html-keyboard-response","72","177674","0.0-17.0-2.18","eee6843a-0aed-46f2-8001-2a382bf702b6","null","<p style=""text-align: center;"">+</p>","null","fixation","","","","","","","","","","","","","","","","","","","","","",""
"","","","","","html-slider-response","73","178676","0.0-17.0-0.19","eee6843a-0aed-46f2-8001-2a382bf702b6","1000","
                  <p style=""text-align: center;"">₪11
                                                <br>75%</p>
                  <p id=""wtp"" style=""text-align:center; margin-top: 0px; margin-bottom: 0px; font-size: 40px"";>&ensp;</p>","-","viewing","0","7","6B,18B,22C,24C,29A","","","","","","","","","","","","","","","","","","",""
"","","","","","html-slider-response","74","181421","0.0-17.0-1.19","eee6843a-0aed-46f2-8001-2a382bf702b6","2744","
                  <p style=""text-align: center;"">₪11
                                                <br>75%</p>
                  <p id=""wtp"" style=""text-align:center; margin-top: 0px; margin-bottom: 0px; font-size: 40px"";>מוכנים לשלם: <span id=""c_p_y""></span></p>","1","evaluation","49","7","6B,18B,22C,24C,29A","75","11","2","","","","","","","","","","","","","","","",""
"","","","","","html-keyboard-response","75","181997","0.0-17.0-2.19","eee6843a-0aed-46f2-8001-2a382bf702b6","null","<p style=""text-align: center;"">+</p>","null","fixation","","","","","","","","","","","","","","","","","","","","","",""
"","","","","","html-slider-response","76","182999","0.0-17.0-0.20","eee6843a-0aed-46f2-8001-2a382bf702b6","1000","
                  <p style=""text-align: center;"">₪71
                                                <br>45%</p>
                  <p id=""wtp"" style=""text-align:center; margin-top: 0px; margin-bottom: 0px; font-size: 40px"";>&ensp;</p>","-","viewing","0","26","2B,16A","","","","","","","","","","","","","","","","","","",""
"","","","","","html-slider-response","77","185149","0.0-17.0-1.20","eee6843a-0aed-46f2-8001-2a382bf702b6","2149","
                  <p style=""text-align: center;"">₪71
                                                <br>45%</p>
                  <p id=""wtp"" style=""text-align:center; margin-top: 0px; margin-bottom: 0px; font-size: 40px"";>מוכנים לשלם: <span id=""c_p_y""></span></p>","10","evaluation","17","26","2B,16A","45","71","10","","","","","","","","","","","","","","","",""
"","","","","","html-keyboard-response","78","186199","0.0-17.0-2.20","eee6843a-0aed-46f2-8001-2a382bf702b6","null","<p style=""text-align: center;"">+</p>","null","fixation","","","","","","","","","","","","","","","","","","","","","",""
"","","","","","html-slider-response","79","187217","0.0-17.0-0.21","eee6843a-0aed-46f2-8001-2a382bf702b6","1000","
                  <p style=""text-align: center;"">₪39
                                                <br>60%</p>
                  <p id=""wtp"" style=""text-align:center; margin-top: 0px; margin-bottom: 0px; font-size: 40px"";>&ensp;</p>","-","viewing","0","15","9C,25B","","","","","","","","","","","","","","","","","","",""
"","","","","","html-slider-response","80","190645","0.0-17.0-1.21","eee6843a-0aed-46f2-8001-2a382bf702b6","3427","
                  <p style=""text-align: center;"">₪39
                                                <br>60%</p>
                  <p id=""wtp"" style=""text-align:center; margin-top: 0px; margin-bottom: 0px; font-size: 40px"";>מוכנים לשלם: <span id=""c_p_y""></span></p>","7","evaluation","38","15","9C,25B","60","39","7","","","","","","","","","","","","","","","",""
"","","","","","html-keyboard-response","81","191343","0.0-17.0-2.21","eee6843a-0aed-46f2-8001-2a382bf702b6","null","<p style=""text-align: center;"">+</p>","null","fixation","","","","","","","","","","","","","","","","","","","","","",""
"","","","","","html-slider-response","82","192360","0.0-17.0-0.22","eee6843a-0aed-46f2-8001-2a382bf702b6","1000","
                  <p style=""text-align: center;"">₪36
                                                <br>75%</p>
                  <p id=""wtp"" style=""text-align:center; margin-top: 0px; margin-bottom: 0px; font-size: 40px"";>&ensp;</p>","-","viewing","0","14","4B,5A,13B,16B","","","","","","","","","","","","","","","","","","",""
"","","","","","html-slider-response","83","195997","0.0-17.0-1.22","eee6843a-0aed-46f2-8001-2a382bf702b6","3636","
                  <p style=""text-align: center;"">₪36
                                                <br>75%</p>
                  <p id=""wtp"" style=""text-align:center; margin-top: 0px; margin-bottom: 0px; font-size: 40px"";>מוכנים לשלם: <span id=""c_p_y""></span></p>","5","evaluation","11","14","4B,5A,13B,16B","75","36","5","","","","","","","","","","","","","","","",""
"","","","","","html-keyboard-response","84","196590","0.0-17.0-2.22","eee6843a-0aed-46f2-8001-2a382bf702b6","null","<p style=""text-align: center;"">+</p>","null","fixation","","","","","","","","","","","","","","","","","","","","","",""
"","","","","","html-slider-response","85","197595","0.0-17.0-0.23","eee6843a-0aed-46f2-8001-2a382bf702b6","1000","
                  <p style=""text-align: center;"">₪43
                                                <br>60%</p>
                  <p id=""wtp"" style=""text-align:center; margin-top: 0px; margin-bottom: 0px; font-size: 40px"";>&ensp;</p>","-","viewing","0","17","2A,7A,9A,15B","","","","","","","","","","","","","","","","","","",""
"","","","","","html-slider-response","86","199869","0.0-17.0-1.23","eee6843a-0aed-46f2-8001-2a382bf702b6","2273","
                  <p style=""text-align: center;"">₪43
                                                <br>60%</p>
                  <p id=""wtp"" style=""text-align:center; margin-top: 0px; margin-bottom: 0px; font-size: 40px"";>מוכנים לשלם: <span id=""c_p_y""></span></p>","9","evaluation","47","17","2A,7A,9A,15B","60","43","9","","","","","","","","","","","","","","","",""
"","","","","","html-keyboard-response","87","200769","0.0-17.0-2.23","eee6843a-0aed-46f2-8001-2a382bf702b6","null","<p style=""text-align: center;"">+</p>","null","fixation","","","","","","","","","","","","","","","","","","","","","",""
"","","","","","html-slider-response","88","201780","0.0-17.0-0.24","eee6843a-0aed-46f2-8001-2a382bf702b6","1000","
                  <p style=""text-align: center;"">₪79
                                                <br>65%</p>
                  <p id=""wtp"" style=""text-align:center; margin-top: 0px; margin-bottom: 0px; font-size: 40px"";>&ensp;</p>","-","viewing","0","31","8A","","","","","","","","","","","","","","","","","","",""
"","","","","","html-slider-response","89","203573","0.0-17.0-1.24","eee6843a-0aed-46f2-8001-2a382bf702b6","1792","
                  <p style=""text-align: center;"">₪79
                                                <br>65%</p>
                  <p id=""wtp"" style=""text-align:center; margin-top: 0px; margin-bottom: 0px; font-size: 40px"";>מוכנים לשלם: <span id=""c_p_y""></span></p>","22","evaluation","14","31","8A","65","79","22","","","","","","","","","","","","","","","",""
"","","","","","html-keyboard-response","90","204282","0.0-17.0-2.24","eee6843a-0aed-46f2-8001-2a382bf702b6","null","<p style=""text-align: center;"">+</p>","null","fixation","","","","","","","","","","","","","","","","","","","","","",""
"","","","","","html-slider-response","91","205285","0.0-17.0-0.25","eee6843a-0aed-46f2-8001-2a382bf702b6","1000","
                  <p style=""text-align: center;"">₪36
                                                <br>60%</p>
                  <p id=""wtp"" style=""text-align:center; margin-top: 0px; margin-bottom: 0px; font-size: 40px"";>&ensp;</p>","-","viewing","0","12","1C,7C,15C","","","","","","","","","","","","","","","","","","",""
"","","","","","html-slider-response","92","207389","0.0-17.0-1.25","eee6843a-0aed-46f2-8001-2a382bf702b6","2103","
                  <p style=""text-align: center;"">₪36
                                                <br>60%</p>
                  <p id=""wtp"" style=""text-align:center; margin-top: 0px; margin-bottom: 0px; font-size: 40px"";>מוכנים לשלם: <span id=""c_p_y""></span></p>","5","evaluation","4","12","1C,7C,15C","60","36","6","","","","","","","","","","","","","","","",""
"","","","","","html-keyboard-response","93","208384","0.0-17.0-2.25","eee6843a-0aed-46f2-8001-2a382bf702b6","null","<p style=""text-align: center;"">+</p>","null","fixation","","","","","","","","","","","","","","","","","","","","","",""
"","","","","","html-slider-response","94","209385","0.0-17.0-0.26","eee6843a-0aed-46f2-8001-2a382bf702b6","1000","
                  <p style=""text-align: center;"">₪4
                                                <br>75%</p>
                  <p id=""wtp"" style=""text-align:center; margin-top: 0px; margin-bottom: 0px; font-size: 40px"";>&ensp;</p>","-","viewing","0","3","12B,20B,23B,27C,29C","","","","","","","","","","","","","","","","","","",""
"","","","","","html-slider-response","95","210749","0.0-17.0-1.26","eee6843a-0aed-46f2-8001-2a382bf702b6","1363","
                  <p style=""text-align: center;"">₪4
                                                <br>75%</p>
                  <p id=""wtp"" style=""text-align:center; margin-top: 0px; margin-bottom: 0px; font-size: 40px"";>מוכנים לשלם: <span id=""c_p_y""></span></p>","0","evaluation","55","3","12B,20B,23B,27C,29C","75","4","0","","","","","","","","","","","","","","","",""
"","","","","","html-keyboard-response","96","211870","0.0-17.0-2.26","eee6843a-0aed-46f2-8001-2a382bf702b6","null","<p style=""text-align: center;"">+</p>","null","fixation","","","","","","","","","","","","","","","","","","","","","",""
"","","","","","html-slider-response","97","212872","0.0-17.0-0.27","eee6843a-0aed-46f2-8001-2a382bf702b6","1000","
                  <p style=""text-align: center;"">₪16
                                                <br>20%</p>
                  <p id=""wtp"" style=""text-align:center; margin-top: 0px; margin-bottom: 0px; font-size: 40px"";>&ensp;</p>","-","viewing","0","8","14C,17A,20C,27A","","","","","","","","","","","","","","","","","","",""
"","","","","","html-slider-response","98","214597","0.0-17.0-1.27","eee6843a-0aed-46f2-8001-2a382bf702b6","1724","
                  <p style=""text-align: center;"">₪16
                                                <br>20%</p>
                  <p id=""wtp"" style=""text-align:center; margin-top: 0px; margin-bottom: 0px; font-size: 40px"";>מוכנים לשלם: <span id=""c_p_y""></span></p>","1","evaluation","69","8","14C,17A,20C,27A","20","16","1","","","","","","","","","","","","","","","",""
"","","","","","html-keyboard-response","99","215614","0.0-17.0-2.27","eee6843a-0aed-46f2-8001-2a382bf702b6","null","<p style=""text-align: center;"">+</p>","null","fixation","","","","","","","","","","","","","","","","","","","","","",""
"","","","","","html-slider-response","100","216618","0.0-17.0-0.28","eee6843a-0aed-46f2-8001-2a382bf702b6","1000","
                  <p style=""text-align: center;"">₪64
                                                <br>25%</p>
                  <p id=""wtp"" style=""text-align:center; margin-top: 0px; margin-bottom: 0px; font-size: 40px"";>&ensp;</p>","-","viewing","0","24","6A,21A","","","","","","","","","","","","","","","","","","",""
"","","","","","html-slider-response","101","219597","0.0-17.0-1.28","eee6843a-0aed-46f2-8001-2a382bf702b6","2977","
                  <p style=""text-align: center;"">₪64
                                                <br>25%</p>
                  <p id=""wtp"" style=""text-align:center; margin-top: 0px; margin-bottom: 0px; font-size: 40px"";>מוכנים לשלם: <span id=""c_p_y""></span></p>","5","evaluation","63","24","6A,21A","25","64","6","","","","","","","","","","","","","","","",""
"","","","","","html-keyboard-response","102","220372","0.0-17.0-2.28","eee6843a-0aed-46f2-8001-2a382bf702b6","null","<p style=""text-align: center;"">+</p>","null","fixation","","","","","","","","","","","","","","","","","","","","","",""
"","","","","","html-slider-response","103","221379","0.0-17.0-0.29","eee6843a-0aed-46f2-8001-2a382bf702b6","1000","
                  <p style=""text-align: center;"">₪11
                                                <br>45%</p>
                  <p id=""wtp"" style=""text-align:center; margin-top: 0px; margin-bottom: 0px; font-size: 40px"";>&ensp;</p>","-","viewing","0","6","14B,21C,25C","","","","","","","","","","","","","","","","","","",""
"","","","","","html-slider-response","104","223221","0.0-17.0-1.29","eee6843a-0aed-46f2-8001-2a382bf702b6","1841","
                  <p style=""text-align: center;"">₪11
                                                <br>45%</p>
                  <p id=""wtp"" style=""text-align:center; margin-top: 0px; margin-bottom: 0px; font-size: 40px"";>מוכנים לשלם: <span id=""c_p_y""></span></p>","2","evaluation","59","6","14B,21C,25C","45","11","2","","","","","","","","","","","","","","","",""
"","","","","","html-keyboard-response","105","224215","0.0-17.0-2.29","eee6843a-0aed-46f2-8001-2a382bf702b6","null","<p style=""text-align: center;"">+</p>","null","fixation","","","","","","","","","","","","","","","","","","","","","",""
"","","","","","html-slider-response","106","225219","0.0-17.0-0.30","eee6843a-0aed-46f2-8001-2a382bf702b6","1000","
                  <p style=""text-align: center;"">₪18
                                                <br>50%</p>
                  <p id=""wtp"" style=""text-align:center; margin-top: 0px; margin-bottom: 0px; font-size: 40px"";>&ensp;</p>","-","viewing","0","10","2C,16C,22B,28A","","","","","","","","","","","","","","","","","","",""
"","","","","","html-slider-response","107","227357","0.0-17.0-1.30","eee6843a-0aed-46f2-8001-2a382bf702b6","2137","
                  <p style=""text-align: center;"">₪18
                                                <br>50%</p>
                  <p id=""wtp"" style=""text-align:center; margin-top: 0px; margin-bottom: 0px; font-size: 40px"";>מוכנים לשלם: <span id=""c_p_y""></span></p>","3","evaluation","69","10","2C,16C,22B,28A","50","18","3","","","","","","","","","","","","","","","",""
"","","","","","html-keyboard-response","108","228804","0.0-17.0-2.30","eee6843a-0aed-46f2-8001-2a382bf702b6","null","<p style=""text-align: center;"">+</p>","null","fixation","","","","","","","","","","","","","","","","","","","","","",""
"","","","","","html-keyboard-response","109","229820","0.0-18.0","eee6843a-0aed-46f2-8001-2a382bf702b6","null","<p style=""text-align: center;"">+</p>","null","fixation","","","","","","","","","","","","","","","","","","","","","",""
"","","","","","html-keyboard-response","110","232237","0.0-19.0","eee6843a-0aed-46f2-8001-2a382bf702b6","null","<p>הפסקה.
          <br>לחצו כדי להמשיך.</p>","1","scan_wait","","","","","","","","","","","","","","","","","","","","","",""
"","","","","","html-keyboard-response","111","233247","0.0-20.0","eee6843a-0aed-46f2-8001-2a382bf702b6","null","<p style=""text-align: center;"">+</p>","null","fixation","","","","","","","","","","","","","","","","","","","","","",""
"","","","","","html-slider-response","112","234247","0.0-21.0-0.0","eee6843a-0aed-46f2-8001-2a382bf702b6","1000","
                  <p style=""text-align: center;"">₪18
                                                <br>50%</p>
                  <p id=""wtp"" style=""text-align:center; margin-top: 0px; margin-bottom: 0px; font-size: 40px"";>&ensp;</p>","-","viewing","0","10","2C,16C,22B,28A","","","","","","","","","","","","","","","","","","",""
"","","","","","html-slider-response","113","236301","0.0-21.0-1.0","eee6843a-0aed-46f2-8001-2a382bf702b6","2053","
                  <p style=""text-align: center;"">₪18
                                                <br>50%</p>
                  <p id=""wtp"" style=""text-align:center; margin-top: 0px; margin-bottom: 0px; font-size: 40px"";>מוכנים לשלם: <span id=""c_p_y""></span></p>","3","evaluation","63","10","2C,16C,22B,28A","50","18","3","","","","","","","","","","","","","","","",""
"","","","","","html-keyboard-response","114","236991","0.0-21.0-2.0","eee6843a-0aed-46f2-8001-2a382bf702b6","null","<p style=""text-align: center;"">+</p>","null","fixation","","","","","","","","","","","","","","","","","","","","","",""
"","","","","","html-slider-response","115","237998","0.0-21.0-0.1","eee6843a-0aed-46f2-8001-2a382bf702b6","1000","
                  <p style=""text-align: center;"">₪64
                                                <br>25%</p>
                  <p id=""wtp"" style=""text-align:center; margin-top: 0px; margin-bottom: 0px; font-size: 40px"";>&ensp;</p>","-","viewing","0","24","6A,21A","","","","","","","","","","","","","","","","","","",""
"","","","","","html-slider-response","116","240525","0.0-21.0-1.1","eee6843a-0aed-46f2-8001-2a382bf702b6","2525","
                  <p style=""text-align: center;"">₪64
                                                <br>25%</p>
                  <p id=""wtp"" style=""text-align:center; margin-top: 0px; margin-bottom: 0px; font-size: 40px"";>מוכנים לשלם: <span id=""c_p_y""></span></p>","7","evaluation","1","24","6A,21A","25","64","7","","","","","","","","","","","","","","","",""
"","","","","","html-keyboard-response","117","241154","0.0-21.0-2.1","eee6843a-0aed-46f2-8001-2a382bf702b6","null","<p style=""text-align: center;"">+</p>","null","fixation","","","","","","","","","","","","","","","","","","","","","",""
"","","","","","html-slider-response","118","242155","0.0-21.0-0.2","eee6843a-0aed-46f2-8001-2a382bf702b6","1000","
                  <p style=""text-align: center;"">₪43
                                                <br>75%</p>
                  <p id=""wtp"" style=""text-align:center; margin-top: 0px; margin-bottom: 0px; font-size: 40px"";>&ensp;</p>","-","viewing","0","18","11B,19B,24A,26A","","","","","","","","","","","","","","","","","","",""
"","","","","","html-slider-response","119","244397","0.0-21.0-1.2","eee6843a-0aed-46f2-8001-2a382bf702b6","2240","
                  <p style=""text-align: center;"">₪43
                                                <br>75%</p>
                  <p id=""wtp"" style=""text-align:center; margin-top: 0px; margin-bottom: 0px; font-size: 40px"";>מוכנים לשלם: <span id=""c_p_y""></span></p>","12","evaluation","5","18","11B,19B,24A,26A","75","43","12","","","","","","","","","","","","","","","",""
"","","","","","html-keyboard-response","120","245102","0.0-21.0-2.2","eee6843a-0aed-46f2-8001-2a382bf702b6","null","<p style=""text-align: center;"">+</p>","null","fixation","","","","","","","","","","","","","","","","","","","","","",""
"","","","","","html-slider-response","121","246112","0.0-21.0-0.3","eee6843a-0aed-46f2-8001-2a382bf702b6","1000","
                  <p style=""text-align: center;"">₪71
                                                <br>75%</p>
                  <p id=""wtp"" style=""text-align:center; margin-top: 0px; margin-bottom: 0px; font-size: 40px"";>&ensp;</p>","-","viewing","0","28","8B","","","","","","","","","","","","","","","","","","",""
"","","","","","html-slider-response","122","247789","0.0-21.0-1.3","eee6843a-0aed-46f2-8001-2a382bf702b6","1676","
                  <p style=""text-align: center;"">₪71
                                                <br>75%</p>
                  <p id=""wtp"" style=""text-align:center; margin-top: 0px; margin-bottom: 0px; font-size: 40px"";>מוכנים לשלם: <span id=""c_p_y""></span></p>","23","evaluation","20","28","8B","75","71","23","","","","","","","","","","","","","","","",""
"","","","","","html-keyboard-response","123","248429","0.0-21.0-2.3","eee6843a-0aed-46f2-8001-2a382bf702b6","null","<p style=""text-align: center;"">+</p>","null","fixation","","","","","","","","","","","","","","","","","","","","","",""
"","","","","","html-slider-response","124","249442","0.0-21.0-0.4","eee6843a-0aed-46f2-8001-2a382bf702b6","1000","
                  <p style=""text-align: center;"">₪61
                                                <br>55%</p>
                  <p id=""wtp"" style=""text-align:center; margin-top: 0px; margin-bottom: 0px; font-size: 40px"";>&ensp;</p>","-","viewing","0","23","7B,26B","","","","","","","","","","","","","","","","","","",""
"","","","","","html-slider-response","125","252981","0.0-21.0-1.4","eee6843a-0aed-46f2-8001-2a382bf702b6","3537","
                  <p style=""text-align: center;"">₪61
                                                <br>55%</p>
                  <p id=""wtp"" style=""text-align:center; margin-top: 0px; margin-bottom: 0px; font-size: 40px"";>מוכנים לשלם: <span id=""c_p_y""></span></p>","15","evaluation","52","23","7B,26B","55","61","15","","","","","","","","","","","","","","","",""
"","","","","","html-keyboard-response","126","253510","0.0-21.0-2.4","eee6843a-0aed-46f2-8001-2a382bf702b6","null","<p style=""text-align: center;"">+</p>","null","fixation","","","","","","","","","","","","","","","","","","","","","",""
"","","","","","html-slider-response","127","254516","0.0-21.0-0.5","eee6843a-0aed-46f2-8001-2a382bf702b6","1000","
                  <p style=""text-align: center;"">₪36
                                                <br>60%</p>
                  <p id=""wtp"" style=""text-align:center; margin-top: 0px; margin-bottom: 0px; font-size: 40px"";>&ensp;</p>","-","viewing","0","12","1C,7C,15C","","","","","","","","","","","","","","","","","","",""
"","","","","","html-slider-response","128","257517","0.0-21.0-1.5","eee6843a-0aed-46f2-8001-2a382bf702b6","3000","
                  <p style=""text-align: center;"">₪36
                                                <br>60%</p>
                  <p id=""wtp"" style=""text-align:center; margin-top: 0px; margin-bottom: 0px; font-size: 40px"";>מוכנים לשלם: <span id=""c_p_y""></span></p>","6","evaluation","3","12","1C,7C,15C","60","36","7","","","","","","","","","","","","","","","",""
"","","","","","html-keyboard-response","129","258628","0.0-21.0-2.5","eee6843a-0aed-46f2-8001-2a382bf702b6","null","<p style=""text-align: center;"">+</p>","null","fixation","","","","","","","","","","","","","","","","","","","","","",""
"","","","","","html-slider-response","130","259645","0.0-21.0-0.6","eee6843a-0aed-46f2-8001-2a382bf702b6","1000","
                  <p style=""text-align: center;"">₪18
                                                <br>25%</p>
                  <p id=""wtp"" style=""text-align:center; margin-top: 0px; margin-bottom: 0px; font-size: 40px"";>&ensp;</p>","-","viewing","0","9","14A,23A","","","","","","","","","","","","","","","","","","",""
"","","","","","html-slider-response","131","263621","0.0-21.0-1.6","eee6843a-0aed-46f2-8001-2a382bf702b6","3975","
                  <p style=""text-align: center;"">₪18
                                                <br>25%</p>
                  <p id=""wtp"" style=""text-align:center; margin-top: 0px; margin-bottom: 0px; font-size: 40px"";>מוכנים לשלם: <span id=""c_p_y""></span></p>","1","evaluation","2","9","14A,23A","25","18","2","","","","","","","","","","","","","","","",""
"","","","","","html-keyboard-response","132","264255","0.0-21.0-2.6","eee6843a-0aed-46f2-8001-2a382bf702b6","null","<p style=""text-align: center;"">+</p>","null","fixation","","","","","","","","","","","","","","","","","","","","","",""
"","","","","","html-slider-response","133","265264","0.0-21.0-0.7","eee6843a-0aed-46f2-8001-2a382bf702b6","1000","
                  <p style=""text-align: center;"">₪4
                                                <br>75%</p>
                  <p id=""wtp"" style=""text-align:center; margin-top: 0px; margin-bottom: 0px; font-size: 40px"";>&ensp;</p>","-","viewing","0","3","12B,20B,23B,27C,29C","","","","","","","","","","","","","","","","","","",""
"","","","","","html-slider-response","134","267581","0.0-21.0-1.7","eee6843a-0aed-46f2-8001-2a382bf702b6","2315","
                  <p style=""text-align: center;"">₪4
                                                <br>75%</p>
                  <p id=""wtp"" style=""text-align:center; margin-top: 0px; margin-bottom: 0px; font-size: 40px"";>מוכנים לשלם: <span id=""c_p_y""></span></p>","1","evaluation","38","3","12B,20B,23B,27C,29C","75","4","1","","","","","","","","","","","","","","","",""
"","","","","","html-keyboard-response","135","268865","0.0-21.0-2.7","eee6843a-0aed-46f2-8001-2a382bf702b6","null","<p style=""text-align: center;"">+</p>","null","fixation","","","","","","","","","","","","","","","","","","","","","",""
"","","","","","html-slider-response","136","269882","0.0-21.0-0.8","eee6843a-0aed-46f2-8001-2a382bf702b6","1000","
                  <p style=""text-align: center;"">₪36
                                                <br>30%</p>
                  <p id=""wtp"" style=""text-align:center; margin-top: 0px; margin-bottom: 0px; font-size: 40px"";>&ensp;</p>","-","viewing","0","11","3C,20A,22A","","","","","","","","","","","","","","","","","","",""
"","","","","","html-slider-response","137","272869","0.0-21.0-1.8","eee6843a-0aed-46f2-8001-2a382bf702b6","2986","
                  <p style=""text-align: center;"">₪36
                                                <br>30%</p>
                  <p id=""wtp"" style=""text-align:center; margin-top: 0px; margin-bottom: 0px; font-size: 40px"";>מוכנים לשלם: <span id=""c_p_y""></span></p>","3","evaluation","25","11","3C,20A,22A","30","36","3","","","","","","","","","","","","","","","",""
"","","","","","html-keyboard-response","138","273888","0.0-21.0-2.8","eee6843a-0aed-46f2-8001-2a382bf702b6","null","<p style=""text-align: center;"">+</p>","null","fixation","","","","","","","","","","","","","","","","","","","","","",""
"","","","","","html-slider-response","139","274902","0.0-21.0-0.9","eee6843a-0aed-46f2-8001-2a382bf702b6","1000","
                  <p style=""text-align: center;"">₪71
                                                <br>55%</p>
                  <p id=""wtp"" style=""text-align:center; margin-top: 0px; margin-bottom: 0px; font-size: 40px"";>&ensp;</p>","-","viewing","0","27","5B,18A","","","","","","","","","","","","","","","","","","",""
"","","","","","html-slider-response","140","277421","0.0-21.0-1.9","eee6843a-0aed-46f2-8001-2a382bf702b6","2517","
                  <p style=""text-align: center;"">₪71
                                                <br>55%</p>
                  <p id=""wtp"" style=""text-align:center; margin-top: 0px; margin-bottom: 0px; font-size: 40px"";>מוכנים לשלם: <span id=""c_p_y""></span></p>","22","evaluation","69","27","5B,18A","55","71","22","","","","","","","","","","","","","","","",""
"","","","","","html-keyboard-response","141","278564","0.0-21.0-2.9","eee6843a-0aed-46f2-8001-2a382bf702b6","null","<p style=""text-align: center;"">+</p>","null","fixation","","","","","","","","","","","","","","","","","","","","","",""
"","","","","","html-slider-response","142","279570","0.0-21.0-0.10","eee6843a-0aed-46f2-8001-2a382bf702b6","1000","
                  <p style=""text-align: center;"">₪11
                                                <br>45%</p>
                  <p id=""wtp"" style=""text-align:center; margin-top: 0px; margin-bottom: 0px; font-size: 40px"";>&ensp;</p>","-","viewing","0","6","14B,21C,25C","","","","","","","","","","","","","","","","","","",""
"","","","","","html-slider-response","143","280501","0.0-21.0-1.10","eee6843a-0aed-46f2-8001-2a382bf702b6","930","
                  <p style=""text-align: center;"">₪11
                                                <br>45%</p>
                  <p id=""wtp"" style=""text-align:center; margin-top: 0px; margin-bottom: 0px; font-size: 40px"";>מוכנים לשלם: <span id=""c_p_y""></span></p>","1","evaluation","52","6","14B,21C,25C","45","11","1","","","","","","","","","","","","","","","",""
"","","","","","html-keyboard-response","144","281490","0.0-21.0-2.10","eee6843a-0aed-46f2-8001-2a382bf702b6","null","<p style=""text-align: center;"">+</p>","null","fixation","","","","","","","","","","","","","","","","","","","","","",""
"","","","","","html-slider-response","145","282493","0.0-21.0-0.11","eee6843a-0aed-46f2-8001-2a382bf702b6","1000","
                  <p style=""text-align: center;"">₪36
                                                <br>75%</p>
                  <p id=""wtp"" style=""text-align:center; margin-top: 0px; margin-bottom: 0px; font-size: 40px"";>&ensp;</p>","-","viewing","0","14","4B,5A,13B,16B","","","","","","","","","","","","","","","","","","",""
"","","","","","html-slider-response","146","285117","0.0-21.0-1.11","eee6843a-0aed-46f2-8001-2a382bf702b6","2623","
                  <p style=""text-align: center;"">₪36
                                                <br>75%</p>
                  <p id=""wtp"" style=""text-align:center; margin-top: 0px; margin-bottom: 0px; font-size: 40px"";>מוכנים לשלם: <span id=""c_p_y""></span></p>","7","evaluation","78","14","4B,5A,13B,16B","75","36","7","","","","","","","","","","","","","","","",""
"","","","","","html-keyboard-response","147","285860","0.0-21.0-2.11","eee6843a-0aed-46f2-8001-2a382bf702b6","null","<p style=""text-align: center;"">+</p>","null","fixation","","","","","","","","","","","","","","","","","","","","","",""
"","","","","","html-slider-response","148","286864","0.0-21.0-0.12","eee6843a-0aed-46f2-8001-2a382bf702b6","1000","
                  <p style=""text-align: center;"">₪11
                                                <br>20%</p>
                  <p id=""wtp"" style=""text-align:center; margin-top: 0px; margin-bottom: 0px; font-size: 40px"";>&ensp;</p>","-","viewing","0","4","12C,17C,23C,28C","","","","","","","","","","","","","","","","","","",""
"","","","","","html-slider-response","149","288021","0.0-21.0-1.12","eee6843a-0aed-46f2-8001-2a382bf702b6","1156","
                  <p style=""text-align: center;"">₪11
                                                <br>20%</p>
                  <p id=""wtp"" style=""text-align:center; margin-top: 0px; margin-bottom: 0px; font-size: 40px"";>מוכנים לשלם: <span id=""c_p_y""></span></p>","0","evaluation","32","4","12C,17C,23C,28C","20","11","1","","","","","","","","","","","","","","","",""
"","","","","","html-keyboard-response","150","288698","0.0-21.0-2.12","eee6843a-0aed-46f2-8001-2a382bf702b6","null","<p style=""text-align: center;"">+</p>","null","fixation","","","","","","","","","","","","","","","","","","","","","",""
"","","","","","html-slider-response","151","289704","0.0-21.0-0.13","eee6843a-0aed-46f2-8001-2a382bf702b6","1000","
                  <p style=""text-align: center;"">₪43
                                                <br>60%</p>
                  <p id=""wtp"" style=""text-align:center; margin-top: 0px; margin-bottom: 0px; font-size: 40px"";>&ensp;</p>","-","viewing","0","17","2A,7A,9A,15B","","","","","","","","","","","","","","","","","","",""
"","","","","","html-slider-response","152","292053","0.0-21.0-1.13","eee6843a-0aed-46f2-8001-2a382bf702b6","2348","
                  <p style=""text-align: center;"">₪43
                                                <br>60%</p>
                  <p id=""wtp"" style=""text-align:center; margin-top: 0px; margin-bottom: 0px; font-size: 40px"";>מוכנים לשלם: <span id=""c_p_y""></span></p>","12","evaluation","80","17","2A,7A,9A,15B","60","43","12","","","","","","","","","","","","","","","",""
"","","","","","html-keyboard-response","153","293516","0.0-21.0-2.13","eee6843a-0aed-46f2-8001-2a382bf702b6","null","<p style=""text-align: center;"">+</p>","null","fixation","","","","","","","","","","","","","","","","","","","","","",""
"","","","","","html-slider-response","154","294518","0.0-21.0-0.14","eee6843a-0aed-46f2-8001-2a382bf702b6","1000","
                  <p style=""text-align: center;"">₪64
                                                <br>50%</p>
                  <p id=""wtp"" style=""text-align:center; margin-top: 0px; margin-bottom: 0px; font-size: 40px"";>&ensp;</p>","-","viewing","0","25","1B,3B,4A","","","","","","","","","","","","","","","","","","",""
"","","","","","html-slider-response","155","298531","0.0-21.0-1.14","eee6843a-0aed-46f2-8001-2a382bf702b6","null","
                  <p style=""text-align: center;"">₪64
                                                <br>50%</p>
                  <p id=""wtp"" style=""text-align:center; margin-top: 0px; margin-bottom: 0px; font-size: 40px"";>מוכנים לשלם: <span id=""c_p_y""></span></p>","null","evaluation","61","25","1B,3B,4A","50","64","18","","","","","","","","","","","","","","","",""
"","","","","","html-keyboard-response","156","299072","0.0-21.0-2.14","eee6843a-0aed-46f2-8001-2a382bf702b6","null","<p style=""text-align: center;"">+</p>","null","fixation","","","","","","","","","","","","","","","","","","","","","",""
"","","","","","html-slider-response","157","300081","0.0-21.0-0.15","eee6843a-0aed-46f2-8001-2a382bf702b6","1000","
                  <p style=""text-align: center;"">₪79
                                                <br>65%</p>
                  <p id=""wtp"" style=""text-align:center; margin-top: 0px; margin-bottom: 0px; font-size: 40px"";>&ensp;</p>","-","viewing","0","31","8A","","","","","","","","","","","","","","","","","","",""
"","","","","","html-slider-response","158","302781","0.0-21.0-1.15","eee6843a-0aed-46f2-8001-2a382bf702b6","2699","
                  <p style=""text-align: center;"">₪79
                                                <br>65%</p>
                  <p id=""wtp"" style=""text-align:center; margin-top: 0px; margin-bottom: 0px; font-size: 40px"";>מוכנים לשלם: <span id=""c_p_y""></span></p>","25","evaluation","63","31","8A","65","79","25","","","","","","","","","","","","","","","",""
"","","","","","html-keyboard-response","159","304019","0.0-21.0-2.15","eee6843a-0aed-46f2-8001-2a382bf702b6","null","<p style=""text-align: center;"">+</p>","null","fixation","","","","","","","","","","","","","","","","","","","","","",""
"","","","","","html-slider-response","160","305022","0.0-21.0-0.16","eee6843a-0aed-46f2-8001-2a382bf702b6","1000","
                  <p style=""text-align: center;"">₪61
                                                <br>45%</p>
                  <p id=""wtp"" style=""text-align:center; margin-top: 0px; margin-bottom: 0px; font-size: 40px"";>&ensp;</p>","-","viewing","0","22","10A,11A","","","","","","","","","","","","","","","","","","",""
"","","","","","html-slider-response","161","307317","0.0-21.0-1.16","eee6843a-0aed-46f2-8001-2a382bf702b6","2294","
                  <p style=""text-align: center;"">₪61
                                                <br>45%</p>
                  <p id=""wtp"" style=""text-align:center; margin-top: 0px; margin-bottom: 0px; font-size: 40px"";>מוכנים לשלם: <span id=""c_p_y""></span></p>","15","evaluation","47","22","10A,11A","45","61","15","","","","","","","","","","","","","","","",""
"","","","","","html-keyboard-response","162","307925","0.0-21.0-2.16","eee6843a-0aed-46f2-8001-2a382bf702b6","null","<p style=""text-align: center;"">+</p>","null","fixation","","","","","","","","","","","","","","","","","","","","","",""
"","","","","","html-slider-response","163","308932","0.0-21.0-0.17","eee6843a-0aed-46f2-8001-2a382bf702b6","1000","
                  <p style=""text-align: center;"">₪71
                                                <br>45%</p>
                  <p id=""wtp"" style=""text-align:center; margin-top: 0px; margin-bottom: 0px; font-size: 40px"";>&ensp;</p>","-","viewing","0","26","2B,16A","","","","","","","","","","","","","","","","","","",""
"","","","","","html-slider-response","164","312261","0.0-21.0-1.17","eee6843a-0aed-46f2-8001-2a382bf702b6","3327","
                  <p style=""text-align: center;"">₪71
                                                <br>45%</p>
                  <p id=""wtp"" style=""text-align:center; margin-top: 0px; margin-bottom: 0px; font-size: 40px"";>מוכנים לשלם: <span id=""c_p_y""></span></p>","17","evaluation","12","26","2B,16A","45","71","17","","","","","","","","","","","","","","","",""
"","","","","","html-keyboard-response","165","312929","0.0-21.0-2.17","eee6843a-0aed-46f2-8001-2a382bf702b6","null","<p style=""text-align: center;"">+</p>","null","fixation","","","","","","","","","","","","","","","","","","","","","",""
"","","","","","html-slider-response","166","313934","0.0-21.0-0.18","eee6843a-0aed-46f2-8001-2a382bf702b6","1000","
                  <p style=""text-align: center;"">₪39
                                                <br>65%</p>
                  <p id=""wtp"" style=""text-align:center; margin-top: 0px; margin-bottom: 0px; font-size: 40px"";>&ensp;</p>","-","viewing","0","16","1A,15A,26C","","","","","","","","","","","","","","","","","","",""
"","","","","","html-slider-response","167","317936","0.0-21.0-1.18","eee6843a-0aed-46f2-8001-2a382bf702b6","null","
                  <p style=""text-align: center;"">₪39
                                                <br>65%</p>
                  <p id=""wtp"" style=""text-align:center; margin-top: 0px; margin-bottom: 0px; font-size: 40px"";>מוכנים לשלם: <span id=""c_p_y""></span></p>","null","evaluation","0","16","1A,15A,26C","65","39","16","","","","","","","","","","","","","","","",""
"","","","","","html-keyboard-response","168","318657","0.0-21.0-2.18","eee6843a-0aed-46f2-8001-2a382bf702b6","null","<p style=""text-align: center;"">+</p>","null","fixation","","","","","","","","","","","","","","","","","","","","","",""
"","","","","","html-slider-response","169","319662","0.0-21.0-0.19","eee6843a-0aed-46f2-8001-2a382bf702b6","1000","
                  <p style=""text-align: center;"">₪58
                                                <br>40%</p>
                  <p id=""wtp"" style=""text-align:center; margin-top: 0px; margin-bottom: 0px; font-size: 40px"";>&ensp;</p>","-","viewing","0","20","10C,13A,19C,21B","","","","","","","","","","","","","","","","","","",""
"","","","","","html-slider-response","170","321533","0.0-21.0-1.19","eee6843a-0aed-46f2-8001-2a382bf702b6","1870","
                  <p style=""text-align: center;"">₪58
                                                <br>40%</p>
                  <p id=""wtp"" style=""text-align:center; margin-top: 0px; margin-bottom: 0px; font-size: 40px"";>מוכנים לשלם: <span id=""c_p_y""></span></p>","11","evaluation","10","20","10C,13A,19C,21B","40","58","11","","","","","","","","","","","","","","","",""
"","","","","","html-keyboard-response","171","322111","0.0-21.0-2.19","eee6843a-0aed-46f2-8001-2a382bf702b6","null","<p style=""text-align: center;"">+</p>","null","fixation","","","","","","","","","","","","","","","","","","","","","",""
"","","","","","html-slider-response","172","323113","0.0-21.0-0.20","eee6843a-0aed-46f2-8001-2a382bf702b6","1000","
                  <p style=""text-align: center;"">₪16
                                                <br>20%</p>
                  <p id=""wtp"" style=""text-align:center; margin-top: 0px; margin-bottom: 0px; font-size: 40px"";>&ensp;</p>","-","viewing","0","8","14C,17A,20C,27A","","","","","","","","","","","","","","","","","","",""
"","","","","","html-slider-response","173","324813","0.0-21.0-1.20","eee6843a-0aed-46f2-8001-2a382bf702b6","1698","
                  <p style=""text-align: center;"">₪16
                                                <br>20%</p>
                  <p id=""wtp"" style=""text-align:center; margin-top: 0px; margin-bottom: 0px; font-size: 40px"";>מוכנים לשלם: <span id=""c_p_y""></span></p>","4","evaluation","72","8","14C,17A,20C,27A","20","16","4","","","","","","","","","","","","","","","",""
"","","","","","html-keyboard-response","174","325342","0.0-21.0-2.20","eee6843a-0aed-46f2-8001-2a382bf702b6","null","<p style=""text-align: center;"">+</p>","null","fixation","","","","","","","","","","","","","","","","","","","","","",""
"","","","","","html-slider-response","175","326344","0.0-21.0-0.21","eee6843a-0aed-46f2-8001-2a382bf702b6","1000","
                  <p style=""text-align: center;"">₪11
                                                <br>75%</p>
                  <p id=""wtp"" style=""text-align:center; margin-top: 0px; margin-bottom: 0px; font-size: 40px"";>&ensp;</p>","-","viewing","0","7","6B,18B,22C,24C,29A","","","","","","","","","","","","","","","","","","",""
"","","","","","html-slider-response","176","327373","0.0-21.0-1.21","eee6843a-0aed-46f2-8001-2a382bf702b6","1027","
                  <p style=""text-align: center;"">₪11
                                                <br>75%</p>
                  <p id=""wtp"" style=""text-align:center; margin-top: 0px; margin-bottom: 0px; font-size: 40px"";>מוכנים לשלם: <span id=""c_p_y""></span></p>","1","evaluation","42","7","6B,18B,22C,24C,29A","75","11","1","","","","","","","","","","","","","","","",""
"","","","","","html-keyboard-response","177","328319","0.0-21.0-2.21","eee6843a-0aed-46f2-8001-2a382bf702b6","null","<p style=""text-align: center;"">+</p>","null","fixation","","","","","","","","","","","","","","","","","","","","","",""
"","","","","","html-slider-response","178","329322","0.0-21.0-0.22","eee6843a-0aed-46f2-8001-2a382bf702b6","1000","
                  <p style=""text-align: center;"">₪36
                                                <br>70%</p>
                  <p id=""wtp"" style=""text-align:center; margin-top: 0px; margin-bottom: 0px; font-size: 40px"";>&ensp;</p>","-","viewing","0","13","3A,5C,10B","","","","","","","","","","","","","","","","","","",""
"","","","","","html-slider-response","179","331589","0.0-21.0-1.22","eee6843a-0aed-46f2-8001-2a382bf702b6","2266","
                  <p style=""text-align: center;"">₪36
                                                <br>70%</p>
                  <p id=""wtp"" style=""text-align:center; margin-top: 0px; margin-bottom: 0px; font-size: 40px"";>מוכנים לשלם: <span id=""c_p_y""></span></p>","6","evaluation","2","13","3A,5C,10B","70","36","6","","","","","","","","","","","","","","","",""
"","","","","","html-keyboard-response","180","332411","0.0-21.0-2.22","eee6843a-0aed-46f2-8001-2a382bf702b6","null","<p style=""text-align: center;"">+</p>","null","fixation","","","","","","","","","","","","","","","","","","","","","",""
"","","","","","html-slider-response","181","333413","0.0-21.0-0.23","eee6843a-0aed-46f2-8001-2a382bf702b6","1000","
                  <p style=""text-align: center;"">₪76
                                                <br>65%</p>
                  <p id=""wtp"" style=""text-align:center; margin-top: 0px; margin-bottom: 0px; font-size: 40px"";>&ensp;</p>","-","viewing","0","29","8C,19A,24B","","","","","","","","","","","","","","","","","","",""
"","","","","","html-slider-response","182","335253","0.0-21.0-1.23","eee6843a-0aed-46f2-8001-2a382bf702b6","1839","
                  <p style=""text-align: center;"">₪76
                                                <br>65%</p>
                  <p id=""wtp"" style=""text-align:center; margin-top: 0px; margin-bottom: 0px; font-size: 40px"";>מוכנים לשלם: <span id=""c_p_y""></span></p>","22","evaluation","2","29","8C,19A,24B","65","76","22","","","","","","","","","","","","","","","",""
"","","","","","html-keyboard-response","183","335782","0.0-21.0-2.23","eee6843a-0aed-46f2-8001-2a382bf702b6","null","<p style=""text-align: center;"">+</p>","null","fixation","","","","","","","","","","","","","","","","","","","","","",""
"","","","","","html-slider-response","184","336785","0.0-21.0-0.24","eee6843a-0aed-46f2-8001-2a382bf702b6","1000","
                  <p style=""text-align: center;"">₪39
                                                <br>60%</p>
                  <p id=""wtp"" style=""text-align:center; margin-top: 0px; margin-bottom: 0px; font-size: 40px"";>&ensp;</p>","-","viewing","0","15","9C,25B","","","","","","","","","","","","","","","","","","",""
"","","","","","html-slider-response","185","339237","0.0-21.0-1.24","eee6843a-0aed-46f2-8001-2a382bf702b6","2452","
                  <p style=""text-align: center;"">₪39
                                                <br>60%</p>
                  <p id=""wtp"" style=""text-align:center; margin-top: 0px; margin-bottom: 0px; font-size: 40px"";>מוכנים לשלם: <span id=""c_p_y""></span></p>","11","evaluation","25","15","9C,25B","60","39","12","","","","","","","","","","","","","","","",""
"","","","","","html-keyboard-response","186","339834","0.0-21.0-2.24","eee6843a-0aed-46f2-8001-2a382bf702b6","null","<p style=""text-align: center;"">+</p>","null","fixation","","","","","","","","","","","","","","","","","","","","","",""
"","","","","","html-slider-response","187","340837","0.0-21.0-0.25","eee6843a-0aed-46f2-8001-2a382bf702b6","1000","
                  <p style=""text-align: center;"">₪4
                                                <br>25%</p>
                  <p id=""wtp"" style=""text-align:center; margin-top: 0px; margin-bottom: 0px; font-size: 40px"";>&ensp;</p>","-","viewing","0","1","6C,29B,30C","","","","","","","","","","","","","","","","","","",""
"","","","","","html-slider-response","188","341941","0.0-21.0-1.25","eee6843a-0aed-46f2-8001-2a382bf702b6","1103","
                  <p style=""text-align: center;"">₪4
                                                <br>25%</p>
                  <p id=""wtp"" style=""text-align:center; margin-top: 0px; margin-bottom: 0px; font-size: 40px"";>מוכנים לשלם: <span id=""c_p_y""></span></p>","0","evaluation","37","1","6C,29B,30C","25","4","0","","","","","","","","","","","","","","","",""
"","","","","","html-keyboard-response","189","342820","0.0-21.0-2.25","eee6843a-0aed-46f2-8001-2a382bf702b6","null","<p style=""text-align: center;"">+</p>","null","fixation","","","","","","","","","","","","","","","","","","","","","",""
"","","","","","html-slider-response","190","343830","0.0-21.0-0.26","eee6843a-0aed-46f2-8001-2a382bf702b6","1000","
                  <p style=""text-align: center;"">₪79
                                                <br>40%</p>
                  <p id=""wtp"" style=""text-align:center; margin-top: 0px; margin-bottom: 0px; font-size: 40px"";>&ensp;</p>","-","viewing","0","30","9B","","","","","","","","","","","","","","","","","","",""
"","","","","","html-slider-response","191","347044","0.0-21.0-1.26","eee6843a-0aed-46f2-8001-2a382bf702b6","3213","
                  <p style=""text-align: center;"">₪79
                                                <br>40%</p>
                  <p id=""wtp"" style=""text-align:center; margin-top: 0px; margin-bottom: 0px; font-size: 40px"";>מוכנים לשלם: <span id=""c_p_y""></span></p>","18","evaluation","50","30","9B","40","79","18","","","","","","","","","","","","","","","",""
"","","","","","html-keyboard-response","192","347942","0.0-21.0-2.26","eee6843a-0aed-46f2-8001-2a382bf702b6","null","<p style=""text-align: center;"">+</p>","null","fixation","","","","","","","","","","","","","","","","","","","","","",""
"","","","","","html-slider-response","193","348946","0.0-21.0-0.27","eee6843a-0aed-46f2-8001-2a382bf702b6","1000","
                  <p style=""text-align: center;"">₪4
                                                <br>50%</p>
                  <p id=""wtp"" style=""text-align:center; margin-top: 0px; margin-bottom: 0px; font-size: 40px"";>&ensp;</p>","-","viewing","0","2","4C,17B","","","","","","","","","","","","","","","","","","",""
"","","","","","html-slider-response","194","350421","0.0-21.0-1.27","eee6843a-0aed-46f2-8001-2a382bf702b6","1474","
                  <p style=""text-align: center;"">₪4
                                                <br>50%</p>
                  <p id=""wtp"" style=""text-align:center; margin-top: 0px; margin-bottom: 0px; font-size: 40px"";>מוכנים לשלם: <span id=""c_p_y""></span></p>","0","evaluation","9","2","4C,17B","50","4","1","","","","","","","","","","","","","","","",""
"","","","","","html-keyboard-response","195","351365","0.0-21.0-2.27","eee6843a-0aed-46f2-8001-2a382bf702b6","null","<p style=""text-align: center;"">+</p>","null","fixation","","","","","","","","","","","","","","","","","","","","","",""
"","","","","","html-slider-response","196","352371","0.0-21.0-0.28","eee6843a-0aed-46f2-8001-2a382bf702b6","1000","
                  <p style=""text-align: center;"">₪58
                                                <br>45%</p>
                  <p id=""wtp"" style=""text-align:center; margin-top: 0px; margin-bottom: 0px; font-size: 40px"";>&ensp;</p>","-","viewing","0","21","11C,18C,25A","","","","","","","","","","","","","","","","","","",""
"","","","","","html-slider-response","197","354869","0.0-21.0-1.28","eee6843a-0aed-46f2-8001-2a382bf702b6","2496","
                  <p style=""text-align: center;"">₪58
                                                <br>45%</p>
                  <p id=""wtp"" style=""text-align:center; margin-top: 0px; margin-bottom: 0px; font-size: 40px"";>מוכנים לשלם: <span id=""c_p_y""></span></p>","12","evaluation","62","21","11C,18C,25A","45","58","12","","","","","","","","","","","","","","","",""
"","","","","","html-keyboard-response","198","356254","0.0-21.0-2.28","eee6843a-0aed-46f2-8001-2a382bf702b6","null","<p style=""text-align: center;"">+</p>","null","fixation","","","","","","","","","","","","","","","","","","","","","",""
"","","","","","html-slider-response","199","357256","0.0-21.0-0.29","eee6843a-0aed-46f2-8001-2a382bf702b6","1000","
                  <p style=""text-align: center;"">₪58
                                                <br>30%</p>
                  <p id=""wtp"" style=""text-align:center; margin-top: 0px; margin-bottom: 0px; font-size: 40px"";>&ensp;</p>","-","viewing","0","19","13C,30A","","","","","","","","","","","","","","","","","","",""
"","","","","","html-slider-response","200","359493","0.0-21.0-1.29","eee6843a-0aed-46f2-8001-2a382bf702b6","2236","
                  <p style=""text-align: center;"">₪58
                                                <br>30%</p>
                  <p id=""wtp"" style=""text-align:center; margin-top: 0px; margin-bottom: 0px; font-size: 40px"";>מוכנים לשלם: <span id=""c_p_y""></span></p>","10","evaluation","79","19","13C,30A","30","58","10","","","","","","","","","","","","","","","",""
"","","","","","html-keyboard-response","201","360435","0.0-21.0-2.29","eee6843a-0aed-46f2-8001-2a382bf702b6","null","<p style=""text-align: center;"">+</p>","null","fixation","","","","","","","","","","","","","","","","","","","","","",""
"","","","","","html-slider-response","202","361437","0.0-21.0-0.30","eee6843a-0aed-46f2-8001-2a382bf702b6","1000","
                  <p style=""text-align: center;"">₪11
                                                <br>25%</p>
                  <p id=""wtp"" style=""text-align:center; margin-top: 0px; margin-bottom: 0px; font-size: 40px"";>&ensp;</p>","-","viewing","0","5","12A,27B,28B,30B","","","","","","","","","","","","","","","","","","",""
"","","","","","html-slider-response","203","362549","0.0-21.0-1.30","eee6843a-0aed-46f2-8001-2a382bf702b6","1110","
                  <p style=""text-align: center;"">₪11
                                                <br>25%</p>
                  <p id=""wtp"" style=""text-align:center; margin-top: 0px; margin-bottom: 0px; font-size: 40px"";>מוכנים לשלם: <span id=""c_p_y""></span></p>","0","evaluation","49","5","12A,27B,28B,30B","25","11","1","","","","","","","","","","","","","","","",""
"","","","","","html-keyboard-response","204","363327","0.0-21.0-2.30","eee6843a-0aed-46f2-8001-2a382bf702b6","null","<p style=""text-align: center;"">+</p>","null","fixation","","","","","","","","","","","","","","","","","","","","","",""
"","","","","","html-keyboard-response","205","364332","0.0-22.0","eee6843a-0aed-46f2-8001-2a382bf702b6","null","<p style=""text-align: center;"">+</p>","null","fixation","","","","","","","","","","","","","","","","","","","","","",""
"","","","","","html-keyboard-response","206","370765","0.0-23.0","eee6843a-0aed-46f2-8001-2a382bf702b6","null","<p>הפסקה.
          <br>לחצו כדי להמשיך.</p>","1","scan_wait","","","","","","","","","","","","","","","","","","","","","",""
"","","","","","html-keyboard-response","207","371767","0.0-24.0","eee6843a-0aed-46f2-8001-2a382bf702b6","null","<p style=""text-align: center;"">+</p>","null","fixation","","","","","","","","","","","","","","","","","","","","","",""
"","","","","","html-slider-response","208","372769","0.0-25.0-0.0","eee6843a-0aed-46f2-8001-2a382bf702b6","1000","
                  <p style=""text-align: center;"">₪79
                                                <br>40%</p>
                  <p id=""wtp"" style=""text-align:center; margin-top: 0px; margin-bottom: 0px; font-size: 40px"";>&ensp;</p>","-","viewing","0","30","9B","","","","","","","","","","","","","","","","","","",""
"","","","","","html-slider-response","209","375285","0.0-25.0-1.0","eee6843a-0aed-46f2-8001-2a382bf702b6","2515","
                  <p style=""text-align: center;"">₪79
                                                <br>40%</p>
                  <p id=""wtp"" style=""text-align:center; margin-top: 0px; margin-bottom: 0px; font-size: 40px"";>מוכנים לשלם: <span id=""c_p_y""></span></p>","15","evaluation","32","30","9B","40","79","15","","","","","","","","","","","","","","","",""
"","","","","","html-keyboard-response","210","376261","0.0-25.0-2.0","eee6843a-0aed-46f2-8001-2a382bf702b6","null","<p style=""text-align: center;"">+</p>","null","fixation","","","","","","","","","","","","","","","","","","","","","",""
"","","","","","html-slider-response","211","377263","0.0-25.0-0.1","eee6843a-0aed-46f2-8001-2a382bf702b6","1000","
                  <p style=""text-align: center;"">₪4
                                                <br>50%</p>
                  <p id=""wtp"" style=""text-align:center; margin-top: 0px; margin-bottom: 0px; font-size: 40px"";>&ensp;</p>","-","viewing","0","2","4C,17B","","","","","","","","","","","","","","","","","","",""
"","","","","","html-slider-response","212","378613","0.0-25.0-1.1","eee6843a-0aed-46f2-8001-2a382bf702b6","1349","
                  <p style=""text-align: center;"">₪4
                                                <br>50%</p>
                  <p id=""wtp"" style=""text-align:center; margin-top: 0px; margin-bottom: 0px; font-size: 40px"";>מוכנים לשלם: <span id=""c_p_y""></span></p>","1","evaluation","12","2","4C,17B","50","4","1","","","","","","","","","","","","","","","",""
"","","","","","html-keyboard-response","213","379577","0.0-25.0-2.1","eee6843a-0aed-46f2-8001-2a382bf702b6","null","<p style=""text-align: center;"">+</p>","null","fixation","","","","","","","","","","","","","","","","","","","","","",""
"","","","","","html-slider-response","214","380578","0.0-25.0-0.2","eee6843a-0aed-46f2-8001-2a382bf702b6","1000","
                  <p style=""text-align: center;"">₪4
                                                <br>25%</p>
                  <p id=""wtp"" style=""text-align:center; margin-top: 0px; margin-bottom: 0px; font-size: 40px"";>&ensp;</p>","-","viewing","0","1","6C,29B,30C","","","","","","","","","","","","","","","","","","",""
"","","","","","html-slider-response","215","381189","0.0-25.0-1.2","eee6843a-0aed-46f2-8001-2a382bf702b6","609","
                  <p style=""text-align: center;"">₪4
                                                <br>25%</p>
                  <p id=""wtp"" style=""text-align:center; margin-top: 0px; margin-bottom: 0px; font-size: 40px"";>מוכנים לשלם: <span id=""c_p_y""></span></p>","0","evaluation","4","1","6C,29B,30C","25","4","0","","","","","","","","","","","","","","","",""
"","","","","","html-keyboard-response","216","382226","0.0-25.0-2.2","eee6843a-0aed-46f2-8001-2a382bf702b6","null","<p style=""text-align: center;"">+</p>","null","fixation","","","","","","","","","","","","","","","","","","","","","",""
"","","","","","html-slider-response","217","383228","0.0-25.0-0.3","eee6843a-0aed-46f2-8001-2a382bf702b6","1000","
                  <p style=""text-align: center;"">₪58
                                                <br>30%</p>
                  <p id=""wtp"" style=""text-align:center; margin-top: 0px; margin-bottom: 0px; font-size: 40px"";>&ensp;</p>","-","viewing","0","19","13C,30A","","","","","","","","","","","","","","","","","","",""
"","","","","","html-slider-response","218","385981","0.0-25.0-1.3","eee6843a-0aed-46f2-8001-2a382bf702b6","2752","
                  <p style=""text-align: center;"">₪58
                                                <br>30%</p>
                  <p id=""wtp"" style=""text-align:center; margin-top: 0px; margin-bottom: 0px; font-size: 40px"";>מוכנים לשלם: <span id=""c_p_y""></span></p>","10","evaluation","57","19","13C,30A","30","58","11","","","","","","","","","","","","","","","",""
"","","","","","html-keyboard-response","219","387481","0.0-25.0-2.3","eee6843a-0aed-46f2-8001-2a382bf702b6","null","<p style=""text-align: center;"">+</p>","null","fixation","","","","","","","","","","","","","","","","","","","","","",""
"","","","","","html-slider-response","220","388482","0.0-25.0-0.4","eee6843a-0aed-46f2-8001-2a382bf702b6","1000","
                  <p style=""text-align: center;"">₪18
                                                <br>50%</p>
                  <p id=""wtp"" style=""text-align:center; margin-top: 0px; margin-bottom: 0px; font-size: 40px"";>&ensp;</p>","-","viewing","0","10","2C,16C,22B,28A","","","","","","","","","","","","","","","","","","",""
"","","","","","html-slider-response","221","390949","0.0-25.0-1.4","eee6843a-0aed-46f2-8001-2a382bf702b6","2466","
                  <p style=""text-align: center;"">₪18
                                                <br>50%</p>
                  <p id=""wtp"" style=""text-align:center; margin-top: 0px; margin-bottom: 0px; font-size: 40px"";>מוכנים לשלם: <span id=""c_p_y""></span></p>","5","evaluation","37","10","2C,16C,22B,28A","50","18","5","","","","","","","","","","","","","","","",""
"","","","","","html-keyboard-response","222","392018","0.0-25.0-2.4","eee6843a-0aed-46f2-8001-2a382bf702b6","null","<p style=""text-align: center;"">+</p>","null","fixation","","","","","","","","","","","","","","","","","","","","","",""
"","","","","","html-slider-response","223","393031","0.0-25.0-0.5","eee6843a-0aed-46f2-8001-2a382bf702b6","1000","
                  <p style=""text-align: center;"">₪36
                                                <br>75%</p>
                  <p id=""wtp"" style=""text-align:center; margin-top: 0px; margin-bottom: 0px; font-size: 40px"";>&ensp;</p>","-","viewing","0","14","4B,5A,13B,16B","","","","","","","","","","","","","","","","","","",""
"","","","","","html-slider-response","224","394053","0.0-25.0-1.5","eee6843a-0aed-46f2-8001-2a382bf702b6","1020","
                  <p style=""text-align: center;"">₪36
                                                <br>75%</p>
                  <p id=""wtp"" style=""text-align:center; margin-top: 0px; margin-bottom: 0px; font-size: 40px"";>מוכנים לשלם: <span id=""c_p_y""></span></p>","9","evaluation","32","14","4B,5A,13B,16B","75","36","9","","","","","","","","","","","","","","","",""
"","","","","","html-keyboard-response","225","394648","0.0-25.0-2.5","eee6843a-0aed-46f2-8001-2a382bf702b6","null","<p style=""text-align: center;"">+</p>","null","fixation","","","","","","","","","","","","","","","","","","","","","",""
"","","","","","html-slider-response","226","395660","0.0-25.0-0.6","eee6843a-0aed-46f2-8001-2a382bf702b6","1000","
                  <p style=""text-align: center;"">₪61
                                                <br>45%</p>
                  <p id=""wtp"" style=""text-align:center; margin-top: 0px; margin-bottom: 0px; font-size: 40px"";>&ensp;</p>","-","viewing","0","22","10A,11A","","","","","","","","","","","","","","","","","","",""
"","","","","","html-slider-response","227","397045","0.0-25.0-1.6","eee6843a-0aed-46f2-8001-2a382bf702b6","1384","
                  <p style=""text-align: center;"">₪61
                                                <br>45%</p>
                  <p id=""wtp"" style=""text-align:center; margin-top: 0px; margin-bottom: 0px; font-size: 40px"";>מוכנים לשלם: <span id=""c_p_y""></span></p>","12","evaluation","56","22","10A,11A","45","61","13","","","","","","","","","","","","","","","",""
"","","","","","html-keyboard-response","228","397857","0.0-25.0-2.6","eee6843a-0aed-46f2-8001-2a382bf702b6","null","<p style=""text-align: center;"">+</p>","null","fixation","","","","","","","","","","","","","","","","","","","","","",""
"","","","","","html-slider-response","229","398864","0.0-25.0-0.7","eee6843a-0aed-46f2-8001-2a382bf702b6","1000","
                  <p style=""text-align: center;"">₪76
                                                <br>65%</p>
                  <p id=""wtp"" style=""text-align:center; margin-top: 0px; margin-bottom: 0px; font-size: 40px"";>&ensp;</p>","-","viewing","0","29","8C,19A,24B","","","","","","","","","","","","","","","","","","",""
"","","","","","html-slider-response","230","400509","0.0-25.0-1.7","eee6843a-0aed-46f2-8001-2a382bf702b6","1645","
                  <p style=""text-align: center;"">₪76
                                                <br>65%</p>
                  <p id=""wtp"" style=""text-align:center; margin-top: 0px; margin-bottom: 0px; font-size: 40px"";>מוכנים לשלם: <span id=""c_p_y""></span></p>","20","evaluation","28","29","8C,19A,24B","65","76","20","","","","","","","","","","","","","","","",""
"","","","","","html-keyboard-response","231","401576","0.0-25.0-2.7","eee6843a-0aed-46f2-8001-2a382bf702b6","null","<p style=""text-align: center;"">+</p>","null","fixation","","","","","","","","","","","","","","","","","","","","","",""
"","","","","","html-slider-response","232","402577","0.0-25.0-0.8","eee6843a-0aed-46f2-8001-2a382bf702b6","1000","
                  <p style=""text-align: center;"">₪61
                                                <br>55%</p>
                  <p id=""wtp"" style=""text-align:center; margin-top: 0px; margin-bottom: 0px; font-size: 40px"";>&ensp;</p>","-","viewing","0","23","7B,26B","","","","","","","","","","","","","","","","","","",""
"","","","","","html-slider-response","233","404813","0.0-25.0-1.8","eee6843a-0aed-46f2-8001-2a382bf702b6","2235","
                  <p style=""text-align: center;"">₪61
                                                <br>55%</p>
                  <p id=""wtp"" style=""text-align:center; margin-top: 0px; margin-bottom: 0px; font-size: 40px"";>מוכנים לשלם: <span id=""c_p_y""></span></p>","16","evaluation","2","23","7B,26B","55","61","16","","","","","","","","","","","","","","","",""
"","","","","","html-keyboard-response","234","406178","0.0-25.0-2.8","eee6843a-0aed-46f2-8001-2a382bf702b6","null","<p style=""text-align: center;"">+</p>","null","fixation","","","","","","","","","","","","","","","","","","","","","",""
"","","","","","html-slider-response","235","407183","0.0-25.0-0.9","eee6843a-0aed-46f2-8001-2a382bf702b6","1000","
                  <p style=""text-align: center;"">₪71
                                                <br>55%</p>
                  <p id=""wtp"" style=""text-align:center; margin-top: 0px; margin-bottom: 0px; font-size: 40px"";>&ensp;</p>","-","viewing","0","27","5B,18A","","","","","","","","","","","","","","","","","","",""
"","","","","","html-slider-response","236","408677","0.0-25.0-1.9","eee6843a-0aed-46f2-8001-2a382bf702b6","1493","
                  <p style=""text-align: center;"">₪71
                                                <br>55%</p>
                  <p id=""wtp"" style=""text-align:center; margin-top: 0px; margin-bottom: 0px; font-size: 40px"";>מוכנים לשלם: <span id=""c_p_y""></span></p>","23","evaluation","57","27","5B,18A","55","71","23","","","","","","","","","","","","","","","",""
"","","","","","html-keyboard-response","237","410158","0.0-25.0-2.9","eee6843a-0aed-46f2-8001-2a382bf702b6","null","<p style=""text-align: center;"">+</p>","null","fixation","","","","","","","","","","","","","","","","","","","","","",""
"","","","","","html-slider-response","238","411160","0.0-25.0-0.10","eee6843a-0aed-46f2-8001-2a382bf702b6","1000","
                  <p style=""text-align: center;"">₪16
                                                <br>20%</p>
                  <p id=""wtp"" style=""text-align:center; margin-top: 0px; margin-bottom: 0px; font-size: 40px"";>&ensp;</p>","-","viewing","0","8","14C,17A,20C,27A","","","","","","","","","","","","","","","","","","",""
"","","","","","html-slider-response","239","412565","0.0-25.0-1.10","eee6843a-0aed-46f2-8001-2a382bf702b6","1404","
                  <p style=""text-align: center;"">₪16
                                                <br>20%</p>
                  <p id=""wtp"" style=""text-align:center; margin-top: 0px; margin-bottom: 0px; font-size: 40px"";>מוכנים לשלם: <span id=""c_p_y""></span></p>","1","evaluation","4","8","14C,17A,20C,27A","20","16","1","","","","","","","","","","","","","","","",""
"","","","","","html-keyboard-response","240","414018","0.0-25.0-2.10","eee6843a-0aed-46f2-8001-2a382bf702b6","null","<p style=""text-align: center;"">+</p>","null","fixation","","","","","","","","","","","","","","","","","","","","","",""
"","","","","","html-slider-response","241","415032","0.0-25.0-0.11","eee6843a-0aed-46f2-8001-2a382bf702b6","1000","
                  <p style=""text-align: center;"">₪39
                                                <br>65%</p>
                  <p id=""wtp"" style=""text-align:center; margin-top: 0px; margin-bottom: 0px; font-size: 40px"";>&ensp;</p>","-","viewing","0","16","1A,15A,26C","","","","","","","","","","","","","","","","","","",""
"","","","","","html-slider-response","242","416573","0.0-25.0-1.11","eee6843a-0aed-46f2-8001-2a382bf702b6","1540","
                  <p style=""text-align: center;"">₪39
                                                <br>65%</p>
                  <p id=""wtp"" style=""text-align:center; margin-top: 0px; margin-bottom: 0px; font-size: 40px"";>מוכנים לשלם: <span id=""c_p_y""></span></p>","9","evaluation","51","16","1A,15A,26C","65","39","10","","","","","","","","","","","","","","","",""
"","","","","","html-keyboard-response","243","418048","0.0-25.0-2.11","eee6843a-0aed-46f2-8001-2a382bf702b6","null","<p style=""text-align: center;"">+</p>","null","fixation","","","","","","","","","","","","","","","","","","","","","",""
"","","","","","html-slider-response","244","419050","0.0-25.0-0.12","eee6843a-0aed-46f2-8001-2a382bf702b6","1000","
                  <p style=""text-align: center;"">₪4
                                                <br>75%</p>
                  <p id=""wtp"" style=""text-align:center; margin-top: 0px; margin-bottom: 0px; font-size: 40px"";>&ensp;</p>","-","viewing","0","3","12B,20B,23B,27C,29C","","","","","","","","","","","","","","","","","","",""
"","","","","","html-slider-response","245","420997","0.0-25.0-1.12","eee6843a-0aed-46f2-8001-2a382bf702b6","1946","
                  <p style=""text-align: center;"">₪4
                                                <br>75%</p>
                  <p id=""wtp"" style=""text-align:center; margin-top: 0px; margin-bottom: 0px; font-size: 40px"";>מוכנים לשלם: <span id=""c_p_y""></span></p>","1","evaluation","79","3","12B,20B,23B,27C,29C","75","4","1","","","","","","","","","","","","","","","",""
"","","","","","html-keyboard-response","246","422296","0.0-25.0-2.12","eee6843a-0aed-46f2-8001-2a382bf702b6","null","<p style=""text-align: center;"">+</p>","null","fixation","","","","","","","","","","","","","","","","","","","","","",""
"","","","","","html-slider-response","247","423299","0.0-25.0-0.13","eee6843a-0aed-46f2-8001-2a382bf702b6","1000","
                  <p style=""text-align: center;"">₪79
                                                <br>65%</p>
                  <p id=""wtp"" style=""text-align:center; margin-top: 0px; margin-bottom: 0px; font-size: 40px"";>&ensp;</p>","-","viewing","0","31","8A","","","","","","","","","","","","","","","","","","",""
"","","","","","html-slider-response","248","425981","0.0-25.0-1.13","eee6843a-0aed-46f2-8001-2a382bf702b6","2681","
                  <p style=""text-align: center;"">₪79
                                                <br>65%</p>
                  <p id=""wtp"" style=""text-align:center; margin-top: 0px; margin-bottom: 0px; font-size: 40px"";>מוכנים לשלם: <span id=""c_p_y""></span></p>","24","evaluation","61","31","8A","65","79","24","","","","","","","","","","","","","","","",""
"","","","","","html-keyboard-response","249","427217","0.0-25.0-2.13","eee6843a-0aed-46f2-8001-2a382bf702b6","null","<p style=""text-align: center;"">+</p>","null","fixation","","","","","","","","","","","","","","","","","","","","","",""
"","","","","","html-slider-response","250","428234","0.0-25.0-0.14","eee6843a-0aed-46f2-8001-2a382bf702b6","1000","
                  <p style=""text-align: center;"">₪58
                                                <br>45%</p>
                  <p id=""wtp"" style=""text-align:center; margin-top: 0px; margin-bottom: 0px; font-size: 40px"";>&ensp;</p>","-","viewing","0","21","11C,18C,25A","","","","","","","","","","","","","","","","","","",""
"","","","","","html-slider-response","251","430877","0.0-25.0-1.14","eee6843a-0aed-46f2-8001-2a382bf702b6","2642","
