"success","timeout","failed_images","failed_audio","failed_video","trial_type","trial_index","time_elapsed","internal_node_id","subject_id","rt","stimulus","response","part","slider_start","ID","set_ID","prob","amount","last_location","actual_choice","actual_EV","binary_id","trinary_id","catch","direction","A_key","S_key","D_key","choice_prob","choice_amount","chosen_part","potential_prize_prob","potential_prize_amount","won_prize","total_prize","prize_cost","remaining_budget","accuracy"
"true","false","[]","[]","[]","preload","0","25","0.0-0.0","9434677f-c7c5-4f12-8d0c-a48143f92719","","","","","","","","","","","","","","","","","","","","","","","","","","","","",""
"","","","","","html-keyboard-response","1","1873903","0.0-1.0","9434677f-c7c5-4f12-8d0c-a48143f92719","null","
          <h1>שלום וברוכים הבאים!</h1>
          <p>לפניכם ניסוי בקבלת החלטות עם שני חלקים.
          <br><br>לחצו על העכבר כדי להמשיך.</p>","0","example","","","","","","","","","","","","","","","","","","","","","","","","",""
"","","","","","html-keyboard-response","2","1884079","0.0-2.0","9434677f-c7c5-4f12-8d0c-a48143f92719","null","
        <h1>חלק 1</h1>
        <p>בקרוב יוצגו בפניכם הגרלות.
        <br>עליכם לבחור את המחיר המירבי שתהיו מוכנים לשלם כדי להשתתף בהגרלה שתוצג.
        <br>יש לכם תקציב של ₪80 לכל הגרלה. 
        <br>נסו להעריך כל הגרלה בנפרד ולחשוב כמה היא שווה עבורכם, ₪80 זמינים לכל הגרלה בנפרד.
        <br><br>לחצו על העכבר כדי להמשיך.</p>","1","instructions","","","","","","","","","","","","","","","","","","","","","","","","",""
"","","","","","html-keyboard-response","3","1887902","0.0-3.0","9434677f-c7c5-4f12-8d0c-a48143f92719","null","
        <p>בסוף הניסוי, המחשב יבחר את אחת ההגרלות ויקבע מחיר לכרטיס עבורה. 
        <br>במידה והמחיר שבחרתם נמוך מהמחיר שנבחר על ידי המחשב, לא תשתתפו בהגרלה ותשארו עם מלוא התקציב.
        <br>במידה והמחיר שבחרתם גבוה מהמחיר שנבחר על ידי המחשב, תשלמו את המחיר שנקבע ותשתתפו בהגרלה.
        <br><br>לחצו על העכבר כדי להמשיך.</p>","1","instructions","","","","","","","","","","","","","","","","","","","","","","","","",""
"","","","","","html-slider-response","4","1912543","0.0-4.0","9434677f-c7c5-4f12-8d0c-a48143f92719","24523","
        <p style=""font-size: 42px;"">נתחיל עם דוגמא: 
        <br>ההגרלה מטה מציעה 65% סיכוי לזכות ב-₪40 
        <br>&emsp;&emsp;&emsp;&emsp;&emsp;&emsp;&emsp;&emsp;&ensp;35% סיכוי לזכות ב-₪0.
        <br><br>מה המחיר המירבי שתהיו מוכנים לשלם על כרטיס להגרלה זו בין 0 ל-₪80?
        <br>הזיזו את העכבר על פני המלבן ולחצו כדי לבצע בחירה.</p>
        
        <p style=""text-align: center;"">₪40<br>65%</p>

        <p id=""wtp"" style=""text-align:center; margin-top: 0px; margin-bottom: 0px; font-size: 40px"";>מוכנים לשלם: <span id=""c_p_y""></span></p>","16","example","77","","","","","","","","","","","","","","","","","","","","","","","",""
"","","","","","html-keyboard-response","5","1920727","0.0-5.0","9434677f-c7c5-4f12-8d0c-a48143f92719","null","<p>יפה מאוד!
                <br> בחרתם שתהיו מוכנים לשלם ₪16 כדי להשתתף בהגרלה:
                <br><p style=""text-align: center;"">₪40<br>65%</p>
                <p>נשמע נכון?
                <br>נניח שהגרלה זו נבחרה בסוף הניסוי.
                <br>כעת המחשב יקבע מחיר עבורה באקראי.
                <br>לחצו על העכבר להמשך.</p>","1","example","","","","","","","","","","","","","","","","","","","","","","","","",""
"","","","","","html-keyboard-response","6","1932607","0.0-6.0","9434677f-c7c5-4f12-8d0c-a48143f92719","null","<p>המחשב קבע מחיר: ₪24
                <br>ואתם בחרתם לשלם לכל היותר: ₪16
                <br><br>מכיוון שהמחיר שבחרתם נמוך מהמחיר שנקבע, לא תתשתתפו בהגרלה.
                <br>במקרה כזה, בסוף הניסוי תקבלו את כל התקציב ההתחלתי של ₪80.
                <br><br>לחצו על העכבר להמשך.</p>","1","example","","","","","","","","","","","","","","","","","","","","","","","","",""
"","","","","","html-slider-response","7","1943063","0.0-7.0","9434677f-c7c5-4f12-8d0c-a48143f92719","10194","<p style=""font-size: 42px;"">הנה עוד דוגמא:
                <br>ההגרלה מטה מציעה 35% סיכוי לזכות ב-₪18 
                <br>&emsp;&emsp;&emsp;&emsp;&emsp;&emsp;&emsp;&emsp;&ensp;65% סיכוי לזכות ב-₪0.</p>
        
                <p style=""text-align: center;"">₪18<br>35%</p>
                <p id=""wtp"" style=""text-align:center; margin-top: 0px; margin-bottom: 0px; font-size: 40px"";>מוכנים לשלם: <span id=""c_p_y""></span></p>","25","example","24","","","","","","","","","","","","","","","","","","","","","","","",""
"","","","","","html-keyboard-response","8","1947247","0.0-8.0","9434677f-c7c5-4f12-8d0c-a48143f92719","null","<p>הייתם מוכנים לשלם  ₪25 כדי להשתתף בהגרלה:
                <p style=""text-align: center;"">₪18<br>35%</p>
                <p>כעת נניח שהמחשב בחר את ההגרלה הזו בסוף הניסוי, וקבע עבורה מחיר.
                <br><br>לחצו על העכבר כדי להמשיך.</p>","1","instructions","","","","","","","","","","","","","","","","","","","","","","","","",""
"","","","","","html-keyboard-response","9","1956015","0.0-9.0","9434677f-c7c5-4f12-8d0c-a48143f92719","null","<p>המחשב קבע מחיר להגרלה: ₪13<br>ואתם בחרתם לשלם לכל היותר: ₪25
                <br><br>כעת המחיר שנקבע נמוך מזה שבחרתם, אז תשלמו את המחיר שקבע המחשב (₪13) ותשתתפו בהגרלה.
                <br>במקרה כזה, תסיימו את הניסוי עם תקציב של ₪67 ועם סיכוי לזכות ב-₪18 נוספים מההגרלה.
                <br>כלומר, תוכלו לקבל ₪67 אם לא תזכו בהגרלה, או ₪85 אם תזכו בהגרלה.
                <br><br>לחצו על העכבר להמשך.</p>","1","example","","","","","","","","","","","","","","","","","","","","","","","","",""
"","","","","","html-keyboard-response","10","1965518","0.0-10.0","9434677f-c7c5-4f12-8d0c-a48143f92719","null","<p>במהלך הניסוי, קודם תראו את ההגרלה ורק לאחר מכן תוכלו לבחור.
                <p>כמו כן, יהיו לכם מספר שניות מוגבל להגיב.
                <p>בואו ננסה זאת עם ההגרלה הקודמת.
                <br>לחצו על העכבר כדי להמשיך.</p>","1","instructions","","","","","","","","","","","","","","","","","","","","","","","","",""
"","","","","","html-slider-response","11","1966780","0.0-11.0","9434677f-c7c5-4f12-8d0c-a48143f92719","1000","
                    <p style=""text-align: center;"">₪18<br>35%</p>
                    <p id=""wtp"" style=""text-align:center; margin-top: 0px; margin-bottom: 0px; font-size: 40px"";>&ensp;</p>","80","instructions","0","","","","","","","","","","","","","","","","","","","","","","","",""
"","","","","","html-slider-response","12","1969871","0.0-12.0","9434677f-c7c5-4f12-8d0c-a48143f92719","2825","
                    <p style=""text-align: center;"">₪18<br>35%</p>
                    <p id=""wtp"" style=""text-align:center; margin-top: 0px; margin-bottom: 0px; font-size: 40px"";>מוכנים לשלם: <span id=""c_p_y""></span></p>","24","instructions","26","","","","","","","","","","","","","","","","","","","","","","","",""
"","","","","","html-keyboard-response","13","1971774","0.0-13.0","9434677f-c7c5-4f12-8d0c-a48143f92719","null","<p>יפה. הפעם בחרתם לשלם לכל היותר ₪24.
                <br><br>לחצו על העכבר כדי להמשיך.</p>","1","instructions","","","","","","","","","","","","","","","","","","","","","","","","",""
"","","","","","html-keyboard-response","14","1976975","0.0-15.0","9434677f-c7c5-4f12-8d0c-a48143f92719","null","<p>כעת נתחיל את הניסוי.
                <br><br>אתם תראו הגרלות ותתבקשו לבחור כמה תהיו מוכנים לשלם כדי להשתתף בהן.
                <br>יש לכם תקציב של ₪80 עבור כל הגרלה.
                <br>בסוף הניסוי הגרלה אחת תבחר באקראי ותשוחק.
                <br><br>לחצו על העכבר כדי להתחיל את הניסוי.</p>","1","instructions","","","","","","","","","","","","","","","","","","","","","","","","",""
"","","","","","html-keyboard-response","15","1978240","0.0-16.0","9434677f-c7c5-4f12-8d0c-a48143f92719","null","<p style=""text-align: center;"">+</p>","null","fixation","","","","","","","","","","","","","","","","","","","","","","","","",""
"","","","","","html-slider-response","16","1979244","0.0-17.0-0.0","9434677f-c7c5-4f12-8d0c-a48143f92719","1000","
                  <p style=""text-align: center;"">₪36
                                                <br>75%</p>
                  <p id=""wtp"" style=""text-align:center; margin-top: 0px; margin-bottom: 0px; font-size: 40px"";>&ensp;</p>","-","viewing","0","14","4B,5A,13B,16B","","","","","","","","","","","","","","","","","","","","","",""
"","","","","","html-slider-response","17","1981671","0.0-17.0-1.0","9434677f-c7c5-4f12-8d0c-a48143f92719","2425","
                  <p style=""text-align: center;"">₪36
                                                <br>75%</p>
                  <p id=""wtp"" style=""text-align:center; margin-top: 0px; margin-bottom: 0px; font-size: 40px"";>מוכנים לשלם: <span id=""c_p_y""></span></p>","18","evaluation","17","14","4B,5A,13B,16B","75","36","18","","","","","","","","","","","","","","","","","","",""
"","","","","","html-keyboard-response","18","1982729","0.0-17.0-2.0","9434677f-c7c5-4f12-8d0c-a48143f92719","null","<p style=""text-align: center;"">+</p>","null","fixation","","","","","","","","","","","","","","","","","","","","","","","","",""
"","","","","","html-slider-response","19","1983735","0.0-17.0-0.1","9434677f-c7c5-4f12-8d0c-a48143f92719","1000","
                  <p style=""text-align: center;"">₪43
                                                <br>60%</p>
                  <p id=""wtp"" style=""text-align:center; margin-top: 0px; margin-bottom: 0px; font-size: 40px"";>&ensp;</p>","-","viewing","0","17","2A,7A,9A,15B","","","","","","","","","","","","","","","","","","","","","",""
"","","","","","html-slider-response","20","1986255","0.0-17.0-1.1","9434677f-c7c5-4f12-8d0c-a48143f92719","2519","
                  <p style=""text-align: center;"">₪43
                                                <br>60%</p>
                  <p id=""wtp"" style=""text-align:center; margin-top: 0px; margin-bottom: 0px; font-size: 40px"";>מוכנים לשלם: <span id=""c_p_y""></span></p>","27","evaluation","65","17","2A,7A,9A,15B","60","43","27","","","","","","","","","","","","","","","","","","",""
"","","","","","html-keyboard-response","21","1987100","0.0-17.0-2.1","9434677f-c7c5-4f12-8d0c-a48143f92719","null","<p style=""text-align: center;"">+</p>","null","fixation","","","","","","","","","","","","","","","","","","","","","","","","",""
"","","","","","html-slider-response","22","1988116","0.0-17.0-0.2","9434677f-c7c5-4f12-8d0c-a48143f92719","1000","
                  <p style=""text-align: center;"">₪71
                                                <br>45%</p>
                  <p id=""wtp"" style=""text-align:center; margin-top: 0px; margin-bottom: 0px; font-size: 40px"";>&ensp;</p>","-","viewing","0","26","2B,16A","","","","","","","","","","","","","","","","","","","","","",""
"","","","","","html-slider-response","23","1991279","0.0-17.0-1.2","9434677f-c7c5-4f12-8d0c-a48143f92719","3162","
                  <p style=""text-align: center;"">₪71
                                                <br>45%</p>
                  <p id=""wtp"" style=""text-align:center; margin-top: 0px; margin-bottom: 0px; font-size: 40px"";>מוכנים לשלם: <span id=""c_p_y""></span></p>","27","evaluation","43","26","2B,16A","45","71","27","","","","","","","","","","","","","","","","","","",""
"","","","","","html-keyboard-response","24","1992043","0.0-17.0-2.2","9434677f-c7c5-4f12-8d0c-a48143f92719","null","<p style=""text-align: center;"">+</p>","null","fixation","","","","","","","","","","","","","","","","","","","","","","","","",""
"","","","","","html-slider-response","25","1993060","0.0-17.0-0.3","9434677f-c7c5-4f12-8d0c-a48143f92719","1000","
                  <p style=""text-align: center;"">₪4
                                                <br>25%</p>
                  <p id=""wtp"" style=""text-align:center; margin-top: 0px; margin-bottom: 0px; font-size: 40px"";>&ensp;</p>","-","viewing","0","1","6C,29B,30C","","","","","","","","","","","","","","","","","","","","","",""
"","","","","","html-slider-response","26","1997064","0.0-17.0-1.3","9434677f-c7c5-4f12-8d0c-a48143f92719","null","
                  <p style=""text-align: center;"">₪4
                                                <br>25%</p>
                  <p id=""wtp"" style=""text-align:center; margin-top: 0px; margin-bottom: 0px; font-size: 40px"";>מוכנים לשלם: <span id=""c_p_y""></span></p>","null","evaluation","46","1","6C,29B,30C","25","4","5","","","","","","","","","","","","","","","","","","",""
"","","","","","html-keyboard-response","27","1997676","0.0-17.0-2.3","9434677f-c7c5-4f12-8d0c-a48143f92719","null","<p style=""text-align: center;"">+</p>","null","fixation","","","","","","","","","","","","","","","","","","","","","","","","",""
"","","","","","html-slider-response","28","1998679","0.0-17.0-0.4","9434677f-c7c5-4f12-8d0c-a48143f92719","1000","
                  <p style=""text-align: center;"">₪11
                                                <br>25%</p>
                  <p id=""wtp"" style=""text-align:center; margin-top: 0px; margin-bottom: 0px; font-size: 40px"";>&ensp;</p>","-","viewing","0","5","12A,27B,28B,30B","","","","","","","","","","","","","","","","","","","","","",""
"","","","","","html-slider-response","29","2002415","0.0-17.0-1.4","9434677f-c7c5-4f12-8d0c-a48143f92719","3735","
                  <p style=""text-align: center;"">₪11
                                                <br>25%</p>
                  <p id=""wtp"" style=""text-align:center; margin-top: 0px; margin-bottom: 0px; font-size: 40px"";>מוכנים לשלם: <span id=""c_p_y""></span></p>","13","evaluation","52","5","12A,27B,28B,30B","25","11","13","","","","","","","","","","","","","","","","","","",""
"","","","","","html-keyboard-response","30","2003897","0.0-17.0-2.4","9434677f-c7c5-4f12-8d0c-a48143f92719","null","<p style=""text-align: center;"">+</p>","null","fixation","","","","","","","","","","","","","","","","","","","","","","","","",""
"","","","","","html-slider-response","31","2004906","0.0-17.0-0.5","9434677f-c7c5-4f12-8d0c-a48143f92719","1000","
                  <p style=""text-align: center;"">₪11
                                                <br>75%</p>
                  <p id=""wtp"" style=""text-align:center; margin-top: 0px; margin-bottom: 0px; font-size: 40px"";>&ensp;</p>","-","viewing","0","7","6B,18B,22C,24C,29A","","","","","","","","","","","","","","","","","","","","","",""
"","","","","","html-slider-response","32","2007703","0.0-17.0-1.5","9434677f-c7c5-4f12-8d0c-a48143f92719","2796","
                  <p style=""text-align: center;"">₪11
                                                <br>75%</p>
                  <p id=""wtp"" style=""text-align:center; margin-top: 0px; margin-bottom: 0px; font-size: 40px"";>מוכנים לשלם: <span id=""c_p_y""></span></p>","10","evaluation","29","7","6B,18B,22C,24C,29A","75","11","10","","","","","","","","","","","","","","","","","","",""
"","","","","","html-keyboard-response","33","2009084","0.0-17.0-2.5","9434677f-c7c5-4f12-8d0c-a48143f92719","null","<p style=""text-align: center;"">+</p>","null","fixation","","","","","","","","","","","","","","","","","","","","","","","","",""
"","","","","","html-slider-response","34","2010093","0.0-17.0-0.6","9434677f-c7c5-4f12-8d0c-a48143f92719","1000","
                  <p style=""text-align: center;"">₪43
                                                <br>75%</p>
                  <p id=""wtp"" style=""text-align:center; margin-top: 0px; margin-bottom: 0px; font-size: 40px"";>&ensp;</p>","-","viewing","0","18","11B,19B,24A,26A","","","","","","","","","","","","","","","","","","","","","",""
"","","","","","html-slider-response","35","2012527","0.0-17.0-1.6","9434677f-c7c5-4f12-8d0c-a48143f92719","2432","
                  <p style=""text-align: center;"">₪43
                                                <br>75%</p>
                  <p id=""wtp"" style=""text-align:center; margin-top: 0px; margin-bottom: 0px; font-size: 40px"";>מוכנים לשלם: <span id=""c_p_y""></span></p>","23","evaluation","16","18","11B,19B,24A,26A","75","43","23","","","","","","","","","","","","","","","","","","",""
"","","","","","html-keyboard-response","36","2013611","0.0-17.0-2.6","9434677f-c7c5-4f12-8d0c-a48143f92719","null","<p style=""text-align: center;"">+</p>","null","fixation","","","","","","","","","","","","","","","","","","","","","","","","",""
"","","","","","html-slider-response","37","2014615","0.0-17.0-0.7","9434677f-c7c5-4f12-8d0c-a48143f92719","1000","
                  <p style=""text-align: center;"">₪36
                                                <br>70%</p>
                  <p id=""wtp"" style=""text-align:center; margin-top: 0px; margin-bottom: 0px; font-size: 40px"";>&ensp;</p>","-","viewing","0","13","3A,5C,10B","","","","","","","","","","","","","","","","","","","","","",""
"","","","","","html-slider-response","38","2018626","0.0-17.0-1.7","9434677f-c7c5-4f12-8d0c-a48143f92719","null","
                  <p style=""text-align: center;"">₪36
                                                <br>70%</p>
                  <p id=""wtp"" style=""text-align:center; margin-top: 0px; margin-bottom: 0px; font-size: 40px"";>מוכנים לשלם: <span id=""c_p_y""></span></p>","null","evaluation","9","13","3A,5C,10B","70","36","22","","","","","","","","","","","","","","","","","","",""
"","","","","","html-keyboard-response","39","2019262","0.0-17.0-2.7","9434677f-c7c5-4f12-8d0c-a48143f92719","null","<p style=""text-align: center;"">+</p>","null","fixation","","","","","","","","","","","","","","","","","","","","","","","","",""
"","","","","","html-slider-response","40","2020267","0.0-17.0-0.8","9434677f-c7c5-4f12-8d0c-a48143f92719","1000","
                  <p style=""text-align: center;"">₪64
                                                <br>50%</p>
                  <p id=""wtp"" style=""text-align:center; margin-top: 0px; margin-bottom: 0px; font-size: 40px"";>&ensp;</p>","-","viewing","0","25","1B,3B,4A","","","","","","","","","","","","","","","","","","","","","",""
"","","","","","html-slider-response","41","2021911","0.0-17.0-1.8","9434677f-c7c5-4f12-8d0c-a48143f92719","1642","
                  <p style=""text-align: center;"">₪64
                                                <br>50%</p>
                  <p id=""wtp"" style=""text-align:center; margin-top: 0px; margin-bottom: 0px; font-size: 40px"";>מוכנים לשלם: <span id=""c_p_y""></span></p>","26","evaluation","16","25","1B,3B,4A","50","64","26","","","","","","","","","","","","","","","","","","",""
"","","","","","html-keyboard-response","42","2022642","0.0-17.0-2.8","9434677f-c7c5-4f12-8d0c-a48143f92719","null","<p style=""text-align: center;"">+</p>","null","fixation","","","","","","","","","","","","","","","","","","","","","","","","",""
"","","","","","html-slider-response","43","2023657","0.0-17.0-0.9","9434677f-c7c5-4f12-8d0c-a48143f92719","1000","
                  <p style=""text-align: center;"">₪64
                                                <br>25%</p>
                  <p id=""wtp"" style=""text-align:center; margin-top: 0px; margin-bottom: 0px; font-size: 40px"";>&ensp;</p>","-","viewing","0","24","6A,21A","","","","","","","","","","","","","","","","","","","","","",""
"","","","","","html-slider-response","44","2024862","0.0-17.0-1.9","9434677f-c7c5-4f12-8d0c-a48143f92719","1204","
                  <p style=""text-align: center;"">₪64
                                                <br>25%</p>
                  <p id=""wtp"" style=""text-align:center; margin-top: 0px; margin-bottom: 0px; font-size: 40px"";>מוכנים לשלם: <span id=""c_p_y""></span></p>","29","evaluation","12","24","6A,21A","25","64","29","","","","","","","","","","","","","","","","","","",""
"","","","","","html-keyboard-response","45","2025376","0.0-17.0-2.9","9434677f-c7c5-4f12-8d0c-a48143f92719","null","<p style=""text-align: center;"">+</p>","null","fixation","","","","","","","","","","","","","","","","","","","","","","","","",""
"","","","","","html-slider-response","46","2026378","0.0-17.0-0.10","9434677f-c7c5-4f12-8d0c-a48143f92719","1000","
                  <p style=""text-align: center;"">₪61
                                                <br>55%</p>
                  <p id=""wtp"" style=""text-align:center; margin-top: 0px; margin-bottom: 0px; font-size: 40px"";>&ensp;</p>","-","viewing","0","23","7B,26B","","","","","","","","","","","","","","","","","","","","","",""
"","","","","","html-slider-response","47","2027966","0.0-17.0-1.10","9434677f-c7c5-4f12-8d0c-a48143f92719","1587","
                  <p style=""text-align: center;"">₪61
                                                <br>55%</p>
                  <p id=""wtp"" style=""text-align:center; margin-top: 0px; margin-bottom: 0px; font-size: 40px"";>מוכנים לשלם: <span id=""c_p_y""></span></p>","41","evaluation","4","23","7B,26B","55","61","41","","","","","","","","","","","","","","","","","","",""
"","","","","","html-keyboard-response","48","2028690","0.0-17.0-2.10","9434677f-c7c5-4f12-8d0c-a48143f92719","null","<p style=""text-align: center;"">+</p>","null","fixation","","","","","","","","","","","","","","","","","","","","","","","","",""
"","","","","","html-slider-response","49","2029692","0.0-17.0-0.11","9434677f-c7c5-4f12-8d0c-a48143f92719","1000","
                  <p style=""text-align: center;"">₪4
                                                <br>50%</p>
                  <p id=""wtp"" style=""text-align:center; margin-top: 0px; margin-bottom: 0px; font-size: 40px"";>&ensp;</p>","-","viewing","0","2","4C,17B","","","","","","","","","","","","","","","","","","","","","",""
"","","","","","html-slider-response","50","2032270","0.0-17.0-1.11","9434677f-c7c5-4f12-8d0c-a48143f92719","2577","
                  <p style=""text-align: center;"">₪4
                                                <br>50%</p>
                  <p id=""wtp"" style=""text-align:center; margin-top: 0px; margin-bottom: 0px; font-size: 40px"";>מוכנים לשלם: <span id=""c_p_y""></span></p>","3","evaluation","68","2","4C,17B","50","4","3","","","","","","","","","","","","","","","","","","",""
"","","","","","html-keyboard-response","51","2033003","0.0-17.0-2.11","9434677f-c7c5-4f12-8d0c-a48143f92719","null","<p style=""text-align: center;"">+</p>","null","fixation","","","","","","","","","","","","","","","","","","","","","","","","",""
"","","","","","html-slider-response","52","2034018","0.0-17.0-0.12","9434677f-c7c5-4f12-8d0c-a48143f92719","1000","
                  <p style=""text-align: center;"">₪71
                                                <br>75%</p>
                  <p id=""wtp"" style=""text-align:center; margin-top: 0px; margin-bottom: 0px; font-size: 40px"";>&ensp;</p>","-","viewing","0","28","8B","","","","","","","","","","","","","","","","","","","","","",""
"","","","","","html-slider-response","53","2035838","0.0-17.0-1.12","9434677f-c7c5-4f12-8d0c-a48143f92719","1820","
                  <p style=""text-align: center;"">₪71
                                                <br>75%</p>
                  <p id=""wtp"" style=""text-align:center; margin-top: 0px; margin-bottom: 0px; font-size: 40px"";>מוכנים לשלם: <span id=""c_p_y""></span></p>","44","evaluation","48","28","8B","75","71","44","","","","","","","","","","","","","","","","","","",""
"","","","","","html-keyboard-response","54","2037296","0.0-17.0-2.12","9434677f-c7c5-4f12-8d0c-a48143f92719","null","<p style=""text-align: center;"">+</p>","null","fixation","","","","","","","","","","","","","","","","","","","","","","","","",""
"","","","","","html-slider-response","55","2038305","0.0-17.0-0.13","9434677f-c7c5-4f12-8d0c-a48143f92719","1000","
                  <p style=""text-align: center;"">₪16
                                                <br>20%</p>
                  <p id=""wtp"" style=""text-align:center; margin-top: 0px; margin-bottom: 0px; font-size: 40px"";>&ensp;</p>","-","viewing","0","8","14C,17A,20C,27A","","","","","","","","","","","","","","","","","","","","","",""
"","","","","","html-slider-response","56","2039446","0.0-17.0-1.13","9434677f-c7c5-4f12-8d0c-a48143f92719","1140","
                  <p style=""text-align: center;"">₪16
                                                <br>20%</p>
                  <p id=""wtp"" style=""text-align:center; margin-top: 0px; margin-bottom: 0px; font-size: 40px"";>מוכנים לשלם: <span id=""c_p_y""></span></p>","16","evaluation","70","8","14C,17A,20C,27A","20","16","16","","","","","","","","","","","","","","","","","","",""
"","","","","","html-keyboard-response","57","2040396","0.0-17.0-2.13","9434677f-c7c5-4f12-8d0c-a48143f92719","null","<p style=""text-align: center;"">+</p>","null","fixation","","","","","","","","","","","","","","","","","","","","","","","","",""
"","","","","","html-slider-response","58","2041408","0.0-17.0-0.14","9434677f-c7c5-4f12-8d0c-a48143f92719","1000","
                  <p style=""text-align: center;"">₪79
                                                <br>65%</p>
                  <p id=""wtp"" style=""text-align:center; margin-top: 0px; margin-bottom: 0px; font-size: 40px"";>&ensp;</p>","-","viewing","0","31","8A","","","","","","","","","","","","","","","","","","","","","",""
"","","","","","html-slider-response","59","2043711","0.0-17.0-1.14","9434677f-c7c5-4f12-8d0c-a48143f92719","2302","
                  <p style=""text-align: center;"">₪79
                                                <br>65%</p>
                  <p id=""wtp"" style=""text-align:center; margin-top: 0px; margin-bottom: 0px; font-size: 40px"";>מוכנים לשלם: <span id=""c_p_y""></span></p>","25","evaluation","60","31","8A","65","79","25","","","","","","","","","","","","","","","","","","",""
"","","","","","html-keyboard-response","60","2044697","0.0-17.0-2.14","9434677f-c7c5-4f12-8d0c-a48143f92719","null","<p style=""text-align: center;"">+</p>","null","fixation","","","","","","","","","","","","","","","","","","","","","","","","",""
"","","","","","html-slider-response","61","2045713","0.0-17.0-0.15","9434677f-c7c5-4f12-8d0c-a48143f92719","1000","
                  <p style=""text-align: center;"">₪58
                                                <br>45%</p>
                  <p id=""wtp"" style=""text-align:center; margin-top: 0px; margin-bottom: 0px; font-size: 40px"";>&ensp;</p>","-","viewing","0","21","11C,18C,25A","","","","","","","","","","","","","","","","","","","","","",""
"","","","","","html-slider-response","62","2047166","0.0-17.0-1.15","9434677f-c7c5-4f12-8d0c-a48143f92719","1452","
                  <p style=""text-align: center;"">₪58
                                                <br>45%</p>
                  <p id=""wtp"" style=""text-align:center; margin-top: 0px; margin-bottom: 0px; font-size: 40px"";>מוכנים לשלם: <span id=""c_p_y""></span></p>","39","evaluation","61","21","11C,18C,25A","45","58","39","","","","","","","","","","","","","","","","","","",""
"","","","","","html-keyboard-response","63","2048260","0.0-17.0-2.15","9434677f-c7c5-4f12-8d0c-a48143f92719","null","<p style=""text-align: center;"">+</p>","null","fixation","","","","","","","","","","","","","","","","","","","","","","","","",""
"","","","","","html-slider-response","64","2049267","0.0-17.0-0.16","9434677f-c7c5-4f12-8d0c-a48143f92719","1000","
                  <p style=""text-align: center;"">₪18
                                                <br>50%</p>
                  <p id=""wtp"" style=""text-align:center; margin-top: 0px; margin-bottom: 0px; font-size: 40px"";>&ensp;</p>","-","viewing","0","10","2C,16C,22B,28A","","","","","","","","","","","","","","","","","","","","","",""
"","","","","","html-slider-response","65","2050462","0.0-17.0-1.16","9434677f-c7c5-4f12-8d0c-a48143f92719","1193","
                  <p style=""text-align: center;"">₪18
                                                <br>50%</p>
                  <p id=""wtp"" style=""text-align:center; margin-top: 0px; margin-bottom: 0px; font-size: 40px"";>מוכנים לשלם: <span id=""c_p_y""></span></p>","22","evaluation","17","10","2C,16C,22B,28A","50","18","22","","","","","","","","","","","","","","","","","","",""
"","","","","","html-keyboard-response","66","2051719","0.0-17.0-2.16","9434677f-c7c5-4f12-8d0c-a48143f92719","null","<p style=""text-align: center;"">+</p>","null","fixation","","","","","","","","","","","","","","","","","","","","","","","","",""
"","","","","","html-slider-response","67","2052734","0.0-17.0-0.17","9434677f-c7c5-4f12-8d0c-a48143f92719","1000","
                  <p style=""text-align: center;"">₪18
                                                <br>25%</p>
                  <p id=""wtp"" style=""text-align:center; margin-top: 0px; margin-bottom: 0px; font-size: 40px"";>&ensp;</p>","-","viewing","0","9","14A,23A","","","","","","","","","","","","","","","","","","","","","",""
"","","","","","html-slider-response","68","2054543","0.0-17.0-1.17","9434677f-c7c5-4f12-8d0c-a48143f92719","1808","
                  <p style=""text-align: center;"">₪18
                                                <br>25%</p>
                  <p id=""wtp"" style=""text-align:center; margin-top: 0px; margin-bottom: 0px; font-size: 40px"";>מוכנים לשלם: <span id=""c_p_y""></span></p>","17","evaluation","11","9","14A,23A","25","18","17","","","","","","","","","","","","","","","","","","",""
"","","","","","html-keyboard-response","69","2055134","0.0-17.0-2.17","9434677f-c7c5-4f12-8d0c-a48143f92719","null","<p style=""text-align: center;"">+</p>","null","fixation","","","","","","","","","","","","","","","","","","","","","","","","",""
"","","","","","html-slider-response","70","2056141","0.0-17.0-0.18","9434677f-c7c5-4f12-8d0c-a48143f92719","1000","
                  <p style=""text-align: center;"">₪4
                                                <br>75%</p>
                  <p id=""wtp"" style=""text-align:center; margin-top: 0px; margin-bottom: 0px; font-size: 40px"";>&ensp;</p>","-","viewing","0","3","12B,20B,23B,27C,29C","","","","","","","","","","","","","","","","","","","","","",""
"","","","","","html-slider-response","71","2057494","0.0-17.0-1.18","9434677f-c7c5-4f12-8d0c-a48143f92719","1352","
                  <p style=""text-align: center;"">₪4
                                                <br>75%</p>
                  <p id=""wtp"" style=""text-align:center; margin-top: 0px; margin-bottom: 0px; font-size: 40px"";>מוכנים לשלם: <span id=""c_p_y""></span></p>","2","evaluation","69","3","12B,20B,23B,27C,29C","75","4","2","","","","","","","","","","","","","","","","","","",""
"","","","","","html-keyboard-response","72","2058150","0.0-17.0-2.18","9434677f-c7c5-4f12-8d0c-a48143f92719","null","<p style=""text-align: center;"">+</p>","null","fixation","","","","","","","","","","","","","","","","","","","","","","","","",""
"","","","","","html-slider-response","73","2059152","0.0-17.0-0.19","9434677f-c7c5-4f12-8d0c-a48143f92719","1000","
                  <p style=""text-align: center;"">₪36
                                                <br>30%</p>
                  <p id=""wtp"" style=""text-align:center; margin-top: 0px; margin-bottom: 0px; font-size: 40px"";>&ensp;</p>","-","viewing","0","11","3C,20A,22A","","","","","","","","","","","","","","","","","","","","","",""
"","","","","","html-slider-response","74","2061526","0.0-17.0-1.19","9434677f-c7c5-4f12-8d0c-a48143f92719","2373","
                  <p style=""text-align: center;"">₪36
                                                <br>30%</p>
                  <p id=""wtp"" style=""text-align:center; margin-top: 0px; margin-bottom: 0px; font-size: 40px"";>מוכנים לשלם: <span id=""c_p_y""></span></p>","26","evaluation","79","11","3C,20A,22A","30","36","26","","","","","","","","","","","","","","","","","","",""
"","","","","","html-keyboard-response","75","2062523","0.0-17.0-2.19","9434677f-c7c5-4f12-8d0c-a48143f92719","null","<p style=""text-align: center;"">+</p>","null","fixation","","","","","","","","","","","","","","","","","","","","","","","","",""
"","","","","","html-slider-response","76","2063532","0.0-17.0-0.20","9434677f-c7c5-4f12-8d0c-a48143f92719","1000","
                  <p style=""text-align: center;"">₪36
                                                <br>60%</p>
                  <p id=""wtp"" style=""text-align:center; margin-top: 0px; margin-bottom: 0px; font-size: 40px"";>&ensp;</p>","-","viewing","0","12","1C,7C,15C","","","","","","","","","","","","","","","","","","","","","",""
"","","","","","html-slider-response","77","2064806","0.0-17.0-1.20","9434677f-c7c5-4f12-8d0c-a48143f92719","1273","
                  <p style=""text-align: center;"">₪36
                                                <br>60%</p>
                  <p id=""wtp"" style=""text-align:center; margin-top: 0px; margin-bottom: 0px; font-size: 40px"";>מוכנים לשלם: <span id=""c_p_y""></span></p>","23","evaluation","69","12","1C,7C,15C","60","36","23","","","","","","","","","","","","","","","","","","",""
"","","","","","html-keyboard-response","78","2065754","0.0-17.0-2.20","9434677f-c7c5-4f12-8d0c-a48143f92719","null","<p style=""text-align: center;"">+</p>","null","fixation","","","","","","","","","","","","","","","","","","","","","","","","",""
"","","","","","html-slider-response","79","2066765","0.0-17.0-0.21","9434677f-c7c5-4f12-8d0c-a48143f92719","1000","
                  <p style=""text-align: center;"">₪76
                                                <br>65%</p>
                  <p id=""wtp"" style=""text-align:center; margin-top: 0px; margin-bottom: 0px; font-size: 40px"";>&ensp;</p>","-","viewing","0","29","8C,19A,24B","","","","","","","","","","","","","","","","","","","","","",""
"","","","","","html-slider-response","80","2068438","0.0-17.0-1.21","9434677f-c7c5-4f12-8d0c-a48143f92719","1673","
                  <p style=""text-align: center;"">₪76
                                                <br>65%</p>
                  <p id=""wtp"" style=""text-align:center; margin-top: 0px; margin-bottom: 0px; font-size: 40px"";>מוכנים לשלם: <span id=""c_p_y""></span></p>","31","evaluation","77","29","8C,19A,24B","65","76","31","","","","","","","","","","","","","","","","","","",""
"","","","","","html-keyboard-response","81","2069453","0.0-17.0-2.21","9434677f-c7c5-4f12-8d0c-a48143f92719","null","<p style=""text-align: center;"">+</p>","null","fixation","","","","","","","","","","","","","","","","","","","","","","","","",""
"","","","","","html-slider-response","82","2070455","0.0-17.0-0.22","9434677f-c7c5-4f12-8d0c-a48143f92719","1000","
                  <p style=""text-align: center;"">₪11
                                                <br>45%</p>
                  <p id=""wtp"" style=""text-align:center; margin-top: 0px; margin-bottom: 0px; font-size: 40px"";>&ensp;</p>","-","viewing","0","6","14B,21C,25C","","","","","","","","","","","","","","","","","","","","","",""
"","","","","","html-slider-response","83","2071862","0.0-17.0-1.22","9434677f-c7c5-4f12-8d0c-a48143f92719","1406","
                  <p style=""text-align: center;"">₪11
                                                <br>45%</p>
                  <p id=""wtp"" style=""text-align:center; margin-top: 0px; margin-bottom: 0px; font-size: 40px"";>מוכנים לשלם: <span id=""c_p_y""></span></p>","7","evaluation","57","6","14B,21C,25C","45","11","7","","","","","","","","","","","","","","","","","","",""
"","","","","","html-keyboard-response","84","2073030","0.0-17.0-2.22","9434677f-c7c5-4f12-8d0c-a48143f92719","null","<p style=""text-align: center;"">+</p>","null","fixation","","","","","","","","","","","","","","","","","","","","","","","","",""
"","","","","","html-slider-response","85","2074039","0.0-17.0-0.23","9434677f-c7c5-4f12-8d0c-a48143f92719","1000","
                  <p style=""text-align: center;"">₪39
                                                <br>65%</p>
                  <p id=""wtp"" style=""text-align:center; margin-top: 0px; margin-bottom: 0px; font-size: 40px"";>&ensp;</p>","-","viewing","0","16","1A,15A,26C","","","","","","","","","","","","","","","","","","","","","",""
"","","","","","html-slider-response","86","2075894","0.0-17.0-1.23","9434677f-c7c5-4f12-8d0c-a48143f92719","1854","
                  <p style=""text-align: center;"">₪39
                                                <br>65%</p>
                  <p id=""wtp"" style=""text-align:center; margin-top: 0px; margin-bottom: 0px; font-size: 40px"";>מוכנים לשלם: <span id=""c_p_y""></span></p>","19","evaluation","23","16","1A,15A,26C","65","39","19","","","","","","","","","","","","","","","","","","",""
"","","","","","html-keyboard-response","87","2077332","0.0-17.0-2.23","9434677f-c7c5-4f12-8d0c-a48143f92719","null","<p style=""text-align: center;"">+</p>","null","fixation","","","","","","","","","","","","","","","","","","","","","","","","",""
"","","","","","html-slider-response","88","2078345","0.0-17.0-0.24","9434677f-c7c5-4f12-8d0c-a48143f92719","1000","
                  <p style=""text-align: center;"">₪58
                                                <br>40%</p>
                  <p id=""wtp"" style=""text-align:center; margin-top: 0px; margin-bottom: 0px; font-size: 40px"";>&ensp;</p>","-","viewing","0","20","10C,13A,19C,21B","","","","","","","","","","","","","","","","","","","","","",""
"","","","","","html-slider-response","89","2079718","0.0-17.0-1.24","9434677f-c7c5-4f12-8d0c-a48143f92719","1372","
                  <p style=""text-align: center;"">₪58
                                                <br>40%</p>
                  <p id=""wtp"" style=""text-align:center; margin-top: 0px; margin-bottom: 0px; font-size: 40px"";>מוכנים לשלם: <span id=""c_p_y""></span></p>","18","evaluation","44","20","10C,13A,19C,21B","40","58","18","","","","","","","","","","","","","","","","","","",""
"","","","","","html-keyboard-response","90","2081028","0.0-17.0-2.24","9434677f-c7c5-4f12-8d0c-a48143f92719","null","<p style=""text-align: center;"">+</p>","null","fixation","","","","","","","","","","","","","","","","","","","","","","","","",""
"","","","","","html-slider-response","91","2082034","0.0-17.0-0.25","9434677f-c7c5-4f12-8d0c-a48143f92719","1000","
                  <p style=""text-align: center;"">₪79
                                                <br>40%</p>
                  <p id=""wtp"" style=""text-align:center; margin-top: 0px; margin-bottom: 0px; font-size: 40px"";>&ensp;</p>","-","viewing","0","30","9B","","","","","","","","","","","","","","","","","","","","","",""
"","","","","","html-slider-response","92","2083511","0.0-17.0-1.25","9434677f-c7c5-4f12-8d0c-a48143f92719","1475","
                  <p style=""text-align: center;"">₪79
                                                <br>40%</p>
                  <p id=""wtp"" style=""text-align:center; margin-top: 0px; margin-bottom: 0px; font-size: 40px"";>מוכנים לשלם: <span id=""c_p_y""></span></p>","30","evaluation","34","30","9B","40","79","30","","","","","","","","","","","","","","","","","","",""
"","","","","","html-keyboard-response","93","2084909","0.0-17.0-2.25","9434677f-c7c5-4f12-8d0c-a48143f92719","null","<p style=""text-align: center;"">+</p>","null","fixation","","","","","","","","","","","","","","","","","","","","","","","","",""
"","","","","","html-slider-response","94","2085910","0.0-17.0-0.26","9434677f-c7c5-4f12-8d0c-a48143f92719","1000","
                  <p style=""text-align: center;"">₪61
                                                <br>45%</p>
                  <p id=""wtp"" style=""text-align:center; margin-top: 0px; margin-bottom: 0px; font-size: 40px"";>&ensp;</p>","-","viewing","0","22","10A,11A","","","","","","","","","","","","","","","","","","","","","",""
"","","","","","html-slider-response","95","2087070","0.0-17.0-1.26","9434677f-c7c5-4f12-8d0c-a48143f92719","1160","
                  <p style=""text-align: center;"">₪61
                                                <br>45%</p>
                  <p id=""wtp"" style=""text-align:center; margin-top: 0px; margin-bottom: 0px; font-size: 40px"";>מוכנים לשלם: <span id=""c_p_y""></span></p>","31","evaluation","79","22","10A,11A","45","61","31","","","","","","","","","","","","","","","","","","",""
"","","","","","html-keyboard-response","96","2087947","0.0-17.0-2.26","9434677f-c7c5-4f12-8d0c-a48143f92719","null","<p style=""text-align: center;"">+</p>","null","fixation","","","","","","","","","","","","","","","","","","","","","","","","",""
"","","","","","html-slider-response","97","2088956","0.0-17.0-0.27","9434677f-c7c5-4f12-8d0c-a48143f92719","1000","
                  <p style=""text-align: center;"">₪11
                                                <br>20%</p>
                  <p id=""wtp"" style=""text-align:center; margin-top: 0px; margin-bottom: 0px; font-size: 40px"";>&ensp;</p>","-","viewing","0","4","12C,17C,23C,28C","","","","","","","","","","","","","","","","","","","","","",""
"","","","","","html-slider-response","98","2090335","0.0-17.0-1.27","9434677f-c7c5-4f12-8d0c-a48143f92719","1377","
                  <p style=""text-align: center;"">₪11
                                                <br>20%</p>
                  <p id=""wtp"" style=""text-align:center; margin-top: 0px; margin-bottom: 0px; font-size: 40px"";>מוכנים לשלם: <span id=""c_p_y""></span></p>","10","evaluation","20","4","12C,17C,23C,28C","20","11","10","","","","","","","","","","","","","","","","","","",""
"","","","","","html-keyboard-response","99","2091389","0.0-17.0-2.27","9434677f-c7c5-4f12-8d0c-a48143f92719","null","<p style=""text-align: center;"">+</p>","null","fixation","","","","","","","","","","","","","","","","","","","","","","","","",""
"","","","","","html-slider-response","100","2092394","0.0-17.0-0.28","9434677f-c7c5-4f12-8d0c-a48143f92719","1000","
                  <p style=""text-align: center;"">₪39
                                                <br>60%</p>
                  <p id=""wtp"" style=""text-align:center; margin-top: 0px; margin-bottom: 0px; font-size: 40px"";>&ensp;</p>","-","viewing","0","15","9C,25B","","","","","","","","","","","","","","","","","","","","","",""
"","","","","","html-slider-response","101","2093583","0.0-17.0-1.28","9434677f-c7c5-4f12-8d0c-a48143f92719","1187","
                  <p style=""text-align: center;"">₪39
                                                <br>60%</p>
                  <p id=""wtp"" style=""text-align:center; margin-top: 0px; margin-bottom: 0px; font-size: 40px"";>מוכנים לשלם: <span id=""c_p_y""></span></p>","22","evaluation","6","15","9C,25B","60","39","22","","","","","","","","","","","","","","","","","","",""
"","","","","","html-keyboard-response","102","2094330","0.0-17.0-2.28","9434677f-c7c5-4f12-8d0c-a48143f92719","null","<p style=""text-align: center;"">+</p>","null","fixation","","","","","","","","","","","","","","","","","","","","","","","","",""
"","","","","","html-slider-response","103","2095345","0.0-17.0-0.29","9434677f-c7c5-4f12-8d0c-a48143f92719","1000","
                  <p style=""text-align: center;"">₪71
                                                <br>55%</p>
                  <p id=""wtp"" style=""text-align:center; margin-top: 0px; margin-bottom: 0px; font-size: 40px"";>&ensp;</p>","-","viewing","0","27","5B,18A","","","","","","","","","","","","","","","","","","","","","",""
"","","","","","html-slider-response","104","2096255","0.0-17.0-1.29","9434677f-c7c5-4f12-8d0c-a48143f92719","908","
                  <p style=""text-align: center;"">₪71
                                                <br>55%</p>
                  <p id=""wtp"" style=""text-align:center; margin-top: 0px; margin-bottom: 0px; font-size: 40px"";>מוכנים לשלם: <span id=""c_p_y""></span></p>","26","evaluation","9","27","5B,18A","55","71","26","","","","","","","","","","","","","","","","","","",""
"","","","","","html-keyboard-response","105","2097218","0.0-17.0-2.29","9434677f-c7c5-4f12-8d0c-a48143f92719","null","<p style=""text-align: center;"">+</p>","null","fixation","","","","","","","","","","","","","","","","","","","","","","","","",""
"","","","","","html-slider-response","106","2098220","0.0-17.0-0.30","9434677f-c7c5-4f12-8d0c-a48143f92719","1000","
                  <p style=""text-align: center;"">₪58
                                                <br>30%</p>
                  <p id=""wtp"" style=""text-align:center; margin-top: 0px; margin-bottom: 0px; font-size: 40px"";>&ensp;</p>","-","viewing","0","19","13C,30A","","","","","","","","","","","","","","","","","","","","","",""
"","","","","","html-slider-response","107","2098894","0.0-17.0-1.30","9434677f-c7c5-4f12-8d0c-a48143f92719","672","
                  <p style=""text-align: center;"">₪58
                                                <br>30%</p>
                  <p id=""wtp"" style=""text-align:center; margin-top: 0px; margin-bottom: 0px; font-size: 40px"";>מוכנים לשלם: <span id=""c_p_y""></span></p>","30","evaluation","2","19","13C,30A","30","58","30","","","","","","","","","","","","","","","","","","",""
"","","","","","html-keyboard-response","108","2099775","0.0-17.0-2.30","9434677f-c7c5-4f12-8d0c-a48143f92719","null","<p style=""text-align: center;"">+</p>","null","fixation","","","","","","","","","","","","","","","","","","","","","","","","",""
"","","","","","html-keyboard-response","109","2100785","0.0-18.0","9434677f-c7c5-4f12-8d0c-a48143f92719","null","<p style=""text-align: center;"">+</p>","null","fixation","","","","","","","","","","","","","","","","","","","","","","","","",""
"","","","","","html-keyboard-response","110","2103798","0.0-19.0","9434677f-c7c5-4f12-8d0c-a48143f92719","null","<p>הפסקה.
          <br>לחצו כדי להמשיך.</p>","1","scan_wait","","","","","","","","","","","","","","","","","","","","","","","","",""
"","","","","","html-keyboard-response","111","2104799","0.0-20.0","9434677f-c7c5-4f12-8d0c-a48143f92719","null","<p style=""text-align: center;"">+</p>","null","fixation","","","","","","","","","","","","","","","","","","","","","","","","",""
"","","","","","html-slider-response","112","2105800","0.0-21.0-0.0","9434677f-c7c5-4f12-8d0c-a48143f92719","1000","
                  <p style=""text-align: center;"">₪43
                                                <br>75%</p>
                  <p id=""wtp"" style=""text-align:center; margin-top: 0px; margin-bottom: 0px; font-size: 40px"";>&ensp;</p>","-","viewing","0","18","11B,19B,24A,26A","","","","","","","","","","","","","","","","","","","","","",""
"","","","","","html-slider-response","113","2107310","0.0-21.0-1.0","9434677f-c7c5-4f12-8d0c-a48143f92719","1509","
                  <p style=""text-align: center;"">₪43
                                                <br>75%</p>
                  <p id=""wtp"" style=""text-align:center; margin-top: 0px; margin-bottom: 0px; font-size: 40px"";>מוכנים לשלם: <span id=""c_p_y""></span></p>","18","evaluation","47","18","11B,19B,24A,26A","75","43","18","","","","","","","","","","","","","","","","","","",""
"","","","","","html-keyboard-response","114","2108404","0.0-21.0-2.0","9434677f-c7c5-4f12-8d0c-a48143f92719","null","<p style=""text-align: center;"">+</p>","null","fixation","","","","","","","","","","","","","","","","","","","","","","","","",""
"","","","","","html-slider-response","115","2109407","0.0-21.0-0.1","9434677f-c7c5-4f12-8d0c-a48143f92719","1000","
                  <p style=""text-align: center;"">₪39
                                                <br>60%</p>
                  <p id=""wtp"" style=""text-align:center; margin-top: 0px; margin-bottom: 0px; font-size: 40px"";>&ensp;</p>","-","viewing","0","15","9C,25B","","","","","","","","","","","","","","","","","","","","","",""
"","","","","","html-slider-response","116","2110006","0.0-21.0-1.1","9434677f-c7c5-4f12-8d0c-a48143f92719","599","
                  <p style=""text-align: center;"">₪39
                                                <br>60%</p>
                  <p id=""wtp"" style=""text-align:center; margin-top: 0px; margin-bottom: 0px; font-size: 40px"";>מוכנים לשלם: <span id=""c_p_y""></span></p>","26","evaluation","47","15","9C,25B","60","39","26","","","","","","","","","","","","","","","","","","",""
"","","","","","html-keyboard-response","117","2111340","0.0-21.0-2.1","9434677f-c7c5-4f12-8d0c-a48143f92719","null","<p style=""text-align: center;"">+</p>","null","fixation","","","","","","","","","","","","","","","","","","","","","","","","",""
"","","","","","html-slider-response","118","2112343","0.0-21.0-0.2","9434677f-c7c5-4f12-8d0c-a48143f92719","1000","
                  <p style=""text-align: center;"">₪4
                                                <br>75%</p>
                  <p id=""wtp"" style=""text-align:center; margin-top: 0px; margin-bottom: 0px; font-size: 40px"";>&ensp;</p>","-","viewing","0","3","12B,20B,23B,27C,29C","","","","","","","","","","","","","","","","","","","","","",""
"","","","","","html-slider-response","119","2113510","0.0-21.0-1.2","9434677f-c7c5-4f12-8d0c-a48143f92719","1166","
                  <p style=""text-align: center;"">₪4
                                                <br>75%</p>
                  <p id=""wtp"" style=""text-align:center; margin-top: 0px; margin-bottom: 0px; font-size: 40px"";>מוכנים לשלם: <span id=""c_p_y""></span></p>","2","evaluation","3","3","12B,20B,23B,27C,29C","75","4","3","","","","","","","","","","","","","","","","","","",""
"","","","","","html-keyboard-response","120","2114130","0.0-21.0-2.2","9434677f-c7c5-4f12-8d0c-a48143f92719","null","<p style=""text-align: center;"">+</p>","null","fixation","","","","","","","","","","","","","","","","","","","","","","","","",""
"","","","","","html-slider-response","121","2115132","0.0-21.0-0.3","9434677f-c7c5-4f12-8d0c-a48143f92719","1000","
                  <p style=""text-align: center;"">₪18
                                                <br>25%</p>
                  <p id=""wtp"" style=""text-align:center; margin-top: 0px; margin-bottom: 0px; font-size: 40px"";>&ensp;</p>","-","viewing","0","9","14A,23A","","","","","","","","","","","","","","","","","","","","","",""
"","","","","","html-slider-response","122","2116270","0.0-21.0-1.3","9434677f-c7c5-4f12-8d0c-a48143f92719","1137","
                  <p style=""text-align: center;"">₪18
                                                <br>25%</p>
                  <p id=""wtp"" style=""text-align:center; margin-top: 0px; margin-bottom: 0px; font-size: 40px"";>מוכנים לשלם: <span id=""c_p_y""></span></p>","15","evaluation","52","9","14A,23A","25","18","15","","","","","","","","","","","","","","","","","","",""
"","","","","","html-keyboard-response","123","2117212","0.0-21.0-2.3","9434677f-c7c5-4f12-8d0c-a48143f92719","null","<p style=""text-align: center;"">+</p>","null","fixation","","","","","","","","","","","","","","","","","","","","","","","","",""
"","","","","","html-slider-response","124","2118219","0.0-21.0-0.4","9434677f-c7c5-4f12-8d0c-a48143f92719","1000","
                  <p style=""text-align: center;"">₪58
                                                <br>30%</p>
                  <p id=""wtp"" style=""text-align:center; margin-top: 0px; margin-bottom: 0px; font-size: 40px"";>&ensp;</p>","-","viewing","0","19","13C,30A","","","","","","","","","","","","","","","","","","","","","",""
"","","","","","html-slider-response","125","2119126","0.0-21.0-1.4","9434677f-c7c5-4f12-8d0c-a48143f92719","907","
                  <p style=""text-align: center;"">₪58
                                                <br>30%</p>
                  <p id=""wtp"" style=""text-align:center; margin-top: 0px; margin-bottom: 0px; font-size: 40px"";>מוכנים לשלם: <span id=""c_p_y""></span></p>","20","evaluation","25","19","13C,30A","30","58","20","","","","","","","","","","","","","","","","","","",""
"","","","","","html-keyboard-response","126","2120625","0.0-21.0-2.4","9434677f-c7c5-4f12-8d0c-a48143f92719","null","<p style=""text-align: center;"">+</p>","null","fixation","","","","","","","","","","","","","","","","","","","","","","","","",""
"","","","","","html-slider-response","127","2121637","0.0-21.0-0.5","9434677f-c7c5-4f12-8d0c-a48143f92719","1000","
                  <p style=""text-align: center;"">₪58
                                                <br>45%</p>
                  <p id=""wtp"" style=""text-align:center; margin-top: 0px; margin-bottom: 0px; font-size: 40px"";>&ensp;</p>","-","viewing","0","21","11C,18C,25A","","","","","","","","","","","","","","","","","","","","","",""
"","","","","","html-slider-response","128","2122486","0.0-21.0-1.5","9434677f-c7c5-4f12-8d0c-a48143f92719","848","
                  <p style=""text-align: center;"">₪58
                                                <br>45%</p>
                  <p id=""wtp"" style=""text-align:center; margin-top: 0px; margin-bottom: 0px; font-size: 40px"";>מוכנים לשלם: <span id=""c_p_y""></span></p>","22","evaluation","76","21","11C,18C,25A","45","58","22","","","","","","","","","","","","","","","","","","",""
"","","","","","html-keyboard-response","129","2123633","0.0-21.0-2.5","9434677f-c7c5-4f12-8d0c-a48143f92719","null","<p style=""text-align: center;"">+</p>","null","fixation","","","","","","","","","","","","","","","","","","","","","","","","",""
"","","","","","html-slider-response","130","2124642","0.0-21.0-0.6","9434677f-c7c5-4f12-8d0c-a48143f92719","1000","
                  <p style=""text-align: center;"">₪4
                                                <br>25%</p>
                  <p id=""wtp"" style=""text-align:center; margin-top: 0px; margin-bottom: 0px; font-size: 40px"";>&ensp;</p>","-","viewing","0","1","6C,29B,30C","","","","","","","","","","","","","","","","","","","","","",""
"","","","","","html-slider-response","131","2125622","0.0-21.0-1.6","9434677f-c7c5-4f12-8d0c-a48143f92719","980","
                  <p style=""text-align: center;"">₪4
                                                <br>25%</p>
                  <p id=""wtp"" style=""text-align:center; margin-top: 0px; margin-bottom: 0px; font-size: 40px"";>מוכנים לשלם: <span id=""c_p_y""></span></p>","5","evaluation","46","1","6C,29B,30C","25","4","5","","","","","","","","","","","","","","","","","","",""
"","","","","","html-keyboard-response","132","2126413","0.0-21.0-2.6","9434677f-c7c5-4f12-8d0c-a48143f92719","null","<p style=""text-align: center;"">+</p>","null","fixation","","","","","","","","","","","","","","","","","","","","","","","","",""
"","","","","","html-slider-response","133","2127425","0.0-21.0-0.7","9434677f-c7c5-4f12-8d0c-a48143f92719","1000","
                  <p style=""text-align: center;"">₪11
                                                <br>20%</p>
                  <p id=""wtp"" style=""text-align:center; margin-top: 0px; margin-bottom: 0px; font-size: 40px"";>&ensp;</p>","-","viewing","0","4","12C,17C,23C,28C","","","","","","","","","","","","","","","","","","","","","",""
"","","","","","html-slider-response","134","2128638","0.0-21.0-1.7","9434677f-c7c5-4f12-8d0c-a48143f92719","1213","
                  <p style=""text-align: center;"">₪11
                                                <br>20%</p>
                  <p id=""wtp"" style=""text-align:center; margin-top: 0px; margin-bottom: 0px; font-size: 40px"";>מוכנים לשלם: <span id=""c_p_y""></span></p>","6","evaluation","11","4","12C,17C,23C,28C","20","11","7","","","","","","","","","","","","","","","","","","",""
"","","","","","html-keyboard-response","135","2129756","0.0-21.0-2.7","9434677f-c7c5-4f12-8d0c-a48143f92719","null","<p style=""text-align: center;"">+</p>","null","fixation","","","","","","","","","","","","","","","","","","","","","","","","",""
"","","","","","html-slider-response","136","2130772","0.0-21.0-0.8","9434677f-c7c5-4f12-8d0c-a48143f92719","1000","
                  <p style=""text-align: center;"">₪11
                                                <br>25%</p>
                  <p id=""wtp"" style=""text-align:center; margin-top: 0px; margin-bottom: 0px; font-size: 40px"";>&ensp;</p>","-","viewing","0","5","12A,27B,28B,30B","","","","","","","","","","","","","","","","","","","","","",""
"","","","","","html-slider-response","137","2132214","0.0-21.0-1.8","9434677f-c7c5-4f12-8d0c-a48143f92719","1442","
                  <p style=""text-align: center;"">₪11
                                                <br>25%</p>
                  <p id=""wtp"" style=""text-align:center; margin-top: 0px; margin-bottom: 0px; font-size: 40px"";>מוכנים לשלם: <span id=""c_p_y""></span></p>","8","evaluation","77","5","12A,27B,28B,30B","25","11","8","","","","","","","","","","","","","","","","","","",""
"","","","","","html-keyboard-response","138","2133124","0.0-21.0-2.8","9434677f-c7c5-4f12-8d0c-a48143f92719","null","<p style=""text-align: center;"">+</p>","null","fixation","","","","","","","","","","","","","","","","","","","","","","","","",""
"","","","","","html-slider-response","139","2134126","0.0-21.0-0.9","9434677f-c7c5-4f12-8d0c-a48143f92719","1000","
                  <p style=""text-align: center;"">₪36
                                                <br>70%</p>
                  <p id=""wtp"" style=""text-align:center; margin-top: 0px; margin-bottom: 0px; font-size: 40px"";>&ensp;</p>","-","viewing","0","13","3A,5C,10B","","","","","","","","","","","","","","","","","","","","","",""
"","","","","","html-slider-response","140","2134782","0.0-21.0-1.9","9434677f-c7c5-4f12-8d0c-a48143f92719","655","
                  <p style=""text-align: center;"">₪36
                                                <br>70%</p>
                  <p id=""wtp"" style=""text-align:center; margin-top: 0px; margin-bottom: 0px; font-size: 40px"";>מוכנים לשלם: <span id=""c_p_y""></span></p>","23","evaluation","67","13","3A,5C,10B","70","36","23","","","","","","","","","","","","","","","","","","",""
"","","","","","html-keyboard-response","141","2135585","0.0-21.0-2.9","9434677f-c7c5-4f12-8d0c-a48143f92719","null","<p style=""text-align: center;"">+</p>","null","fixation","","","","","","","","","","","","","","","","","","","","","","","","",""
"","","","","","html-slider-response","142","2136588","0.0-21.0-0.10","9434677f-c7c5-4f12-8d0c-a48143f92719","1000","
                  <p style=""text-align: center;"">₪71
                                                <br>55%</p>
                  <p id=""wtp"" style=""text-align:center; margin-top: 0px; margin-bottom: 0px; font-size: 40px"";>&ensp;</p>","-","viewing","0","27","5B,18A","","","","","","","","","","","","","","","","","","","","","",""
"","","","","","html-slider-response","143","2137902","0.0-21.0-1.10","9434677f-c7c5-4f12-8d0c-a48143f92719","1313","
                  <p style=""text-align: center;"">₪71
                                                <br>55%</p>
                  <p id=""wtp"" style=""text-align:center; margin-top: 0px; margin-bottom: 0px; font-size: 40px"";>מוכנים לשלם: <span id=""c_p_y""></span></p>","21","evaluation","71","27","5B,18A","55","71","21","","","","","","","","","","","","","","","","","","",""
"","","","","","html-keyboard-response","144","2139079","0.0-21.0-2.10","9434677f-c7c5-4f12-8d0c-a48143f92719","null","<p style=""text-align: center;"">+</p>","null","fixation","","","","","","","","","","","","","","","","","","","","","","","","",""
"","","","","","html-slider-response","145","2140083","0.0-21.0-0.11","9434677f-c7c5-4f12-8d0c-a48143f92719","1000","
                  <p style=""text-align: center;"">₪11
                                                <br>75%</p>
                  <p id=""wtp"" style=""text-align:center; margin-top: 0px; margin-bottom: 0px; font-size: 40px"";>&ensp;</p>","-","viewing","0","7","6B,18B,22C,24C,29A","","","","","","","","","","","","","","","","","","","","","",""
"","","","","","html-slider-response","146","2141574","0.0-21.0-1.11","9434677f-c7c5-4f12-8d0c-a48143f92719","1490","
                  <p style=""text-align: center;"">₪11
                                                <br>75%</p>
                  <p id=""wtp"" style=""text-align:center; margin-top: 0px; margin-bottom: 0px; font-size: 40px"";>מוכנים לשלם: <span id=""c_p_y""></span></p>","5","evaluation","1","7","6B,18B,22C,24C,29A","75","11","6","","","","","","","","","","","","","","","","","","",""
"","","","","","html-keyboard-response","147","2142718","0.0-21.0-2.11","9434677f-c7c5-4f12-8d0c-a48143f92719","null","<p style=""text-align: center;"">+</p>","null","fixation","","","","","","","","","","","","","","","","","","","","","","","","",""
"","","","","","html-slider-response","148","2143728","0.0-21.0-0.12","9434677f-c7c5-4f12-8d0c-a48143f92719","1000","
                  <p style=""text-align: center;"">₪36
                                                <br>30%</p>
                  <p id=""wtp"" style=""text-align:center; margin-top: 0px; margin-bottom: 0px; font-size: 40px"";>&ensp;</p>","-","viewing","0","11","3C,20A,22A","","","","","","","","","","","","","","","","","","","","","",""
"","","","","","html-slider-response","149","2145127","0.0-21.0-1.12","9434677f-c7c5-4f12-8d0c-a48143f92719","1398","
                  <p style=""text-align: center;"">₪36
                                                <br>30%</p>
                  <p id=""wtp"" style=""text-align:center; margin-top: 0px; margin-bottom: 0px; font-size: 40px"";>מוכנים לשלם: <span id=""c_p_y""></span></p>","16","evaluation","59","11","3C,20A,22A","30","36","17","","","","","","","","","","","","","","","","","","",""
"","","","","","html-keyboard-response","150","2146005","0.0-21.0-2.12","9434677f-c7c5-4f12-8d0c-a48143f92719","null","<p style=""text-align: center;"">+</p>","null","fixation","","","","","","","","","","","","","","","","","","","","","","","","",""
"","","","","","html-slider-response","151","2147013","0.0-21.0-0.13","9434677f-c7c5-4f12-8d0c-a48143f92719","1000","
                  <p style=""text-align: center;"">₪64
                                                <br>25%</p>
                  <p id=""wtp"" style=""text-align:center; margin-top: 0px; margin-bottom: 0px; font-size: 40px"";>&ensp;</p>","-","viewing","0","24","6A,21A","","","","","","","","","","","","","","","","","","","","","",""
"","","","","","html-slider-response","152","2147742","0.0-21.0-1.13","9434677f-c7c5-4f12-8d0c-a48143f92719","728","
                  <p style=""text-align: center;"">₪64
                                                <br>25%</p>
                  <p id=""wtp"" style=""text-align:center; margin-top: 0px; margin-bottom: 0px; font-size: 40px"";>מוכנים לשלם: <span id=""c_p_y""></span></p>","13","evaluation","19","24","6A,21A","25","64","13","","","","","","","","","","","","","","","","","","",""
"","","","","","html-keyboard-response","153","2148374","0.0-21.0-2.13","9434677f-c7c5-4f12-8d0c-a48143f92719","null","<p style=""text-align: center;"">+</p>","null","fixation","","","","","","","","","","","","","","","","","","","","","","","","",""
"","","","","","html-slider-response","154","2149376","0.0-21.0-0.14","9434677f-c7c5-4f12-8d0c-a48143f92719","1000","
                  <p style=""text-align: center;"">₪61
                                                <br>45%</p>
                  <p id=""wtp"" style=""text-align:center; margin-top: 0px; margin-bottom: 0px; font-size: 40px"";>&ensp;</p>","-","viewing","0","22","10A,11A","","","","","","","","","","","","","","","","","","","","","",""
"","","","","","html-slider-response","155","2149926","0.0-21.0-1.14","9434677f-c7c5-4f12-8d0c-a48143f92719","549","
                  <p style=""text-align: center;"">₪61
                                                <br>45%</p>
                  <p id=""wtp"" style=""text-align:center; margin-top: 0px; margin-bottom: 0px; font-size: 40px"";>מוכנים לשלם: <span id=""c_p_y""></span></p>","16","evaluation","33","22","10A,11A","45","61","16","","","","","","","","","","","","","","","","","","",""
"","","","","","html-keyboard-response","156","2151013","0.0-21.0-2.14","9434677f-c7c5-4f12-8d0c-a48143f92719","null","<p style=""text-align: center;"">+</p>","null","fixation","","","","","","","","","","","","","","","","","","","","","","","","",""
"","","","","","html-slider-response","157","2152016","0.0-21.0-0.15","9434677f-c7c5-4f12-8d0c-a48143f92719","1000","
                  <p style=""text-align: center;"">₪36
                                                <br>60%</p>
                  <p id=""wtp"" style=""text-align:center; margin-top: 0px; margin-bottom: 0px; font-size: 40px"";>&ensp;</p>","-","viewing","0","12","1C,7C,15C","","","","","","","","","","","","","","","","","","","","","",""
"","","","","","html-slider-response","158","2152526","0.0-21.0-1.15","9434677f-c7c5-4f12-8d0c-a48143f92719","509","
                  <p style=""text-align: center;"">₪36
                                                <br>60%</p>
                  <p id=""wtp"" style=""text-align:center; margin-top: 0px; margin-bottom: 0px; font-size: 40px"";>מוכנים לשלם: <span id=""c_p_y""></span></p>","17","evaluation","48","12","1C,7C,15C","60","36","17","","","","","","","","","","","","","","","","","","",""
"","","","","","html-keyboard-response","159","2153553","0.0-21.0-2.15","9434677f-c7c5-4f12-8d0c-a48143f92719","null","<p style=""text-align: center;"">+</p>","null","fixation","","","","","","","","","","","","","","","","","","","","","","","","",""
"","","","","","html-slider-response","160","2154558","0.0-21.0-0.16","9434677f-c7c5-4f12-8d0c-a48143f92719","1000","
                  <p style=""text-align: center;"">₪39
                                                <br>65%</p>
                  <p id=""wtp"" style=""text-align:center; margin-top: 0px; margin-bottom: 0px; font-size: 40px"";>&ensp;</p>","-","viewing","0","16","1A,15A,26C","","","","","","","","","","","","","","","","","","","","","",""
"","","","","","html-slider-response","161","2155318","0.0-21.0-1.16","9434677f-c7c5-4f12-8d0c-a48143f92719","759","
                  <p style=""text-align: center;"">₪39
                                                <br>65%</p>
                  <p id=""wtp"" style=""text-align:center; margin-top: 0px; margin-bottom: 0px; font-size: 40px"";>מוכנים לשלם: <span id=""c_p_y""></span></p>","22","evaluation","4","16","1A,15A,26C","65","39","22","","","","","","","","","","","","","","","","","","",""
"","","","","","html-keyboard-response","162","2155934","0.0-21.0-2.16","9434677f-c7c5-4f12-8d0c-a48143f92719","null","<p style=""text-align: center;"">+</p>","null","fixation","","","","","","","","","","","","","","","","","","","","","","","","",""
"","","","","","html-slider-response","163","2156941","0.0-21.0-0.17","9434677f-c7c5-4f12-8d0c-a48143f92719","1000","
                  <p style=""text-align: center;"">₪18
                                                <br>50%</p>
                  <p id=""wtp"" style=""text-align:center; margin-top: 0px; margin-bottom: 0px; font-size: 40px"";>&ensp;</p>","-","viewing","0","10","2C,16C,22B,28A","","","","","","","","","","","","","","","","","","","","","",""
"","","","","","html-slider-response","164","2158030","0.0-21.0-1.17","9434677f-c7c5-4f12-8d0c-a48143f92719","1089","
                  <p style=""text-align: center;"">₪18
                                                <br>50%</p>
                  <p id=""wtp"" style=""text-align:center; margin-top: 0px; margin-bottom: 0px; font-size: 40px"";>מוכנים לשלם: <span id=""c_p_y""></span></p>","14","evaluation","31","10","2C,16C,22B,28A","50","18","14","","","","","","","","","","","","","","","","","","",""
"","","","","","html-keyboard-response","165","2158761","0.0-21.0-2.17","9434677f-c7c5-4f12-8d0c-a48143f92719","null","<p style=""text-align: center;"">+</p>","null","fixation","","","","","","","","","","","","","","","","","","","","","","","","",""
"","","","","","html-slider-response","166","2159777","0.0-21.0-0.18","9434677f-c7c5-4f12-8d0c-a48143f92719","1000","
                  <p style=""text-align: center;"">₪43
                                                <br>60%</p>
                  <p id=""wtp"" style=""text-align:center; margin-top: 0px; margin-bottom: 0px; font-size: 40px"";>&ensp;</p>","-","viewing","0","17","2A,7A,9A,15B","","","","","","","","","","","","","","","","","","","","","",""
"","","","","","html-slider-response","167","2160614","0.0-21.0-1.18","9434677f-c7c5-4f12-8d0c-a48143f92719","836","
                  <p style=""text-align: center;"">₪43
                                                <br>60%</p>
                  <p id=""wtp"" style=""text-align:center; margin-top: 0px; margin-bottom: 0px; font-size: 40px"";>מוכנים לשלם: <span id=""c_p_y""></span></p>","17","evaluation","42","17","2A,7A,9A,15B","60","43","17","","","","","","","","","","","","","","","","","","",""
"","","","","","html-keyboard-response","168","2161471","0.0-21.0-2.18","9434677f-c7c5-4f12-8d0c-a48143f92719","null","<p style=""text-align: center;"">+</p>","null","fixation","","","","","","","","","","","","","","","","","","","","","","","","",""
"","","","","","html-slider-response","169","2162477","0.0-21.0-0.19","9434677f-c7c5-4f12-8d0c-a48143f92719","1000","
                  <p style=""text-align: center;"">₪71
                                                <br>75%</p>
                  <p id=""wtp"" style=""text-align:center; margin-top: 0px; margin-bottom: 0px; font-size: 40px"";>&ensp;</p>","-","viewing","0","28","8B","","","","","","","","","","","","","","","","","","","","","",""
"","","","","","html-slider-response","170","2163054","0.0-21.0-1.19","9434677f-c7c5-4f12-8d0c-a48143f92719","577","
                  <p style=""text-align: center;"">₪71
                                                <br>75%</p>
                  <p id=""wtp"" style=""text-align:center; margin-top: 0px; margin-bottom: 0px; font-size: 40px"";>מוכנים לשלם: <span id=""c_p_y""></span></p>","21","evaluation","53","28","8B","75","71","21","","","","","","","","","","","","","","","","","","",""
"","","","","","html-keyboard-response","171","2163627","0.0-21.0-2.19","9434677f-c7c5-4f12-8d0c-a48143f92719","null","<p style=""text-align: center;"">+</p>","null","fixation","","","","","","","","","","","","","","","","","","","","","","","","",""
"","","","","","html-slider-response","172","2164633","0.0-21.0-0.20","9434677f-c7c5-4f12-8d0c-a48143f92719","1000","
                  <p style=""text-align: center;"">₪16
                                                <br>20%</p>
                  <p id=""wtp"" style=""text-align:center; margin-top: 0px; margin-bottom: 0px; font-size: 40px"";>&ensp;</p>","-","viewing","0","8","14C,17A,20C,27A","","","","","","","","","","","","","","","","","","","","","",""
"","","","","","html-slider-response","173","2165334","0.0-21.0-1.20","9434677f-c7c5-4f12-8d0c-a48143f92719","700","
                  <p style=""text-align: center;"">₪16
                                                <br>20%</p>
                  <p id=""wtp"" style=""text-align:center; margin-top: 0px; margin-bottom: 0px; font-size: 40px"";>מוכנים לשלם: <span id=""c_p_y""></span></p>","13","evaluation","41","8","14C,17A,20C,27A","20","16","13","","","","","","","","","","","","","","","","","","",""
"","","","","","html-keyboard-response","174","2165965","0.0-21.0-2.20","9434677f-c7c5-4f12-8d0c-a48143f92719","null","<p style=""text-align: center;"">+</p>","null","fixation","","","","","","","","","","","","","","","","","","","","","","","","",""
"","","","","","html-slider-response","175","2166968","0.0-21.0-0.21","9434677f-c7c5-4f12-8d0c-a48143f92719","1000","
                  <p style=""text-align: center;"">₪36
                                                <br>75%</p>
                  <p id=""wtp"" style=""text-align:center; margin-top: 0px; margin-bottom: 0px; font-size: 40px"";>&ensp;</p>","-","viewing","0","14","4B,5A,13B,16B","","","","","","","","","","","","","","","","","","","","","",""
"","","","","","html-slider-response","176","2167582","0.0-21.0-1.21","9434677f-c7c5-4f12-8d0c-a48143f92719","614","
                  <p style=""text-align: center;"">₪36
                                                <br>75%</p>
                  <p id=""wtp"" style=""text-align:center; margin-top: 0px; margin-bottom: 0px; font-size: 40px"";>מוכנים לשלם: <span id=""c_p_y""></span></p>","16","evaluation","33","14","4B,5A,13B,16B","75","36","16","","","","","","","","","","","","","","","","","","",""
"","","","","","html-keyboard-response","177","2168259","0.0-21.0-2.21","9434677f-c7c5-4f12-8d0c-a48143f92719","null","<p style=""text-align: center;"">+</p>","null","fixation","","","","","","","","","","","","","","","","","","","","","","","","",""
"","","","","","html-slider-response","178","2169270","0.0-21.0-0.22","9434677f-c7c5-4f12-8d0c-a48143f92719","1000","
                  <p style=""text-align: center;"">₪11
                                                <br>45%</p>
                  <p id=""wtp"" style=""text-align:center; margin-top: 0px; margin-bottom: 0px; font-size: 40px"";>&ensp;</p>","-","viewing","0","6","14B,21C,25C","","","","","","","","","","","","","","","","","","","","","",""
"","","","","","html-slider-response","179","2169702","0.0-21.0-1.22","9434677f-c7c5-4f12-8d0c-a48143f92719","432","
                  <p style=""text-align: center;"">₪11
                                                <br>45%</p>
                  <p id=""wtp"" style=""text-align:center; margin-top: 0px; margin-bottom: 0px; font-size: 40px"";>מוכנים לשלם: <span id=""c_p_y""></span></p>","16","evaluation","16","6","14B,21C,25C","45","11","16","","","","","","","","","","","","","","","","","","",""
"","","","","","html-keyboard-response","180","2170940","0.0-21.0-2.22","9434677f-c7c5-4f12-8d0c-a48143f92719","null","<p style=""text-align: center;"">+</p>","null","fixation","","","","","","","","","","","","","","","","","","","","","","","","",""
"","","","","","html-slider-response","181","2171956","0.0-21.0-0.23","9434677f-c7c5-4f12-8d0c-a48143f92719","1000","
                  <p style=""text-align: center;"">₪79
                                                <br>65%</p>
                  <p id=""wtp"" style=""text-align:center; margin-top: 0px; margin-bottom: 0px; font-size: 40px"";>&ensp;</p>","-","viewing","0","31","8A","","","","","","","","","","","","","","","","","","","","","",""
"","","","","","html-slider-response","182","2172646","0.0-21.0-1.23","9434677f-c7c5-4f12-8d0c-a48143f92719","690","
                  <p style=""text-align: center;"">₪79
                                                <br>65%</p>
                  <p id=""wtp"" style=""text-align:center; margin-top: 0px; margin-bottom: 0px; font-size: 40px"";>מוכנים לשלם: <span id=""c_p_y""></span></p>","27","evaluation","55","31","8A","65","79","27","","","","","","","","","","","","","","","","","","",""
"","","","","","html-keyboard-response","183","2173485","0.0-21.0-2.23","9434677f-c7c5-4f12-8d0c-a48143f92719","null","<p style=""text-align: center;"">+</p>","null","fixation","","","","","","","","","","","","","","","","","","","","","","","","",""
"","","","","","html-slider-response","184","2174488","0.0-21.0-0.24","9434677f-c7c5-4f12-8d0c-a48143f92719","1000","
                  <p style=""text-align: center;"">₪79
                                                <br>40%</p>
                  <p id=""wtp"" style=""text-align:center; margin-top: 0px; margin-bottom: 0px; font-size: 40px"";>&ensp;</p>","-","viewing","0","30","9B","","","","","","","","","","","","","","","","","","","","","",""
"","","","","","html-slider-response","185","2174942","0.0-21.0-1.24","9434677f-c7c5-4f12-8d0c-a48143f92719","452","
                  <p style=""text-align: center;"">₪79
                                                <br>40%</p>
                  <p id=""wtp"" style=""text-align:center; margin-top: 0px; margin-bottom: 0px; font-size: 40px"";>מוכנים לשלם: <span id=""c_p_y""></span></p>","27","evaluation","25","30","9B","40","79","27","","","","","","","","","","","","","","","","","","",""
"","","","","","html-keyboard-response","186","2175788","0.0-21.0-2.24","9434677f-c7c5-4f12-8d0c-a48143f92719","null","<p style=""text-align: center;"">+</p>","null","fixation","","","","","","","","","","","","","","","","","","","","","","","","",""
"","","","","","html-slider-response","187","2176795","0.0-21.0-0.25","9434677f-c7c5-4f12-8d0c-a48143f92719","1000","
                  <p style=""text-align: center;"">₪61
                                                <br>55%</p>
                  <p id=""wtp"" style=""text-align:center; margin-top: 0px; margin-bottom: 0px; font-size: 40px"";>&ensp;</p>","-","viewing","0","23","7B,26B","","","","","","","","","","","","","","","","","","","","","",""
"","","","","","html-slider-response","188","2177350","0.0-21.0-1.25","9434677f-c7c5-4f12-8d0c-a48143f92719","554","
                  <p style=""text-align: center;"">₪61
                                                <br>55%</p>
                  <p id=""wtp"" style=""text-align:center; margin-top: 0px; margin-bottom: 0px; font-size: 40px"";>מוכנים לשלם: <span id=""c_p_y""></span></p>","8","evaluation","8","23","7B,26B","55","61","8","","","","","","","","","","","","","","","","","","",""
"","","","","","html-keyboard-response","189","2178675","0.0-21.0-2.25","9434677f-c7c5-4f12-8d0c-a48143f92719","null","<p style=""text-align: center;"">+</p>","null","fixation","","","","","","","","","","","","","","","","","","","","","","","","",""
"","","","","","html-slider-response","190","2179692","0.0-21.0-0.26","9434677f-c7c5-4f12-8d0c-a48143f92719","1000","
                  <p style=""text-align: center;"">₪71
                                                <br>45%</p>
                  <p id=""wtp"" style=""text-align:center; margin-top: 0px; margin-bottom: 0px; font-size: 40px"";>&ensp;</p>","-","viewing","0","26","2B,16A","","","","","","","","","","","","","","","","","","","","","",""
"","","","","","html-slider-response","191","2180558","0.0-21.0-1.26","9434677f-c7c5-4f12-8d0c-a48143f92719","866","
                  <p style=""text-align: center;"">₪71
                                                <br>45%</p>
                  <p id=""wtp"" style=""text-align:center; margin-top: 0px; margin-bottom: 0px; font-size: 40px"";>מוכנים לשלם: <span id=""c_p_y""></span></p>","23","evaluation","51","26","2B,16A","45","71","23","","","","","","","","","","","","","","","","","","",""
"","","","","","html-keyboard-response","192","2181393","0.0-21.0-2.26","9434677f-c7c5-4f12-8d0c-a48143f92719","null","<p style=""text-align: center;"">+</p>","null","fixation","","","","","","","","","","","","","","","","","","","","","","","","",""
"","","","","","html-slider-response","193","2182395","0.0-21.0-0.27","9434677f-c7c5-4f12-8d0c-a48143f92719","1000","
                  <p style=""text-align: center;"">₪4
                                                <br>50%</p>
                  <p id=""wtp"" style=""text-align:center; margin-top: 0px; margin-bottom: 0px; font-size: 40px"";>&ensp;</p>","-","viewing","0","2","4C,17B","","","","","","","","","","","","","","","","","","","","","",""
"","","","","","html-slider-response","194","2183566","0.0-21.0-1.27","9434677f-c7c5-4f12-8d0c-a48143f92719","1171","
                  <p style=""text-align: center;"">₪4
                                                <br>50%</p>
                  <p id=""wtp"" style=""text-align:center; margin-top: 0px; margin-bottom: 0px; font-size: 40px"";>מוכנים לשלם: <span id=""c_p_y""></span></p>","4","evaluation","6","2","4C,17B","50","4","4","","","","","","","","","","","","","","","","","","",""
"","","","","","html-keyboard-response","195","2184515","0.0-21.0-2.27","9434677f-c7c5-4f12-8d0c-a48143f92719","null","<p style=""text-align: center;"">+</p>","null","fixation","","","","","","","","","","","","","","","","","","","","","","","","",""
"","","","","","html-slider-response","196","2185516","0.0-21.0-0.28","9434677f-c7c5-4f12-8d0c-a48143f92719","1000","
                  <p style=""text-align: center;"">₪58
                                                <br>40%</p>
                  <p id=""wtp"" style=""text-align:center; margin-top: 0px; margin-bottom: 0px; font-size: 40px"";>&ensp;</p>","-","viewing","0","20","10C,13A,19C,21B","","","","","","","","","","","","","","","","","","","","","",""
"","","","","","html-slider-response","197","2186911","0.0-21.0-1.28","9434677f-c7c5-4f12-8d0c-a48143f92719","1393","
                  <p style=""text-align: center;"">₪58
                                                <br>40%</p>
                  <p id=""wtp"" style=""text-align:center; margin-top: 0px; margin-bottom: 0px; font-size: 40px"";>מוכנים לשלם: <span id=""c_p_y""></span></p>","14","evaluation","5","20","10C,13A,19C,21B","40","58","15","","","","","","","","","","","","","","","","","","",""
"","","","","","html-keyboard-response","198","2188015","0.0-21.0-2.28","9434677f-c7c5-4f12-8d0c-a48143f92719","null","<p style=""text-align: center;"">+</p>","null","fixation","","","","","","","","","","","","","","","","","","","","","","","","",""
"","","","","","html-slider-response","199","2189020","0.0-21.0-0.29","9434677f-c7c5-4f12-8d0c-a48143f92719","1000","
                  <p style=""text-align: center;"">₪64
                                                <br>50%</p>
                  <p id=""wtp"" style=""text-align:center; margin-top: 0px; margin-bottom: 0px; font-size: 40px"";>&ensp;</p>","-","viewing","0","25","1B,3B,4A","","","","","","","","","","","","","","","","","","","","","",""
"","","","","","html-slider-response","200","2189662","0.0-21.0-1.29","9434677f-c7c5-4f12-8d0c-a48143f92719","642","
                  <p style=""text-align: center;"">₪64
                                                <br>50%</p>
                  <p id=""wtp"" style=""text-align:center; margin-top: 0px; margin-bottom: 0px; font-size: 40px"";>מוכנים לשלם: <span id=""c_p_y""></span></p>","11","evaluation","24","25","1B,3B,4A","50","64","11","","","","","","","","","","","","","","","","","","",""
"","","","","","html-keyboard-response","201","2191111","0.0-21.0-2.29","9434677f-c7c5-4f12-8d0c-a48143f92719","null","<p style=""text-align: center;"">+</p>","null","fixation","","","","","","","","","","","","","","","","","","","","","","","","",""
"","","","","","html-slider-response","202","2192120","0.0-21.0-0.30","9434677f-c7c5-4f12-8d0c-a48143f92719","1000","
                  <p style=""text-align: center;"">₪76
                                                <br>65%</p>
                  <p id=""wtp"" style=""text-align:center; margin-top: 0px; margin-bottom: 0px; font-size: 40px"";>&ensp;</p>","-","viewing","0","29","8C,19A,24B","","","","","","","","","","","","","","","","","","","","","",""
"","","","","","html-slider-response","203","2192814","0.0-21.0-1.30","9434677f-c7c5-4f12-8d0c-a48143f92719","694","
                  <p style=""text-align: center;"">₪76
                                                <br>65%</p>
                  <p id=""wtp"" style=""text-align:center; margin-top: 0px; margin-bottom: 0px; font-size: 40px"";>מוכנים לשלם: <span id=""c_p_y""></span></p>","14","evaluation","29","29","8C,19A,24B","65","76","14","","","","","","","","","","","","","","","","","","",""
"","","","","","html-keyboard-response","204","2193687","0.0-21.0-2.30","9434677f-c7c5-4f12-8d0c-a48143f92719","null","<p style=""text-align: center;"">+</p>","null","fixation","","","","","","","","","","","","","","","","","","","","","","","","",""
"","","","","","html-keyboard-response","205","2194694","0.0-22.0","9434677f-c7c5-4f12-8d0c-a48143f92719","null","<p style=""text-align: center;"">+</p>","null","fixation","","","","","","","","","","","","","","","","","","","","","","","","",""
"","","","","","html-keyboard-response","206","2200311","0.0-23.0","9434677f-c7c5-4f12-8d0c-a48143f92719","null","<p>הפסקה.
          <br>לחצו כדי להמשיך.</p>","1","scan_wait","","","","","","","","","","","","","","","","","","","","","","","","",""
"","","","","","html-keyboard-response","207","2201318","0.0-24.0","9434677f-c7c5-4f12-8d0c-a48143f92719","null","<p style=""text-align: center;"">+</p>","null","fixation","","","","","","","","","","","","","","","","","","","","","","","","",""
"","","","","","html-slider-response","208","2202333","0.0-25.0-0.0","9434677f-c7c5-4f12-8d0c-a48143f92719","1000","
                  <p style=""text-align: center;"">₪64
                                                <br>50%</p>
                  <p id=""wtp"" style=""text-align:center; margin-top: 0px; margin-bottom: 0px; font-size: 40px"";>&ensp;</p>","-","viewing","0","25","1B,3B,4A","","","","","","","","","","","","","","","","","","","","","",""
"","","","","","html-slider-response","209","2203390","0.0-25.0-1.0","9434677f-c7c5-4f12-8d0c-a48143f92719","1056","
                  <p style=""text-align: center;"">₪64
                                                <br>50%</p>
                  <p id=""wtp"" style=""text-align:center; margin-top: 0px; margin-bottom: 0px; font-size: 40px"";>מוכנים לשלם: <span id=""c_p_y""></span></p>","13","evaluation","5","25","1B,3B,4A","50","64","14","","","","","","","","","","","","","","","","","","",""
"","","","","","html-keyboard-response","210","2204302","0.0-25.0-2.0","9434677f-c7c5-4f12-8d0c-a48143f92719","null","<p style=""text-align: center;"">+</p>","null","fixation","","","","","","","","","","","","","","","","","","","","","","","","",""
"","","","","","html-slider-response","211","2205309","0.0-25.0-0.1","9434677f-c7c5-4f12-8d0c-a48143f92719","1000","
                  <p style=""text-align: center;"">₪11
                                                <br>45%</p>
                  <p id=""wtp"" style=""text-align:center; margin-top: 0px; margin-bottom: 0px; font-size: 40px"";>&ensp;</p>","-","viewing","0","6","14B,21C,25C","","","","","","","","","","","","","","","","","","","","","",""
"","","","","","html-slider-response","212","2206558","0.0-25.0-1.1","9434677f-c7c5-4f12-8d0c-a48143f92719","1248","
                  <p style=""text-align: center;"">₪11
                                                <br>45%</p>
                  <p id=""wtp"" style=""text-align:center; margin-top: 0px; margin-bottom: 0px; font-size: 40px"";>מוכנים לשלם: <span id=""c_p_y""></span></p>","5","evaluation","33","6","14B,21C,25C","45","11","6","","","","","","","","","","","","","","","","","","",""
"","","","","","html-keyboard-response","213","2207174","0.0-25.0-2.1","9434677f-c7c5-4f12-8d0c-a48143f92719","null","<p style=""text-align: center;"">+</p>","null","fixation","","","","","","","","","","","","","","","","","","","","","","","","",""
"","","","","","html-slider-response","214","2208177","0.0-25.0-0.2","9434677f-c7c5-4f12-8d0c-a48143f92719","1000","
                  <p style=""text-align: center;"">₪4
                                                <br>50%</p>
                  <p id=""wtp"" style=""text-align:center; margin-top: 0px; margin-bottom: 0px; font-size: 40px"";>&ensp;</p>","-","viewing","0","2","4C,17B","","","","","","","","","","","","","","","","","","","","","",""
"","","","","","html-slider-response","215","2209550","0.0-25.0-1.2","9434677f-c7c5-4f12-8d0c-a48143f92719","1372","
                  <p style=""text-align: center;"">₪4
                                                <br>50%</p>
                  <p id=""wtp"" style=""text-align:center; margin-top: 0px; margin-bottom: 0px; font-size: 40px"";>מוכנים לשלם: <span id=""c_p_y""></span></p>","2","evaluation","72","2","4C,17B","50","4","2","","","","","","","","","","","","","","","","","","",""
"","","","","","html-keyboard-response","216","2210673","0.0-25.0-2.2","9434677f-c7c5-4f12-8d0c-a48143f92719","null","<p style=""text-align: center;"">+</p>","null","fixation","","","","","","","","","","","","","","","","","","","","","","","","",""
"","","","","","html-slider-response","217","2211675","0.0-25.0-0.3","9434677f-c7c5-4f12-8d0c-a48143f92719","1000","
                  <p style=""text-align: center;"">₪61
                                                <br>55%</p>
                  <p id=""wtp"" style=""text-align:center; margin-top: 0px; margin-bottom: 0px; font-size: 40px"";>&ensp;</p>","-","viewing","0","23","7B,26B","","","","","","","","","","","","","","","","","","","","","",""
"","","","","","html-slider-response","218","2212454","0.0-25.0-1.3","9434677f-c7c5-4f12-8d0c-a48143f92719","778","
                  <p style=""text-align: center;"">₪61
                                                <br>55%</p>
                  <p id=""wtp"" style=""text-align:center; margin-top: 0px; margin-bottom: 0px; font-size: 40px"";>מוכנים לשלם: <span id=""c_p_y""></span></p>","10","evaluation","30","23","7B,26B","55","61","10","","","","","","","","","","","","","","","","","","",""
"","","","","","html-keyboard-response","219","2213822","0.0-25.0-2.3","9434677f-c7c5-4f12-8d0c-a48143f92719","null","<p style=""text-align: center;"">+</p>","null","fixation","","","","","","","","","","","","","","","","","","","","","","","","",""
"","","","","","html-slider-response","220","2214833","0.0-25.0-0.4","9434677f-c7c5-4f12-8d0c-a48143f92719","1000","
                  <p style=""text-align: center;"">₪36
                                                <br>30%</p>
                  <p id=""wtp"" style=""text-align:center; margin-top: 0px; margin-bottom: 0px; font-size: 40px"";>&ensp;</p>","-","viewing","0","11","3C,20A,22A","","","","","","","","","","","","","","","","","","","","","",""
"","","","","","html-slider-response","221","2215678","0.0-25.0-1.4","9434677f-c7c5-4f12-8d0c-a48143f92719","844","
                  <p style=""text-align: center;"">₪36
                                                <br>30%</p>
                  <p id=""wtp"" style=""text-align:center; margin-top: 0px; margin-bottom: 0px; font-size: 40px"";>מוכנים לשלם: <span id=""c_p_y""></span></p>","20","evaluation","43","11","3C,20A,22A","30","36","20","","","","","","","","","","","","","","","","","","",""
"","","","","","html-keyboard-response","222","2216433","0.0-25.0-2.4","9434677f-c7c5-4f12-8d0c-a48143f92719","null","<p style=""text-align: center;"">+</p>","null","fixation","","","","","","","","","","","","","","","","","","","","","","","","",""
"","","","","","html-slider-response","223","2217435","0.0-25.0-0.5","9434677f-c7c5-4f12-8d0c-a48143f92719","1000","
                  <p style=""text-align: center;"">₪18
                                                <br>50%</p>
                  <p id=""wtp"" style=""text-align:center; margin-top: 0px; margin-bottom: 0px; font-size: 40px"";>&ensp;</p>","-","viewing","0","10","2C,16C,22B,28A","","","","","","","","","","","","","","","","","","","","","",""
"","","","","","html-slider-response","224","2218438","0.0-25.0-1.5","9434677f-c7c5-4f12-8d0c-a48143f92719","1002","
                  <p style=""text-align: center;"">₪18
                                                <br>50%</p>
                  <p id=""wtp"" style=""text-align:center; margin-top: 0px; margin-bottom: 0px; font-size: 40px"";>מוכנים לשלם: <span id=""c_p_y""></span></p>","13","evaluation","58","10","2C,16C,22B,28A","50","18","13","","","","","","","","","","","","","","","","","","",""
"","","","","","html-keyboard-response","225","2219626","0.0-25.0-2.5","9434677f-c7c5-4f12-8d0c-a48143f92719","null","<p style=""text-align: center;"">+</p>","null","fixation","","","","","","","","","","","","","","","","","","","","","","","","",""
"","","","","","html-slider-response","226","2220629","0.0-25.0-0.6","9434677f-c7c5-4f12-8d0c-a48143f92719","1000","
                  <p style=""text-align: center;"">₪39
                                                <br>60%</p>
                  <p id=""wtp"" style=""text-align:center; margin-top: 0px; margin-bottom: 0px; font-size: 40px"";>&ensp;</p>","-","viewing","0","15","9C,25B","","","","","","","","","","","","","","","","","","","","","",""
"","","","","","html-slider-response","227","2221398","0.0-25.0-1.6","9434677f-c7c5-4f12-8d0c-a48143f92719","768","
                  <p style=""text-align: center;"">₪39
                                                <br>60%</p>
                  <p id=""wtp"" style=""text-align:center; margin-top: 0px; margin-bottom: 0px; font-size: 40px"";>מוכנים לשלם: <span id=""c_p_y""></span></p>","17","evaluation","13","15","9C,25B","60","39","17","","","","","","","","","","","","","","","","","","",""
"","","","","","html-keyboard-response","228","2222885","0.0-25.0-2.6","9434677f-c7c5-4f12-8d0c-a48143f92719","null","<p style=""text-align: center;"">+</p>","null","fixation","","","","","","","","","","","","","","","","","","","","","","","","",""
"","","","","","html-slider-response","229","2223892","0.0-25.0-0.7","9434677f-c7c5-4f12-8d0c-a48143f92719","1000","
                  <p style=""text-align: center;"">₪58
                                                <br>40%</p>
                  <p id=""wtp"" style=""text-align:center; margin-top: 0px; margin-bottom: 0px; font-size: 40px"";>&ensp;</p>","-","viewing","0","20","10C,13A,19C,21B","","","","","","","","","","","","","","","","","","","","","",""
"","","","","","html-slider-response","230","2224542","0.0-25.0-1.7","9434677f-c7c5-4f12-8d0c-a48143f92719","650","
                  <p style=""text-align: center;"">₪58
                                                <br>40%</p>
                  <p id=""wtp"" style=""text-align:center; margin-top: 0px; margin-bottom: 0px; font-size: 40px"";>מוכנים לשלם: <span id=""c_p_y""></span></p>","19","evaluation","60","20","10C,13A,19C,21B","40","58","19","","","","","","","","","","","","","","","","","","",""
"","","","","","html-keyboard-response","231","2225875","0.0-25.0-2.7","9434677f-c7c5-4f12-8d0c-a48143f92719","null","<p style=""text-align: center;"">+</p>","null","fixation","","","","","","","","","","","","","","","","","","","","","","","","",""
"","","","","","html-slider-response","232","2226877","0.0-25.0-0.8","9434677f-c7c5-4f12-8d0c-a48143f92719","1000","
                  <p style=""text-align: center;"">₪71
                                                <br>45%</p>
                  <p id=""wtp"" style=""text-align:center; margin-top: 0px; margin-bottom: 0px; font-size: 40px"";>&ensp;</p>","-","viewing","0","26","2B,16A","","","","","","","","","","","","","","","","","","","","","",""
"","","","","","html-slider-response","233","2227774","0.0-25.0-1.8","9434677f-c7c5-4f12-8d0c-a48143f92719","896","
                  <p style=""text-align: center;"">₪71
                                                <br>45%</p>
                  <p id=""wtp"" style=""text-align:center; margin-top: 0px; margin-bottom: 0px; font-size: 40px"";>מוכנים לשלם: <span id=""c_p_y""></span></p>","22","evaluation","9","26","2B,16A","45","71","22","","","","","","","","","","","","","","","","","","",""
"","","","","","html-keyboard-response","234","2229218","0.0-25.0-2.8","9434677f-c7c5-4f12-8d0c-a48143f92719","null","<p style=""text-align: center;"">+</p>","null","fixation","","","","","","","","","","","","","","","","","","","","","","","","",""
"","","","","","html-slider-response","235","2230226","0.0-25.0-0.9","9434677f-c7c5-4f12-8d0c-a48143f92719","1000","
                  <p style=""text-align: center;"">₪16
                                                <br>20%</p>
                  <p id=""wtp"" style=""text-align:center; margin-top: 0px; margin-bottom: 0px; font-size: 40px"";>&ensp;</p>","-","viewing","0","8","14C,17A,20C,27A","","","","","","","","","","","","","","","","","","","","","",""
"","","","","","html-slider-response","236","2231782","0.0-25.0-1.9","9434677f-c7c5-4f12-8d0c-a48143f92719","1554","
                  <p style=""text-align: center;"">₪16
                                                <br>20%</p>
                  <p id=""wtp"" style=""text-align:center; margin-top: 0px; margin-bottom: 0px; font-size: 40px"";>מוכנים לשלם: <span id=""c_p_y""></span></p>","8","evaluation","0","8","14C,17A,20C,27A","20","16","8","","","","","","","","","","","","","","","","","","",""
"","","","","","html-keyboard-response","237","2233086","0.0-25.0-2.9","9434677f-c7c5-4f12-8d0c-a48143f92719","null","<p style=""text-align: center;"">+</p>","null","fixation","","","","","","","","","","","","","","","","","","","","","","","","",""
"","","","","","html-slider-response","238","2234101","0.0-25.0-0.10","9434677f-c7c5-4f12-8d0c-a48143f92719","1000","
                  <p style=""text-align: center;"">₪11
                                                <br>25%</p>
                  <p id=""wtp"" style=""text-align:center; margin-top: 0px; margin-bottom: 0px; font-size: 40px"";>&ensp;</p>","-","viewing","0","5","12A,27B,28B,30B","","","","","","","","","","","","","","","","","","","","","",""
"","","","","","html-slider-response","239","2234694","0.0-25.0-1.10","9434677f-c7c5-4f12-8d0c-a48143f92719","593","
                  <p style=""text-align: center;"">₪11
                                                <br>25%</p>
                  <p id=""wtp"" style=""text-align:center; margin-top: 0px; margin-bottom: 0px; font-size: 40px"";>מוכנים לשלם: <span id=""c_p_y""></span></p>","8","evaluation","77","5","12A,27B,28B,30B","25","11","8","","","","","","","","","","","","","","","","","","",""
"","","","","","html-keyboard-response","240","2235405","0.0-25.0-2.10","9434677f-c7c5-4f12-8d0c-a48143f92719","null","<p style=""text-align: center;"">+</p>","null","fixation","","","","","","","","","","","","","","","","","","","","","","","","",""
"","","","","","html-slider-response","241","2236415","0.0-25.0-0.11","9434677f-c7c5-4f12-8d0c-a48143f92719","1000","
                  <p style=""text-align: center;"">₪36
                                                <br>70%</p>
                  <p id=""wtp"" style=""text-align:center; margin-top: 0px; margin-bottom: 0px; font-size: 40px"";>&ensp;</p>","-","viewing","0","13","3A,5C,10B","","","","","","","","","","","","","","","","","","","","","",""
"","","","","","html-slider-response","242","2236838","0.0-25.0-1.11","9434677f-c7c5-4f12-8d0c-a48143f92719","422","
                  <p style=""text-align: center;"">₪36
                                                <br>70%</p>
                  <p id=""wtp"" style=""text-align:center; margin-top: 0px; margin-bottom: 0px; font-size: 40px"";>מוכנים לשלם: <span id=""c_p_y""></span></p>","12","evaluation","58","13","3A,5C,10B","70","36","12","","","","","","","","","","","","","","","","","","",""
"","","","","","html-keyboard-response","243","2238152","0.0-25.0-2.11","9434677f-c7c5-4f12-8d0c-a48143f92719","null","<p style=""text-align: center;"">+</p>","null","fixation","","","","","","","","","","","","","","","","","","","","","","","","",""
"","","","","","html-slider-response","244","2239159","0.0-25.0-0.12","9434677f-c7c5-4f12-8d0c-a48143f92719","1000","
                  <p style=""text-align: center;"">₪71
                                                <br>75%</p>
                  <p id=""wtp"" style=""text-align:center; margin-top: 0px; margin-bottom: 0px; font-size: 40px"";>&ensp;</p>","-","viewing","0","28","8B","","","","","","","","","","","","","","","","","","","","","",""
"","","","","","html-slider-response","245","2239766","0.0-25.0-1.12","9434677f-c7c5-4f12-8d0c-a48143f92719","606","
                  <p style=""text-align: center;"">₪71
