"success","timeout","failed_images","failed_audio","failed_video","trial_type","trial_index","time_elapsed","internal_node_id","subject_id","rt","stimulus","response","part","slider_start","ID","set_ID","prob","amount","last_location","actual_choice","actual_EV","binary_id","trinary_id","catch","A_key","D_key","choice_prob","choice_amount","chosen_part","potential_prize_prob","potential_prize_amount","won_prize","total_prize","prize_cost","remaining_budget","accuracy"
"true","false","[]","[]","[]","preload","0","23","0.0-0.0","b7cfbd6e-32b1-4c69-a4d4-9eae9a6bc143","","","","","","","","","","","","","","","","","","","","","","","","","","",""
"","","","","","html-keyboard-response","1","1013380","0.0-1.0","b7cfbd6e-32b1-4c69-a4d4-9eae9a6bc143","null","
          <h1>שלום וברוכים הבאים!</h1>
          <p>לפניכם ניסוי בקבלת החלטות עם שני חלקים.
          <br><br>לחצו על העכבר כדי להמשיך.</p>","0","example","","","","","","","","","","","","","","","","","","","","","","",""
"","","","","","html-keyboard-response","2","1016098","0.0-2.0","b7cfbd6e-32b1-4c69-a4d4-9eae9a6bc143","null","
        <h1>חלק 1</h1>
        <p>בקרוב יוצגו בפניכם הגרלות.
        <br>עליכם לבחור את המחיר המירבי שתהיו מוכנים לשלם כדי להשתתף בהגרלה שתוצג.
        <br>יש לכם תקציב של ₪80 לכל הגרלה. 
        <br>נסו להעריך כל הגרלה בנפרד ולחשוב כמה היא שווה עבורכם, ₪80 זמינים לכל הגרלה בנפרד.
        <br><br>לחצו על העכבר כדי להמשיך.</p>","1","instructions","","","","","","","","","","","","","","","","","","","","","","",""
"","","","","","html-keyboard-response","3","1016226","0.0-3.0","b7cfbd6e-32b1-4c69-a4d4-9eae9a6bc143","null","
        <p>בסוף הניסוי, המחשב יבחר את אחת ההגרלות ויקבע מחיר לכרטיס עבורה. 
        <br>במידה והמחיר שבחרתם נמוך מהמחיר שנבחר על ידי המחשב, לא תשתתפו בהגרלה ותשארו עם מלוא התקציב.
        <br>במידה והמחיר שבחרתם גבוה מהמחיר שנבחר על ידי המחשב, תשלמו את המחיר שנקבע ותשתתפו בהגרלה.
        <br><br>לחצו על העכבר כדי להמשיך.</p>","1","instructions","","","","","","","","","","","","","","","","","","","","","","",""
"","","","","","html-slider-response","4","1063731","0.0-4.0","b7cfbd6e-32b1-4c69-a4d4-9eae9a6bc143","47388","
        <p style=""font-size: 42px;"">נתחיל עם דוגמא: 
        <br>ההגרלה מטה מציעה 65% סיכוי לזכות ב-₪40 
        <br>&emsp;&emsp;&emsp;&emsp;&emsp;&emsp;&emsp;&emsp;&ensp;35% סיכוי לזכות ב-₪0.
        <br><br>מה המחיר המירבי שתהיו מוכנים לשלם על כרטיס להגרלה זו בין 0 ל-₪80?
        <br>הזיזו את העכבר על פני המלבן ולחצו כדי לבצע בחירה.</p>
        
        <p style=""text-align: center;"">₪40<br>65%</p>

        <p id=""wtp"" style=""text-align:center; margin-top: 0px; margin-bottom: 0px; font-size: 40px"";>מוכנים לשלם: <span id=""c_p_y""></span></p>","20","example","65","","","","","","","","","","","","","","","","","","","","","",""
"","","","","","html-keyboard-response","5","1079386","0.0-5.0","b7cfbd6e-32b1-4c69-a4d4-9eae9a6bc143","null","<p>יפה מאוד!
                <br> בחרתם שתהיו מוכנים לשלם ₪20 כדי להשתתף בהגרלה:
                <br><p style=""text-align: center;"">₪40<br>65%</p>
                <p>נשמע נכון?
                <br>נניח שהגרלה זו נבחרה בסוף הניסוי.
                <br>כעת המחשב יקבע מחיר עבורה באקראי.
                <br>לחצו על העכבר להמשך.</p>","1","example","","","","","","","","","","","","","","","","","","","","","","",""
"","","","","","html-keyboard-response","6","1089082","0.0-6.0","b7cfbd6e-32b1-4c69-a4d4-9eae9a6bc143","null","<p>המחשב קבע מחיר: ₪35
                <br>ואתם בחרתם לשלם לכל היותר: ₪20
                <br><br>מכיוון שהמחיר שבחרתם נמוך מהמחיר שנקבע, לא תתשתתפו בהגרלה.
                <br>במקרה כזה, בסוף הניסוי תקבלו את כל התקציב ההתחלתי של ₪80.
                <br><br>לחצו על העכבר להמשך.</p>","1","example","","","","","","","","","","","","","","","","","","","","","","",""
"","","","","","html-slider-response","7","1103578","0.0-7.0","b7cfbd6e-32b1-4c69-a4d4-9eae9a6bc143","14239","<p style=""font-size: 42px;"">הנה עוד דוגמא:
                <br>ההגרלה מטה מציעה 35% סיכוי לזכות ב-₪18 
                <br>&emsp;&emsp;&emsp;&emsp;&emsp;&emsp;&emsp;&emsp;&ensp;65% סיכוי לזכות ב-₪0.</p>
        
                <p style=""text-align: center;"">₪18<br>35%</p>
                <p id=""wtp"" style=""text-align:center; margin-top: 0px; margin-bottom: 0px; font-size: 40px"";>מוכנים לשלם: <span id=""c_p_y""></span></p>","9","example","29","","","","","","","","","","","","","","","","","","","","","",""
"","","","","","html-keyboard-response","8","1112587","0.0-8.0","b7cfbd6e-32b1-4c69-a4d4-9eae9a6bc143","null","<p>הייתם מוכנים לשלם  ₪9 כדי להשתתף בהגרלה:
                <p style=""text-align: center;"">₪18<br>35%</p>
                <p>כעת נניח שהמחשב בחר את ההגרלה הזו בסוף הניסוי, וקבע עבורה מחיר.
                <br><br>לחצו על העכבר כדי להמשיך.</p>","1","instructions","","","","","","","","","","","","","","","","","","","","","","",""
"","","","","","html-keyboard-response","9","1123770","0.0-9.0","b7cfbd6e-32b1-4c69-a4d4-9eae9a6bc143","null","<p>המחשב קבע מחיר להגרלה: ₪9
                <br>ואתם בחרתם לשלם לכל היותר: ₪9
                <br><br>כעת המחיר שנקבע זהה לזה שבחרתם, אז תשלמו את המחיר שקבע המחשב (₪9) ותשתתפו בהגרלה.
                <br>במקרה כזה, תסיימו את הניסוי עם תקציב של ₪71 ועם סיכוי לזכות ב-₪18 נוספים מההגרלה.
                <br>כלומר, תוכלו לקבל ₪71 אם לא תזכו בהגרלה, או ₪89 אם תזכו בהגרלה.
                <br><br>לחצו על העכבר להמשך.</p>","1","example","","","","","","","","","","","","","","","","","","","","","","",""
"","","","","","html-keyboard-response","10","1137458","0.0-10.0","b7cfbd6e-32b1-4c69-a4d4-9eae9a6bc143","null","<p>במהלך הניסוי, קודם תראו את ההגרלה ורק לאחר מכן תוכלו לבחור.
                <p>כמו כן, יהיו לכם מספר שניות מוגבל להגיב.
                <p>בואו ננסה זאת עם ההגרלה הקודמת.
                <br>לחצו על העכבר כדי להמשיך.</p>","1","instructions","","","","","","","","","","","","","","","","","","","","","","",""
"","","","","","html-slider-response","11","1138736","0.0-11.0","b7cfbd6e-32b1-4c69-a4d4-9eae9a6bc143","1000","
                    <p style=""text-align: center;"">₪18<br>35%</p>
                    <p id=""wtp"" style=""text-align:center; margin-top: 0px; margin-bottom: 0px; font-size: 40px"";>&ensp;</p>","59","instructions","0","","","","","","","","","","","","","","","","","","","","","",""
"","","","","","html-slider-response","12","1143005","0.0-12.0","b7cfbd6e-32b1-4c69-a4d4-9eae9a6bc143","null","
                    <p style=""text-align: center;"">₪18<br>35%</p>
                    <p id=""wtp"" style=""text-align:center; margin-top: 0px; margin-bottom: 0px; font-size: 40px"";>מוכנים לשלם: <span id=""c_p_y""></span></p>","null","instructions","19","","","","","","","","","","","","","","","","","","","","","",""
"","","","","","html-keyboard-response","13","1149146","0.0-13.0","b7cfbd6e-32b1-4c69-a4d4-9eae9a6bc143","null","<p>לא הגבתם בזמן המוקצב לתגובה. 
                <br>נסו להגיב מהר יותר בפעם הבאה.
                <br><br>לחצו על העכבר כדי להמשיך.</p>","1","instructions","","","","","","","","","","","","","","","","","","","","","","",""
"","","","","","html-slider-response","14","1152331","0.0-14.0-0.0","b7cfbd6e-32b1-4c69-a4d4-9eae9a6bc143","2930","
                    <p style=""text-align: center;"">₪40<br>65%</p>
                    <p id=""wtp"" style=""text-align:center; margin-top: 0px; margin-bottom: 0px; font-size: 40px"";>מוכנים לשלם: <span id=""c_p_y""></span></p>","20","instructions","51","","","","","","","","","","","","","","","","","","","","","",""
"","","","","","html-keyboard-response","15","1156234","0.0-14.0-1.0","b7cfbd6e-32b1-4c69-a4d4-9eae9a6bc143","null","<p>יפה. הפעם בחרתם לשלם לכל היותר ₪20.
                <br><br>לחצו על העכבר כדי להמשיך.</p>","1","instructions","","","","","","","","","","","","","","","","","","","","","","",""
"","","","","","html-keyboard-response","16","1166011","0.0-15.0","b7cfbd6e-32b1-4c69-a4d4-9eae9a6bc143","null","<p>כעת נתחיל את הניסוי.
                <br><br>אתם תראו הגרלות ותתבקשו לבחור כמה תהיו מוכנים לשלם כדי להשתתף בהן.
                <br>יש לכם תקציב של ₪80 עבור כל הגרלה.
                <br>בסוף הניסוי הגרלה אחת תבחר באקראי ותשוחק.
                <br><br>לחצו על העכבר כדי להתחיל את הניסוי.</p>","1","instructions","","","","","","","","","","","","","","","","","","","","","","",""
"","","","","","html-keyboard-response","17","1167281","0.0-16.0","b7cfbd6e-32b1-4c69-a4d4-9eae9a6bc143","null","<p style=""text-align: center;"">+</p>","null","fixation","","","","","","","","","","","","","","","","","","","","","","",""
"","","","","","html-slider-response","18","1168291","0.0-17.0-0.0","b7cfbd6e-32b1-4c69-a4d4-9eae9a6bc143","1000","
                  <p style=""text-align: center;"">₪11
                                                <br>75%</p>
                  <p id=""wtp"" style=""text-align:center; margin-top: 0px; margin-bottom: 0px; font-size: 40px"";>&ensp;</p>","-","viewing","0","7","6B,18B,22C,24C,29A","","","","","","","","","","","","","","","","","","","",""
"","","","","","html-slider-response","19","1172301","0.0-17.0-1.0","b7cfbd6e-32b1-4c69-a4d4-9eae9a6bc143","null","
                  <p style=""text-align: center;"">₪11
                                                <br>75%</p>
                  <p id=""wtp"" style=""text-align:center; margin-top: 0px; margin-bottom: 0px; font-size: 40px"";>מוכנים לשלם: <span id=""c_p_y""></span></p>","null","evaluation","3","7","6B,18B,22C,24C,29A","75","11","26","","","","","","","","","","","","","","","","",""
"","","","","","html-keyboard-response","20","1172887","0.0-17.0-2.0","b7cfbd6e-32b1-4c69-a4d4-9eae9a6bc143","null","<p style=""text-align: center;"">+</p>","null","fixation","","","","","","","","","","","","","","","","","","","","","","",""
"","","","","","html-slider-response","21","1173889","0.0-17.0-0.1","b7cfbd6e-32b1-4c69-a4d4-9eae9a6bc143","1000","
                  <p style=""text-align: center;"">₪36
                                                <br>75%</p>
                  <p id=""wtp"" style=""text-align:center; margin-top: 0px; margin-bottom: 0px; font-size: 40px"";>&ensp;</p>","-","viewing","0","14","4B,5A,13B,16B","","","","","","","","","","","","","","","","","","","",""
"","","","","","html-slider-response","22","1176075","0.0-17.0-1.1","b7cfbd6e-32b1-4c69-a4d4-9eae9a6bc143","2184","
                  <p style=""text-align: center;"">₪36
                                                <br>75%</p>
                  <p id=""wtp"" style=""text-align:center; margin-top: 0px; margin-bottom: 0px; font-size: 40px"";>מוכנים לשלם: <span id=""c_p_y""></span></p>","40","evaluation","48","14","4B,5A,13B,16B","75","36","40","","","","","","","","","","","","","","","","",""
"","","","","","html-keyboard-response","23","1176764","0.0-17.0-2.1","b7cfbd6e-32b1-4c69-a4d4-9eae9a6bc143","null","<p style=""text-align: center;"">+</p>","null","fixation","","","","","","","","","","","","","","","","","","","","","","",""
"","","","","","html-slider-response","24","1177773","0.0-17.0-0.2","b7cfbd6e-32b1-4c69-a4d4-9eae9a6bc143","1000","
                  <p style=""text-align: center;"">₪4
                                                <br>75%</p>
                  <p id=""wtp"" style=""text-align:center; margin-top: 0px; margin-bottom: 0px; font-size: 40px"";>&ensp;</p>","-","viewing","0","3","12B,20B,23B,27C,29C","","","","","","","","","","","","","","","","","","","",""
"","","","","","html-slider-response","25","1180779","0.0-17.0-1.2","b7cfbd6e-32b1-4c69-a4d4-9eae9a6bc143","3004","
                  <p style=""text-align: center;"">₪4
                                                <br>75%</p>
                  <p id=""wtp"" style=""text-align:center; margin-top: 0px; margin-bottom: 0px; font-size: 40px"";>מוכנים לשלם: <span id=""c_p_y""></span></p>","13","evaluation","63","3","12B,20B,23B,27C,29C","75","4","13","","","","","","","","","","","","","","","","",""
"","","","","","html-keyboard-response","26","1181515","0.0-17.0-2.2","b7cfbd6e-32b1-4c69-a4d4-9eae9a6bc143","null","<p style=""text-align: center;"">+</p>","null","fixation","","","","","","","","","","","","","","","","","","","","","","",""
"","","","","","html-slider-response","27","1182528","0.0-17.0-0.3","b7cfbd6e-32b1-4c69-a4d4-9eae9a6bc143","1000","
                  <p style=""text-align: center;"">₪61
                                                <br>45%</p>
                  <p id=""wtp"" style=""text-align:center; margin-top: 0px; margin-bottom: 0px; font-size: 40px"";>&ensp;</p>","-","viewing","0","22","10A,11A","","","","","","","","","","","","","","","","","","","",""
"","","","","","html-slider-response","28","1185578","0.0-17.0-1.3","b7cfbd6e-32b1-4c69-a4d4-9eae9a6bc143","3049","
                  <p style=""text-align: center;"">₪61
                                                <br>45%</p>
                  <p id=""wtp"" style=""text-align:center; margin-top: 0px; margin-bottom: 0px; font-size: 40px"";>מוכנים לשלם: <span id=""c_p_y""></span></p>","28","evaluation","31","22","10A,11A","45","61","28","","","","","","","","","","","","","","","","",""
"","","","","","html-keyboard-response","29","1186684","0.0-17.0-2.3","b7cfbd6e-32b1-4c69-a4d4-9eae9a6bc143","null","<p style=""text-align: center;"">+</p>","null","fixation","","","","","","","","","","","","","","","","","","","","","","",""
"","","","","","html-slider-response","30","1187692","0.0-17.0-0.4","b7cfbd6e-32b1-4c69-a4d4-9eae9a6bc143","1000","
                  <p style=""text-align: center;"">₪39
                                                <br>60%</p>
                  <p id=""wtp"" style=""text-align:center; margin-top: 0px; margin-bottom: 0px; font-size: 40px"";>&ensp;</p>","-","viewing","0","15","9C,25B","","","","","","","","","","","","","","","","","","","",""
"","","","","","html-slider-response","31","1189555","0.0-17.0-1.4","b7cfbd6e-32b1-4c69-a4d4-9eae9a6bc143","1862","
                  <p style=""text-align: center;"">₪39
                                                <br>60%</p>
                  <p id=""wtp"" style=""text-align:center; margin-top: 0px; margin-bottom: 0px; font-size: 40px"";>מוכנים לשלם: <span id=""c_p_y""></span></p>","34","evaluation","67","15","9C,25B","60","39","34","","","","","","","","","","","","","","","","",""
"","","","","","html-keyboard-response","32","1190510","0.0-17.0-2.4","b7cfbd6e-32b1-4c69-a4d4-9eae9a6bc143","null","<p style=""text-align: center;"">+</p>","null","fixation","","","","","","","","","","","","","","","","","","","","","","",""
"","","","","","html-slider-response","33","1191521","0.0-17.0-0.5","b7cfbd6e-32b1-4c69-a4d4-9eae9a6bc143","1000","
                  <p style=""text-align: center;"">₪64
                                                <br>50%</p>
                  <p id=""wtp"" style=""text-align:center; margin-top: 0px; margin-bottom: 0px; font-size: 40px"";>&ensp;</p>","-","viewing","0","25","1B,3B,4A","","","","","","","","","","","","","","","","","","","",""
"","","","","","html-slider-response","34","1193947","0.0-17.0-1.5","b7cfbd6e-32b1-4c69-a4d4-9eae9a6bc143","2424","
                  <p style=""text-align: center;"">₪64
                                                <br>50%</p>
                  <p id=""wtp"" style=""text-align:center; margin-top: 0px; margin-bottom: 0px; font-size: 40px"";>מוכנים לשלם: <span id=""c_p_y""></span></p>","41","evaluation","51","25","1B,3B,4A","50","64","41","","","","","","","","","","","","","","","","",""
"","","","","","html-keyboard-response","35","1194631","0.0-17.0-2.5","b7cfbd6e-32b1-4c69-a4d4-9eae9a6bc143","null","<p style=""text-align: center;"">+</p>","null","fixation","","","","","","","","","","","","","","","","","","","","","","",""
"","","","","","html-slider-response","36","1195635","0.0-17.0-0.6","b7cfbd6e-32b1-4c69-a4d4-9eae9a6bc143","1000","
                  <p style=""text-align: center;"">₪36
                                                <br>70%</p>
                  <p id=""wtp"" style=""text-align:center; margin-top: 0px; margin-bottom: 0px; font-size: 40px"";>&ensp;</p>","-","viewing","0","13","3A,5C,10B","","","","","","","","","","","","","","","","","","","",""
"","","","","","html-slider-response","37","1198770","0.0-17.0-1.6","b7cfbd6e-32b1-4c69-a4d4-9eae9a6bc143","3135","
                  <p style=""text-align: center;"">₪36
                                                <br>70%</p>
                  <p id=""wtp"" style=""text-align:center; margin-top: 0px; margin-bottom: 0px; font-size: 40px"";>מוכנים לשלם: <span id=""c_p_y""></span></p>","57","evaluation","58","13","3A,5C,10B","70","36","57","","","","","","","","","","","","","","","","",""
"","","","","","html-keyboard-response","38","1199796","0.0-17.0-2.6","b7cfbd6e-32b1-4c69-a4d4-9eae9a6bc143","null","<p style=""text-align: center;"">+</p>","null","fixation","","","","","","","","","","","","","","","","","","","","","","",""
"","","","","","html-slider-response","39","1200803","0.0-17.0-0.7","b7cfbd6e-32b1-4c69-a4d4-9eae9a6bc143","1000","
                  <p style=""text-align: center;"">₪71
                                                <br>45%</p>
                  <p id=""wtp"" style=""text-align:center; margin-top: 0px; margin-bottom: 0px; font-size: 40px"";>&ensp;</p>","-","viewing","0","26","2B,16A","","","","","","","","","","","","","","","","","","","",""
"","","","","","html-slider-response","40","1203658","0.0-17.0-1.7","b7cfbd6e-32b1-4c69-a4d4-9eae9a6bc143","2854","
                  <p style=""text-align: center;"">₪71
                                                <br>45%</p>
                  <p id=""wtp"" style=""text-align:center; margin-top: 0px; margin-bottom: 0px; font-size: 40px"";>מוכנים לשלם: <span id=""c_p_y""></span></p>","60","evaluation","16","26","2B,16A","45","71","60","","","","","","","","","","","","","","","","",""
"","","","","","html-keyboard-response","41","1205142","0.0-17.0-2.7","b7cfbd6e-32b1-4c69-a4d4-9eae9a6bc143","null","<p style=""text-align: center;"">+</p>","null","fixation","","","","","","","","","","","","","","","","","","","","","","",""
"","","","","","html-slider-response","42","1206147","0.0-17.0-0.8","b7cfbd6e-32b1-4c69-a4d4-9eae9a6bc143","1000","
                  <p style=""text-align: center;"">₪58
                                                <br>45%</p>
                  <p id=""wtp"" style=""text-align:center; margin-top: 0px; margin-bottom: 0px; font-size: 40px"";>&ensp;</p>","-","viewing","0","21","11C,18C,25A","","","","","","","","","","","","","","","","","","","",""
"","","","","","html-slider-response","43","1208995","0.0-17.0-1.8","b7cfbd6e-32b1-4c69-a4d4-9eae9a6bc143","2846","
                  <p style=""text-align: center;"">₪58
                                                <br>45%</p>
                  <p id=""wtp"" style=""text-align:center; margin-top: 0px; margin-bottom: 0px; font-size: 40px"";>מוכנים לשלם: <span id=""c_p_y""></span></p>","40","evaluation","60","21","11C,18C,25A","45","58","40","","","","","","","","","","","","","","","","",""
"","","","","","html-keyboard-response","44","1209617","0.0-17.0-2.8","b7cfbd6e-32b1-4c69-a4d4-9eae9a6bc143","null","<p style=""text-align: center;"">+</p>","null","fixation","","","","","","","","","","","","","","","","","","","","","","",""
"","","","","","html-slider-response","45","1210625","0.0-17.0-0.9","b7cfbd6e-32b1-4c69-a4d4-9eae9a6bc143","1000","
                  <p style=""text-align: center;"">₪43
                                                <br>60%</p>
                  <p id=""wtp"" style=""text-align:center; margin-top: 0px; margin-bottom: 0px; font-size: 40px"";>&ensp;</p>","-","viewing","0","17","2A,7A,9A,15B","","","","","","","","","","","","","","","","","","","",""
"","","","","","html-slider-response","46","1212226","0.0-17.0-1.9","b7cfbd6e-32b1-4c69-a4d4-9eae9a6bc143","1601","
                  <p style=""text-align: center;"">₪43
                                                <br>60%</p>
                  <p id=""wtp"" style=""text-align:center; margin-top: 0px; margin-bottom: 0px; font-size: 40px"";>מוכנים לשלם: <span id=""c_p_y""></span></p>","51","evaluation","18","17","2A,7A,9A,15B","60","43","51","","","","","","","","","","","","","","","","",""
"","","","","","html-keyboard-response","47","1213322","0.0-17.0-2.9","b7cfbd6e-32b1-4c69-a4d4-9eae9a6bc143","null","<p style=""text-align: center;"">+</p>","null","fixation","","","","","","","","","","","","","","","","","","","","","","",""
"","","","","","html-slider-response","48","1214328","0.0-17.0-0.10","b7cfbd6e-32b1-4c69-a4d4-9eae9a6bc143","1000","
                  <p style=""text-align: center;"">₪58
                                                <br>40%</p>
                  <p id=""wtp"" style=""text-align:center; margin-top: 0px; margin-bottom: 0px; font-size: 40px"";>&ensp;</p>","-","viewing","0","20","10C,13A,19C,21B","","","","","","","","","","","","","","","","","","","",""
"","","","","","html-slider-response","49","1216266","0.0-17.0-1.10","b7cfbd6e-32b1-4c69-a4d4-9eae9a6bc143","1937","
                  <p style=""text-align: center;"">₪58
                                                <br>40%</p>
                  <p id=""wtp"" style=""text-align:center; margin-top: 0px; margin-bottom: 0px; font-size: 40px"";>מוכנים לשלם: <span id=""c_p_y""></span></p>","40","evaluation","75","20","10C,13A,19C,21B","40","58","40","","","","","","","","","","","","","","","","",""
"","","","","","html-keyboard-response","50","1217551","0.0-17.0-2.10","b7cfbd6e-32b1-4c69-a4d4-9eae9a6bc143","null","<p style=""text-align: center;"">+</p>","null","fixation","","","","","","","","","","","","","","","","","","","","","","",""
"","","","","","html-slider-response","51","1218563","0.0-17.0-0.11","b7cfbd6e-32b1-4c69-a4d4-9eae9a6bc143","1000","
                  <p style=""text-align: center;"">₪79
                                                <br>65%</p>
                  <p id=""wtp"" style=""text-align:center; margin-top: 0px; margin-bottom: 0px; font-size: 40px"";>&ensp;</p>","-","viewing","0","31","8A","","","","","","","","","","","","","","","","","","","",""
"","","","","","html-slider-response","52","1219370","0.0-17.0-1.11","b7cfbd6e-32b1-4c69-a4d4-9eae9a6bc143","807","
                  <p style=""text-align: center;"">₪79
                                                <br>65%</p>
                  <p id=""wtp"" style=""text-align:center; margin-top: 0px; margin-bottom: 0px; font-size: 40px"";>מוכנים לשלם: <span id=""c_p_y""></span></p>","62","evaluation","60","31","8A","65","79","62","","","","","","","","","","","","","","","","",""
"","","","","","html-keyboard-response","53","1220025","0.0-17.0-2.11","b7cfbd6e-32b1-4c69-a4d4-9eae9a6bc143","null","<p style=""text-align: center;"">+</p>","null","fixation","","","","","","","","","","","","","","","","","","","","","","",""
"","","","","","html-slider-response","54","1221027","0.0-17.0-0.12","b7cfbd6e-32b1-4c69-a4d4-9eae9a6bc143","1000","
                  <p style=""text-align: center;"">₪16
                                                <br>20%</p>
                  <p id=""wtp"" style=""text-align:center; margin-top: 0px; margin-bottom: 0px; font-size: 40px"";>&ensp;</p>","-","viewing","0","8","14C,17A,20C,27A","","","","","","","","","","","","","","","","","","","",""
"","","","","","html-slider-response","55","1222418","0.0-17.0-1.12","b7cfbd6e-32b1-4c69-a4d4-9eae9a6bc143","1390","
                  <p style=""text-align: center;"">₪16
                                                <br>20%</p>
                  <p id=""wtp"" style=""text-align:center; margin-top: 0px; margin-bottom: 0px; font-size: 40px"";>מוכנים לשלם: <span id=""c_p_y""></span></p>","17","evaluation","67","8","14C,17A,20C,27A","20","16","17","","","","","","","","","","","","","","","","",""
"","","","","","html-keyboard-response","56","1223202","0.0-17.0-2.12","b7cfbd6e-32b1-4c69-a4d4-9eae9a6bc143","null","<p style=""text-align: center;"">+</p>","null","fixation","","","","","","","","","","","","","","","","","","","","","","",""
"","","","","","html-slider-response","57","1224218","0.0-17.0-0.13","b7cfbd6e-32b1-4c69-a4d4-9eae9a6bc143","1000","
                  <p style=""text-align: center;"">₪71
                                                <br>55%</p>
                  <p id=""wtp"" style=""text-align:center; margin-top: 0px; margin-bottom: 0px; font-size: 40px"";>&ensp;</p>","-","viewing","0","27","5B,18A","","","","","","","","","","","","","","","","","","","",""
"","","","","","html-slider-response","58","1225906","0.0-17.0-1.13","b7cfbd6e-32b1-4c69-a4d4-9eae9a6bc143","1688","
                  <p style=""text-align: center;"">₪71
                                                <br>55%</p>
                  <p id=""wtp"" style=""text-align:center; margin-top: 0px; margin-bottom: 0px; font-size: 40px"";>מוכנים לשלם: <span id=""c_p_y""></span></p>","37","evaluation","45","27","5B,18A","55","71","37","","","","","","","","","","","","","","","","",""
"","","","","","html-keyboard-response","59","1227354","0.0-17.0-2.13","b7cfbd6e-32b1-4c69-a4d4-9eae9a6bc143","null","<p style=""text-align: center;"">+</p>","null","fixation","","","","","","","","","","","","","","","","","","","","","","",""
"","","","","","html-slider-response","60","1228356","0.0-17.0-0.14","b7cfbd6e-32b1-4c69-a4d4-9eae9a6bc143","1000","
                  <p style=""text-align: center;"">₪11
                                                <br>20%</p>
                  <p id=""wtp"" style=""text-align:center; margin-top: 0px; margin-bottom: 0px; font-size: 40px"";>&ensp;</p>","-","viewing","0","4","12C,17C,23C,28C","","","","","","","","","","","","","","","","","","","",""
"","","","","","html-slider-response","61","1230666","0.0-17.0-1.14","b7cfbd6e-32b1-4c69-a4d4-9eae9a6bc143","2309","
                  <p style=""text-align: center;"">₪11
                                                <br>20%</p>
                  <p id=""wtp"" style=""text-align:center; margin-top: 0px; margin-bottom: 0px; font-size: 40px"";>מוכנים לשלם: <span id=""c_p_y""></span></p>","31","evaluation","56","4","12C,17C,23C,28C","20","11","31","","","","","","","","","","","","","","","","",""
"","","","","","html-keyboard-response","62","1231789","0.0-17.0-2.14","b7cfbd6e-32b1-4c69-a4d4-9eae9a6bc143","null","<p style=""text-align: center;"">+</p>","null","fixation","","","","","","","","","","","","","","","","","","","","","","",""
"","","","","","html-slider-response","63","1232792","0.0-17.0-0.15","b7cfbd6e-32b1-4c69-a4d4-9eae9a6bc143","1000","
                  <p style=""text-align: center;"">₪39
                                                <br>65%</p>
                  <p id=""wtp"" style=""text-align:center; margin-top: 0px; margin-bottom: 0px; font-size: 40px"";>&ensp;</p>","-","viewing","0","16","1A,15A,26C","","","","","","","","","","","","","","","","","","","",""
"","","","","","html-slider-response","64","1233875","0.0-17.0-1.15","b7cfbd6e-32b1-4c69-a4d4-9eae9a6bc143","1081","
                  <p style=""text-align: center;"">₪39
                                                <br>65%</p>
                  <p id=""wtp"" style=""text-align:center; margin-top: 0px; margin-bottom: 0px; font-size: 40px"";>מוכנים לשלם: <span id=""c_p_y""></span></p>","57","evaluation","8","16","1A,15A,26C","65","39","57","","","","","","","","","","","","","","","","",""
"","","","","","html-keyboard-response","65","1234944","0.0-17.0-2.15","b7cfbd6e-32b1-4c69-a4d4-9eae9a6bc143","null","<p style=""text-align: center;"">+</p>","null","fixation","","","","","","","","","","","","","","","","","","","","","","",""
"","","","","","html-slider-response","66","1235950","0.0-17.0-0.16","b7cfbd6e-32b1-4c69-a4d4-9eae9a6bc143","1000","
                  <p style=""text-align: center;"">₪11
                                                <br>45%</p>
                  <p id=""wtp"" style=""text-align:center; margin-top: 0px; margin-bottom: 0px; font-size: 40px"";>&ensp;</p>","-","viewing","0","6","14B,21C,25C","","","","","","","","","","","","","","","","","","","",""
"","","","","","html-slider-response","67","1237491","0.0-17.0-1.16","b7cfbd6e-32b1-4c69-a4d4-9eae9a6bc143","1540","
                  <p style=""text-align: center;"">₪11
                                                <br>45%</p>
                  <p id=""wtp"" style=""text-align:center; margin-top: 0px; margin-bottom: 0px; font-size: 40px"";>מוכנים לשלם: <span id=""c_p_y""></span></p>","60","evaluation","67","6","14B,21C,25C","45","11","60","","","","","","","","","","","","","","","","",""
"","","","","","html-keyboard-response","68","1238011","0.0-17.0-2.16","b7cfbd6e-32b1-4c69-a4d4-9eae9a6bc143","null","<p style=""text-align: center;"">+</p>","null","fixation","","","","","","","","","","","","","","","","","","","","","","",""
"","","","","","html-slider-response","69","1239017","0.0-17.0-0.17","b7cfbd6e-32b1-4c69-a4d4-9eae9a6bc143","1000","
                  <p style=""text-align: center;"">₪4
                                                <br>50%</p>
                  <p id=""wtp"" style=""text-align:center; margin-top: 0px; margin-bottom: 0px; font-size: 40px"";>&ensp;</p>","-","viewing","0","2","4C,17B","","","","","","","","","","","","","","","","","","","",""
"","","","","","html-slider-response","70","1241586","0.0-17.0-1.17","b7cfbd6e-32b1-4c69-a4d4-9eae9a6bc143","2569","
                  <p style=""text-align: center;"">₪4
                                                <br>50%</p>
                  <p id=""wtp"" style=""text-align:center; margin-top: 0px; margin-bottom: 0px; font-size: 40px"";>מוכנים לשלם: <span id=""c_p_y""></span></p>","56","evaluation","34","2","4C,17B","50","4","56","","","","","","","","","","","","","","","","",""
"","","","","","html-keyboard-response","71","1242263","0.0-17.0-2.17","b7cfbd6e-32b1-4c69-a4d4-9eae9a6bc143","null","<p style=""text-align: center;"">+</p>","null","fixation","","","","","","","","","","","","","","","","","","","","","","",""
"","","","","","html-slider-response","72","1243265","0.0-17.0-0.18","b7cfbd6e-32b1-4c69-a4d4-9eae9a6bc143","1000","
                  <p style=""text-align: center;"">₪4
                                                <br>25%</p>
                  <p id=""wtp"" style=""text-align:center; margin-top: 0px; margin-bottom: 0px; font-size: 40px"";>&ensp;</p>","-","viewing","0","1","6C,29B,30C","","","","","","","","","","","","","","","","","","","",""
"","","","","","html-slider-response","73","1244234","0.0-17.0-1.18","b7cfbd6e-32b1-4c69-a4d4-9eae9a6bc143","968","
                  <p style=""text-align: center;"">₪4
                                                <br>25%</p>
                  <p id=""wtp"" style=""text-align:center; margin-top: 0px; margin-bottom: 0px; font-size: 40px"";>מוכנים לשלם: <span id=""c_p_y""></span></p>","53","evaluation","22","1","6C,29B,30C","25","4","53","","","","","","","","","","","","","","","","",""
"","","","","","html-keyboard-response","74","1245557","0.0-17.0-2.18","b7cfbd6e-32b1-4c69-a4d4-9eae9a6bc143","null","<p style=""text-align: center;"">+</p>","null","fixation","","","","","","","","","","","","","","","","","","","","","","",""
"","","","","","html-slider-response","75","1246570","0.0-17.0-0.19","b7cfbd6e-32b1-4c69-a4d4-9eae9a6bc143","1000","
                  <p style=""text-align: center;"">₪18
                                                <br>50%</p>
                  <p id=""wtp"" style=""text-align:center; margin-top: 0px; margin-bottom: 0px; font-size: 40px"";>&ensp;</p>","-","viewing","0","10","2C,16C,22B,28A","","","","","","","","","","","","","","","","","","","",""
"","","","","","html-slider-response","76","1247778","0.0-17.0-1.19","b7cfbd6e-32b1-4c69-a4d4-9eae9a6bc143","1208","
                  <p style=""text-align: center;"">₪18
                                                <br>50%</p>
                  <p id=""wtp"" style=""text-align:center; margin-top: 0px; margin-bottom: 0px; font-size: 40px"";>מוכנים לשלם: <span id=""c_p_y""></span></p>","68","evaluation","25","10","2C,16C,22B,28A","50","18","68","","","","","","","","","","","","","","","","",""
"","","","","","html-keyboard-response","77","1248320","0.0-17.0-2.19","b7cfbd6e-32b1-4c69-a4d4-9eae9a6bc143","null","<p style=""text-align: center;"">+</p>","null","fixation","","","","","","","","","","","","","","","","","","","","","","",""
"","","","","","html-slider-response","78","1249323","0.0-17.0-0.20","b7cfbd6e-32b1-4c69-a4d4-9eae9a6bc143","1000","
                  <p style=""text-align: center;"">₪71
                                                <br>75%</p>
                  <p id=""wtp"" style=""text-align:center; margin-top: 0px; margin-bottom: 0px; font-size: 40px"";>&ensp;</p>","-","viewing","0","28","8B","","","","","","","","","","","","","","","","","","","",""
"","","","","","html-slider-response","79","1250282","0.0-17.0-1.20","b7cfbd6e-32b1-4c69-a4d4-9eae9a6bc143","958","
                  <p style=""text-align: center;"">₪71
                                                <br>75%</p>
                  <p id=""wtp"" style=""text-align:center; margin-top: 0px; margin-bottom: 0px; font-size: 40px"";>מוכנים לשלם: <span id=""c_p_y""></span></p>","66","evaluation","12","28","8B","75","71","66","","","","","","","","","","","","","","","","",""
"","","","","","html-keyboard-response","80","1251318","0.0-17.0-2.20","b7cfbd6e-32b1-4c69-a4d4-9eae9a6bc143","null","<p style=""text-align: center;"">+</p>","null","fixation","","","","","","","","","","","","","","","","","","","","","","",""
"","","","","","html-slider-response","81","1252329","0.0-17.0-0.21","b7cfbd6e-32b1-4c69-a4d4-9eae9a6bc143","1000","
                  <p style=""text-align: center;"">₪58
                                                <br>30%</p>
                  <p id=""wtp"" style=""text-align:center; margin-top: 0px; margin-bottom: 0px; font-size: 40px"";>&ensp;</p>","-","viewing","0","19","13C,30A","","","","","","","","","","","","","","","","","","","",""
"","","","","","html-slider-response","82","1253227","0.0-17.0-1.21","b7cfbd6e-32b1-4c69-a4d4-9eae9a6bc143","897","
                  <p style=""text-align: center;"">₪58
                                                <br>30%</p>
                  <p id=""wtp"" style=""text-align:center; margin-top: 0px; margin-bottom: 0px; font-size: 40px"";>מוכנים לשלם: <span id=""c_p_y""></span></p>","51","evaluation","19","19","13C,30A","30","58","51","","","","","","","","","","","","","","","","",""
"","","","","","html-keyboard-response","83","1254449","0.0-17.0-2.21","b7cfbd6e-32b1-4c69-a4d4-9eae9a6bc143","null","<p style=""text-align: center;"">+</p>","null","fixation","","","","","","","","","","","","","","","","","","","","","","",""
"","","","","","html-slider-response","84","1255452","0.0-17.0-0.22","b7cfbd6e-32b1-4c69-a4d4-9eae9a6bc143","1000","
                  <p style=""text-align: center;"">₪79
                                                <br>40%</p>
                  <p id=""wtp"" style=""text-align:center; margin-top: 0px; margin-bottom: 0px; font-size: 40px"";>&ensp;</p>","-","viewing","0","30","9B","","","","","","","","","","","","","","","","","","","",""
"","","","","","html-slider-response","85","1256466","0.0-17.0-1.22","b7cfbd6e-32b1-4c69-a4d4-9eae9a6bc143","1014","
                  <p style=""text-align: center;"">₪79
                                                <br>40%</p>
                  <p id=""wtp"" style=""text-align:center; margin-top: 0px; margin-bottom: 0px; font-size: 40px"";>מוכנים לשלם: <span id=""c_p_y""></span></p>","66","evaluation","44","30","9B","40","79","66","","","","","","","","","","","","","","","","",""
"","","","","","html-keyboard-response","86","1257310","0.0-17.0-2.22","b7cfbd6e-32b1-4c69-a4d4-9eae9a6bc143","null","<p style=""text-align: center;"">+</p>","null","fixation","","","","","","","","","","","","","","","","","","","","","","",""
"","","","","","html-slider-response","87","1258324","0.0-17.0-0.23","b7cfbd6e-32b1-4c69-a4d4-9eae9a6bc143","1000","
                  <p style=""text-align: center;"">₪64
                                                <br>25%</p>
                  <p id=""wtp"" style=""text-align:center; margin-top: 0px; margin-bottom: 0px; font-size: 40px"";>&ensp;</p>","-","viewing","0","24","6A,21A","","","","","","","","","","","","","","","","","","","",""
"","","","","","html-slider-response","88","1260115","0.0-17.0-1.23","b7cfbd6e-32b1-4c69-a4d4-9eae9a6bc143","1789","
                  <p style=""text-align: center;"">₪64
                                                <br>25%</p>
                  <p id=""wtp"" style=""text-align:center; margin-top: 0px; margin-bottom: 0px; font-size: 40px"";>מוכנים לשלם: <span id=""c_p_y""></span></p>","54","evaluation","4","24","6A,21A","25","64","54","","","","","","","","","","","","","","","","",""
"","","","","","html-keyboard-response","89","1261501","0.0-17.0-2.23","b7cfbd6e-32b1-4c69-a4d4-9eae9a6bc143","null","<p style=""text-align: center;"">+</p>","null","fixation","","","","","","","","","","","","","","","","","","","","","","",""
"","","","","","html-slider-response","90","1262508","0.0-17.0-0.24","b7cfbd6e-32b1-4c69-a4d4-9eae9a6bc143","1000","
                  <p style=""text-align: center;"">₪11
                                                <br>25%</p>
                  <p id=""wtp"" style=""text-align:center; margin-top: 0px; margin-bottom: 0px; font-size: 40px"";>&ensp;</p>","-","viewing","0","5","12A,27B,28B,30B","","","","","","","","","","","","","","","","","","","",""
"","","","","","html-slider-response","91","1263706","0.0-17.0-1.24","b7cfbd6e-32b1-4c69-a4d4-9eae9a6bc143","1198","
                  <p style=""text-align: center;"">₪11
                                                <br>25%</p>
                  <p id=""wtp"" style=""text-align:center; margin-top: 0px; margin-bottom: 0px; font-size: 40px"";>מוכנים לשלם: <span id=""c_p_y""></span></p>","62","evaluation","68","5","12A,27B,28B,30B","25","11","62","","","","","","","","","","","","","","","","",""
"","","","","","html-keyboard-response","92","1264884","0.0-17.0-2.24","b7cfbd6e-32b1-4c69-a4d4-9eae9a6bc143","null","<p style=""text-align: center;"">+</p>","null","fixation","","","","","","","","","","","","","","","","","","","","","","",""
"","","","","","html-slider-response","93","1265891","0.0-17.0-0.25","b7cfbd6e-32b1-4c69-a4d4-9eae9a6bc143","1000","
                  <p style=""text-align: center;"">₪43
                                                <br>75%</p>
                  <p id=""wtp"" style=""text-align:center; margin-top: 0px; margin-bottom: 0px; font-size: 40px"";>&ensp;</p>","-","viewing","0","18","11B,19B,24A,26A","","","","","","","","","","","","","","","","","","","",""
"","","","","","html-slider-response","94","1267626","0.0-17.0-1.25","b7cfbd6e-32b1-4c69-a4d4-9eae9a6bc143","1734","
                  <p style=""text-align: center;"">₪43
                                                <br>75%</p>
                  <p id=""wtp"" style=""text-align:center; margin-top: 0px; margin-bottom: 0px; font-size: 40px"";>מוכנים לשלם: <span id=""c_p_y""></span></p>","68","evaluation","33","18","11B,19B,24A,26A","75","43","68","","","","","","","","","","","","","","","","",""
"","","","","","html-keyboard-response","95","1268804","0.0-17.0-2.25","b7cfbd6e-32b1-4c69-a4d4-9eae9a6bc143","null","<p style=""text-align: center;"">+</p>","null","fixation","","","","","","","","","","","","","","","","","","","","","","",""
"","","","","","html-slider-response","96","1269809","0.0-17.0-0.26","b7cfbd6e-32b1-4c69-a4d4-9eae9a6bc143","1000","
                  <p style=""text-align: center;"">₪76
                                                <br>65%</p>
                  <p id=""wtp"" style=""text-align:center; margin-top: 0px; margin-bottom: 0px; font-size: 40px"";>&ensp;</p>","-","viewing","0","29","8C,19A,24B","","","","","","","","","","","","","","","","","","","",""
"","","","","","html-slider-response","97","1270978","0.0-17.0-1.26","b7cfbd6e-32b1-4c69-a4d4-9eae9a6bc143","1168","
                  <p style=""text-align: center;"">₪76
                                                <br>65%</p>
                  <p id=""wtp"" style=""text-align:center; margin-top: 0px; margin-bottom: 0px; font-size: 40px"";>מוכנים לשלם: <span id=""c_p_y""></span></p>","74","evaluation","25","29","8C,19A,24B","65","76","74","","","","","","","","","","","","","","","","",""
"","","","","","html-keyboard-response","98","1272017","0.0-17.0-2.26","b7cfbd6e-32b1-4c69-a4d4-9eae9a6bc143","null","<p style=""text-align: center;"">+</p>","null","fixation","","","","","","","","","","","","","","","","","","","","","","",""
"","","","","","html-slider-response","99","1273020","0.0-17.0-0.27","b7cfbd6e-32b1-4c69-a4d4-9eae9a6bc143","1000","
                  <p style=""text-align: center;"">₪18
                                                <br>25%</p>
                  <p id=""wtp"" style=""text-align:center; margin-top: 0px; margin-bottom: 0px; font-size: 40px"";>&ensp;</p>","-","viewing","0","9","14A,23A","","","","","","","","","","","","","","","","","","","",""
"","","","","","html-slider-response","100","1274139","0.0-17.0-1.27","b7cfbd6e-32b1-4c69-a4d4-9eae9a6bc143","1118","
                  <p style=""text-align: center;"">₪18
                                                <br>25%</p>
                  <p id=""wtp"" style=""text-align:center; margin-top: 0px; margin-bottom: 0px; font-size: 40px"";>מוכנים לשלם: <span id=""c_p_y""></span></p>","62","evaluation","54","9","14A,23A","25","18","62","","","","","","","","","","","","","","","","",""
"","","","","","html-keyboard-response","101","1274906","0.0-17.0-2.27","b7cfbd6e-32b1-4c69-a4d4-9eae9a6bc143","null","<p style=""text-align: center;"">+</p>","null","fixation","","","","","","","","","","","","","","","","","","","","","","",""
"","","","","","html-slider-response","102","1275915","0.0-17.0-0.28","b7cfbd6e-32b1-4c69-a4d4-9eae9a6bc143","1000","
                  <p style=""text-align: center;"">₪61
                                                <br>55%</p>
                  <p id=""wtp"" style=""text-align:center; margin-top: 0px; margin-bottom: 0px; font-size: 40px"";>&ensp;</p>","-","viewing","0","23","7B,26B","","","","","","","","","","","","","","","","","","","",""
"","","","","","html-slider-response","103","1277410","0.0-17.0-1.28","b7cfbd6e-32b1-4c69-a4d4-9eae9a6bc143","1495","
                  <p style=""text-align: center;"">₪61
                                                <br>55%</p>
                  <p id=""wtp"" style=""text-align:center; margin-top: 0px; margin-bottom: 0px; font-size: 40px"";>מוכנים לשלם: <span id=""c_p_y""></span></p>","68","evaluation","54","23","7B,26B","55","61","68","","","","","","","","","","","","","","","","",""
"","","","","","html-keyboard-response","104","1278597","0.0-17.0-2.28","b7cfbd6e-32b1-4c69-a4d4-9eae9a6bc143","null","<p style=""text-align: center;"">+</p>","null","fixation","","","","","","","","","","","","","","","","","","","","","","",""
"","","","","","html-slider-response","105","1279611","0.0-17.0-0.29","b7cfbd6e-32b1-4c69-a4d4-9eae9a6bc143","1000","
                  <p style=""text-align: center;"">₪36
                                                <br>30%</p>
                  <p id=""wtp"" style=""text-align:center; margin-top: 0px; margin-bottom: 0px; font-size: 40px"";>&ensp;</p>","-","viewing","0","11","3C,20A,22A","","","","","","","","","","","","","","","","","","","",""
"","","","","","html-slider-response","106","1280803","0.0-17.0-1.29","b7cfbd6e-32b1-4c69-a4d4-9eae9a6bc143","1190","
                  <p style=""text-align: center;"">₪36
                                                <br>30%</p>
                  <p id=""wtp"" style=""text-align:center; margin-top: 0px; margin-bottom: 0px; font-size: 40px"";>מוכנים לשלם: <span id=""c_p_y""></span></p>","63","evaluation","24","11","3C,20A,22A","30","36","63","","","","","","","","","","","","","","","","",""
"","","","","","html-keyboard-response","107","1281781","0.0-17.0-2.29","b7cfbd6e-32b1-4c69-a4d4-9eae9a6bc143","null","<p style=""text-align: center;"">+</p>","null","fixation","","","","","","","","","","","","","","","","","","","","","","",""
"","","","","","html-slider-response","108","1282792","0.0-17.0-0.30","b7cfbd6e-32b1-4c69-a4d4-9eae9a6bc143","1000","
                  <p style=""text-align: center;"">₪36
                                                <br>60%</p>
                  <p id=""wtp"" style=""text-align:center; margin-top: 0px; margin-bottom: 0px; font-size: 40px"";>&ensp;</p>","-","viewing","0","12","1C,7C,15C","","","","","","","","","","","","","","","","","","","",""
"","","","","","html-slider-response","109","1284083","0.0-17.0-1.30","b7cfbd6e-32b1-4c69-a4d4-9eae9a6bc143","1290","
                  <p style=""text-align: center;"">₪36
                                                <br>60%</p>
                  <p id=""wtp"" style=""text-align:center; margin-top: 0px; margin-bottom: 0px; font-size: 40px"";>מוכנים לשלם: <span id=""c_p_y""></span></p>","67","evaluation","52","12","1C,7C,15C","60","36","67","","","","","","","","","","","","","","","","",""
"","","","","","html-keyboard-response","110","1285037","0.0-17.0-2.30","b7cfbd6e-32b1-4c69-a4d4-9eae9a6bc143","null","<p style=""text-align: center;"">+</p>","null","fixation","","","","","","","","","","","","","","","","","","","","","","",""
"","","","","","html-keyboard-response","111","1286050","0.0-18.0","b7cfbd6e-32b1-4c69-a4d4-9eae9a6bc143","null","<p style=""text-align: center;"">+</p>","null","fixation","","","","","","","","","","","","","","","","","","","","","","",""
"","","","","","html-keyboard-response","112","1288531","0.0-19.0","b7cfbd6e-32b1-4c69-a4d4-9eae9a6bc143","null","<p>הפסקה.
          <br>לחצו כדי להמשיך.</p>","1","scan_wait","","","","","","","","","","","","","","","","","","","","","","",""
"","","","","","html-keyboard-response","113","1289536","0.0-20.0","b7cfbd6e-32b1-4c69-a4d4-9eae9a6bc143","null","<p style=""text-align: center;"">+</p>","null","fixation","","","","","","","","","","","","","","","","","","","","","","",""
"","","","","","html-slider-response","114","1290539","0.0-21.0-0.0","b7cfbd6e-32b1-4c69-a4d4-9eae9a6bc143","1000","
                  <p style=""text-align: center;"">₪58
                                                <br>30%</p>
                  <p id=""wtp"" style=""text-align:center; margin-top: 0px; margin-bottom: 0px; font-size: 40px"";>&ensp;</p>","-","viewing","0","19","13C,30A","","","","","","","","","","","","","","","","","","","",""
"","","","","","html-slider-response","115","1291906","0.0-21.0-1.0","b7cfbd6e-32b1-4c69-a4d4-9eae9a6bc143","1367","
                  <p style=""text-align: center;"">₪58
                                                <br>30%</p>
                  <p id=""wtp"" style=""text-align:center; margin-top: 0px; margin-bottom: 0px; font-size: 40px"";>מוכנים לשלם: <span id=""c_p_y""></span></p>","43","evaluation","29","19","13C,30A","30","58","43","","","","","","","","","","","","","","","","",""
"","","","","","html-keyboard-response","116","1292658","0.0-21.0-2.0","b7cfbd6e-32b1-4c69-a4d4-9eae9a6bc143","null","<p style=""text-align: center;"">+</p>","null","fixation","","","","","","","","","","","","","","","","","","","","","","",""
"","","","","","html-slider-response","117","1293659","0.0-21.0-0.1","b7cfbd6e-32b1-4c69-a4d4-9eae9a6bc143","1000","
                  <p style=""text-align: center;"">₪18
                                                <br>25%</p>
                  <p id=""wtp"" style=""text-align:center; margin-top: 0px; margin-bottom: 0px; font-size: 40px"";>&ensp;</p>","-","viewing","0","9","14A,23A","","","","","","","","","","","","","","","","","","","",""
"","","","","","html-slider-response","118","1294954","0.0-21.0-1.1","b7cfbd6e-32b1-4c69-a4d4-9eae9a6bc143","1294","
                  <p style=""text-align: center;"">₪18
                                                <br>25%</p>
                  <p id=""wtp"" style=""text-align:center; margin-top: 0px; margin-bottom: 0px; font-size: 40px"";>מוכנים לשלם: <span id=""c_p_y""></span></p>","26","evaluation","42","9","14A,23A","25","18","26","","","","","","","","","","","","","","","","",""
"","","","","","html-keyboard-response","119","1296092","0.0-21.0-2.1","b7cfbd6e-32b1-4c69-a4d4-9eae9a6bc143","null","<p style=""text-align: center;"">+</p>","null","fixation","","","","","","","","","","","","","","","","","","","","","","",""
"","","","","","html-slider-response","120","1297107","0.0-21.0-0.2","b7cfbd6e-32b1-4c69-a4d4-9eae9a6bc143","1000","
                  <p style=""text-align: center;"">₪71
                                                <br>55%</p>
                  <p id=""wtp"" style=""text-align:center; margin-top: 0px; margin-bottom: 0px; font-size: 40px"";>&ensp;</p>","-","viewing","0","27","5B,18A","","","","","","","","","","","","","","","","","","","",""
"","","","","","html-slider-response","121","1299435","0.0-21.0-1.2","b7cfbd6e-32b1-4c69-a4d4-9eae9a6bc143","2326","
                  <p style=""text-align: center;"">₪71
                                                <br>55%</p>
                  <p id=""wtp"" style=""text-align:center; margin-top: 0px; margin-bottom: 0px; font-size: 40px"";>מוכנים לשלם: <span id=""c_p_y""></span></p>","30","evaluation","41","27","5B,18A","55","71","30","","","","","","","","","","","","","","","","",""
"","","","","","html-keyboard-response","122","1300734","0.0-21.0-2.2","b7cfbd6e-32b1-4c69-a4d4-9eae9a6bc143","null","<p style=""text-align: center;"">+</p>","null","fixation","","","","","","","","","","","","","","","","","","","","","","",""
"","","","","","html-slider-response","123","1301739","0.0-21.0-0.3","b7cfbd6e-32b1-4c69-a4d4-9eae9a6bc143","1000","
                  <p style=""text-align: center;"">₪61
                                                <br>55%</p>
                  <p id=""wtp"" style=""text-align:center; margin-top: 0px; margin-bottom: 0px; font-size: 40px"";>&ensp;</p>","-","viewing","0","23","7B,26B","","","","","","","","","","","","","","","","","","","",""
"","","","","","html-slider-response","124","1302314","0.0-21.0-1.3","b7cfbd6e-32b1-4c69-a4d4-9eae9a6bc143","574","
                  <p style=""text-align: center;"">₪61
                                                <br>55%</p>
                  <p id=""wtp"" style=""text-align:center; margin-top: 0px; margin-bottom: 0px; font-size: 40px"";>מוכנים לשלם: <span id=""c_p_y""></span></p>","53","evaluation","40","23","7B,26B","55","61","53","","","","","","","","","","","","","","","","",""
"","","","","","html-keyboard-response","125","1303527","0.0-21.0-2.3","b7cfbd6e-32b1-4c69-a4d4-9eae9a6bc143","null","<p style=""text-align: center;"">+</p>","null","fixation","","","","","","","","","","","","","","","","","","","","","","",""
"","","","","","html-slider-response","126","1304532","0.0-21.0-0.4","b7cfbd6e-32b1-4c69-a4d4-9eae9a6bc143","1000","
                  <p style=""text-align: center;"">₪71
                                                <br>75%</p>
                  <p id=""wtp"" style=""text-align:center; margin-top: 0px; margin-bottom: 0px; font-size: 40px"";>&ensp;</p>","-","viewing","0","28","8B","","","","","","","","","","","","","","","","","","","",""
"","","","","","html-slider-response","127","1305723","0.0-21.0-1.4","b7cfbd6e-32b1-4c69-a4d4-9eae9a6bc143","1190","
                  <p style=""text-align: center;"">₪71
                                                <br>75%</p>
                  <p id=""wtp"" style=""text-align:center; margin-top: 0px; margin-bottom: 0px; font-size: 40px"";>מוכנים לשלם: <span id=""c_p_y""></span></p>","60","evaluation","1","28","8B","75","71","60","","","","","","","","","","","","","","","","",""
"","","","","","html-keyboard-response","128","1306346","0.0-21.0-2.4","b7cfbd6e-32b1-4c69-a4d4-9eae9a6bc143","null","<p style=""text-align: center;"">+</p>","null","fixation","","","","","","","","","","","","","","","","","","","","","","",""
"","","","","","html-slider-response","129","1307348","0.0-21.0-0.5","b7cfbd6e-32b1-4c69-a4d4-9eae9a6bc143","1000","
                  <p style=""text-align: center;"">₪16
                                                <br>20%</p>
                  <p id=""wtp"" style=""text-align:center; margin-top: 0px; margin-bottom: 0px; font-size: 40px"";>&ensp;</p>","-","viewing","0","8","14C,17A,20C,27A","","","","","","","","","","","","","","","","","","","",""
"","","","","","html-slider-response","130","1308786","0.0-21.0-1.5","b7cfbd6e-32b1-4c69-a4d4-9eae9a6bc143","1437","
                  <p style=""text-align: center;"">₪16
                                                <br>20%</p>
                  <p id=""wtp"" style=""text-align:center; margin-top: 0px; margin-bottom: 0px; font-size: 40px"";>מוכנים לשלם: <span id=""c_p_y""></span></p>","26","evaluation","60","8","14C,17A,20C,27A","20","16","26","","","","","","","","","","","","","","","","",""
"","","","","","html-keyboard-response","131","1310144","0.0-21.0-2.5","b7cfbd6e-32b1-4c69-a4d4-9eae9a6bc143","null","<p style=""text-align: center;"">+</p>","null","fixation","","","","","","","","","","","","","","","","","","","","","","",""
"","","","","","html-slider-response","132","1311154","0.0-21.0-0.6","b7cfbd6e-32b1-4c69-a4d4-9eae9a6bc143","1000","
                  <p style=""text-align: center;"">₪36
                                                <br>75%</p>
                  <p id=""wtp"" style=""text-align:center; margin-top: 0px; margin-bottom: 0px; font-size: 40px"";>&ensp;</p>","-","viewing","0","14","4B,5A,13B,16B","","","","","","","","","","","","","","","","","","","",""
"","","","","","html-slider-response","133","1312090","0.0-21.0-1.6","b7cfbd6e-32b1-4c69-a4d4-9eae9a6bc143","936","
                  <p style=""text-align: center;"">₪36
                                                <br>75%</p>
                  <p id=""wtp"" style=""text-align:center; margin-top: 0px; margin-bottom: 0px; font-size: 40px"";>מוכנים לשלם: <span id=""c_p_y""></span></p>","52","evaluation","0","14","4B,5A,13B,16B","75","36","52","","","","","","","","","","","","","","","","",""
"","","","","","html-keyboard-response","134","1313045","0.0-21.0-2.6","b7cfbd6e-32b1-4c69-a4d4-9eae9a6bc143","null","<p style=""text-align: center;"">+</p>","null","fixation","","","","","","","","","","","","","","","","","","","","","","",""
"","","","","","html-slider-response","135","1314048","0.0-21.0-0.7","b7cfbd6e-32b1-4c69-a4d4-9eae9a6bc143","1000","
                  <p style=""text-align: center;"">₪58
                                                <br>40%</p>
                  <p id=""wtp"" style=""text-align:center; margin-top: 0px; margin-bottom: 0px; font-size: 40px"";>&ensp;</p>","-","viewing","0","20","10C,13A,19C,21B","","","","","","","","","","","","","","","","","","","",""
"","","","","","html-slider-response","136","1314746","0.0-21.0-1.7","b7cfbd6e-32b1-4c69-a4d4-9eae9a6bc143","698","
                  <p style=""text-align: center;"">₪58
                                                <br>40%</p>
                  <p id=""wtp"" style=""text-align:center; margin-top: 0px; margin-bottom: 0px; font-size: 40px"";>מוכנים לשלם: <span id=""c_p_y""></span></p>","42","evaluation","44","20","10C,13A,19C,21B","40","58","42","","","","","","","","","","","","","","","","",""
"","","","","","html-keyboard-response","137","1316248","0.0-21.0-2.7","b7cfbd6e-32b1-4c69-a4d4-9eae9a6bc143","null","<p style=""text-align: center;"">+</p>","null","fixation","","","","","","","","","","","","","","","","","","","","","","",""
"","","","","","html-slider-response","138","1317248","0.0-21.0-0.8","b7cfbd6e-32b1-4c69-a4d4-9eae9a6bc143","1000","
                  <p style=""text-align: center;"">₪39
                                                <br>65%</p>
                  <p id=""wtp"" style=""text-align:center; margin-top: 0px; margin-bottom: 0px; font-size: 40px"";>&ensp;</p>","-","viewing","0","16","1A,15A,26C","","","","","","","","","","","","","","","","","","","",""
"","","","","","html-slider-response","139","1318074","0.0-21.0-1.8","b7cfbd6e-32b1-4c69-a4d4-9eae9a6bc143","825","
                  <p style=""text-align: center;"">₪39
                                                <br>65%</p>
                  <p id=""wtp"" style=""text-align:center; margin-top: 0px; margin-bottom: 0px; font-size: 40px"";>מוכנים לשלם: <span id=""c_p_y""></span></p>","24","evaluation","38","16","1A,15A,26C","65","39","24","","","","","","","","","","","","","","","","",""
"","","","","","html-keyboard-response","140","1319002","0.0-21.0-2.8","b7cfbd6e-32b1-4c69-a4d4-9eae9a6bc143","null","<p style=""text-align: center;"">+</p>","null","fixation","","","","","","","","","","","","","","","","","","","","","","",""
"","","","","","html-slider-response","141","1320004","0.0-21.0-0.9","b7cfbd6e-32b1-4c69-a4d4-9eae9a6bc143","1000","
                  <p style=""text-align: center;"">₪11
                                                <br>75%</p>
                  <p id=""wtp"" style=""text-align:center; margin-top: 0px; margin-bottom: 0px; font-size: 40px"";>&ensp;</p>","-","viewing","0","7","6B,18B,22C,24C,29A","","","","","","","","","","","","","","","","","","","",""
"","","","","","html-slider-response","142","1321354","0.0-21.0-1.9","b7cfbd6e-32b1-4c69-a4d4-9eae9a6bc143","1350","
                  <p style=""text-align: center;"">₪11
                                                <br>75%</p>
                  <p id=""wtp"" style=""text-align:center; margin-top: 0px; margin-bottom: 0px; font-size: 40px"";>מוכנים לשלם: <span id=""c_p_y""></span></p>","60","evaluation","40","7","6B,18B,22C,24C,29A","75","11","60","","","","","","","","","","","","","","","","",""
"","","","","","html-keyboard-response","143","1322197","0.0-21.0-2.9","b7cfbd6e-32b1-4c69-a4d4-9eae9a6bc143","null","<p style=""text-align: center;"">+</p>","null","fixation","","","","","","","","","","","","","","","","","","","","","","",""
"","","","","","html-slider-response","144","1323203","0.0-21.0-0.10","b7cfbd6e-32b1-4c69-a4d4-9eae9a6bc143","1000","
                  <p style=""text-align: center;"">₪79
                                                <br>40%</p>
                  <p id=""wtp"" style=""text-align:center; margin-top: 0px; margin-bottom: 0px; font-size: 40px"";>&ensp;</p>","-","viewing","0","30","9B","","","","","","","","","","","","","","","","","","","",""
"","","","","","html-slider-response","145","1324210","0.0-21.0-1.10","b7cfbd6e-32b1-4c69-a4d4-9eae9a6bc143","1006","
                  <p style=""text-align: center;"">₪79
                                                <br>40%</p>
                  <p id=""wtp"" style=""text-align:center; margin-top: 0px; margin-bottom: 0px; font-size: 40px"";>מוכנים לשלם: <span id=""c_p_y""></span></p>","67","evaluation","59","30","9B","40","79","67","","","","","","","","","","","","","","","","",""
"","","","","","html-keyboard-response","146","1325333","0.0-21.0-2.10","b7cfbd6e-32b1-4c69-a4d4-9eae9a6bc143","null","<p style=""text-align: center;"">+</p>","null","fixation","","","","","","","","","","","","","","","","","","","","","","",""
"","","","","","html-slider-response","147","1326338","0.0-21.0-0.11","b7cfbd6e-32b1-4c69-a4d4-9eae9a6bc143","1000","
                  <p style=""text-align: center;"">₪4
                                                <br>25%</p>
                  <p id=""wtp"" style=""text-align:center; margin-top: 0px; margin-bottom: 0px; font-size: 40px"";>&ensp;</p>","-","viewing","0","1","6C,29B,30C","","","","","","","","","","","","","","","","","","","",""
"","","","","","html-slider-response","148","1328418","0.0-21.0-1.11","b7cfbd6e-32b1-4c69-a4d4-9eae9a6bc143","2079","
                  <p style=""text-align: center;"">₪4
                                                <br>25%</p>
                  <p id=""wtp"" style=""text-align:center; margin-top: 0px; margin-bottom: 0px; font-size: 40px"";>מוכנים לשלם: <span id=""c_p_y""></span></p>","25","evaluation","66","1","6C,29B,30C","25","4","25","","","","","","","","","","","","","","","","",""
"","","","","","html-keyboard-response","149","1329871","0.0-21.0-2.11","b7cfbd6e-32b1-4c69-a4d4-9eae9a6bc143","null","<p style=""text-align: center;"">+</p>","null","fixation","","","","","","","","","","","","","","","","","","","","","","",""
"","","","","","html-slider-response","150","1330872","0.0-21.0-0.12","b7cfbd6e-32b1-4c69-a4d4-9eae9a6bc143","1000","
                  <p style=""text-align: center;"">₪43
                                                <br>75%</p>
                  <p id=""wtp"" style=""text-align:center; margin-top: 0px; margin-bottom: 0px; font-size: 40px"";>&ensp;</p>","-","viewing","0","18","11B,19B,24A,26A","","","","","","","","","","","","","","","","","","","",""
"","","","","","html-slider-response","151","1332330","0.0-21.0-1.12","b7cfbd6e-32b1-4c69-a4d4-9eae9a6bc143","1456","
                  <p style=""text-align: center;"">₪43
                                                <br>75%</p>
                  <p id=""wtp"" style=""text-align:center; margin-top: 0px; margin-bottom: 0px; font-size: 40px"";>מוכנים לשלם: <span id=""c_p_y""></span></p>","34","evaluation","48","18","11B,19B,24A,26A","75","43","34","","","","","","","","","","","","","","","","",""
"","","","","","html-keyboard-response","152","1333443","0.0-21.0-2.12","b7cfbd6e-32b1-4c69-a4d4-9eae9a6bc143","null","<p style=""text-align: center;"">+</p>","null","fixation","","","","","","","","","","","","","","","","","","","","","","",""
"","","","","","html-slider-response","153","1334449","0.0-21.0-0.13","b7cfbd6e-32b1-4c69-a4d4-9eae9a6bc143","1000","
                  <p style=""text-align: center;"">₪36
                                                <br>70%</p>
                  <p id=""wtp"" style=""text-align:center; margin-top: 0px; margin-bottom: 0px; font-size: 40px"";>&ensp;</p>","-","viewing","0","13","3A,5C,10B","","","","","","","","","","","","","","","","","","","",""
"","","","","","html-slider-response","154","1336610","0.0-21.0-1.13","b7cfbd6e-32b1-4c69-a4d4-9eae9a6bc143","2160","
                  <p style=""text-align: center;"">₪36
                                                <br>70%</p>
                  <p id=""wtp"" style=""text-align:center; margin-top: 0px; margin-bottom: 0px; font-size: 40px"";>מוכנים לשלם: <span id=""c_p_y""></span></p>","64","evaluation","12","13","3A,5C,10B","70","36","63","","","","","","","","","","","","","","","","",""
"","","","","","html-keyboard-response","155","1337930","0.0-21.0-2.13","b7cfbd6e-32b1-4c69-a4d4-9eae9a6bc143","null","<p style=""text-align: center;"">+</p>","null","fixation","","","","","","","","","","","","","","","","","","","","","","",""
"","","","","","html-slider-response","156","1338937","0.0-21.0-0.14","b7cfbd6e-32b1-4c69-a4d4-9eae9a6bc143","1000","
                  <p style=""text-align: center;"">₪36
                                                <br>30%</p>
                  <p id=""wtp"" style=""text-align:center; margin-top: 0px; margin-bottom: 0px; font-size: 40px"";>&ensp;</p>","-","viewing","0","11","3C,20A,22A","","","","","","","","","","","","","","","","","","","",""
"","","","","","html-slider-response","157","1339986","0.0-21.0-1.14","b7cfbd6e-32b1-4c69-a4d4-9eae9a6bc143","1049","
                  <p style=""text-align: center;"">₪36
                                                <br>30%</p>
                  <p id=""wtp"" style=""text-align:center; margin-top: 0px; margin-bottom: 0px; font-size: 40px"";>מוכנים לשלם: <span id=""c_p_y""></span></p>","23","evaluation","62","11","3C,20A,22A","30","36","23","","","","","","","","","","","","","","","","",""
"","","","","","html-keyboard-response","158","1340819","0.0-21.0-2.14","b7cfbd6e-32b1-4c69-a4d4-9eae9a6bc143","null","<p style=""text-align: center;"">+</p>","null","fixation","","","","","","","","","","","","","","","","","","","","","","",""
"","","","","","html-slider-response","159","1341822","0.0-21.0-0.15","b7cfbd6e-32b1-4c69-a4d4-9eae9a6bc143","1000","
                  <p style=""text-align: center;"">₪64
                                                <br>25%</p>
                  <p id=""wtp"" style=""text-align:center; margin-top: 0px; margin-bottom: 0px; font-size: 40px"";>&ensp;</p>","-","viewing","0","24","6A,21A","","","","","","","","","","","","","","","","","","","",""
"","","","","","html-slider-response","160","1343554","0.0-21.0-1.15","b7cfbd6e-32b1-4c69-a4d4-9eae9a6bc143","1731","
                  <p style=""text-align: center;"">₪64
                                                <br>25%</p>
                  <p id=""wtp"" style=""text-align:center; margin-top: 0px; margin-bottom: 0px; font-size: 40px"";>מוכנים לשלם: <span id=""c_p_y""></span></p>","30","evaluation","64","24","6A,21A","25","64","30","","","","","","","","","","","","","","","","",""
"","","","","","html-keyboard-response","161","1345014","0.0-21.0-2.15","b7cfbd6e-32b1-4c69-a4d4-9eae9a6bc143","null","<p style=""text-align: center;"">+</p>","null","fixation","","","","","","","","","","","","","","","","","","","","","","",""
"","","","","","html-slider-response","162","1346016","0.0-21.0-0.16","b7cfbd6e-32b1-4c69-a4d4-9eae9a6bc143","1000","
                  <p style=""text-align: center;"">₪79
                                                <br>65%</p>
                  <p id=""wtp"" style=""text-align:center; margin-top: 0px; margin-bottom: 0px; font-size: 40px"";>&ensp;</p>","-","viewing","0","31","8A","","","","","","","","","","","","","","","","","","","",""
"","","","","","html-slider-response","163","1346986","0.0-21.0-1.16","b7cfbd6e-32b1-4c69-a4d4-9eae9a6bc143","969","
                  <p style=""text-align: center;"">₪79
                                                <br>65%</p>
                  <p id=""wtp"" style=""text-align:center; margin-top: 0px; margin-bottom: 0px; font-size: 40px"";>מוכנים לשלם: <span id=""c_p_y""></span></p>","56","evaluation","50","31","8A","65","79","56","","","","","","","","","","","","","","","","",""
"","","","","","html-keyboard-response","164","1347638","0.0-21.0-2.16","b7cfbd6e-32b1-4c69-a4d4-9eae9a6bc143","null","<p style=""text-align: center;"">+</p>","null","fixation","","","","","","","","","","","","","","","","","","","","","","",""
"","","","","","html-slider-response","165","1348639","0.0-21.0-0.17","b7cfbd6e-32b1-4c69-a4d4-9eae9a6bc143","1000","
                  <p style=""text-align: center;"">₪36
                                                <br>60%</p>
                  <p id=""wtp"" style=""text-align:center; margin-top: 0px; margin-bottom: 0px; font-size: 40px"";>&ensp;</p>","-","viewing","0","12","1C,7C,15C","","","","","","","","","","","","","","","","","","","",""
"","","","","","html-slider-response","166","1350418","0.0-21.0-1.17","b7cfbd6e-32b1-4c69-a4d4-9eae9a6bc143","1778","
                  <p style=""text-align: center;"">₪36
                                                <br>60%</p>
                  <p id=""wtp"" style=""text-align:center; margin-top: 0px; margin-bottom: 0px; font-size: 40px"";>מוכנים לשלם: <span id=""c_p_y""></span></p>","52","evaluation","35","12","1C,7C,15C","60","36","52","","","","","","","","","","","","","","","","",""
"","","","","","html-keyboard-response","167","1351635","0.0-21.0-2.17","b7cfbd6e-32b1-4c69-a4d4-9eae9a6bc143","null","<p style=""text-align: center;"">+</p>","null","fixation","","","","","","","","","","","","","","","","","","","","","","",""
"","","","","","html-slider-response","168","1352650","0.0-21.0-0.18","b7cfbd6e-32b1-4c69-a4d4-9eae9a6bc143","1000","
                  <p style=""text-align: center;"">₪61
                                                <br>45%</p>
                  <p id=""wtp"" style=""text-align:center; margin-top: 0px; margin-bottom: 0px; font-size: 40px"";>&ensp;</p>","-","viewing","0","22","10A,11A","","","","","","","","","","","","","","","","","","","",""
"","","","","","html-slider-response","169","1354602","0.0-21.0-1.18","b7cfbd6e-32b1-4c69-a4d4-9eae9a6bc143","1952","
                  <p style=""text-align: center;"">₪61
                                                <br>45%</p>
                  <p id=""wtp"" style=""text-align:center; margin-top: 0px; margin-bottom: 0px; font-size: 40px"";>מוכנים לשלם: <span id=""c_p_y""></span></p>","41","evaluation","41","22","10A,11A","45","61","41","","","","","","","","","","","","","","","","",""
"","","","","","html-keyboard-response","170","1355753","0.0-21.0-2.18","b7cfbd6e-32b1-4c69-a4d4-9eae9a6bc143","null","<p style=""text-align: center;"">+</p>","null","fixation","","","","","","","","","","","","","","","","","","","","","","",""
"","","","","","html-slider-response","171","1356755","0.0-21.0-0.19","b7cfbd6e-32b1-4c69-a4d4-9eae9a6bc143","1000","
                  <p style=""text-align: center;"">₪11
                                                <br>20%</p>
                  <p id=""wtp"" style=""text-align:center; margin-top: 0px; margin-bottom: 0px; font-size: 40px"";>&ensp;</p>","-","viewing","0","4","12C,17C,23C,28C","","","","","","","","","","","","","","","","","","","",""
"","","","","","html-slider-response","172","1358154","0.0-21.0-1.19","b7cfbd6e-32b1-4c69-a4d4-9eae9a6bc143","1398","
                  <p style=""text-align: center;"">₪11
                                                <br>20%</p>
                  <p id=""wtp"" style=""text-align:center; margin-top: 0px; margin-bottom: 0px; font-size: 40px"";>מוכנים לשלם: <span id=""c_p_y""></span></p>","24","evaluation","8","4","12C,17C,23C,28C","20","11","24","","","","","","","","","","","","","","","","",""
"","","","","","html-keyboard-response","173","1358995","0.0-21.0-2.19","b7cfbd6e-32b1-4c69-a4d4-9eae9a6bc143","null","<p style=""text-align: center;"">+</p>","null","fixation","","","","","","","","","","","","","","","","","","","","","","",""
"","","","","","html-slider-response","174","1360008","0.0-21.0-0.20","b7cfbd6e-32b1-4c69-a4d4-9eae9a6bc143","1000","
                  <p style=""text-align: center;"">₪11
                                                <br>45%</p>
                  <p id=""wtp"" style=""text-align:center; margin-top: 0px; margin-bottom: 0px; font-size: 40px"";>&ensp;</p>","-","viewing","0","6","14B,21C,25C","","","","","","","","","","","","","","","","","","","",""
"","","","","","html-slider-response","175","1361610","0.0-21.0-1.20","b7cfbd6e-32b1-4c69-a4d4-9eae9a6bc143","1601","
                  <p style=""text-align: center;"">₪11
                                                <br>45%</p>
                  <p id=""wtp"" style=""text-align:center; margin-top: 0px; margin-bottom: 0px; font-size: 40px"";>מוכנים לשלם: <span id=""c_p_y""></span></p>","44","evaluation","55","6","14B,21C,25C","45","11","44","","","","","","","","","","","","","","","","",""
"","","","","","html-keyboard-response","176","1362512","0.0-21.0-2.20","b7cfbd6e-32b1-4c69-a4d4-9eae9a6bc143","null","<p style=""text-align: center;"">+</p>","null","fixation","","","","","","","","","","","","","","","","","","","","","","",""
"","","","","","html-slider-response","177","1363514","0.0-21.0-0.21","b7cfbd6e-32b1-4c69-a4d4-9eae9a6bc143","1000","
                  <p style=""text-align: center;"">₪58
                                                <br>45%</p>
                  <p id=""wtp"" style=""text-align:center; margin-top: 0px; margin-bottom: 0px; font-size: 40px"";>&ensp;</p>","-","viewing","0","21","11C,18C,25A","","","","","","","","","","","","","","","","","","","",""
"","","","","","html-slider-response","178","1364674","0.0-21.0-1.21","b7cfbd6e-32b1-4c69-a4d4-9eae9a6bc143","1159","
                  <p style=""text-align: center;"">₪58
                                                <br>45%</p>
                  <p id=""wtp"" style=""text-align:center; margin-top: 0px; margin-bottom: 0px; font-size: 40px"";>מוכנים לשלם: <span id=""c_p_y""></span></p>","45","evaluation","32","21","11C,18C,25A","45","58","45","","","","","","","","","","","","","","","","",""
"","","","","","html-keyboard-response","179","1365728","0.0-21.0-2.21","b7cfbd6e-32b1-4c69-a4d4-9eae9a6bc143","null","<p style=""text-align: center;"">+</p>","null","fixation","","","","","","","","","","","","","","","","","","","","","","",""
"","","","","","html-slider-response","180","1366731","0.0-21.0-0.22","b7cfbd6e-32b1-4c69-a4d4-9eae9a6bc143","1000","
                  <p style=""text-align: center;"">₪71
                                                <br>45%</p>
                  <p id=""wtp"" style=""text-align:center; margin-top: 0px; margin-bottom: 0px; font-size: 40px"";>&ensp;</p>","-","viewing","0","26","2B,16A","","","","","","","","","","","","","","","","","","","",""
"","","","","","html-slider-response","181","1367330","0.0-21.0-1.22","b7cfbd6e-32b1-4c69-a4d4-9eae9a6bc143","598","
                  <p style=""text-align: center;"">₪71
                                                <br>45%</p>
                  <p id=""wtp"" style=""text-align:center; margin-top: 0px; margin-bottom: 0px; font-size: 40px"";>מוכנים לשלם: <span id=""c_p_y""></span></p>","70","evaluation","35","26","2B,16A","45","71","70","","","","","","","","","","","","","","","","",""
"","","","","","html-keyboard-response","182","1368628","0.0-21.0-2.22","b7cfbd6e-32b1-4c69-a4d4-9eae9a6bc143","null","<p style=""text-align: center;"">+</p>","null","fixation","","","","","","","","","","","","","","","","","","","","","","",""
"","","","","","html-slider-response","183","1369644","0.0-21.0-0.23","b7cfbd6e-32b1-4c69-a4d4-9eae9a6bc143","1000","
                  <p style=""text-align: center;"">₪18
                                                <br>50%</p>
                  <p id=""wtp"" style=""text-align:center; margin-top: 0px; margin-bottom: 0px; font-size: 40px"";>&ensp;</p>","-","viewing","0","10","2C,16C,22B,28A","","","","","","","","","","","","","","","","","","","",""
"","","","","","html-slider-response","184","1371138","0.0-21.0-1.23","b7cfbd6e-32b1-4c69-a4d4-9eae9a6bc143","1493","
                  <p style=""text-align: center;"">₪18
                                                <br>50%</p>
                  <p id=""wtp"" style=""text-align:center; margin-top: 0px; margin-bottom: 0px; font-size: 40px"";>מוכנים לשלם: <span id=""c_p_y""></span></p>","71","evaluation","65","10","2C,16C,22B,28A","50","18","71","","","","","","","","","","","","","","","","",""
"","","","","","html-keyboard-response","185","1371788","0.0-21.0-2.23","b7cfbd6e-32b1-4c69-a4d4-9eae9a6bc143","null","<p style=""text-align: center;"">+</p>","null","fixation","","","","","","","","","","","","","","","","","","","","","","",""
"","","","","","html-slider-response","186","1372791","0.0-21.0-0.24","b7cfbd6e-32b1-4c69-a4d4-9eae9a6bc143","1000","
                  <p style=""text-align: center;"">₪43
                                                <br>60%</p>
                  <p id=""wtp"" style=""text-align:center; margin-top: 0px; margin-bottom: 0px; font-size: 40px"";>&ensp;</p>","-","viewing","0","17","2A,7A,9A,15B","","","","","","","","","","","","","","","","","","","",""
"","","","","","html-slider-response","187","1374858","0.0-21.0-1.24","b7cfbd6e-32b1-4c69-a4d4-9eae9a6bc143","2066","
                  <p style=""text-align: center;"">₪43
                                                <br>60%</p>
                  <p id=""wtp"" style=""text-align:center; margin-top: 0px; margin-bottom: 0px; font-size: 40px"";>מוכנים לשלם: <span id=""c_p_y""></span></p>","65","evaluation","22","17","2A,7A,9A,15B","60","43","65","","","","","","","","","","","","","","","","",""
"","","","","","html-keyboard-response","188","1375670","0.0-21.0-2.24","b7cfbd6e-32b1-4c69-a4d4-9eae9a6bc143","null","<p style=""text-align: center;"">+</p>","null","fixation","","","","","","","","","","","","","","","","","","","","","","",""
"","","","","","html-slider-response","189","1376682","0.0-21.0-0.25","b7cfbd6e-32b1-4c69-a4d4-9eae9a6bc143","1000","
                  <p style=""text-align: center;"">₪4
                                                <br>75%</p>
                  <p id=""wtp"" style=""text-align:center; margin-top: 0px; margin-bottom: 0px; font-size: 40px"";>&ensp;</p>","-","viewing","0","3","12B,20B,23B,27C,29C","","","","","","","","","","","","","","","","","","","",""
"","","","","","html-slider-response","190","1378002","0.0-21.0-1.25","b7cfbd6e-32b1-4c69-a4d4-9eae9a6bc143","1319","
                  <p style=""text-align: center;"">₪4
                                                <br>75%</p>
                  <p id=""wtp"" style=""text-align:center; margin-top: 0px; margin-bottom: 0px; font-size: 40px"";>מוכנים לשלם: <span id=""c_p_y""></span></p>","76","evaluation","73","3","12B,20B,23B,27C,29C","75","4","76","","","","","","","","","","","","","","","","",""
"","","","","","html-keyboard-response","191","1379482","0.0-21.0-2.25","b7cfbd6e-32b1-4c69-a4d4-9eae9a6bc143","null","<p style=""text-align: center;"">+</p>","null","fixation","","","","","","","","","","","","","","","","","","","","","","",""
"","","","","","html-slider-response","192","1380492","0.0-21.0-0.26","b7cfbd6e-32b1-4c69-a4d4-9eae9a6bc143","1000","
                  <p style=""text-align: center;"">₪4
                                                <br>50%</p>
                  <p id=""wtp"" style=""text-align:center; margin-top: 0px; margin-bottom: 0px; font-size: 40px"";>&ensp;</p>","-","viewing","0","2","4C,17B","","","","","","","","","","","","","","","","","","","",""
"","","","","","html-slider-response","193","1381666","0.0-21.0-1.26","b7cfbd6e-32b1-4c69-a4d4-9eae9a6bc143","1174","
                  <p style=""text-align: center;"">₪4
                                                <br>50%</p>
                  <p id=""wtp"" style=""text-align:center; margin-top: 0px; margin-bottom: 0px; font-size: 40px"";>מוכנים לשלם: <span id=""c_p_y""></span></p>","72","evaluation","34","2","4C,17B","50","4","72","","","","","","","","","","","","","","","","",""
"","","","","","html-keyboard-response","194","1382971","0.0-21.0-2.26","b7cfbd6e-32b1-4c69-a4d4-9eae9a6bc143","null","<p style=""text-align: center;"">+</p>","null","fixation","","","","","","","","","","","","","","","","","","","","","","",""
"","","","","","html-slider-response","195","1383978","0.0-21.0-0.27","b7cfbd6e-32b1-4c69-a4d4-9eae9a6bc143","1000","
                  <p style=""text-align: center;"">₪39
                                                <br>60%</p>
                  <p id=""wtp"" style=""text-align:center; margin-top: 0px; margin-bottom: 0px; font-size: 40px"";>&ensp;</p>","-","viewing","0","15","9C,25B","","","","","","","","","","","","","","","","","","","",""
"","","","","","html-slider-response","196","1385658","0.0-21.0-1.27","b7cfbd6e-32b1-4c69-a4d4-9eae9a6bc143","1679","
                  <p style=""text-align: center;"">₪39
                                                <br>60%</p>
                  <p id=""wtp"" style=""text-align:center; margin-top: 0px; margin-bottom: 0px; font-size: 40px"";>מוכנים לשלם: <span id=""c_p_y""></span></p>","69","evaluation","26","15","9C,25B","60","39","69","","","","","","","","","","","","","","","","",""
"","","","","","html-keyboard-response","197","1387065","0.0-21.0-2.27","b7cfbd6e-32b1-4c69-a4d4-9eae9a6bc143","null","<p style=""text-align: center;"">+</p>","null","fixation","","","","","","","","","","","","","","","","","","","","","","",""
"","","","","","html-slider-response","198","1388070","0.0-21.0-0.28","b7cfbd6e-32b1-4c69-a4d4-9eae9a6bc143","1000","
                  <p style=""text-align: center;"">₪76
                                                <br>65%</p>
                  <p id=""wtp"" style=""text-align:center; margin-top: 0px; margin-bottom: 0px; font-size: 40px"";>&ensp;</p>","-","viewing","0","29","8C,19A,24B","","","","","","","","","","","","","","","","","","","",""
"","","","","","html-slider-response","199","1388946","0.0-21.0-1.28","b7cfbd6e-32b1-4c69-a4d4-9eae9a6bc143","876","
                  <p style=""text-align: center;"">₪76
                                                <br>65%</p>
                  <p id=""wtp"" style=""text-align:center; margin-top: 0px; margin-bottom: 0px; font-size: 40px"";>מוכנים לשלם: <span id=""c_p_y""></span></p>","73","evaluation","31","29","8C,19A,24B","65","76","73","","","","","","","","","","","","","","","","",""
"","","","","","html-keyboard-response","200","1389896","0.0-21.0-2.28","b7cfbd6e-32b1-4c69-a4d4-9eae9a6bc143","null","<p style=""text-align: center;"">+</p>","null","fixation","","","","","","","","","","","","","","","","","","","","","","",""
"","","","","","html-slider-response","201","1390902","0.0-21.0-0.29","b7cfbd6e-32b1-4c69-a4d4-9eae9a6bc143","1000","
                  <p style=""text-align: center;"">₪64
                                                <br>50%</p>
                  <p id=""wtp"" style=""text-align:center; margin-top: 0px; margin-bottom: 0px; font-size: 40px"";>&ensp;</p>","-","viewing","0","25","1B,3B,4A","","","","","","","","","","","","","","","","","","","",""
"","","","","","html-slider-response","202","1393394","0.0-21.0-1.29","b7cfbd6e-32b1-4c69-a4d4-9eae9a6bc143","2491","
                  <p style=""text-align: center;"">₪64
                                                <br>50%</p>
                  <p id=""wtp"" style=""text-align:center; margin-top: 0px; margin-bottom: 0px; font-size: 40px"";>מוכנים לשלם: <span id=""c_p_y""></span></p>","73","evaluation","53","25","1B,3B,4A","50","64","73","","","","","","","","","","","","","","","","",""
"","","","","","html-keyboard-response","203","1394877","0.0-21.0-2.29","b7cfbd6e-32b1-4c69-a4d4-9eae9a6bc143","null","<p style=""text-align: center;"">+</p>","null","fixation","","","","","","","","","","","","","","","","","","","","","","",""
"","","","","","html-slider-response","204","1395883","0.0-21.0-0.30","b7cfbd6e-32b1-4c69-a4d4-9eae9a6bc143","1000","
                  <p style=""text-align: center;"">₪11
                                                <br>25%</p>
                  <p id=""wtp"" style=""text-align:center; margin-top: 0px; margin-bottom: 0px; font-size: 40px"";>&ensp;</p>","-","viewing","0","5","12A,27B,28B,30B","","","","","","","","","","","","","","","","","","","",""
"","","","","","html-slider-response","205","1398123","0.0-21.0-1.30","b7cfbd6e-32b1-4c69-a4d4-9eae9a6bc143","2238","
                  <p style=""text-align: center;"">₪11
                                                <br>25%</p>
                  <p id=""wtp"" style=""text-align:center; margin-top: 0px; margin-bottom: 0px; font-size: 40px"";>מוכנים לשלם: <span id=""c_p_y""></span></p>","44","evaluation","5","5","12A,27B,28B,30B","25","11","44","","","","","","","","","","","","","","","","",""
"","","","","","html-keyboard-response","206","1399434","0.0-21.0-2.30","b7cfbd6e-32b1-4c69-a4d4-9eae9a6bc143","null","<p style=""text-align: center;"">+</p>","null","fixation","","","","","","","","","","","","","","","","","","","","","","",""
"","","","","","html-keyboard-response","207","1400447","0.0-22.0","b7cfbd6e-32b1-4c69-a4d4-9eae9a6bc143","null","<p style=""text-align: center;"">+</p>","null","fixation","","","","","","","","","","","","","","","","","","","","","","",""
"","","","","","html-keyboard-response","208","1407010","0.0-23.0","b7cfbd6e-32b1-4c69-a4d4-9eae9a6bc143","null","<p>הפסקה.
          <br>לחצו כדי להמשיך.</p>","1","scan_wait","","","","","","","","","","","","","","","","","","","","","","",""
"","","","","","html-keyboard-response","209","1408020","0.0-24.0","b7cfbd6e-32b1-4c69-a4d4-9eae9a6bc143","null","<p style=""text-align: center;"">+</p>","null","fixation","","","","","","","","","","","","","","","","","","","","","","",""
"","","","","","html-slider-response","210","1409023","0.0-25.0-0.0","b7cfbd6e-32b1-4c69-a4d4-9eae9a6bc143","1000","
                  <p style=""text-align: center;"">₪4
                                                <br>50%</p>
                  <p id=""wtp"" style=""text-align:center; margin-top: 0px; margin-bottom: 0px; font-size: 40px"";>&ensp;</p>","-","viewing","0","2","4C,17B","","","","","","","","","","","","","","","","","","","",""
"","","","","","html-slider-response","211","1410379","0.0-25.0-1.0","b7cfbd6e-32b1-4c69-a4d4-9eae9a6bc143","1354","
                  <p style=""text-align: center;"">₪4
                                                <br>50%</p>
                  <p id=""wtp"" style=""text-align:center; margin-top: 0px; margin-bottom: 0px; font-size: 40px"";>מוכנים לשלם: <span id=""c_p_y""></span></p>","40","evaluation","70","2","4C,17B","50","4","40","","","","","","","","","","","","","","","","",""
"","","","","","html-keyboard-response","212","1411703","0.0-25.0-2.0","b7cfbd6e-32b1-4c69-a4d4-9eae9a6bc143","null","<p style=""text-align: center;"">+</p>","null","fixation","","","","","","","","","","","","","","","","","","","","","","",""
"","","","","","html-slider-response","213","1412705","0.0-25.0-0.1","b7cfbd6e-32b1-4c69-a4d4-9eae9a6bc143","1000","
                  <p style=""text-align: center;"">₪36
                                                <br>60%</p>
                  <p id=""wtp"" style=""text-align:center; margin-top: 0px; margin-bottom: 0px; font-size: 40px"";>&ensp;</p>","-","viewing","0","12","1C,7C,15C","","","","","","","","","","","","","","","","","","","",""
"","","","","","html-slider-response","214","1414522","0.0-25.0-1.1","b7cfbd6e-32b1-4c69-a4d4-9eae9a6bc143","1816","
                  <p style=""text-align: center;"">₪36
                                                <br>60%</p>
                  <p id=""wtp"" style=""text-align:center; margin-top: 0px; margin-bottom: 0px; font-size: 40px"";>מוכנים לשלם: <span id=""c_p_y""></span></p>","47","evaluation","35","12","1C,7C,15C","60","36","47","","","","","","","","","","","","","","","","",""
"","","","","","html-keyboard-response","215","1415413","0.0-25.0-2.1","b7cfbd6e-32b1-4c69-a4d4-9eae9a6bc143","null","<p style=""text-align: center;"">+</p>","null","fixation","","","","","","","","","","","","","","","","","","","","","","",""
"","","","","","html-slider-response","216","1416414","0.0-25.0-0.2","b7cfbd6e-32b1-4c69-a4d4-9eae9a6bc143","1000","
                  <p style=""text-align: center;"">₪71
                                                <br>75%</p>
                  <p id=""wtp"" style=""text-align:center; margin-top: 0px; margin-bottom: 0px; font-size: 40px"";>&ensp;</p>","-","viewing","0","28","8B","","","","","","","","","","","","","","","","","","","",""
"","","","","","html-slider-response","217","1418955","0.0-25.0-1.2","b7cfbd6e-32b1-4c69-a4d4-9eae9a6bc143","2539","
                  <p style=""text-align: center;"">₪71
                                                <br>75%</p>
                  <p id=""wtp"" style=""text-align:center; margin-top: 0px; margin-bottom: 0px; font-size: 40px"";>מוכנים לשלם: <span id=""c_p_y""></span></p>","75","evaluation","77","28","8B","75","71","75","","","","","","","","","","","","","","","","",""
"","","","","","html-keyboard-response","218","1420148","0.0-25.0-2.2","b7cfbd6e-32b1-4c69-a4d4-9eae9a6bc143","null","<p style=""text-align: center;"">+</p>","null","fixation","","","","","","","","","","","","","","","","","","","","","","",""
"","","","","","html-slider-response","219","1421148","0.0-25.0-0.3","b7cfbd6e-32b1-4c69-a4d4-9eae9a6bc143","1000","
                  <p style=""text-align: center;"">₪64
                                                <br>50%</p>
                  <p id=""wtp"" style=""text-align:center; margin-top: 0px; margin-bottom: 0px; font-size: 40px"";>&ensp;</p>","-","viewing","0","25","1B,3B,4A","","","","","","","","","","","","","","","","","","","",""
"","","","","","html-slider-response","220","1421682","0.0-25.0-1.3","b7cfbd6e-32b1-4c69-a4d4-9eae9a6bc143","534","
                  <p style=""text-align: center;"">₪64
                                                <br>50%</p>
                  <p id=""wtp"" style=""text-align:center; margin-top: 0px; margin-bottom: 0px; font-size: 40px"";>מוכנים לשלם: <span id=""c_p_y""></span></p>","43","evaluation","36","25","1B,3B,4A","50","64","43","","","","","","","","","","","","","","","","",""
"","","","","","html-keyboard-response","221","1422530","0.0-25.0-2.3","b7cfbd6e-32b1-4c69-a4d4-9eae9a6bc143","null","<p style=""text-align: center;"">+</p>","null","fixation","","","","","","","","","","","","","","","","","","","","","","",""
"","","","","","html-slider-response","222","1423531","0.0-25.0-0.4","b7cfbd6e-32b1-4c69-a4d4-9eae9a6bc143","1000","
                  <p style=""text-align: center;"">₪16
                                                <br>20%</p>
                  <p id=""wtp"" style=""text-align:center; margin-top: 0px; margin-bottom: 0px; font-size: 40px"";>&ensp;</p>","-","viewing","0","8","14C,17A,20C,27A","","","","","","","","","","","","","","","","","","","",""
"","","","","","html-slider-response","223","1424146","0.0-25.0-1.4","b7cfbd6e-32b1-4c69-a4d4-9eae9a6bc143","614","
                  <p style=""text-align: center;"">₪16
                                                <br>20%</p>
                  <p id=""wtp"" style=""text-align:center; margin-top: 0px; margin-bottom: 0px; font-size: 40px"";>מוכנים לשלם: <span id=""c_p_y""></span></p>","24","evaluation","51","8","14C,17A,20C,27A","20","16","24","","","","","","","","","","","","","","","","",""
"","","","","","html-keyboard-response","224","1425611","0.0-25.0-2.4","b7cfbd6e-32b1-4c69-a4d4-9eae9a6bc143","null","<p style=""text-align: center;"">+</p>","null","fixation","","","","","","","","","","","","","","","","","","","","","","",""
"","","","","","html-slider-response","225","1426614","0.0-25.0-0.5","b7cfbd6e-32b1-4c69-a4d4-9eae9a6bc143","1000","
                  <p style=""text-align: center;"">₪4
                                                <br>75%</p>
                  <p id=""wtp"" style=""text-align:center; margin-top: 0px; margin-bottom: 0px; font-size: 40px"";>&ensp;</p>","-","viewing","0","3","12B,20B,23B,27C,29C","","","","","","","","","","","","","","","","","","","",""
"","","","","","html-slider-response","226","1429426","0.0-25.0-1.5","b7cfbd6e-32b1-4c69-a4d4-9eae9a6bc143","2812","
                  <p style=""text-align: center;"">₪4
                                                <br>75%</p>
                  <p id=""wtp"" style=""text-align:center; margin-top: 0px; margin-bottom: 0px; font-size: 40px"";>מוכנים לשלם: <span id=""c_p_y""></span></p>","73","evaluation","66","3","12B,20B,23B,27C,29C","75","4","73","","","","","","","","","","","","","","","","",""
"","","","","","html-keyboard-response","227","1430874","0.0-25.0-2.5","b7cfbd6e-32b1-4c69-a4d4-9eae9a6bc143","null","<p style=""text-align: center;"">+</p>","null","fixation","","","","","","","","","","","","","","","","","","","","","","",""
"","","","","","html-slider-response","228","1431876","0.0-25.0-0.6","b7cfbd6e-32b1-4c69-a4d4-9eae9a6bc143","1000","
                  <p style=""text-align: center;"">₪43
                                                <br>60%</p>
                  <p id=""wtp"" style=""text-align:center; margin-top: 0px; margin-bottom: 0px; font-size: 40px"";>&ensp;</p>","-","viewing","0","17","2A,7A,9A,15B","","","","","","","","","","","","","","","","","","","",""
"","","","","","html-slider-response","229","1433194","0.0-25.0-1.6","b7cfbd6e-32b1-4c69-a4d4-9eae9a6bc143","1318","
                  <p style=""text-align: center;"">₪43
                                                <br>60%</p>
                  <p id=""wtp"" style=""text-align:center; margin-top: 0px; margin-bottom: 0px; font-size: 40px"";>מוכנים לשלם: <span id=""c_p_y""></span></p>","75","evaluation","4","17","2A,7A,9A,15B","60","43","75","","","","","","","","","","","","","","","","",""
"","","","","","html-keyboard-response","230","1434504","0.0-25.0-2.6","b7cfbd6e-32b1-4c69-a4d4-9eae9a6bc143","null","<p style=""text-align: center;"">+</p>","null","fixation","","","","","","","","","","","","","","","","","","","","","","",""
"","","","","","html-slider-response","231","1435513","0.0-25.0-0.7","b7cfbd6e-32b1-4c69-a4d4-9eae9a6bc143","1000","
                  <p style=""text-align: center;"">₪58
                                                <br>45%</p>
                  <p id=""wtp"" style=""text-align:center; margin-top: 0px; margin-bottom: 0px; font-size: 40px"";>&ensp;</p>","-","viewing","0","21","11C,18C,25A","","","","","","","","","","","","","","","","","","","",""
"","","","","","html-slider-response","232","1437738","0.0-25.0-1.7","b7cfbd6e-32b1-4c69-a4d4-9eae9a6bc143","2225","
                  <p style=""text-align: center;"">₪58
                                                <br>45%</p>
                  <p id=""wtp"" style=""text-align:center; margin-top: 0px; margin-bottom: 0px; font-size: 40px"";>מוכנים לשלם: <span id=""c_p_y""></span></p>","43","evaluation","22","21","11C,18C,25A","45","58","43","","","","","","","","","","","","","","","","",""
"","","","","","html-keyboard-response","233","1439144","0.0-25.0-2.7","b7cfbd6e-32b1-4c69-a4d4-9eae9a6bc143","null","<p style=""text-align: center;"">+</p>","null","fixation","","","","","","","","","","","","","","","","","","","","","","",""
"","","","","","html-slider-response","234","1440151","0.0-25.0-0.8","b7cfbd6e-32b1-4c69-a4d4-9eae9a6bc143","1000","
                  <p style=""text-align: center;"">₪11
                                                <br>75%</p>
                  <p id=""wtp"" style=""text-align:center; margin-top: 0px; margin-bottom: 0px; font-size: 40px"";>&ensp;</p>","-","viewing","0","7","6B,18B,22C,24C,29A","","","","","","","","","","","","","","","","","","","",""
"","","","","","html-slider-response","235","1441946","0.0-25.0-1.8","b7cfbd6e-32b1-4c69-a4d4-9eae9a6bc143","1794","
                  <p style=""text-align: center;"">₪11
                                                <br>75%</p>
                  <p id=""wtp"" style=""text-align:center; margin-top: 0px; margin-bottom: 0px; font-size: 40px"";>מוכנים לשלם: <span id=""c_p_y""></span></p>","56","evaluation","22","7","6B,18B,22C,24C,29A","75","11","56","","","","","","","","","","","","","","","","",""
"","","","","","html-keyboard-response","236","1442586","0.0-25.0-2.8","b7cfbd6e-32b1-4c69-a4d4-9eae9a6bc143","null","<p style=""text-align: center;"">+</p>","null","fixation","","","","","","","","","","","","","","","","","","","","","","",""
"","","","","","html-slider-response","237","1443588","0.0-25.0-0.9","b7cfbd6e-32b1-4c69-a4d4-9eae9a6bc143","1000","
                  <p style=""text-align: center;"">₪18
                                                <br>25%</p>
                  <p id=""wtp"" style=""text-align:center; margin-top: 0px; margin-bottom: 0px; font-size: 40px"";>&ensp;</p>","-","viewing","0","9","14A,23A","","","","","","","","","","","","","","","","","","","",""
"","","","","","html-slider-response","238","1445906","0.0-25.0-1.9","b7cfbd6e-32b1-4c69-a4d4-9eae9a6bc143","2318","
                  <p style=""text-align: center;"">₪18
                                                <br>25%</p>
                  <p id=""wtp"" style=""text-align:center; margin-top: 0px; margin-bottom: 0px; font-size: 40px"";>מוכנים לשלם: <span id=""c_p_y""></span></p>","47","evaluation","7","9","14A,23A","25","18","47","","","","","","","","","","","","","","","","",""
"","","","","","html-keyboard-response","239","1447350","0.0-25.0-2.9","b7cfbd6e-32b1-4c69-a4d4-9eae9a6bc143","null","<p style=""text-align: center;"">+</p>","null","fixation","","","","","","","","","","","","","","","","","","","","","","",""
"","","","","","html-slider-response","240","1448358","0.0-25.0-0.10","b7cfbd6e-32b1-4c69-a4d4-9eae9a6bc143","1000","
                  <p style=""text-align: center;"">₪61
                                                <br>55%</p>
                  <p id=""wtp"" style=""text-align:center; margin-top: 0px; margin-bottom: 0px; font-size: 40px"";>&ensp;</p>","-","viewing","0","23","7B,26B","","","","","","","","","","","","","","","","","","","",""
"","","","","","html-slider-response","241","1449363","0.0-25.0-1.10","b7cfbd6e-32b1-4c69-a4d4-9eae9a6bc143","1003","
                  <p style=""text-align: center;"">₪61
                                                <br>55%</p>
                  <p id=""wtp"" style=""text-align:center; margin-top: 0px; margin-bottom: 0px; font-size: 40px"";>מוכנים לשלם: <span id=""c_p_y""></span></p>","42","evaluation","37","23","7B,26B","55","61","42","","","","","","","","","","","","","","","","",""
"","","","","","html-keyboard-response","242","1450680","0.0-25.0-2.10","b7cfbd6e-32b1-4c69-a4d4-9eae9a6bc143","null","<p style=""text-align: center;"">+</p>","null","fixation","","","","","","","","","","","","","","","","","","","","","","",""
"","","","","","html-slider-response","243","1451683","0.0-25.0-0.11","b7cfbd6e-32b1-4c69-a4d4-9eae9a6bc143","1000","
                  <p style=""text-align: center;"">₪61
                                                <br>45%</p>
                  <p id=""wtp"" style=""text-align:center; margin-top: 0px; margin-bottom: 0px; font-size: 40px"";>&ensp;</p>","-","viewing","0","22","10A,11A","","","","","","","","","","","","","","","","","","","",""
"","","","","","html-slider-response","244","1452970","0.0-25.0-1.11","b7cfbd6e-32b1-4c69-a4d4-9eae9a6bc143","1286","
                  <p style=""text-align: center;"">₪61
                                                <br>45%</p>
                  <p id=""wtp"" style=""text-align:center; margin-top: 0px; margin-bottom: 0px; font-size: 40px"";>מוכנים לשלם: <span id=""c_p_y""></span></p>","57","evaluation","7","22","10A,11A","45","61","57","","","","","","","","","","","","","","","","",""
"","","","","","html-keyboard-response","245","1454001","0.0-25.0-2.11","b7cfbd6e-32b1-4c69-a4d4-9eae9a6bc143","null","<p style=""text-align: center;"">+</p>","null","fixation","","","","","","","","","","","","","","","","","","","","","","",""
"","","","","","html-slider-response","246","1455012","0.0-25.0-0.12","b7cfbd6e-32b1-4c69-a4d4-9eae9a6bc143","1000","
                  <p style=""text-align: center;"">₪39
                                                <br>60%</p>
                  <p id=""wtp"" style=""text-align:center; margin-top: 0px; margin-bottom: 0px; font-size: 40px"";>&ensp;</p>","-","viewing","0","15","9C,25B","","","","","","","","","","","","","","","","","","","",""
"","","","","","html-slider-response","247","1457202","0.0-25.0-1.12","b7cfbd6e-32b1-4c69-a4d4-9eae9a6bc143","2189","
                  <p style=""text-align: center;"">₪39
                                                <br>60%</p>
                  <p id=""wtp"" style=""text-align:center; margin-top: 0px; margin-bottom: 0px; font-size: 40px"";>מוכנים לשלם: <span id=""c_p_y""></span></p>","69","evaluation","49","15","9C,25B","60","39","69","","","","","","","","","","","","","","","","",""
"","","","","","html-keyboard-response","248","1457723","0.0-25.0-2.12","b7cfbd6e-32b1-4c69-a4d4-9eae9a6bc143","null","<p style=""text-align: center;"">+</p>","null","fixation","","","","","","","","","","","","","","","","","","","","","","",""
"","","","","","html-slider-response","249","1458731","0.0-25.0-0.13","b7cfbd6e-32b1-4c69-a4d4-9eae9a6bc143","1000","
