"success","timeout","failed_images","failed_audio","failed_video","trial_type","trial_index","time_elapsed","internal_node_id","subject_id","rt","stimulus","response","part","slider_start","ID","set_ID","prob","amount","last_location","actual_choice","actual_EV","binary_id","trinary_id","catch","A_key","D_key","choice_prob","choice_amount","potential_prize_prob","potential_prize_amount","won_prize","total_prize","remaining_budget","accuracy"
"true","false","[]","[]","[]","preload","0","4","0.0-0.0","53c4bcc9-a8d9-4849-94e3-b2a14024f5a7","","","","","","","","","","","","","","","","","","","","","","","","",""
"","","","","","html-keyboard-response","1","15196","0.0-1.0","53c4bcc9-a8d9-4849-94e3-b2a14024f5a7","null","
          <h1>שלום וברוכים הבאים!</h1>
          <p>לפניכם ניסוי בקבלת החלטות עם שני חלקים.
          <br><br>לחצו על העכבר כדי להמשיך.</p>","0","example","","","","","","","","","","","","","","","","","","","","",""
"","","","","","html-keyboard-response","2","20412","0.0-2.0","53c4bcc9-a8d9-4849-94e3-b2a14024f5a7","null","
        <h1>חלק 1</h1>
        <p>בקרוב יוצגו בפניכם הגרלות.
        <br>עליכם לבחור את המחיר המירבי שתהיו מוכנים לשלם כדי להשתתף בהגרלה שתוצג.
        <br>יש לכם תקציב של ₪80 לכל הגרלה. 
        <br>נסו להעריך כל הגרלה בנפרד ולחשוב כמה היא שווה עבורכם, ₪80 זמינים לכל הגרלה בנפרד.
        <br><br>לחצו על העכבר כדי להמשיך.</p>","1","instructions","","","","","","","","","","","","","","","","","","","","",""
"","","","","","html-keyboard-response","3","24741","0.0-3.0","53c4bcc9-a8d9-4849-94e3-b2a14024f5a7","null","
        <p>בסוף הניסוי, המחשב יבחר את אחת ההגרלות ויקבע מחיר לכרטיס עבורה. 
        <br>במידה והמחיר שבחרתם נמוך מהמחיר שנבחר על ידי המחשב, לא תשתתפו בהגרלה ותשארו עם מלוא התקציב.
        <br>במידה והמחיר שבחרתם גבוה מהמחיר שנבחר על ידי המחשב, תשלמו את המחיר שנקבע ותשתתפו בהגרלה.
        <br><br>לחצו על העכבר כדי להמשיך.</p>","1","instructions","","","","","","","","","","","","","","","","","","","","",""
"","","","","","html-slider-response","4","36724","0.0-4.0","53c4bcc9-a8d9-4849-94e3-b2a14024f5a7","11881","
        <p style=""font-size: 42px;"">נתחיל עם דוגמא: 
        <br>ההגרלה מטה מציעה 65% סיכוי לזכות ב-₪40 
        <br>&emsp;&emsp;&emsp;&emsp;&emsp;&emsp;&emsp;&emsp;&ensp;35% סיכוי לזכות ב-₪0.
        <br><br>מה המחיר המירבי שתהיו מוכנים לשלם על כרטיס להגרלה זו בין 0 ל-₪80?
        <br>הזיזו את העכבר על פני המלבן ולחצו כדי לבצע בחירה.</p>
        
        <p style=""text-align: center;"">₪40<br>65%</p>

        <p id=""wtp"" style=""text-align:center; margin-top: 0px; margin-bottom: 0px; font-size: 40px"";>מוכנים לשלם: <span id=""c_p_y""></span></p>","26","example","60","","","","","","","","","","","","","","","","","","","",""
"","","","","","html-keyboard-response","5","43580","0.0-5.0","53c4bcc9-a8d9-4849-94e3-b2a14024f5a7","null","<p>יפה מאוד!
                <br> בחרתם שתהיו מוכנים לשלם ₪26 כדי להשתתף בהגרלה:
                <br><p style=""text-align: center;"">₪40<br>65%</p>
                <p>נשמע נכון?
                <br>נניח שהגרלה זו נבחרה בסוף הניסוי.
                <br>כעת המחשב יקבע מחיר עבורה באקראי.
                <br>לחצו על העכבר להמשך.</p>","1","example","","","","","","","","","","","","","","","","","","","","",""
"","","","","","html-keyboard-response","6","50788","0.0-6.0","53c4bcc9-a8d9-4849-94e3-b2a14024f5a7","null","<p>המחשב קבע מחיר: ₪43
                <br>ואתם בחרתם לשלם לכל היותר: ₪26
                <br><br>מכיוון שהמחיר שבחרתם נמוך מהמחיר שנקבע, לא תתשתתפו בהגרלה.
                <br>במקרה כזה, בסוף הניסוי תקבלו את כל התקציב ההתחלתי של ₪80.
                <br><br>לחצו על העכבר להמשך.</p>","1","example","","","","","","","","","","","","","","","","","","","","",""
"","","","","","html-slider-response","7","58524","0.0-7.0","53c4bcc9-a8d9-4849-94e3-b2a14024f5a7","7482","<p style=""font-size: 42px;"">הנה עוד דוגמא:
                <br>ההגרלה מטה מציעה 35% סיכוי לזכות ב-₪18 
                <br>&emsp;&emsp;&emsp;&emsp;&emsp;&emsp;&emsp;&emsp;&ensp;65% סיכוי לזכות ב-₪0.</p>
        
                <p style=""text-align: center;"">₪18<br>35%</p>
                <p id=""wtp"" style=""text-align:center; margin-top: 0px; margin-bottom: 0px; font-size: 40px"";>מוכנים לשלם: <span id=""c_p_y""></span></p>","5","example","50","","","","","","","","","","","","","","","","","","","",""
"","","","","","html-keyboard-response","8","62740","0.0-8.0","53c4bcc9-a8d9-4849-94e3-b2a14024f5a7","null","<p>הייתם מוכנים לשלם  ₪5 כדי להשתתף בהגרלה:
                <p style=""text-align: center;"">₪18<br>35%</p>
                <p>כעת נניח שהמחשב בחר את ההגרלה הזו בסוף הניסוי, וקבע עבורה מחיר.
                <br><br>לחצו על העכבר כדי להמשיך.</p>","1","instructions","","","","","","","","","","","","","","","","","","","","",""
"","","","","","html-keyboard-response","9","69764","0.0-9.0","53c4bcc9-a8d9-4849-94e3-b2a14024f5a7","null","<p>המחשב קבע מחיר להגרלה: ₪3<br>ואתם בחרתם לשלם לכל היותר: ₪5
                <br><br>כעת המחיר שנקבע נמוך מזה שבחרתם, אז תשלמו את המחיר שקבע המחשב (₪3) ותשתתפו בהגרלה.
                <br>במקרה כזה, תסיימו את הניסוי עם תקציב של ₪77 ועם סיכוי לזכות ב-₪18 נוספים מההגרלה.
                <br>כלומר, תוכלו לקבל ₪77 אם לא תזכו בהגרלה, או ₪95 אם תזכו בהגרלה.
                <br><br>לחצו על העכבר להמשך.</p>","1","example","","","","","","","","","","","","","","","","","","","","",""
"","","","","","html-keyboard-response","10","78236","0.0-10.0","53c4bcc9-a8d9-4849-94e3-b2a14024f5a7","null","<p>במהלך הניסוי, קודם תראו את ההגרלה ורק לאחר מכן תוכלו לבחור.
                <p>כמו כן, יהיו לכם מספר שניות מוגבל להגיב.
                <p>בואו ננסה זאת עם ההגרלה הקודמת.
                <br>לחצו על העכבר כדי להמשיך.</p>","1","instructions","","","","","","","","","","","","","","","","","","","","",""
"","","","","","html-slider-response","11","79490","0.0-11.0","53c4bcc9-a8d9-4849-94e3-b2a14024f5a7","1000","
                    <p style=""text-align: center;"">₪18<br>35%</p>
                    <p id=""wtp"" style=""text-align:center; margin-top: 0px; margin-bottom: 0px; font-size: 40px"";>&ensp;</p>","33","instructions","0","","","","","","","","","","","","","","","","","","","",""
"","","","","","html-slider-response","12","83751","0.0-12.0","53c4bcc9-a8d9-4849-94e3-b2a14024f5a7","null","
                    <p style=""text-align: center;"">₪18<br>35%</p>
                    <p id=""wtp"" style=""text-align:center; margin-top: 0px; margin-bottom: 0px; font-size: 40px"";>מוכנים לשלם: <span id=""c_p_y""></span></p>","null","instructions","32","","","","","","","","","","","","","","","","","","","",""
"","","","","","html-keyboard-response","13","84172","0.0-13.0","53c4bcc9-a8d9-4849-94e3-b2a14024f5a7","null","<p>לא הגבתם בזמן המוקצב לתגובה. 
                <br>נסו להגיב מהר יותר בפעם הבאה.
                <br><br>לחצו על העכבר כדי להמשיך.</p>","1","instructions","","","","","","","","","","","","","","","","","","","","",""
"","","","","","html-slider-response","14","87132","0.0-14.0-0.0","53c4bcc9-a8d9-4849-94e3-b2a14024f5a7","2700","
                    <p style=""text-align: center;"">₪40<br>65%</p>
                    <p id=""wtp"" style=""text-align:center; margin-top: 0px; margin-bottom: 0px; font-size: 40px"";>מוכנים לשלם: <span id=""c_p_y""></span></p>","25","instructions","65","","","","","","","","","","","","","","","","","","","",""
"","","","","","html-keyboard-response","15","90204","0.0-14.0-1.0","53c4bcc9-a8d9-4849-94e3-b2a14024f5a7","null","<p>יפה. הפעם בחרתם לשלם לכל היותר ₪25.
                <br><br>לחצו על העכבר כדי להמשיך.</p>","1","instructions","","","","","","","","","","","","","","","","","","","","",""
"","","","","","html-keyboard-response","16","94988","0.0-15.0","53c4bcc9-a8d9-4849-94e3-b2a14024f5a7","null","<p>כעת נתחיל את הניסוי.
                <br><br>אתם תראו הגרלות ותתבקשו לבחור כמה תהיו מוכנים לשלם כדי להשתתף בהן.
                <br>יש לכם תקציב של ₪80 עבור כל הגרלה.
                <br>בסוף הניסוי הגרלה אחת תבחר באקראי ותשוחק.
                <br><br>לחצו על העכבר כדי להתחיל את הניסוי.</p>","1","instructions","","","","","","","","","","","","","","","","","","","","",""
"","","","","","html-keyboard-response","17","96240","0.0-16.0","53c4bcc9-a8d9-4849-94e3-b2a14024f5a7","null","<p style=""text-align: center;"">+</p>","null","fixation","","","","","","","","","","","","","","","","","","","","",""
"","","","","","html-slider-response","18","97241","0.0-17.0-0.0","53c4bcc9-a8d9-4849-94e3-b2a14024f5a7","1000","
                  <p style=""text-align: center;"">₪36
                                                <br>30%</p>
                  <p id=""wtp"" style=""text-align:center; margin-top: 0px; margin-bottom: 0px; font-size: 40px"";>&ensp;</p>","-","viewing","0","11","3C,20A,22A","","","","","","","","","","","","","","","","","",""
"","","","","","html-slider-response","19","100980","0.0-17.0-1.0","53c4bcc9-a8d9-4849-94e3-b2a14024f5a7","3738","
                  <p style=""text-align: center;"">₪36
                                                <br>30%</p>
                  <p id=""wtp"" style=""text-align:center; margin-top: 0px; margin-bottom: 0px; font-size: 40px"";>מוכנים לשלם: <span id=""c_p_y""></span></p>","14","evaluation","80","11","3C,20A,22A","30","36","14","","","","","","","","","","","","","","",""
"","","","","","html-keyboard-response","20","101541","0.0-17.0-2.0","53c4bcc9-a8d9-4849-94e3-b2a14024f5a7","null","<p style=""text-align: center;"">+</p>","null","fixation","","","","","","","","","","","","","","","","","","","","",""
"","","","","","html-slider-response","21","102542","0.0-17.0-0.1","53c4bcc9-a8d9-4849-94e3-b2a14024f5a7","1000","
                  <p style=""text-align: center;"">₪61
                                                <br>55%</p>
                  <p id=""wtp"" style=""text-align:center; margin-top: 0px; margin-bottom: 0px; font-size: 40px"";>&ensp;</p>","-","viewing","0","23","7B,26B","","","","","","","","","","","","","","","","","",""
"","","","","","html-slider-response","22","106544","0.0-17.0-1.1","53c4bcc9-a8d9-4849-94e3-b2a14024f5a7","null","
                  <p style=""text-align: center;"">₪61
                                                <br>55%</p>
                  <p id=""wtp"" style=""text-align:center; margin-top: 0px; margin-bottom: 0px; font-size: 40px"";>מוכנים לשלם: <span id=""c_p_y""></span></p>","null","evaluation","9","23","7B,26B","55","61","30","","","","","","","","","","","","","","",""
"","","","","","html-keyboard-response","23","107217","0.0-17.0-2.1","53c4bcc9-a8d9-4849-94e3-b2a14024f5a7","null","<p style=""text-align: center;"">+</p>","null","fixation","","","","","","","","","","","","","","","","","","","","",""
"","","","","","html-slider-response","24","108219","0.0-17.0-0.2","53c4bcc9-a8d9-4849-94e3-b2a14024f5a7","1000","
                  <p style=""text-align: center;"">₪18
                                                <br>50%</p>
                  <p id=""wtp"" style=""text-align:center; margin-top: 0px; margin-bottom: 0px; font-size: 40px"";>&ensp;</p>","-","viewing","0","10","2C,16C,22B,28A","","","","","","","","","","","","","","","","","",""
"","","","","","html-slider-response","25","111116","0.0-17.0-1.2","53c4bcc9-a8d9-4849-94e3-b2a14024f5a7","2896","
                  <p style=""text-align: center;"">₪18
                                                <br>50%</p>
                  <p id=""wtp"" style=""text-align:center; margin-top: 0px; margin-bottom: 0px; font-size: 40px"";>מוכנים לשלם: <span id=""c_p_y""></span></p>","12","evaluation","49","10","2C,16C,22B,28A","50","18","12","","","","","","","","","","","","","","",""
"","","","","","html-keyboard-response","26","111993","0.0-17.0-2.2","53c4bcc9-a8d9-4849-94e3-b2a14024f5a7","null","<p style=""text-align: center;"">+</p>","null","fixation","","","","","","","","","","","","","","","","","","","","",""
"","","","","","html-slider-response","27","112995","0.0-17.0-0.3","53c4bcc9-a8d9-4849-94e3-b2a14024f5a7","1000","
                  <p style=""text-align: center;"">₪18
                                                <br>25%</p>
                  <p id=""wtp"" style=""text-align:center; margin-top: 0px; margin-bottom: 0px; font-size: 40px"";>&ensp;</p>","-","viewing","0","9","14A,23A","","","","","","","","","","","","","","","","","",""
"","","","","","html-slider-response","28","116996","0.0-17.0-1.3","53c4bcc9-a8d9-4849-94e3-b2a14024f5a7","null","
                  <p style=""text-align: center;"">₪18
                                                <br>25%</p>
                  <p id=""wtp"" style=""text-align:center; margin-top: 0px; margin-bottom: 0px; font-size: 40px"";>מוכנים לשלם: <span id=""c_p_y""></span></p>","null","evaluation","59","9","14A,23A","25","18","6","","","","","","","","","","","","","","",""
"","","","","","html-keyboard-response","29","118095","0.0-17.0-2.3","53c4bcc9-a8d9-4849-94e3-b2a14024f5a7","null","<p style=""text-align: center;"">+</p>","null","fixation","","","","","","","","","","","","","","","","","","","","",""
"","","","","","html-slider-response","30","119100","0.0-17.0-0.4","53c4bcc9-a8d9-4849-94e3-b2a14024f5a7","1000","
                  <p style=""text-align: center;"">₪71
                                                <br>75%</p>
                  <p id=""wtp"" style=""text-align:center; margin-top: 0px; margin-bottom: 0px; font-size: 40px"";>&ensp;</p>","-","viewing","0","28","8B","","","","","","","","","","","","","","","","","",""
"","","","","","html-slider-response","31","123068","0.0-17.0-1.4","53c4bcc9-a8d9-4849-94e3-b2a14024f5a7","3967","
                  <p style=""text-align: center;"">₪71
                                                <br>75%</p>
                  <p id=""wtp"" style=""text-align:center; margin-top: 0px; margin-bottom: 0px; font-size: 40px"";>מוכנים לשלם: <span id=""c_p_y""></span></p>","44","evaluation","49","28","8B","75","71","44","","","","","","","","","","","","","","",""
"","","","","","html-keyboard-response","32","123815","0.0-17.0-2.4","53c4bcc9-a8d9-4849-94e3-b2a14024f5a7","null","<p style=""text-align: center;"">+</p>","null","fixation","","","","","","","","","","","","","","","","","","","","",""
"","","","","","html-slider-response","33","124817","0.0-17.0-0.5","53c4bcc9-a8d9-4849-94e3-b2a14024f5a7","1000","
                  <p style=""text-align: center;"">₪4
                                                <br>50%</p>
                  <p id=""wtp"" style=""text-align:center; margin-top: 0px; margin-bottom: 0px; font-size: 40px"";>&ensp;</p>","-","viewing","0","2","4C,17B","","","","","","","","","","","","","","","","","",""
"","","","","","html-slider-response","34","127588","0.0-17.0-1.5","53c4bcc9-a8d9-4849-94e3-b2a14024f5a7","2770","
                  <p style=""text-align: center;"">₪4
                                                <br>50%</p>
                  <p id=""wtp"" style=""text-align:center; margin-top: 0px; margin-bottom: 0px; font-size: 40px"";>מוכנים לשלם: <span id=""c_p_y""></span></p>","1","evaluation","8","2","4C,17B","50","4","2","","","","","","","","","","","","","","",""
"","","","","","html-keyboard-response","35","128816","0.0-17.0-2.5","53c4bcc9-a8d9-4849-94e3-b2a14024f5a7","null","<p style=""text-align: center;"">+</p>","null","fixation","","","","","","","","","","","","","","","","","","","","",""
"","","","","","html-slider-response","36","129832","0.0-17.0-0.6","53c4bcc9-a8d9-4849-94e3-b2a14024f5a7","1000","
                  <p style=""text-align: center;"">₪58
                                                <br>40%</p>
                  <p id=""wtp"" style=""text-align:center; margin-top: 0px; margin-bottom: 0px; font-size: 40px"";>&ensp;</p>","-","viewing","0","20","10C,13A,19C,21B","","","","","","","","","","","","","","","","","",""
"","","","","","html-slider-response","37","133834","0.0-17.0-1.6","53c4bcc9-a8d9-4849-94e3-b2a14024f5a7","null","
                  <p style=""text-align: center;"">₪58
                                                <br>40%</p>
                  <p id=""wtp"" style=""text-align:center; margin-top: 0px; margin-bottom: 0px; font-size: 40px"";>מוכנים לשלם: <span id=""c_p_y""></span></p>","null","evaluation","52","20","10C,13A,19C,21B","40","58","14","","","","","","","","","","","","","","",""
"","","","","","html-keyboard-response","38","134559","0.0-17.0-2.6","53c4bcc9-a8d9-4849-94e3-b2a14024f5a7","null","<p style=""text-align: center;"">+</p>","null","fixation","","","","","","","","","","","","","","","","","","","","",""
"","","","","","html-slider-response","39","135561","0.0-17.0-0.7","53c4bcc9-a8d9-4849-94e3-b2a14024f5a7","1000","
                  <p style=""text-align: center;"">₪64
                                                <br>25%</p>
                  <p id=""wtp"" style=""text-align:center; margin-top: 0px; margin-bottom: 0px; font-size: 40px"";>&ensp;</p>","-","viewing","0","24","6A,21A","","","","","","","","","","","","","","","","","",""
"","","","","","html-slider-response","40","138612","0.0-17.0-1.7","53c4bcc9-a8d9-4849-94e3-b2a14024f5a7","3050","
                  <p style=""text-align: center;"">₪64
                                                <br>25%</p>
                  <p id=""wtp"" style=""text-align:center; margin-top: 0px; margin-bottom: 0px; font-size: 40px"";>מוכנים לשלם: <span id=""c_p_y""></span></p>","18","evaluation","41","24","6A,21A","25","64","18","","","","","","","","","","","","","","",""
"","","","","","html-keyboard-response","41","140088","0.0-17.0-2.7","53c4bcc9-a8d9-4849-94e3-b2a14024f5a7","null","<p style=""text-align: center;"">+</p>","null","fixation","","","","","","","","","","","","","","","","","","","","",""
"","","","","","html-slider-response","42","141089","0.0-17.0-0.8","53c4bcc9-a8d9-4849-94e3-b2a14024f5a7","1000","
                  <p style=""text-align: center;"">₪11
                                                <br>25%</p>
                  <p id=""wtp"" style=""text-align:center; margin-top: 0px; margin-bottom: 0px; font-size: 40px"";>&ensp;</p>","-","viewing","0","5","12A,27B,28B,30B","","","","","","","","","","","","","","","","","",""
"","","","","","html-slider-response","43","143004","0.0-17.0-1.8","53c4bcc9-a8d9-4849-94e3-b2a14024f5a7","1914","
                  <p style=""text-align: center;"">₪11
                                                <br>25%</p>
                  <p id=""wtp"" style=""text-align:center; margin-top: 0px; margin-bottom: 0px; font-size: 40px"";>מוכנים לשלם: <span id=""c_p_y""></span></p>","4","evaluation","35","5","12A,27B,28B,30B","25","11","5","","","","","","","","","","","","","","",""
"","","","","","html-keyboard-response","44","143597","0.0-17.0-2.8","53c4bcc9-a8d9-4849-94e3-b2a14024f5a7","null","<p style=""text-align: center;"">+</p>","null","fixation","","","","","","","","","","","","","","","","","","","","",""
"","","","","","html-slider-response","45","144609","0.0-17.0-0.9","53c4bcc9-a8d9-4849-94e3-b2a14024f5a7","1000","
                  <p style=""text-align: center;"">₪76
                                                <br>65%</p>
                  <p id=""wtp"" style=""text-align:center; margin-top: 0px; margin-bottom: 0px; font-size: 40px"";>&ensp;</p>","-","viewing","0","29","8C,19A,24B","","","","","","","","","","","","","","","","","",""
"","","","","","html-slider-response","46","147796","0.0-17.0-1.9","53c4bcc9-a8d9-4849-94e3-b2a14024f5a7","3186","
                  <p style=""text-align: center;"">₪76
                                                <br>65%</p>
                  <p id=""wtp"" style=""text-align:center; margin-top: 0px; margin-bottom: 0px; font-size: 40px"";>מוכנים לשלם: <span id=""c_p_y""></span></p>","32","evaluation","47","29","8C,19A,24B","65","76","32","","","","","","","","","","","","","","",""
"","","","","","html-keyboard-response","47","149051","0.0-17.0-2.9","53c4bcc9-a8d9-4849-94e3-b2a14024f5a7","null","<p style=""text-align: center;"">+</p>","null","fixation","","","","","","","","","","","","","","","","","","","","",""
"","","","","","html-slider-response","48","150053","0.0-17.0-0.10","53c4bcc9-a8d9-4849-94e3-b2a14024f5a7","1000","
                  <p style=""text-align: center;"">₪16
                                                <br>20%</p>
                  <p id=""wtp"" style=""text-align:center; margin-top: 0px; margin-bottom: 0px; font-size: 40px"";>&ensp;</p>","-","viewing","0","8","14C,17A,20C,27A","","","","","","","","","","","","","","","","","",""
"","","","","","html-slider-response","49","151636","0.0-17.0-1.10","53c4bcc9-a8d9-4849-94e3-b2a14024f5a7","1582","
                  <p style=""text-align: center;"">₪16
                                                <br>20%</p>
                  <p id=""wtp"" style=""text-align:center; margin-top: 0px; margin-bottom: 0px; font-size: 40px"";>מוכנים לשלם: <span id=""c_p_y""></span></p>","4","evaluation","76","8","14C,17A,20C,27A","20","16","4","","","","","","","","","","","","","","",""
"","","","","","html-keyboard-response","50","152752","0.0-17.0-2.10","53c4bcc9-a8d9-4849-94e3-b2a14024f5a7","null","<p style=""text-align: center;"">+</p>","null","fixation","","","","","","","","","","","","","","","","","","","","",""
"","","","","","html-slider-response","51","153759","0.0-17.0-0.11","53c4bcc9-a8d9-4849-94e3-b2a14024f5a7","1000","
                  <p style=""text-align: center;"">₪36
                                                <br>75%</p>
                  <p id=""wtp"" style=""text-align:center; margin-top: 0px; margin-bottom: 0px; font-size: 40px"";>&ensp;</p>","-","viewing","0","14","4B,5A,13B,16B","","","","","","","","","","","","","","","","","",""
"","","","","","html-slider-response","52","155548","0.0-17.0-1.11","53c4bcc9-a8d9-4849-94e3-b2a14024f5a7","1788","
                  <p style=""text-align: center;"">₪36
                                                <br>75%</p>
                  <p id=""wtp"" style=""text-align:center; margin-top: 0px; margin-bottom: 0px; font-size: 40px"";>מוכנים לשלם: <span id=""c_p_y""></span></p>","18","evaluation","55","14","4B,5A,13B,16B","75","36","18","","","","","","","","","","","","","","",""
"","","","","","html-keyboard-response","53","156739","0.0-17.0-2.11","53c4bcc9-a8d9-4849-94e3-b2a14024f5a7","null","<p style=""text-align: center;"">+</p>","null","fixation","","","","","","","","","","","","","","","","","","","","",""
"","","","","","html-slider-response","54","157741","0.0-17.0-0.12","53c4bcc9-a8d9-4849-94e3-b2a14024f5a7","1000","
                  <p style=""text-align: center;"">₪58
                                                <br>30%</p>
                  <p id=""wtp"" style=""text-align:center; margin-top: 0px; margin-bottom: 0px; font-size: 40px"";>&ensp;</p>","-","viewing","0","19","13C,30A","","","","","","","","","","","","","","","","","",""
"","","","","","html-slider-response","55","161324","0.0-17.0-1.12","53c4bcc9-a8d9-4849-94e3-b2a14024f5a7","3582","
                  <p style=""text-align: center;"">₪58
                                                <br>30%</p>
                  <p id=""wtp"" style=""text-align:center; margin-top: 0px; margin-bottom: 0px; font-size: 40px"";>מוכנים לשלם: <span id=""c_p_y""></span></p>","24","evaluation","71","19","13C,30A","30","58","24","","","","","","","","","","","","","","",""
"","","","","","html-keyboard-response","56","162716","0.0-17.0-2.12","53c4bcc9-a8d9-4849-94e3-b2a14024f5a7","null","<p style=""text-align: center;"">+</p>","null","fixation","","","","","","","","","","","","","","","","","","","","",""
"","","","","","html-slider-response","57","163725","0.0-17.0-0.13","53c4bcc9-a8d9-4849-94e3-b2a14024f5a7","1000","
                  <p style=""text-align: center;"">₪71
                                                <br>45%</p>
                  <p id=""wtp"" style=""text-align:center; margin-top: 0px; margin-bottom: 0px; font-size: 40px"";>&ensp;</p>","-","viewing","0","26","2B,16A","","","","","","","","","","","","","","","","","",""
"","","","","","html-slider-response","58","165508","0.0-17.0-1.13","53c4bcc9-a8d9-4849-94e3-b2a14024f5a7","1782","
                  <p style=""text-align: center;"">₪71
                                                <br>45%</p>
                  <p id=""wtp"" style=""text-align:center; margin-top: 0px; margin-bottom: 0px; font-size: 40px"";>מוכנים לשלם: <span id=""c_p_y""></span></p>","29","evaluation","27","26","2B,16A","45","71","29","","","","","","","","","","","","","","",""
"","","","","","html-keyboard-response","59","166492","0.0-17.0-2.13","53c4bcc9-a8d9-4849-94e3-b2a14024f5a7","null","<p style=""text-align: center;"">+</p>","null","fixation","","","","","","","","","","","","","","","","","","","","",""
"","","","","","html-slider-response","60","167493","0.0-17.0-0.14","53c4bcc9-a8d9-4849-94e3-b2a14024f5a7","1000","
                  <p style=""text-align: center;"">₪43
                                                <br>60%</p>
                  <p id=""wtp"" style=""text-align:center; margin-top: 0px; margin-bottom: 0px; font-size: 40px"";>&ensp;</p>","-","viewing","0","17","2A,7A,9A,15B","","","","","","","","","","","","","","","","","",""
"","","","","","html-slider-response","61","170908","0.0-17.0-1.14","53c4bcc9-a8d9-4849-94e3-b2a14024f5a7","3414","
                  <p style=""text-align: center;"">₪43
                                                <br>60%</p>
                  <p id=""wtp"" style=""text-align:center; margin-top: 0px; margin-bottom: 0px; font-size: 40px"";>מוכנים לשלם: <span id=""c_p_y""></span></p>","25","evaluation","30","17","2A,7A,9A,15B","60","43","25","","","","","","","","","","","","","","",""
"","","","","","html-keyboard-response","62","172097","0.0-17.0-2.14","53c4bcc9-a8d9-4849-94e3-b2a14024f5a7","null","<p style=""text-align: center;"">+</p>","null","fixation","","","","","","","","","","","","","","","","","","","","",""
"","","","","","html-slider-response","63","173100","0.0-17.0-0.15","53c4bcc9-a8d9-4849-94e3-b2a14024f5a7","1000","
                  <p style=""text-align: center;"">₪11
                                                <br>45%</p>
                  <p id=""wtp"" style=""text-align:center; margin-top: 0px; margin-bottom: 0px; font-size: 40px"";>&ensp;</p>","-","viewing","0","6","14B,21C,25C","","","","","","","","","","","","","","","","","",""
"","","","","","html-slider-response","64","175901","0.0-17.0-1.15","53c4bcc9-a8d9-4849-94e3-b2a14024f5a7","2800","
                  <p style=""text-align: center;"">₪11
                                                <br>45%</p>
                  <p id=""wtp"" style=""text-align:center; margin-top: 0px; margin-bottom: 0px; font-size: 40px"";>מוכנים לשלם: <span id=""c_p_y""></span></p>","6","evaluation","51","6","14B,21C,25C","45","11","7","","","","","","","","","","","","","","",""
"","","","","","html-keyboard-response","65","176678","0.0-17.0-2.15","53c4bcc9-a8d9-4849-94e3-b2a14024f5a7","null","<p style=""text-align: center;"">+</p>","null","fixation","","","","","","","","","","","","","","","","","","","","",""
"","","","","","html-slider-response","66","177680","0.0-17.0-0.16","53c4bcc9-a8d9-4849-94e3-b2a14024f5a7","1000","
                  <p style=""text-align: center;"">₪39
                                                <br>65%</p>
                  <p id=""wtp"" style=""text-align:center; margin-top: 0px; margin-bottom: 0px; font-size: 40px"";>&ensp;</p>","-","viewing","0","16","1A,15A,26C","","","","","","","","","","","","","","","","","",""
"","","","","","html-slider-response","67","180268","0.0-17.0-1.16","53c4bcc9-a8d9-4849-94e3-b2a14024f5a7","2587","
                  <p style=""text-align: center;"">₪39
                                                <br>65%</p>
                  <p id=""wtp"" style=""text-align:center; margin-top: 0px; margin-bottom: 0px; font-size: 40px"";>מוכנים לשלם: <span id=""c_p_y""></span></p>","23","evaluation","61","16","1A,15A,26C","65","39","23","","","","","","","","","","","","","","",""
"","","","","","html-keyboard-response","68","181272","0.0-17.0-2.16","53c4bcc9-a8d9-4849-94e3-b2a14024f5a7","null","<p style=""text-align: center;"">+</p>","null","fixation","","","","","","","","","","","","","","","","","","","","",""
"","","","","","html-slider-response","69","182274","0.0-17.0-0.17","53c4bcc9-a8d9-4849-94e3-b2a14024f5a7","1000","
                  <p style=""text-align: center;"">₪71
                                                <br>55%</p>
                  <p id=""wtp"" style=""text-align:center; margin-top: 0px; margin-bottom: 0px; font-size: 40px"";>&ensp;</p>","-","viewing","0","27","5B,18A","","","","","","","","","","","","","","","","","",""
"","","","","","html-slider-response","70","184564","0.0-17.0-1.17","53c4bcc9-a8d9-4849-94e3-b2a14024f5a7","2290","
                  <p style=""text-align: center;"">₪71
                                                <br>55%</p>
                  <p id=""wtp"" style=""text-align:center; margin-top: 0px; margin-bottom: 0px; font-size: 40px"";>מוכנים לשלם: <span id=""c_p_y""></span></p>","36","evaluation","68","27","5B,18A","55","71","36","","","","","","","","","","","","","","",""
"","","","","","html-keyboard-response","71","185363","0.0-17.0-2.17","53c4bcc9-a8d9-4849-94e3-b2a14024f5a7","null","<p style=""text-align: center;"">+</p>","null","fixation","","","","","","","","","","","","","","","","","","","","",""
"","","","","","html-slider-response","72","186365","0.0-17.0-0.18","53c4bcc9-a8d9-4849-94e3-b2a14024f5a7","1000","
                  <p style=""text-align: center;"">₪79
                                                <br>65%</p>
                  <p id=""wtp"" style=""text-align:center; margin-top: 0px; margin-bottom: 0px; font-size: 40px"";>&ensp;</p>","-","viewing","0","31","8A","","","","","","","","","","","","","","","","","",""
"","","","","","html-slider-response","73","188292","0.0-17.0-1.18","53c4bcc9-a8d9-4849-94e3-b2a14024f5a7","1926","
                  <p style=""text-align: center;"">₪79
                                                <br>65%</p>
                  <p id=""wtp"" style=""text-align:center; margin-top: 0px; margin-bottom: 0px; font-size: 40px"";>מוכנים לשלם: <span id=""c_p_y""></span></p>","41","evaluation","21","31","8A","65","79","41","","","","","","","","","","","","","","",""
"","","","","","html-keyboard-response","74","188999","0.0-17.0-2.18","53c4bcc9-a8d9-4849-94e3-b2a14024f5a7","null","<p style=""text-align: center;"">+</p>","null","fixation","","","","","","","","","","","","","","","","","","","","",""
"","","","","","html-slider-response","75","190001","0.0-17.0-0.19","53c4bcc9-a8d9-4849-94e3-b2a14024f5a7","1000","
                  <p style=""text-align: center;"">₪4
                                                <br>25%</p>
                  <p id=""wtp"" style=""text-align:center; margin-top: 0px; margin-bottom: 0px; font-size: 40px"";>&ensp;</p>","-","viewing","0","1","6C,29B,30C","","","","","","","","","","","","","","","","","",""
"","","","","","html-slider-response","76","191060","0.0-17.0-1.19","53c4bcc9-a8d9-4849-94e3-b2a14024f5a7","1059","
                  <p style=""text-align: center;"">₪4
                                                <br>25%</p>
                  <p id=""wtp"" style=""text-align:center; margin-top: 0px; margin-bottom: 0px; font-size: 40px"";>מוכנים לשלם: <span id=""c_p_y""></span></p>","2","evaluation","16","1","6C,29B,30C","25","4","2","","","","","","","","","","","","","","",""
"","","","","","html-keyboard-response","77","191914","0.0-17.0-2.19","53c4bcc9-a8d9-4849-94e3-b2a14024f5a7","null","<p style=""text-align: center;"">+</p>","null","fixation","","","","","","","","","","","","","","","","","","","","",""
"","","","","","html-slider-response","78","192925","0.0-17.0-0.20","53c4bcc9-a8d9-4849-94e3-b2a14024f5a7","1000","
                  <p style=""text-align: center;"">₪36
                                                <br>70%</p>
                  <p id=""wtp"" style=""text-align:center; margin-top: 0px; margin-bottom: 0px; font-size: 40px"";>&ensp;</p>","-","viewing","0","13","3A,5C,10B","","","","","","","","","","","","","","","","","",""
"","","","","","html-slider-response","79","196084","0.0-17.0-1.20","53c4bcc9-a8d9-4849-94e3-b2a14024f5a7","3159","
                  <p style=""text-align: center;"">₪36
                                                <br>70%</p>
                  <p id=""wtp"" style=""text-align:center; margin-top: 0px; margin-bottom: 0px; font-size: 40px"";>מוכנים לשלם: <span id=""c_p_y""></span></p>","27","evaluation","59","13","3A,5C,10B","70","36","27","","","","","","","","","","","","","","",""
"","","","","","html-keyboard-response","80","196665","0.0-17.0-2.20","53c4bcc9-a8d9-4849-94e3-b2a14024f5a7","null","<p style=""text-align: center;"">+</p>","null","fixation","","","","","","","","","","","","","","","","","","","","",""
"","","","","","html-slider-response","81","197667","0.0-17.0-0.21","53c4bcc9-a8d9-4849-94e3-b2a14024f5a7","1000","
                  <p style=""text-align: center;"">₪11
                                                <br>20%</p>
                  <p id=""wtp"" style=""text-align:center; margin-top: 0px; margin-bottom: 0px; font-size: 40px"";>&ensp;</p>","-","viewing","0","4","12C,17C,23C,28C","","","","","","","","","","","","","","","","","",""
"","","","","","html-slider-response","82","199900","0.0-17.0-1.21","53c4bcc9-a8d9-4849-94e3-b2a14024f5a7","2233","
                  <p style=""text-align: center;"">₪11
                                                <br>20%</p>
                  <p id=""wtp"" style=""text-align:center; margin-top: 0px; margin-bottom: 0px; font-size: 40px"";>מוכנים לשלם: <span id=""c_p_y""></span></p>","3","evaluation","74","4","12C,17C,23C,28C","20","11","3","","","","","","","","","","","","","","",""
"","","","","","html-keyboard-response","83","201346","0.0-17.0-2.21","53c4bcc9-a8d9-4849-94e3-b2a14024f5a7","null","<p style=""text-align: center;"">+</p>","null","fixation","","","","","","","","","","","","","","","","","","","","",""
"","","","","","html-slider-response","84","202347","0.0-17.0-0.22","53c4bcc9-a8d9-4849-94e3-b2a14024f5a7","1000","
                  <p style=""text-align: center;"">₪43
                                                <br>75%</p>
                  <p id=""wtp"" style=""text-align:center; margin-top: 0px; margin-bottom: 0px; font-size: 40px"";>&ensp;</p>","-","viewing","0","18","11B,19B,24A,26A","","","","","","","","","","","","","","","","","",""
"","","","","","html-slider-response","85","204892","0.0-17.0-1.22","53c4bcc9-a8d9-4849-94e3-b2a14024f5a7","2543","
                  <p style=""text-align: center;"">₪43
                                                <br>75%</p>
                  <p id=""wtp"" style=""text-align:center; margin-top: 0px; margin-bottom: 0px; font-size: 40px"";>מוכנים לשלם: <span id=""c_p_y""></span></p>","29","evaluation","36","18","11B,19B,24A,26A","75","43","29","","","","","","","","","","","","","","",""
"","","","","","html-keyboard-response","86","205574","0.0-17.0-2.22","53c4bcc9-a8d9-4849-94e3-b2a14024f5a7","null","<p style=""text-align: center;"">+</p>","null","fixation","","","","","","","","","","","","","","","","","","","","",""
"","","","","","html-slider-response","87","206578","0.0-17.0-0.23","53c4bcc9-a8d9-4849-94e3-b2a14024f5a7","1000","
                  <p style=""text-align: center;"">₪36
                                                <br>60%</p>
                  <p id=""wtp"" style=""text-align:center; margin-top: 0px; margin-bottom: 0px; font-size: 40px"";>&ensp;</p>","-","viewing","0","12","1C,7C,15C","","","","","","","","","","","","","","","","","",""
"","","","","","html-slider-response","88","208252","0.0-17.0-1.23","53c4bcc9-a8d9-4849-94e3-b2a14024f5a7","1673","
                  <p style=""text-align: center;"">₪36
                                                <br>60%</p>
                  <p id=""wtp"" style=""text-align:center; margin-top: 0px; margin-bottom: 0px; font-size: 40px"";>מוכנים לשלם: <span id=""c_p_y""></span></p>","21","evaluation","72","12","1C,7C,15C","60","36","21","","","","","","","","","","","","","","",""
"","","","","","html-keyboard-response","89","208924","0.0-17.0-2.23","53c4bcc9-a8d9-4849-94e3-b2a14024f5a7","null","<p style=""text-align: center;"">+</p>","null","fixation","","","","","","","","","","","","","","","","","","","","",""
"","","","","","html-slider-response","90","209925","0.0-17.0-0.24","53c4bcc9-a8d9-4849-94e3-b2a14024f5a7","1000","
                  <p style=""text-align: center;"">₪64
                                                <br>50%</p>
                  <p id=""wtp"" style=""text-align:center; margin-top: 0px; margin-bottom: 0px; font-size: 40px"";>&ensp;</p>","-","viewing","0","25","1B,3B,4A","","","","","","","","","","","","","","","","","",""
"","","","","","html-slider-response","91","212492","0.0-17.0-1.24","53c4bcc9-a8d9-4849-94e3-b2a14024f5a7","2566","
                  <p style=""text-align: center;"">₪64
                                                <br>50%</p>
                  <p id=""wtp"" style=""text-align:center; margin-top: 0px; margin-bottom: 0px; font-size: 40px"";>מוכנים לשלם: <span id=""c_p_y""></span></p>","31","evaluation","55","25","1B,3B,4A","50","64","31","","","","","","","","","","","","","","",""
"","","","","","html-keyboard-response","92","213043","0.0-17.0-2.24","53c4bcc9-a8d9-4849-94e3-b2a14024f5a7","null","<p style=""text-align: center;"">+</p>","null","fixation","","","","","","","","","","","","","","","","","","","","",""
"","","","","","html-slider-response","93","214045","0.0-17.0-0.25","53c4bcc9-a8d9-4849-94e3-b2a14024f5a7","1000","
                  <p style=""text-align: center;"">₪4
                                                <br>75%</p>
                  <p id=""wtp"" style=""text-align:center; margin-top: 0px; margin-bottom: 0px; font-size: 40px"";>&ensp;</p>","-","viewing","0","3","12B,20B,23B,27C,29C","","","","","","","","","","","","","","","","","",""
"","","","","","html-slider-response","94","217749","0.0-17.0-1.25","53c4bcc9-a8d9-4849-94e3-b2a14024f5a7","3702","
                  <p style=""text-align: center;"">₪4
                                                <br>75%</p>
                  <p id=""wtp"" style=""text-align:center; margin-top: 0px; margin-bottom: 0px; font-size: 40px"";>מוכנים לשלם: <span id=""c_p_y""></span></p>","3","evaluation","65","3","12B,20B,23B,27C,29C","75","4","3","","","","","","","","","","","","","","",""
"","","","","","html-keyboard-response","95","218594","0.0-17.0-2.25","53c4bcc9-a8d9-4849-94e3-b2a14024f5a7","null","<p style=""text-align: center;"">+</p>","null","fixation","","","","","","","","","","","","","","","","","","","","",""
"","","","","","html-slider-response","96","219596","0.0-17.0-0.26","53c4bcc9-a8d9-4849-94e3-b2a14024f5a7","1000","
                  <p style=""text-align: center;"">₪11
                                                <br>75%</p>
                  <p id=""wtp"" style=""text-align:center; margin-top: 0px; margin-bottom: 0px; font-size: 40px"";>&ensp;</p>","-","viewing","0","7","6B,18B,22C,24C,29A","","","","","","","","","","","","","","","","","",""
"","","","","","html-slider-response","97","221949","0.0-17.0-1.26","53c4bcc9-a8d9-4849-94e3-b2a14024f5a7","2351","
                  <p style=""text-align: center;"">₪11
                                                <br>75%</p>
                  <p id=""wtp"" style=""text-align:center; margin-top: 0px; margin-bottom: 0px; font-size: 40px"";>מוכנים לשלם: <span id=""c_p_y""></span></p>","7","evaluation","7","7","6B,18B,22C,24C,29A","75","11","7","","","","","","","","","","","","","","",""
"","","","","","html-keyboard-response","98","222680","0.0-17.0-2.26","53c4bcc9-a8d9-4849-94e3-b2a14024f5a7","null","<p style=""text-align: center;"">+</p>","null","fixation","","","","","","","","","","","","","","","","","","","","",""
"","","","","","html-slider-response","99","223682","0.0-17.0-0.27","53c4bcc9-a8d9-4849-94e3-b2a14024f5a7","1000","
                  <p style=""text-align: center;"">₪39
                                                <br>60%</p>
                  <p id=""wtp"" style=""text-align:center; margin-top: 0px; margin-bottom: 0px; font-size: 40px"";>&ensp;</p>","-","viewing","0","15","9C,25B","","","","","","","","","","","","","","","","","",""
"","","","","","html-slider-response","100","225549","0.0-17.0-1.27","53c4bcc9-a8d9-4849-94e3-b2a14024f5a7","1866","
                  <p style=""text-align: center;"">₪39
                                                <br>60%</p>
                  <p id=""wtp"" style=""text-align:center; margin-top: 0px; margin-bottom: 0px; font-size: 40px"";>מוכנים לשלם: <span id=""c_p_y""></span></p>","22","evaluation","57","15","9C,25B","60","39","22","","","","","","","","","","","","","","",""
"","","","","","html-keyboard-response","101","226103","0.0-17.0-2.27","53c4bcc9-a8d9-4849-94e3-b2a14024f5a7","null","<p style=""text-align: center;"">+</p>","null","fixation","","","","","","","","","","","","","","","","","","","","",""
"","","","","","html-slider-response","102","227106","0.0-17.0-0.28","53c4bcc9-a8d9-4849-94e3-b2a14024f5a7","1000","
                  <p style=""text-align: center;"">₪58
                                                <br>45%</p>
                  <p id=""wtp"" style=""text-align:center; margin-top: 0px; margin-bottom: 0px; font-size: 40px"";>&ensp;</p>","-","viewing","0","21","11C,18C,25A","","","","","","","","","","","","","","","","","",""
"","","","","","html-slider-response","103","229860","0.0-17.0-1.28","53c4bcc9-a8d9-4849-94e3-b2a14024f5a7","2754","
                  <p style=""text-align: center;"">₪58
                                                <br>45%</p>
                  <p id=""wtp"" style=""text-align:center; margin-top: 0px; margin-bottom: 0px; font-size: 40px"";>מוכנים לשלם: <span id=""c_p_y""></span></p>","27","evaluation","38","21","11C,18C,25A","45","58","27","","","","","","","","","","","","","","",""
"","","","","","html-keyboard-response","104","231046","0.0-17.0-2.28","53c4bcc9-a8d9-4849-94e3-b2a14024f5a7","null","<p style=""text-align: center;"">+</p>","null","fixation","","","","","","","","","","","","","","","","","","","","",""
"","","","","","html-slider-response","105","232049","0.0-17.0-0.29","53c4bcc9-a8d9-4849-94e3-b2a14024f5a7","1000","
                  <p style=""text-align: center;"">₪61
                                                <br>45%</p>
                  <p id=""wtp"" style=""text-align:center; margin-top: 0px; margin-bottom: 0px; font-size: 40px"";>&ensp;</p>","-","viewing","0","22","10A,11A","","","","","","","","","","","","","","","","","",""
"","","","","","html-slider-response","106","234988","0.0-17.0-1.29","53c4bcc9-a8d9-4849-94e3-b2a14024f5a7","2939","
                  <p style=""text-align: center;"">₪61
                                                <br>45%</p>
                  <p id=""wtp"" style=""text-align:center; margin-top: 0px; margin-bottom: 0px; font-size: 40px"";>מוכנים לשלם: <span id=""c_p_y""></span></p>","31","evaluation","74","22","10A,11A","45","61","31","","","","","","","","","","","","","","",""
"","","","","","html-keyboard-response","107","235849","0.0-17.0-2.29","53c4bcc9-a8d9-4849-94e3-b2a14024f5a7","null","<p style=""text-align: center;"">+</p>","null","fixation","","","","","","","","","","","","","","","","","","","","",""
"","","","","","html-slider-response","108","236863","0.0-17.0-0.30","53c4bcc9-a8d9-4849-94e3-b2a14024f5a7","1000","
                  <p style=""text-align: center;"">₪79
                                                <br>40%</p>
                  <p id=""wtp"" style=""text-align:center; margin-top: 0px; margin-bottom: 0px; font-size: 40px"";>&ensp;</p>","-","viewing","0","30","9B","","","","","","","","","","","","","","","","","",""
"","","","","","html-slider-response","109","239605","0.0-17.0-1.30","53c4bcc9-a8d9-4849-94e3-b2a14024f5a7","2741","
                  <p style=""text-align: center;"">₪79
                                                <br>40%</p>
                  <p id=""wtp"" style=""text-align:center; margin-top: 0px; margin-bottom: 0px; font-size: 40px"";>מוכנים לשלם: <span id=""c_p_y""></span></p>","36","evaluation","62","30","9B","40","79","36","","","","","","","","","","","","","","",""
"","","","","","html-keyboard-response","110","240165","0.0-17.0-2.30","53c4bcc9-a8d9-4849-94e3-b2a14024f5a7","null","<p style=""text-align: center;"">+</p>","null","fixation","","","","","","","","","","","","","","","","","","","","",""
"","","","","","html-keyboard-response","111","241175","0.0-18.0","53c4bcc9-a8d9-4849-94e3-b2a14024f5a7","null","<p style=""text-align: center;"">+</p>","null","fixation","","","","","","","","","","","","","","","","","","","","",""
"","","","","","html-keyboard-response","112","245796","0.0-19.0","53c4bcc9-a8d9-4849-94e3-b2a14024f5a7","null","<p>הפסקה.
          <br>לחצו כדי להמשיך.</p>","1","scan_wait","","","","","","","","","","","","","","","","","","","","",""
"","","","","","html-keyboard-response","113","246797","0.0-20.0","53c4bcc9-a8d9-4849-94e3-b2a14024f5a7","null","<p style=""text-align: center;"">+</p>","null","fixation","","","","","","","","","","","","","","","","","","","","",""
"","","","","","html-slider-response","114","247799","0.0-21.0-0.0","53c4bcc9-a8d9-4849-94e3-b2a14024f5a7","1000","
                  <p style=""text-align: center;"">₪4
                                                <br>75%</p>
                  <p id=""wtp"" style=""text-align:center; margin-top: 0px; margin-bottom: 0px; font-size: 40px"";>&ensp;</p>","-","viewing","0","3","12B,20B,23B,27C,29C","","","","","","","","","","","","","","","","","",""
"","","","","","html-slider-response","115","250012","0.0-21.0-1.0","53c4bcc9-a8d9-4849-94e3-b2a14024f5a7","2212","
                  <p style=""text-align: center;"">₪4
                                                <br>75%</p>
                  <p id=""wtp"" style=""text-align:center; margin-top: 0px; margin-bottom: 0px; font-size: 40px"";>מוכנים לשלם: <span id=""c_p_y""></span></p>","3","evaluation","23","3","12B,20B,23B,27C,29C","75","4","3","","","","","","","","","","","","","","",""
"","","","","","html-keyboard-response","116","250535","0.0-21.0-2.0","53c4bcc9-a8d9-4849-94e3-b2a14024f5a7","null","<p style=""text-align: center;"">+</p>","null","fixation","","","","","","","","","","","","","","","","","","","","",""
"","","","","","html-slider-response","117","251540","0.0-21.0-0.1","53c4bcc9-a8d9-4849-94e3-b2a14024f5a7","1000","
                  <p style=""text-align: center;"">₪39
                                                <br>65%</p>
                  <p id=""wtp"" style=""text-align:center; margin-top: 0px; margin-bottom: 0px; font-size: 40px"";>&ensp;</p>","-","viewing","0","16","1A,15A,26C","","","","","","","","","","","","","","","","","",""
"","","","","","html-slider-response","118","254685","0.0-21.0-1.1","53c4bcc9-a8d9-4849-94e3-b2a14024f5a7","3144","
                  <p style=""text-align: center;"">₪39
                                                <br>65%</p>
                  <p id=""wtp"" style=""text-align:center; margin-top: 0px; margin-bottom: 0px; font-size: 40px"";>מוכנים לשלם: <span id=""c_p_y""></span></p>","26","evaluation","2","16","1A,15A,26C","65","39","27","","","","","","","","","","","","","","",""
"","","","","","html-keyboard-response","119","255996","0.0-21.0-2.1","53c4bcc9-a8d9-4849-94e3-b2a14024f5a7","null","<p style=""text-align: center;"">+</p>","null","fixation","","","","","","","","","","","","","","","","","","","","",""
"","","","","","html-slider-response","120","257001","0.0-21.0-0.2","53c4bcc9-a8d9-4849-94e3-b2a14024f5a7","1000","
                  <p style=""text-align: center;"">₪18
                                                <br>50%</p>
                  <p id=""wtp"" style=""text-align:center; margin-top: 0px; margin-bottom: 0px; font-size: 40px"";>&ensp;</p>","-","viewing","0","10","2C,16C,22B,28A","","","","","","","","","","","","","","","","","",""
"","","","","","html-slider-response","121","259068","0.0-21.0-1.2","53c4bcc9-a8d9-4849-94e3-b2a14024f5a7","2066","
                  <p style=""text-align: center;"">₪18
                                                <br>50%</p>
                  <p id=""wtp"" style=""text-align:center; margin-top: 0px; margin-bottom: 0px; font-size: 40px"";>מוכנים לשלם: <span id=""c_p_y""></span></p>","10","evaluation","78","10","2C,16C,22B,28A","50","18","10","","","","","","","","","","","","","","",""
"","","","","","html-keyboard-response","122","260020","0.0-21.0-2.2","53c4bcc9-a8d9-4849-94e3-b2a14024f5a7","null","<p style=""text-align: center;"">+</p>","null","fixation","","","","","","","","","","","","","","","","","","","","",""
"","","","","","html-slider-response","123","261021","0.0-21.0-0.3","53c4bcc9-a8d9-4849-94e3-b2a14024f5a7","1000","
                  <p style=""text-align: center;"">₪71
                                                <br>75%</p>
                  <p id=""wtp"" style=""text-align:center; margin-top: 0px; margin-bottom: 0px; font-size: 40px"";>&ensp;</p>","-","viewing","0","28","8B","","","","","","","","","","","","","","","","","",""
"","","","","","html-slider-response","124","263140","0.0-21.0-1.3","53c4bcc9-a8d9-4849-94e3-b2a14024f5a7","2117","
                  <p style=""text-align: center;"">₪71
                                                <br>75%</p>
                  <p id=""wtp"" style=""text-align:center; margin-top: 0px; margin-bottom: 0px; font-size: 40px"";>מוכנים לשלם: <span id=""c_p_y""></span></p>","53","evaluation","34","28","8B","75","71","53","","","","","","","","","","","","","","",""
"","","","","","html-keyboard-response","125","264296","0.0-21.0-2.3","53c4bcc9-a8d9-4849-94e3-b2a14024f5a7","null","<p style=""text-align: center;"">+</p>","null","fixation","","","","","","","","","","","","","","","","","","","","",""
"","","","","","html-slider-response","126","265297","0.0-21.0-0.4","53c4bcc9-a8d9-4849-94e3-b2a14024f5a7","1000","
                  <p style=""text-align: center;"">₪43
                                                <br>75%</p>
                  <p id=""wtp"" style=""text-align:center; margin-top: 0px; margin-bottom: 0px; font-size: 40px"";>&ensp;</p>","-","viewing","0","18","11B,19B,24A,26A","","","","","","","","","","","","","","","","","",""
"","","","","","html-slider-response","127","266900","0.0-21.0-1.4","53c4bcc9-a8d9-4849-94e3-b2a14024f5a7","1601","
                  <p style=""text-align: center;"">₪43
                                                <br>75%</p>
                  <p id=""wtp"" style=""text-align:center; margin-top: 0px; margin-bottom: 0px; font-size: 40px"";>מוכנים לשלם: <span id=""c_p_y""></span></p>","31","evaluation","3","18","11B,19B,24A,26A","75","43","31","","","","","","","","","","","","","","",""
"","","","","","html-keyboard-response","128","267914","0.0-21.0-2.4","53c4bcc9-a8d9-4849-94e3-b2a14024f5a7","null","<p style=""text-align: center;"">+</p>","null","fixation","","","","","","","","","","","","","","","","","","","","",""
"","","","","","html-slider-response","129","268917","0.0-21.0-0.5","53c4bcc9-a8d9-4849-94e3-b2a14024f5a7","1000","
                  <p style=""text-align: center;"">₪36
                                                <br>75%</p>
                  <p id=""wtp"" style=""text-align:center; margin-top: 0px; margin-bottom: 0px; font-size: 40px"";>&ensp;</p>","-","viewing","0","14","4B,5A,13B,16B","","","","","","","","","","","","","","","","","",""
"","","","","","html-slider-response","130","270412","0.0-21.0-1.5","53c4bcc9-a8d9-4849-94e3-b2a14024f5a7","1494","
                  <p style=""text-align: center;"">₪36
                                                <br>75%</p>
                  <p id=""wtp"" style=""text-align:center; margin-top: 0px; margin-bottom: 0px; font-size: 40px"";>מוכנים לשלם: <span id=""c_p_y""></span></p>","24","evaluation","72","14","4B,5A,13B,16B","75","36","24","","","","","","","","","","","","","","",""
"","","","","","html-keyboard-response","131","271270","0.0-21.0-2.5","53c4bcc9-a8d9-4849-94e3-b2a14024f5a7","null","<p style=""text-align: center;"">+</p>","null","fixation","","","","","","","","","","","","","","","","","","","","",""
"","","","","","html-slider-response","132","272288","0.0-21.0-0.6","53c4bcc9-a8d9-4849-94e3-b2a14024f5a7","1000","
                  <p style=""text-align: center;"">₪64
                                                <br>50%</p>
                  <p id=""wtp"" style=""text-align:center; margin-top: 0px; margin-bottom: 0px; font-size: 40px"";>&ensp;</p>","-","viewing","0","25","1B,3B,4A","","","","","","","","","","","","","","","","","",""
"","","","","","html-slider-response","133","276289","0.0-21.0-1.6","53c4bcc9-a8d9-4849-94e3-b2a14024f5a7","null","
                  <p style=""text-align: center;"">₪64
                                                <br>50%</p>
                  <p id=""wtp"" style=""text-align:center; margin-top: 0px; margin-bottom: 0px; font-size: 40px"";>מוכנים לשלם: <span id=""c_p_y""></span></p>","null","evaluation","9","25","1B,3B,4A","50","64","35","","","","","","","","","","","","","","",""
"","","","","","html-keyboard-response","134","276832","0.0-21.0-2.6","53c4bcc9-a8d9-4849-94e3-b2a14024f5a7","null","<p style=""text-align: center;"">+</p>","null","fixation","","","","","","","","","","","","","","","","","","","","",""
"","","","","","html-slider-response","135","277834","0.0-21.0-0.7","53c4bcc9-a8d9-4849-94e3-b2a14024f5a7","1000","
                  <p style=""text-align: center;"">₪4
                                                <br>50%</p>
                  <p id=""wtp"" style=""text-align:center; margin-top: 0px; margin-bottom: 0px; font-size: 40px"";>&ensp;</p>","-","viewing","0","2","4C,17B","","","","","","","","","","","","","","","","","",""
"","","","","","html-slider-response","136","278716","0.0-21.0-1.7","53c4bcc9-a8d9-4849-94e3-b2a14024f5a7","880","
                  <p style=""text-align: center;"">₪4
                                                <br>50%</p>
                  <p id=""wtp"" style=""text-align:center; margin-top: 0px; margin-bottom: 0px; font-size: 40px"";>מוכנים לשלם: <span id=""c_p_y""></span></p>","1","evaluation","32","2","4C,17B","50","4","2","","","","","","","","","","","","","","",""
"","","","","","html-keyboard-response","137","279531","0.0-21.0-2.7","53c4bcc9-a8d9-4849-94e3-b2a14024f5a7","null","<p style=""text-align: center;"">+</p>","null","fixation","","","","","","","","","","","","","","","","","","","","",""
"","","","","","html-slider-response","138","280535","0.0-21.0-0.8","53c4bcc9-a8d9-4849-94e3-b2a14024f5a7","1000","
                  <p style=""text-align: center;"">₪36
                                                <br>60%</p>
                  <p id=""wtp"" style=""text-align:center; margin-top: 0px; margin-bottom: 0px; font-size: 40px"";>&ensp;</p>","-","viewing","0","12","1C,7C,15C","","","","","","","","","","","","","","","","","",""
"","","","","","html-slider-response","139","281772","0.0-21.0-1.8","53c4bcc9-a8d9-4849-94e3-b2a14024f5a7","1236","
                  <p style=""text-align: center;"">₪36
                                                <br>60%</p>
                  <p id=""wtp"" style=""text-align:center; margin-top: 0px; margin-bottom: 0px; font-size: 40px"";>מוכנים לשלם: <span id=""c_p_y""></span></p>","24","evaluation","8","12","1C,7C,15C","60","36","24","","","","","","","","","","","","","","",""
"","","","","","html-keyboard-response","140","282749","0.0-21.0-2.8","53c4bcc9-a8d9-4849-94e3-b2a14024f5a7","null","<p style=""text-align: center;"">+</p>","null","fixation","","","","","","","","","","","","","","","","","","","","",""
"","","","","","html-slider-response","141","283760","0.0-21.0-0.9","53c4bcc9-a8d9-4849-94e3-b2a14024f5a7","1000","
                  <p style=""text-align: center;"">₪11
                                                <br>75%</p>
                  <p id=""wtp"" style=""text-align:center; margin-top: 0px; margin-bottom: 0px; font-size: 40px"";>&ensp;</p>","-","viewing","0","7","6B,18B,22C,24C,29A","","","","","","","","","","","","","","","","","",""
"","","","","","html-slider-response","142","287284","0.0-21.0-1.9","53c4bcc9-a8d9-4849-94e3-b2a14024f5a7","3523","
                  <p style=""text-align: center;"">₪11
                                                <br>75%</p>
                  <p id=""wtp"" style=""text-align:center; margin-top: 0px; margin-bottom: 0px; font-size: 40px"";>מוכנים לשלם: <span id=""c_p_y""></span></p>","7","evaluation","80","7","6B,18B,22C,24C,29A","75","11","8","","","","","","","","","","","","","","",""
"","","","","","html-keyboard-response","143","288335","0.0-21.0-2.9","53c4bcc9-a8d9-4849-94e3-b2a14024f5a7","null","<p style=""text-align: center;"">+</p>","null","fixation","","","","","","","","","","","","","","","","","","","","",""
"","","","","","html-slider-response","144","289336","0.0-21.0-0.10","53c4bcc9-a8d9-4849-94e3-b2a14024f5a7","1000","
                  <p style=""text-align: center;"">₪16
                                                <br>20%</p>
                  <p id=""wtp"" style=""text-align:center; margin-top: 0px; margin-bottom: 0px; font-size: 40px"";>&ensp;</p>","-","viewing","0","8","14C,17A,20C,27A","","","","","","","","","","","","","","","","","",""
"","","","","","html-slider-response","145","291748","0.0-21.0-1.10","53c4bcc9-a8d9-4849-94e3-b2a14024f5a7","2411","
                  <p style=""text-align: center;"">₪16
                                                <br>20%</p>
                  <p id=""wtp"" style=""text-align:center; margin-top: 0px; margin-bottom: 0px; font-size: 40px"";>מוכנים לשלם: <span id=""c_p_y""></span></p>","3","evaluation","27","8","14C,17A,20C,27A","20","16","4","","","","","","","","","","","","","","",""
"","","","","","html-keyboard-response","146","292616","0.0-21.0-2.10","53c4bcc9-a8d9-4849-94e3-b2a14024f5a7","null","<p style=""text-align: center;"">+</p>","null","fixation","","","","","","","","","","","","","","","","","","","","",""
"","","","","","html-slider-response","147","293618","0.0-21.0-0.11","53c4bcc9-a8d9-4849-94e3-b2a14024f5a7","1000","
                  <p style=""text-align: center;"">₪71
                                                <br>45%</p>
                  <p id=""wtp"" style=""text-align:center; margin-top: 0px; margin-bottom: 0px; font-size: 40px"";>&ensp;</p>","-","viewing","0","26","2B,16A","","","","","","","","","","","","","","","","","",""
"","","","","","html-slider-response","148","295901","0.0-21.0-1.11","53c4bcc9-a8d9-4849-94e3-b2a14024f5a7","2282","
                  <p style=""text-align: center;"">₪71
                                                <br>45%</p>
                  <p id=""wtp"" style=""text-align:center; margin-top: 0px; margin-bottom: 0px; font-size: 40px"";>מוכנים לשלם: <span id=""c_p_y""></span></p>","39","evaluation","46","26","2B,16A","45","71","39","","","","","","","","","","","","","","",""
"","","","","","html-keyboard-response","149","296421","0.0-21.0-2.11","53c4bcc9-a8d9-4849-94e3-b2a14024f5a7","null","<p style=""text-align: center;"">+</p>","null","fixation","","","","","","","","","","","","","","","","","","","","",""
"","","","","","html-slider-response","150","297422","0.0-21.0-0.12","53c4bcc9-a8d9-4849-94e3-b2a14024f5a7","1000","
                  <p style=""text-align: center;"">₪18
                                                <br>25%</p>
                  <p id=""wtp"" style=""text-align:center; margin-top: 0px; margin-bottom: 0px; font-size: 40px"";>&ensp;</p>","-","viewing","0","9","14A,23A","","","","","","","","","","","","","","","","","",""
"","","","","","html-slider-response","151","300324","0.0-21.0-1.12","53c4bcc9-a8d9-4849-94e3-b2a14024f5a7","2901","
                  <p style=""text-align: center;"">₪18
                                                <br>25%</p>
                  <p id=""wtp"" style=""text-align:center; margin-top: 0px; margin-bottom: 0px; font-size: 40px"";>מוכנים לשלם: <span id=""c_p_y""></span></p>","6","evaluation","75","9","14A,23A","25","18","6","","","","","","","","","","","","","","",""
"","","","","","html-keyboard-response","152","301482","0.0-21.0-2.12","53c4bcc9-a8d9-4849-94e3-b2a14024f5a7","null","<p style=""text-align: center;"">+</p>","null","fixation","","","","","","","","","","","","","","","","","","","","",""
"","","","","","html-slider-response","153","302484","0.0-21.0-0.13","53c4bcc9-a8d9-4849-94e3-b2a14024f5a7","1000","
                  <p style=""text-align: center;"">₪61
                                                <br>45%</p>
                  <p id=""wtp"" style=""text-align:center; margin-top: 0px; margin-bottom: 0px; font-size: 40px"";>&ensp;</p>","-","viewing","0","22","10A,11A","","","","","","","","","","","","","","","","","",""
"","","","","","html-slider-response","154","305388","0.0-21.0-1.13","53c4bcc9-a8d9-4849-94e3-b2a14024f5a7","2903","
                  <p style=""text-align: center;"">₪61
                                                <br>45%</p>
                  <p id=""wtp"" style=""text-align:center; margin-top: 0px; margin-bottom: 0px; font-size: 40px"";>מוכנים לשלם: <span id=""c_p_y""></span></p>","27","evaluation","21","22","10A,11A","45","61","27","","","","","","","","","","","","","","",""
"","","","","","html-keyboard-response","155","306853","0.0-21.0-2.13","53c4bcc9-a8d9-4849-94e3-b2a14024f5a7","null","<p style=""text-align: center;"">+</p>","null","fixation","","","","","","","","","","","","","","","","","","","","",""
"","","","","","html-slider-response","156","307855","0.0-21.0-0.14","53c4bcc9-a8d9-4849-94e3-b2a14024f5a7","1000","
                  <p style=""text-align: center;"">₪79
                                                <br>40%</p>
                  <p id=""wtp"" style=""text-align:center; margin-top: 0px; margin-bottom: 0px; font-size: 40px"";>&ensp;</p>","-","viewing","0","30","9B","","","","","","","","","","","","","","","","","",""
"","","","","","html-slider-response","157","311292","0.0-21.0-1.14","53c4bcc9-a8d9-4849-94e3-b2a14024f5a7","3436","
                  <p style=""text-align: center;"">₪79
                                                <br>40%</p>
                  <p id=""wtp"" style=""text-align:center; margin-top: 0px; margin-bottom: 0px; font-size: 40px"";>מוכנים לשלם: <span id=""c_p_y""></span></p>","38","evaluation","20","30","9B","40","79","38","","","","","","","","","","","","","","",""
"","","","","","html-keyboard-response","158","312629","0.0-21.0-2.14","53c4bcc9-a8d9-4849-94e3-b2a14024f5a7","null","<p style=""text-align: center;"">+</p>","null","fixation","","","","","","","","","","","","","","","","","","","","",""
"","","","","","html-slider-response","159","313646","0.0-21.0-0.15","53c4bcc9-a8d9-4849-94e3-b2a14024f5a7","1000","
                  <p style=""text-align: center;"">₪61
                                                <br>55%</p>
                  <p id=""wtp"" style=""text-align:center; margin-top: 0px; margin-bottom: 0px; font-size: 40px"";>&ensp;</p>","-","viewing","0","23","7B,26B","","","","","","","","","","","","","","","","","",""
"","","","","","html-slider-response","160","317651","0.0-21.0-1.15","53c4bcc9-a8d9-4849-94e3-b2a14024f5a7","null","
                  <p style=""text-align: center;"">₪61
                                                <br>55%</p>
                  <p id=""wtp"" style=""text-align:center; margin-top: 0px; margin-bottom: 0px; font-size: 40px"";>מוכנים לשלם: <span id=""c_p_y""></span></p>","null","evaluation","62","23","7B,26B","55","61","26","","","","","","","","","","","","","","",""
"","","","","","html-keyboard-response","161","318492","0.0-21.0-2.15","53c4bcc9-a8d9-4849-94e3-b2a14024f5a7","null","<p style=""text-align: center;"">+</p>","null","fixation","","","","","","","","","","","","","","","","","","","","",""
"","","","","","html-slider-response","162","319498","0.0-21.0-0.16","53c4bcc9-a8d9-4849-94e3-b2a14024f5a7","1000","
                  <p style=""text-align: center;"">₪79
                                                <br>65%</p>
                  <p id=""wtp"" style=""text-align:center; margin-top: 0px; margin-bottom: 0px; font-size: 40px"";>&ensp;</p>","-","viewing","0","31","8A","","","","","","","","","","","","","","","","","",""
"","","","","","html-slider-response","163","320788","0.0-21.0-1.16","53c4bcc9-a8d9-4849-94e3-b2a14024f5a7","1289","
                  <p style=""text-align: center;"">₪79
                                                <br>65%</p>
                  <p id=""wtp"" style=""text-align:center; margin-top: 0px; margin-bottom: 0px; font-size: 40px"";>מוכנים לשלם: <span id=""c_p_y""></span></p>","50","evaluation","19","31","8A","65","79","50","","","","","","","","","","","","","","",""
"","","","","","html-keyboard-response","164","322036","0.0-21.0-2.16","53c4bcc9-a8d9-4849-94e3-b2a14024f5a7","null","<p style=""text-align: center;"">+</p>","null","fixation","","","","","","","","","","","","","","","","","","","","",""
"","","","","","html-slider-response","165","323038","0.0-21.0-0.17","53c4bcc9-a8d9-4849-94e3-b2a14024f5a7","1000","
                  <p style=""text-align: center;"">₪11
                                                <br>45%</p>
                  <p id=""wtp"" style=""text-align:center; margin-top: 0px; margin-bottom: 0px; font-size: 40px"";>&ensp;</p>","-","viewing","0","6","14B,21C,25C","","","","","","","","","","","","","","","","","",""
"","","","","","html-slider-response","166","325492","0.0-21.0-1.17","53c4bcc9-a8d9-4849-94e3-b2a14024f5a7","2454","
                  <p style=""text-align: center;"">₪11
                                                <br>45%</p>
                  <p id=""wtp"" style=""text-align:center; margin-top: 0px; margin-bottom: 0px; font-size: 40px"";>מוכנים לשלם: <span id=""c_p_y""></span></p>","7","evaluation","2","6","14B,21C,25C","45","11","7","","","","","","","","","","","","","","",""
"","","","","","html-keyboard-response","167","326705","0.0-21.0-2.17","53c4bcc9-a8d9-4849-94e3-b2a14024f5a7","null","<p style=""text-align: center;"">+</p>","null","fixation","","","","","","","","","","","","","","","","","","","","",""
"","","","","","html-slider-response","168","327713","0.0-21.0-0.18","53c4bcc9-a8d9-4849-94e3-b2a14024f5a7","1000","
                  <p style=""text-align: center;"">₪11
                                                <br>25%</p>
                  <p id=""wtp"" style=""text-align:center; margin-top: 0px; margin-bottom: 0px; font-size: 40px"";>&ensp;</p>","-","viewing","0","5","12A,27B,28B,30B","","","","","","","","","","","","","","","","","",""
"","","","","","html-slider-response","169","329108","0.0-21.0-1.18","53c4bcc9-a8d9-4849-94e3-b2a14024f5a7","1394","
                  <p style=""text-align: center;"">₪11
                                                <br>25%</p>
                  <p id=""wtp"" style=""text-align:center; margin-top: 0px; margin-bottom: 0px; font-size: 40px"";>מוכנים לשלם: <span id=""c_p_y""></span></p>","3","evaluation","62","5","12A,27B,28B,30B","25","11","3","","","","","","","","","","","","","","",""
"","","","","","html-keyboard-response","170","329955","0.0-21.0-2.18","53c4bcc9-a8d9-4849-94e3-b2a14024f5a7","null","<p style=""text-align: center;"">+</p>","null","fixation","","","","","","","","","","","","","","","","","","","","",""
"","","","","","html-slider-response","171","330956","0.0-21.0-0.19","53c4bcc9-a8d9-4849-94e3-b2a14024f5a7","1000","
                  <p style=""text-align: center;"">₪64
                                                <br>25%</p>
                  <p id=""wtp"" style=""text-align:center; margin-top: 0px; margin-bottom: 0px; font-size: 40px"";>&ensp;</p>","-","viewing","0","24","6A,21A","","","","","","","","","","","","","","","","","",""
"","","","","","html-slider-response","172","333796","0.0-21.0-1.19","53c4bcc9-a8d9-4849-94e3-b2a14024f5a7","2840","
                  <p style=""text-align: center;"">₪64
                                                <br>25%</p>
                  <p id=""wtp"" style=""text-align:center; margin-top: 0px; margin-bottom: 0px; font-size: 40px"";>מוכנים לשלם: <span id=""c_p_y""></span></p>","22","evaluation","56","24","6A,21A","25","64","22","","","","","","","","","","","","","","",""
"","","","","","html-keyboard-response","173","335300","0.0-21.0-2.19","53c4bcc9-a8d9-4849-94e3-b2a14024f5a7","null","<p style=""text-align: center;"">+</p>","null","fixation","","","","","","","","","","","","","","","","","","","","",""
"","","","","","html-slider-response","174","336302","0.0-21.0-0.20","53c4bcc9-a8d9-4849-94e3-b2a14024f5a7","1000","
                  <p style=""text-align: center;"">₪4
                                                <br>25%</p>
                  <p id=""wtp"" style=""text-align:center; margin-top: 0px; margin-bottom: 0px; font-size: 40px"";>&ensp;</p>","-","viewing","0","1","6C,29B,30C","","","","","","","","","","","","","","","","","",""
"","","","","","html-slider-response","175","337988","0.0-21.0-1.20","53c4bcc9-a8d9-4849-94e3-b2a14024f5a7","1685","
                  <p style=""text-align: center;"">₪4
                                                <br>25%</p>
                  <p id=""wtp"" style=""text-align:center; margin-top: 0px; margin-bottom: 0px; font-size: 40px"";>מוכנים לשלם: <span id=""c_p_y""></span></p>","1","evaluation","14","1","6C,29B,30C","25","4","1","","","","","","","","","","","","","","",""
"","","","","","html-keyboard-response","176","338631","0.0-21.0-2.20","53c4bcc9-a8d9-4849-94e3-b2a14024f5a7","null","<p style=""text-align: center;"">+</p>","null","fixation","","","","","","","","","","","","","","","","","","","","",""
"","","","","","html-slider-response","177","339639","0.0-21.0-0.21","53c4bcc9-a8d9-4849-94e3-b2a14024f5a7","1000","
                  <p style=""text-align: center;"">₪43
                                                <br>60%</p>
                  <p id=""wtp"" style=""text-align:center; margin-top: 0px; margin-bottom: 0px; font-size: 40px"";>&ensp;</p>","-","viewing","0","17","2A,7A,9A,15B","","","","","","","","","","","","","","","","","",""
"","","","","","html-slider-response","178","341588","0.0-21.0-1.21","53c4bcc9-a8d9-4849-94e3-b2a14024f5a7","1948","
                  <p style=""text-align: center;"">₪43
                                                <br>60%</p>
                  <p id=""wtp"" style=""text-align:center; margin-top: 0px; margin-bottom: 0px; font-size: 40px"";>מוכנים לשלם: <span id=""c_p_y""></span></p>","23","evaluation","43","17","2A,7A,9A,15B","60","43","23","","","","","","","","","","","","","","",""
"","","","","","html-keyboard-response","179","342168","0.0-21.0-2.21","53c4bcc9-a8d9-4849-94e3-b2a14024f5a7","null","<p style=""text-align: center;"">+</p>","null","fixation","","","","","","","","","","","","","","","","","","","","",""
"","","","","","html-slider-response","180","343170","0.0-21.0-0.22","53c4bcc9-a8d9-4849-94e3-b2a14024f5a7","1000","
                  <p style=""text-align: center;"">₪58
                                                <br>30%</p>
                  <p id=""wtp"" style=""text-align:center; margin-top: 0px; margin-bottom: 0px; font-size: 40px"";>&ensp;</p>","-","viewing","0","19","13C,30A","","","","","","","","","","","","","","","","","",""
"","","","","","html-slider-response","181","344644","0.0-21.0-1.22","53c4bcc9-a8d9-4849-94e3-b2a14024f5a7","1473","
                  <p style=""text-align: center;"">₪58
                                                <br>30%</p>
                  <p id=""wtp"" style=""text-align:center; margin-top: 0px; margin-bottom: 0px; font-size: 40px"";>מוכנים לשלם: <span id=""c_p_y""></span></p>","9","evaluation","5","19","13C,30A","30","58","9","","","","","","","","","","","","","","",""
"","","","","","html-keyboard-response","182","345167","0.0-21.0-2.22","53c4bcc9-a8d9-4849-94e3-b2a14024f5a7","null","<p style=""text-align: center;"">+</p>","null","fixation","","","","","","","","","","","","","","","","","","","","",""
"","","","","","html-slider-response","183","346169","0.0-21.0-0.23","53c4bcc9-a8d9-4849-94e3-b2a14024f5a7","1000","
                  <p style=""text-align: center;"">₪58
                                                <br>45%</p>
                  <p id=""wtp"" style=""text-align:center; margin-top: 0px; margin-bottom: 0px; font-size: 40px"";>&ensp;</p>","-","viewing","0","21","11C,18C,25A","","","","","","","","","","","","","","","","","",""
"","","","","","html-slider-response","184","347740","0.0-21.0-1.23","53c4bcc9-a8d9-4849-94e3-b2a14024f5a7","1570","
                  <p style=""text-align: center;"">₪58
                                                <br>45%</p>
                  <p id=""wtp"" style=""text-align:center; margin-top: 0px; margin-bottom: 0px; font-size: 40px"";>מוכנים לשלם: <span id=""c_p_y""></span></p>","29","evaluation","70","21","11C,18C,25A","45","58","29","","","","","","","","","","","","","","",""
"","","","","","html-keyboard-response","185","348948","0.0-21.0-2.23","53c4bcc9-a8d9-4849-94e3-b2a14024f5a7","null","<p style=""text-align: center;"">+</p>","null","fixation","","","","","","","","","","","","","","","","","","","","",""
"","","","","","html-slider-response","186","349951","0.0-21.0-0.24","53c4bcc9-a8d9-4849-94e3-b2a14024f5a7","1000","
                  <p style=""text-align: center;"">₪71
                                                <br>55%</p>
                  <p id=""wtp"" style=""text-align:center; margin-top: 0px; margin-bottom: 0px; font-size: 40px"";>&ensp;</p>","-","viewing","0","27","5B,18A","","","","","","","","","","","","","","","","","",""
"","","","","","html-slider-response","187","352532","0.0-21.0-1.24","53c4bcc9-a8d9-4849-94e3-b2a14024f5a7","2580","
                  <p style=""text-align: center;"">₪71
                                                <br>55%</p>
                  <p id=""wtp"" style=""text-align:center; margin-top: 0px; margin-bottom: 0px; font-size: 40px"";>מוכנים לשלם: <span id=""c_p_y""></span></p>","39","evaluation","39","27","5B,18A","55","71","39","","","","","","","","","","","","","","",""
"","","","","","html-keyboard-response","188","353416","0.0-21.0-2.24","53c4bcc9-a8d9-4849-94e3-b2a14024f5a7","null","<p style=""text-align: center;"">+</p>","null","fixation","","","","","","","","","","","","","","","","","","","","",""
"","","","","","html-slider-response","189","354417","0.0-21.0-0.25","53c4bcc9-a8d9-4849-94e3-b2a14024f5a7","1000","
                  <p style=""text-align: center;"">₪11
                                                <br>20%</p>
                  <p id=""wtp"" style=""text-align:center; margin-top: 0px; margin-bottom: 0px; font-size: 40px"";>&ensp;</p>","-","viewing","0","4","12C,17C,23C,28C","","","","","","","","","","","","","","","","","",""
"","","","","","html-slider-response","190","356012","0.0-21.0-1.25","53c4bcc9-a8d9-4849-94e3-b2a14024f5a7","1594","
                  <p style=""text-align: center;"">₪11
                                                <br>20%</p>
                  <p id=""wtp"" style=""text-align:center; margin-top: 0px; margin-bottom: 0px; font-size: 40px"";>מוכנים לשלם: <span id=""c_p_y""></span></p>","2","evaluation","44","4","12C,17C,23C,28C","20","11","2","","","","","","","","","","","","","","",""
"","","","","","html-keyboard-response","191","357111","0.0-21.0-2.25","53c4bcc9-a8d9-4849-94e3-b2a14024f5a7","null","<p style=""text-align: center;"">+</p>","null","fixation","","","","","","","","","","","","","","","","","","","","",""
"","","","","","html-slider-response","192","358112","0.0-21.0-0.26","53c4bcc9-a8d9-4849-94e3-b2a14024f5a7","1000","
                  <p style=""text-align: center;"">₪36
                                                <br>70%</p>
                  <p id=""wtp"" style=""text-align:center; margin-top: 0px; margin-bottom: 0px; font-size: 40px"";>&ensp;</p>","-","viewing","0","13","3A,5C,10B","","","","","","","","","","","","","","","","","",""
"","","","","","html-slider-response","193","361556","0.0-21.0-1.26","53c4bcc9-a8d9-4849-94e3-b2a14024f5a7","3443","
                  <p style=""text-align: center;"">₪36
                                                <br>70%</p>
                  <p id=""wtp"" style=""text-align:center; margin-top: 0px; margin-bottom: 0px; font-size: 40px"";>מוכנים לשלם: <span id=""c_p_y""></span></p>","25","evaluation","79","13","3A,5C,10B","70","36","25","","","","","","","","","","","","","","",""
"","","","","","html-keyboard-response","194","362514","0.0-21.0-2.26","53c4bcc9-a8d9-4849-94e3-b2a14024f5a7","null","<p style=""text-align: center;"">+</p>","null","fixation","","","","","","","","","","","","","","","","","","","","",""
"","","","","","html-slider-response","195","363518","0.0-21.0-0.27","53c4bcc9-a8d9-4849-94e3-b2a14024f5a7","1000","
                  <p style=""text-align: center;"">₪76
                                                <br>65%</p>
                  <p id=""wtp"" style=""text-align:center; margin-top: 0px; margin-bottom: 0px; font-size: 40px"";>&ensp;</p>","-","viewing","0","29","8C,19A,24B","","","","","","","","","","","","","","","","","",""
"","","","","","html-slider-response","196","364564","0.0-21.0-1.27","53c4bcc9-a8d9-4849-94e3-b2a14024f5a7","1046","
                  <p style=""text-align: center;"">₪76
                                                <br>65%</p>
                  <p id=""wtp"" style=""text-align:center; margin-top: 0px; margin-bottom: 0px; font-size: 40px"";>מוכנים לשלם: <span id=""c_p_y""></span></p>","45","evaluation","31","29","8C,19A,24B","65","76","45","","","","","","","","","","","","","","",""
"","","","","","html-keyboard-response","197","365560","0.0-21.0-2.27","53c4bcc9-a8d9-4849-94e3-b2a14024f5a7","null","<p style=""text-align: center;"">+</p>","null","fixation","","","","","","","","","","","","","","","","","","","","",""
"","","","","","html-slider-response","198","366568","0.0-21.0-0.28","53c4bcc9-a8d9-4849-94e3-b2a14024f5a7","1000","
                  <p style=""text-align: center;"">₪36
                                                <br>30%</p>
                  <p id=""wtp"" style=""text-align:center; margin-top: 0px; margin-bottom: 0px; font-size: 40px"";>&ensp;</p>","-","viewing","0","11","3C,20A,22A","","","","","","","","","","","","","","","","","",""
"","","","","","html-slider-response","199","369004","0.0-21.0-1.28","53c4bcc9-a8d9-4849-94e3-b2a14024f5a7","2435","
                  <p style=""text-align: center;"">₪36
                                                <br>30%</p>
                  <p id=""wtp"" style=""text-align:center; margin-top: 0px; margin-bottom: 0px; font-size: 40px"";>מוכנים לשלם: <span id=""c_p_y""></span></p>","10","evaluation","44","11","3C,20A,22A","30","36","11","","","","","","","","","","","","","","",""
"","","","","","html-keyboard-response","200","369603","0.0-21.0-2.28","53c4bcc9-a8d9-4849-94e3-b2a14024f5a7","null","<p style=""text-align: center;"">+</p>","null","fixation","","","","","","","","","","","","","","","","","","","","",""
"","","","","","html-slider-response","201","370605","0.0-21.0-0.29","53c4bcc9-a8d9-4849-94e3-b2a14024f5a7","1000","
                  <p style=""text-align: center;"">₪58
                                                <br>40%</p>
                  <p id=""wtp"" style=""text-align:center; margin-top: 0px; margin-bottom: 0px; font-size: 40px"";>&ensp;</p>","-","viewing","0","20","10C,13A,19C,21B","","","","","","","","","","","","","","","","","",""
"","","","","","html-slider-response","202","373452","0.0-21.0-1.29","53c4bcc9-a8d9-4849-94e3-b2a14024f5a7","2846","
                  <p style=""text-align: center;"">₪58
                                                <br>40%</p>
                  <p id=""wtp"" style=""text-align:center; margin-top: 0px; margin-bottom: 0px; font-size: 40px"";>מוכנים לשלם: <span id=""c_p_y""></span></p>","24","evaluation","26","20","10C,13A,19C,21B","40","58","24","","","","","","","","","","","","","","",""
"","","","","","html-keyboard-response","203","374432","0.0-21.0-2.29","53c4bcc9-a8d9-4849-94e3-b2a14024f5a7","null","<p style=""text-align: center;"">+</p>","null","fixation","","","","","","","","","","","","","","","","","","","","",""
"","","","","","html-slider-response","204","375434","0.0-21.0-0.30","53c4bcc9-a8d9-4849-94e3-b2a14024f5a7","1000","
                  <p style=""text-align: center;"">₪39
                                                <br>60%</p>
                  <p id=""wtp"" style=""text-align:center; margin-top: 0px; margin-bottom: 0px; font-size: 40px"";>&ensp;</p>","-","viewing","0","15","9C,25B","","","","","","","","","","","","","","","","","",""
"","","","","","html-slider-response","205","378180","0.0-21.0-1.30","53c4bcc9-a8d9-4849-94e3-b2a14024f5a7","2745","
                  <p style=""text-align: center;"">₪39
                                                <br>60%</p>
                  <p id=""wtp"" style=""text-align:center; margin-top: 0px; margin-bottom: 0px; font-size: 40px"";>מוכנים לשלם: <span id=""c_p_y""></span></p>","24","evaluation","47","15","9C,25B","60","39","24","","","","","","","","","","","","","","",""
"","","","","","html-keyboard-response","206","379608","0.0-21.0-2.30","53c4bcc9-a8d9-4849-94e3-b2a14024f5a7","null","<p style=""text-align: center;"">+</p>","null","fixation","","","","","","","","","","","","","","","","","","","","",""
"","","","","","html-keyboard-response","207","380612","0.0-22.0","53c4bcc9-a8d9-4849-94e3-b2a14024f5a7","null","<p style=""text-align: center;"">+</p>","null","fixation","","","","","","","","","","","","","","","","","","","","",""
"","","","","","html-keyboard-response","208","384532","0.0-23.0","53c4bcc9-a8d9-4849-94e3-b2a14024f5a7","null","<p>הפסקה.
          <br>לחצו כדי להמשיך.</p>","1","scan_wait","","","","","","","","","","","","","","","","","","","","",""
"","","","","","html-keyboard-response","209","385533","0.0-24.0","53c4bcc9-a8d9-4849-94e3-b2a14024f5a7","null","<p style=""text-align: center;"">+</p>","null","fixation","","","","","","","","","","","","","","","","","","","","",""
"","","","","","html-slider-response","210","386535","0.0-25.0-0.0","53c4bcc9-a8d9-4849-94e3-b2a14024f5a7","1000","
                  <p style=""text-align: center;"">₪11
                                                <br>45%</p>
                  <p id=""wtp"" style=""text-align:center; margin-top: 0px; margin-bottom: 0px; font-size: 40px"";>&ensp;</p>","-","viewing","0","6","14B,21C,25C","","","","","","","","","","","","","","","","","",""
"","","","","","html-slider-response","211","387964","0.0-25.0-1.0","53c4bcc9-a8d9-4849-94e3-b2a14024f5a7","1429","
                  <p style=""text-align: center;"">₪11
                                                <br>45%</p>
                  <p id=""wtp"" style=""text-align:center; margin-top: 0px; margin-bottom: 0px; font-size: 40px"";>מוכנים לשלם: <span id=""c_p_y""></span></p>","5","evaluation","9","6","14B,21C,25C","45","11","6","","","","","","","","","","","","","","",""
"","","","","","html-keyboard-response","212","389442","0.0-25.0-2.0","53c4bcc9-a8d9-4849-94e3-b2a14024f5a7","null","<p style=""text-align: center;"">+</p>","null","fixation","","","","","","","","","","","","","","","","","","","","",""
"","","","","","html-slider-response","213","390450","0.0-25.0-0.1","53c4bcc9-a8d9-4849-94e3-b2a14024f5a7","1000","
                  <p style=""text-align: center;"">₪64
                                                <br>25%</p>
                  <p id=""wtp"" style=""text-align:center; margin-top: 0px; margin-bottom: 0px; font-size: 40px"";>&ensp;</p>","-","viewing","0","24","6A,21A","","","","","","","","","","","","","","","","","",""
"","","","","","html-slider-response","214","392684","0.0-25.0-1.1","53c4bcc9-a8d9-4849-94e3-b2a14024f5a7","2234","
                  <p style=""text-align: center;"">₪64
                                                <br>25%</p>
                  <p id=""wtp"" style=""text-align:center; margin-top: 0px; margin-bottom: 0px; font-size: 40px"";>מוכנים לשלם: <span id=""c_p_y""></span></p>","12","evaluation","64","24","6A,21A","25","64","12","","","","","","","","","","","","","","",""
"","","","","","html-keyboard-response","215","393972","0.0-25.0-2.1","53c4bcc9-a8d9-4849-94e3-b2a14024f5a7","null","<p style=""text-align: center;"">+</p>","null","fixation","","","","","","","","","","","","","","","","","","","","",""
"","","","","","html-slider-response","216","394988","0.0-25.0-0.2","53c4bcc9-a8d9-4849-94e3-b2a14024f5a7","1000","
                  <p style=""text-align: center;"">₪36
                                                <br>75%</p>
                  <p id=""wtp"" style=""text-align:center; margin-top: 0px; margin-bottom: 0px; font-size: 40px"";>&ensp;</p>","-","viewing","0","14","4B,5A,13B,16B","","","","","","","","","","","","","","","","","",""
"","","","","","html-slider-response","217","397468","0.0-25.0-1.2","53c4bcc9-a8d9-4849-94e3-b2a14024f5a7","2479","
                  <p style=""text-align: center;"">₪36
                                                <br>75%</p>
                  <p id=""wtp"" style=""text-align:center; margin-top: 0px; margin-bottom: 0px; font-size: 40px"";>מוכנים לשלם: <span id=""c_p_y""></span></p>","23","evaluation","50","14","4B,5A,13B,16B","75","36","23","","","","","","","","","","","","","","",""
"","","","","","html-keyboard-response","218","398047","0.0-25.0-2.2","53c4bcc9-a8d9-4849-94e3-b2a14024f5a7","null","<p style=""text-align: center;"">+</p>","null","fixation","","","","","","","","","","","","","","","","","","","","",""
"","","","","","html-slider-response","219","399053","0.0-25.0-0.3","53c4bcc9-a8d9-4849-94e3-b2a14024f5a7","1000","
                  <p style=""text-align: center;"">₪76
                                                <br>65%</p>
                  <p id=""wtp"" style=""text-align:center; margin-top: 0px; margin-bottom: 0px; font-size: 40px"";>&ensp;</p>","-","viewing","0","29","8C,19A,24B","","","","","","","","","","","","","","","","","",""
"","","","","","html-slider-response","220","401212","0.0-25.0-1.3","53c4bcc9-a8d9-4849-94e3-b2a14024f5a7","2158","
                  <p style=""text-align: center;"">₪76
                                                <br>65%</p>
                  <p id=""wtp"" style=""text-align:center; margin-top: 0px; margin-bottom: 0px; font-size: 40px"";>מוכנים לשלם: <span id=""c_p_y""></span></p>","45","evaluation","80","29","8C,19A,24B","65","76","45","","","","","","","","","","","","","","",""
"","","","","","html-keyboard-response","221","402580","0.0-25.0-2.3","53c4bcc9-a8d9-4849-94e3-b2a14024f5a7","null","<p style=""text-align: center;"">+</p>","null","fixation","","","","","","","","","","","","","","","","","","","","",""
"","","","","","html-slider-response","222","403582","0.0-25.0-0.4","53c4bcc9-a8d9-4849-94e3-b2a14024f5a7","1000","
                  <p style=""text-align: center;"">₪43
                                                <br>75%</p>
                  <p id=""wtp"" style=""text-align:center; margin-top: 0px; margin-bottom: 0px; font-size: 40px"";>&ensp;</p>","-","viewing","0","18","11B,19B,24A,26A","","","","","","","","","","","","","","","","","",""
"","","","","","html-slider-response","223","405461","0.0-25.0-1.4","53c4bcc9-a8d9-4849-94e3-b2a14024f5a7","1877","
                  <p style=""text-align: center;"">₪43
                                                <br>75%</p>
                  <p id=""wtp"" style=""text-align:center; margin-top: 0px; margin-bottom: 0px; font-size: 40px"";>מוכנים לשלם: <span id=""c_p_y""></span></p>","25","evaluation","25","18","11B,19B,24A,26A","75","43","25","","","","","","","","","","","","","","",""
"","","","","","html-keyboard-response","224","406048","0.0-25.0-2.4","53c4bcc9-a8d9-4849-94e3-b2a14024f5a7","null","<p style=""text-align: center;"">+</p>","null","fixation","","","","","","","","","","","","","","","","","","","","",""
"","","","","","html-slider-response","225","407059","0.0-25.0-0.5","53c4bcc9-a8d9-4849-94e3-b2a14024f5a7","1000","
                  <p style=""text-align: center;"">₪16
                                                <br>20%</p>
                  <p id=""wtp"" style=""text-align:center; margin-top: 0px; margin-bottom: 0px; font-size: 40px"";>&ensp;</p>","-","viewing","0","8","14C,17A,20C,27A","","","","","","","","","","","","","","","","","",""
"","","","","","html-slider-response","226","409444","0.0-25.0-1.5","53c4bcc9-a8d9-4849-94e3-b2a14024f5a7","2385","
                  <p style=""text-align: center;"">₪16
                                                <br>20%</p>
                  <p id=""wtp"" style=""text-align:center; margin-top: 0px; margin-bottom: 0px; font-size: 40px"";>מוכנים לשלם: <span id=""c_p_y""></span></p>","3","evaluation","11","8","14C,17A,20C,27A","20","16","3","","","","","","","","","","","","","","",""
"","","","","","html-keyboard-response","227","410087","0.0-25.0-2.5","53c4bcc9-a8d9-4849-94e3-b2a14024f5a7","null","<p style=""text-align: center;"">+</p>","null","fixation","","","","","","","","","","","","","","","","","","","","",""
"","","","","","html-slider-response","228","411088","0.0-25.0-0.6","53c4bcc9-a8d9-4849-94e3-b2a14024f5a7","1000","
                  <p style=""text-align: center;"">₪79
                                                <br>40%</p>
                  <p id=""wtp"" style=""text-align:center; margin-top: 0px; margin-bottom: 0px; font-size: 40px"";>&ensp;</p>","-","viewing","0","30","9B","","","","","","","","","","","","","","","","","",""
"","","","","","html-slider-response","229","413060","0.0-25.0-1.6","53c4bcc9-a8d9-4849-94e3-b2a14024f5a7","1971","
                  <p style=""text-align: center;"">₪79
                                                <br>40%</p>
                  <p id=""wtp"" style=""text-align:center; margin-top: 0px; margin-bottom: 0px; font-size: 40px"";>מוכנים לשלם: <span id=""c_p_y""></span></p>","36","evaluation","53","30","9B","40","79","36","","","","","","","","","","","","","","",""
"","","","","","html-keyboard-response","230","414528","0.0-25.0-2.6","53c4bcc9-a8d9-4849-94e3-b2a14024f5a7","null","<p style=""text-align: center;"">+</p>","null","fixation","","","","","","","","","","","","","","","","","","","","",""
"","","","","","html-slider-response","231","415530","0.0-25.0-0.7","53c4bcc9-a8d9-4849-94e3-b2a14024f5a7","1000","
                  <p style=""text-align: center;"">₪79
                                                <br>65%</p>
                  <p id=""wtp"" style=""text-align:center; margin-top: 0px; margin-bottom: 0px; font-size: 40px"";>&ensp;</p>","-","viewing","0","31","8A","","","","","","","","","","","","","","","","","",""
"","","","","","html-slider-response","232","418548","0.0-25.0-1.7","53c4bcc9-a8d9-4849-94e3-b2a14024f5a7","3017","
                  <p style=""text-align: center;"">₪79
                                                <br>65%</p>
                  <p id=""wtp"" style=""text-align:center; margin-top: 0px; margin-bottom: 0px; font-size: 40px"";>מוכנים לשלם: <span id=""c_p_y""></span></p>","42","evaluation","26","31","8A","65","79","42","","","","","","","","","","","","","","",""
"","","","","","html-keyboard-response","233","419326","0.0-25.0-2.7","53c4bcc9-a8d9-4849-94e3-b2a14024f5a7","null","<p style=""text-align: center;"">+</p>","null","fixation","","","","","","","","","","","","","","","","","","","","",""
"","","","","","html-slider-response","234","420329","0.0-25.0-0.8","53c4bcc9-a8d9-4849-94e3-b2a14024f5a7","1000","
                  <p style=""text-align: center;"">₪58
                                                <br>45%</p>
                  <p id=""wtp"" style=""text-align:center; margin-top: 0px; margin-bottom: 0px; font-size: 40px"";>&ensp;</p>","-","viewing","0","21","11C,18C,25A","","","","","","","","","","","","","","","","","",""
"","","","","","html-slider-response","235","422436","0.0-25.0-1.8","53c4bcc9-a8d9-4849-94e3-b2a14024f5a7","2106","
                  <p style=""text-align: center;"">₪58
                                                <br>45%</p>
                  <p id=""wtp"" style=""text-align:center; margin-top: 0px; margin-bottom: 0px; font-size: 40px"";>מוכנים לשלם: <span id=""c_p_y""></span></p>","29","evaluation","27","21","11C,18C,25A","45","58","29","","","","","","","","","","","","","","",""
"","","","","","html-keyboard-response","236","423432","0.0-25.0-2.8","53c4bcc9-a8d9-4849-94e3-b2a14024f5a7","null","<p style=""text-align: center;"">+</p>","null","fixation","","","","","","","","","","","","","","","","","","","","",""
"","","","","","html-slider-response","237","424450","0.0-25.0-0.9","53c4bcc9-a8d9-4849-94e3-b2a14024f5a7","1000","
                  <p style=""text-align: center;"">₪71
                                                <br>75%</p>
                  <p id=""wtp"" style=""text-align:center; margin-top: 0px; margin-bottom: 0px; font-size: 40px"";>&ensp;</p>","-","viewing","0","28","8B","","","","","","","","","","","","","","","","","",""
"","","","","","html-slider-response","238","426212","0.0-25.0-1.9","53c4bcc9-a8d9-4849-94e3-b2a14024f5a7","1761","
                  <p style=""text-align: center;"">₪71
                                                <br>75%</p>
                  <p id=""wtp"" style=""text-align:center; margin-top: 0px; margin-bottom: 0px; font-size: 40px"";>מוכנים לשלם: <span id=""c_p_y""></span></p>","37","evaluation","11","28","8B","75","71","37","","","","","","","","","","","","","","",""
"","","","","","html-keyboard-response","239","427310","0.0-25.0-2.9","53c4bcc9-a8d9-4849-94e3-b2a14024f5a7","null","<p style=""text-align: center;"">+</p>","null","fixation","","","","","","","","","","","","","","","","","","","","",""
"","","","","","html-slider-response","240","428324","0.0-25.0-0.10","53c4bcc9-a8d9-4849-94e3-b2a14024f5a7","1000","
                  <p style=""text-align: center;"">₪39
                                                <br>65%</p>
                  <p id=""wtp"" style=""text-align:center; margin-top: 0px; margin-bottom: 0px; font-size: 40px"";>&ensp;</p>","-","viewing","0","16","1A,15A,26C","","","","","","","","","","","","","","","","","",""
"","","","","","html-slider-response","241","431524","0.0-25.0-1.10","53c4bcc9-a8d9-4849-94e3-b2a14024f5a7","3198","
                  <p style=""text-align: center;"">₪39
                                                <br>65%</p>
                  <p id=""wtp"" style=""text-align:center; margin-top: 0px; margin-bottom: 0px; font-size: 40px"";>מוכנים לשלם: <span id=""c_p_y""></span></p>","26","evaluation","37","16","1A,15A,26C","65","39","26","","","","","","","","","","","","","","",""
"","","","","","html-keyboard-response","242","432524","0.0-25.0-2.10","53c4bcc9-a8d9-4849-94e3-b2a14024f5a7","null","<p style=""text-align: center;"">+</p>","null","fixation","","","","","","","","","","","","","","","","","","","","",""
"","","","","","html-slider-response","243","433538","0.0-25.0-0.11","53c4bcc9-a8d9-4849-94e3-b2a14024f5a7","1000","
                  <p style=""text-align: center;"">₪36
                                                <br>60%</p>
                  <p id=""wtp"" style=""text-align:center; margin-top: 0px; margin-bottom: 0px; font-size: 40px"";>&ensp;</p>","-","viewing","0","12","1C,7C,15C","","","","","","","","","","","","","","","","","",""
"","","","","","html-slider-response","244","435660","0.0-25.0-1.11","53c4bcc9-a8d9-4849-94e3-b2a14024f5a7","2121","
                  <p style=""text-align: center;"">₪36
                                                <br>60%</p>
                  <p id=""wtp"" style=""text-align:center; margin-top: 0px; margin-bottom: 0px; font-size: 40px"";>מוכנים לשלם: <span id=""c_p_y""></span></p>","23","evaluation","53","12","1C,7C,15C","60","36","23","","","","","","","","","","","","","","",""
"","","","","","html-keyboard-response","245","437143","0.0-25.0-2.11","53c4bcc9-a8d9-4849-94e3-b2a14024f5a7","null","<p style=""text-align: center;"">+</p>","null","fixation","","","","","","","","","","","","","","","","","","","","",""
"","","","","","html-slider-response","246","438145","0.0-25.0-0.12","53c4bcc9-a8d9-4849-94e3-b2a14024f5a7","1000","
                  <p style=""text-align: center;"">₪18
                                                <br>25%</p>
                  <p id=""wtp"" style=""text-align:center; margin-top: 0px; margin-bottom: 0px; font-size: 40px"";>&ensp;</p>","-","viewing","0","9","14A,23A","","","","","","","","","","","","","","","","","",""
"","","","","","html-slider-response","247","439692","0.0-25.0-1.12","53c4bcc9-a8d9-4849-94e3-b2a14024f5a7","1546","
                  <p style=""text-align: center;"">₪18
                                                <br>25%</p>
                  <p id=""wtp"" style=""text-align:center; margin-top: 0px; margin-bottom: 0px; font-size: 40px"";>מוכנים לשלם: <span id=""c_p_y""></span></p>","3","evaluation","6","9","14A,23A","25","18","3","","","","","","","","","","","","","","",""
"","","","","","html-keyboard-response","248","440524","0.0-25.0-2.12","53c4bcc9-a8d9-4849-94e3-b2a14024f5a7","null","<p style=""text-align: center;"">+</p>","null","fixation","","","","","","","","","","","","","","","","","","","","",""
"","","","","","html-slider-response","249","441534","0.0-25.0-0.13","53c4bcc9-a8d9-4849-94e3-b2a14024f5a7","1000","
                  <p style=""text-align: center;"">₪58
                                                <br>30%</p>
                  <p id=""wtp"" style=""text-align:center; margin-top: 0px; margin-bottom: 0px; font-size: 40px"";>&ensp;</p>","-","viewing","0","19","13C,30A","","","","","","","","","","","","","","","","","",""
"","","","","","html-slider-response","250","443972","0.0-25.0-1.13","53c4bcc9-a8d9-4849-94e3-b2a14024f5a7","2436","
                  <p style=""text-align: center;"">₪58
                                                <br>30%</p>
                  <p id=""wtp"" style=""text-align:center; margin-top: 0px; margin-bottom: 0px; font-size: 40px"";>מוכנים לשלם: <span id=""c_p_y""></span></p>","17","evaluation","46","19","13C,30A","30","58","17","","","","","","","","","","","","","","",""
"","","","","","html-keyboard-response","251","444977","0.0-25.0-2.13","53c4bcc9-a8d9-4849-94e3-b2a14024f5a7","null","<p style=""text-align: center;"">+</p>","null","fixation","","","","","","","","","","","","","","","","","","","","",""
"","","","","","html-slider-response","252","445979","0.0-25.0-0.14","53c4bcc9-a8d9-4849-94e3-b2a14024f5a7","1000","
                  <p style=""text-align: center;"">₪43
                                                <br>60%</p>
                  <p id=""wtp"" style=""text-align:center; margin-top: 0px; margin-bottom: 0px; font-size: 40px"";>&ensp;</p>","-","viewing","0","17","2A,7A,9A,15B","","","","","","","","","","","","","","","","","",""
