"success","timeout","failed_images","failed_audio","failed_video","trial_type","trial_index","time_elapsed","internal_node_id","subject_id","rt","stimulus","response","part","slider_start","ID","set_ID","prob","amount","last_location","actual_choice","actual_EV","binary_id","trinary_id","catch","A_key","D_key","choice_prob","choice_amount","chosen_part","potential_prize_prob","potential_prize_amount","won_prize","total_prize","prize_cost","remaining_budget","accuracy"
"true","false","[]","[]","[]","preload","0","79","0.0-0.0","2ceaea9e-daa3-4a04-924f-85cb92a5ef04","","","","","","","","","","","","","","","","","","","","","","","","","","",""
"","","","","","html-keyboard-response","1","890375","0.0-1.0","2ceaea9e-daa3-4a04-924f-85cb92a5ef04","null","
          <h1>שלום וברוכים הבאים!</h1>
          <p>לפניכם ניסוי בקבלת החלטות עם שני חלקים.
          <br><br>לחצו על העכבר כדי להמשיך.</p>","0","example","","","","","","","","","","","","","","","","","","","","","","",""
"","","","","","html-keyboard-response","2","895887","0.0-2.0","2ceaea9e-daa3-4a04-924f-85cb92a5ef04","null","
        <h1>חלק 1</h1>
        <p>בקרוב יוצגו בפניכם הגרלות.
        <br>עליכם לבחור את המחיר המירבי שתהיו מוכנים לשלם כדי להשתתף בהגרלה שתוצג.
        <br>יש לכם תקציב של ₪80 לכל הגרלה. 
        <br>נסו להעריך כל הגרלה בנפרד ולחשוב כמה היא שווה עבורכם, ₪80 זמינים לכל הגרלה בנפרד.
        <br><br>לחצו על העכבר כדי להמשיך.</p>","1","instructions","","","","","","","","","","","","","","","","","","","","","","",""
"","","","","","html-keyboard-response","3","898599","0.0-3.0","2ceaea9e-daa3-4a04-924f-85cb92a5ef04","null","
        <p>בסוף הניסוי, המחשב יבחר את אחת ההגרלות ויקבע מחיר לכרטיס עבורה. 
        <br>במידה והמחיר שבחרתם נמוך מהמחיר שנבחר על ידי המחשב, לא תשתתפו בהגרלה ותשארו עם מלוא התקציב.
        <br>במידה והמחיר שבחרתם גבוה מהמחיר שנבחר על ידי המחשב, תשלמו את המחיר שנקבע ותשתתפו בהגרלה.
        <br><br>לחצו על העכבר כדי להמשיך.</p>","1","instructions","","","","","","","","","","","","","","","","","","","","","","",""
"","","","","","html-slider-response","4","918783","0.0-4.0","2ceaea9e-daa3-4a04-924f-85cb92a5ef04","20078","
        <p style=""font-size: 42px;"">נתחיל עם דוגמא: 
        <br>ההגרלה מטה מציעה 65% סיכוי לזכות ב-₪40 
        <br>&emsp;&emsp;&emsp;&emsp;&emsp;&emsp;&emsp;&emsp;&ensp;35% סיכוי לזכות ב-₪0.
        <br><br>מה המחיר המירבי שתהיו מוכנים לשלם על כרטיס להגרלה זו בין 0 ל-₪80?
        <br>הזיזו את העכבר על פני המלבן ולחצו כדי לבצע בחירה.</p>
        
        <p style=""text-align: center;"">₪40<br>65%</p>

        <p id=""wtp"" style=""text-align:center; margin-top: 0px; margin-bottom: 0px; font-size: 40px"";>מוכנים לשלם: <span id=""c_p_y""></span></p>","20","example","21","","","","","","","","","","","","","","","","","","","","","",""
"","","","","","html-keyboard-response","5","929799","0.0-5.0","2ceaea9e-daa3-4a04-924f-85cb92a5ef04","null","<p>יפה מאוד!
                <br> בחרתם שתהיו מוכנים לשלם ₪20 כדי להשתתף בהגרלה:
                <br><p style=""text-align: center;"">₪40<br>65%</p>
                <p>נשמע נכון?
                <br>נניח שהגרלה זו נבחרה בסוף הניסוי.
                <br>כעת המחשב יקבע מחיר עבורה באקראי.
                <br>לחצו על העכבר להמשך.</p>","1","example","","","","","","","","","","","","","","","","","","","","","","",""
"","","","","","html-keyboard-response","6","943687","0.0-6.0","2ceaea9e-daa3-4a04-924f-85cb92a5ef04","null","<p>המחשב קבע מחיר: ₪73
                <br>ואתם בחרתם לשלם לכל היותר: ₪20
                <br><br>מכיוון שהמחיר שבחרתם נמוך מהמחיר שנקבע, לא תתשתתפו בהגרלה.
                <br>במקרה כזה, בסוף הניסוי תקבלו את כל התקציב ההתחלתי של ₪80.
                <br><br>לחצו על העכבר להמשך.</p>","1","example","","","","","","","","","","","","","","","","","","","","","","",""
"","","","","","html-slider-response","7","948903","0.0-7.0","2ceaea9e-daa3-4a04-924f-85cb92a5ef04","4962","<p style=""font-size: 42px;"">הנה עוד דוגמא:
                <br>ההגרלה מטה מציעה 35% סיכוי לזכות ב-₪18 
                <br>&emsp;&emsp;&emsp;&emsp;&emsp;&emsp;&emsp;&emsp;&ensp;65% סיכוי לזכות ב-₪0.</p>
        
                <p style=""text-align: center;"">₪18<br>35%</p>
                <p id=""wtp"" style=""text-align:center; margin-top: 0px; margin-bottom: 0px; font-size: 40px"";>מוכנים לשלם: <span id=""c_p_y""></span></p>","8","example","77","","","","","","","","","","","","","","","","","","","","","",""
"","","","","","html-keyboard-response","8","950719","0.0-8.0","2ceaea9e-daa3-4a04-924f-85cb92a5ef04","null","<p>הייתם מוכנים לשלם  ₪8 כדי להשתתף בהגרלה:
                <p style=""text-align: center;"">₪18<br>35%</p>
                <p>כעת נניח שהמחשב בחר את ההגרלה הזו בסוף הניסוי, וקבע עבורה מחיר.
                <br><br>לחצו על העכבר כדי להמשיך.</p>","1","instructions","","","","","","","","","","","","","","","","","","","","","","",""
"","","","","","html-keyboard-response","9","964856","0.0-9.0","2ceaea9e-daa3-4a04-924f-85cb92a5ef04","null","<p>המחשב קבע מחיר להגרלה: ₪1<br>ואתם בחרתם לשלם לכל היותר: ₪8
                <br><br>כעת המחיר שנקבע נמוך מזה שבחרתם, אז תשלמו את המחיר שקבע המחשב (₪1) ותשתתפו בהגרלה.
                <br>במקרה כזה, תסיימו את הניסוי עם תקציב של ₪79 ועם סיכוי לזכות ב-₪18 נוספים מההגרלה.
                <br>כלומר, תוכלו לקבל ₪79 אם לא תזכו בהגרלה, או ₪97 אם תזכו בהגרלה.
                <br><br>לחצו על העכבר להמשך.</p>","1","example","","","","","","","","","","","","","","","","","","","","","","",""
"","","","","","html-keyboard-response","10","974967","0.0-10.0","2ceaea9e-daa3-4a04-924f-85cb92a5ef04","null","<p>במהלך הניסוי, קודם תראו את ההגרלה ורק לאחר מכן תוכלו לבחור.
                <p>כמו כן, יהיו לכם מספר שניות מוגבל להגיב.
                <p>בואו ננסה זאת עם ההגרלה הקודמת.
                <br>לחצו על העכבר כדי להמשיך.</p>","1","instructions","","","","","","","","","","","","","","","","","","","","","","",""
"","","","","","html-slider-response","11","976237","0.0-11.0","2ceaea9e-daa3-4a04-924f-85cb92a5ef04","1000","
                    <p style=""text-align: center;"">₪18<br>35%</p>
                    <p id=""wtp"" style=""text-align:center; margin-top: 0px; margin-bottom: 0px; font-size: 40px"";>&ensp;</p>","49","instructions","0","","","","","","","","","","","","","","","","","","","","","",""
"","","","","","html-slider-response","12","980504","0.0-12.0","2ceaea9e-daa3-4a04-924f-85cb92a5ef04","null","
                    <p style=""text-align: center;"">₪18<br>35%</p>
                    <p id=""wtp"" style=""text-align:center; margin-top: 0px; margin-bottom: 0px; font-size: 40px"";>מוכנים לשלם: <span id=""c_p_y""></span></p>","null","instructions","30","","","","","","","","","","","","","","","","","","","","","",""
"","","","","","html-keyboard-response","13","985319","0.0-13.0","2ceaea9e-daa3-4a04-924f-85cb92a5ef04","null","<p>לא הגבתם בזמן המוקצב לתגובה. 
                <br>נסו להגיב מהר יותר בפעם הבאה.
                <br><br>לחצו על העכבר כדי להמשיך.</p>","1","instructions","","","","","","","","","","","","","","","","","","","","","","",""
"","","","","","html-slider-response","14","988103","0.0-14.0-0.0","2ceaea9e-daa3-4a04-924f-85cb92a5ef04","2520","
                    <p style=""text-align: center;"">₪40<br>65%</p>
                    <p id=""wtp"" style=""text-align:center; margin-top: 0px; margin-bottom: 0px; font-size: 40px"";>מוכנים לשלם: <span id=""c_p_y""></span></p>","20","instructions","46","","","","","","","","","","","","","","","","","","","","","",""
"","","","","","html-keyboard-response","15","992679","0.0-14.0-1.0","2ceaea9e-daa3-4a04-924f-85cb92a5ef04","null","<p>יפה. הפעם בחרתם לשלם לכל היותר ₪20.
                <br><br>לחצו על העכבר כדי להמשיך.</p>","1","instructions","","","","","","","","","","","","","","","","","","","","","","",""
"","","","","","html-keyboard-response","16","1000223","0.0-15.0","2ceaea9e-daa3-4a04-924f-85cb92a5ef04","null","<p>כעת נתחיל את הניסוי.
                <br><br>אתם תראו הגרלות ותתבקשו לבחור כמה תהיו מוכנים לשלם כדי להשתתף בהן.
                <br>יש לכם תקציב של ₪80 עבור כל הגרלה.
                <br>בסוף הניסוי הגרלה אחת תבחר באקראי ותשוחק.
                <br><br>לחצו על העכבר כדי להתחיל את הניסוי.</p>","1","instructions","","","","","","","","","","","","","","","","","","","","","","",""
"","","","","","html-keyboard-response","17","1001493","0.0-16.0","2ceaea9e-daa3-4a04-924f-85cb92a5ef04","null","<p style=""text-align: center;"">+</p>","null","fixation","","","","","","","","","","","","","","","","","","","","","","",""
"","","","","","html-slider-response","18","1002509","0.0-17.0-0.0","2ceaea9e-daa3-4a04-924f-85cb92a5ef04","1000","
                  <p style=""text-align: center;"">₪43
                                                <br>75%</p>
                  <p id=""wtp"" style=""text-align:center; margin-top: 0px; margin-bottom: 0px; font-size: 40px"";>&ensp;</p>","-","viewing","0","18","11B,19B,24A,26A","","","","","","","","","","","","","","","","","","","",""
"","","","","","html-slider-response","19","1005303","0.0-17.0-1.0","2ceaea9e-daa3-4a04-924f-85cb92a5ef04","2793","
                  <p style=""text-align: center;"">₪43
                                                <br>75%</p>
                  <p id=""wtp"" style=""text-align:center; margin-top: 0px; margin-bottom: 0px; font-size: 40px"";>מוכנים לשלם: <span id=""c_p_y""></span></p>","17","evaluation","47","18","11B,19B,24A,26A","75","43","17","","","","","","","","","","","","","","","","",""
"","","","","","html-keyboard-response","20","1006301","0.0-17.0-2.0","2ceaea9e-daa3-4a04-924f-85cb92a5ef04","null","<p style=""text-align: center;"">+</p>","null","fixation","","","","","","","","","","","","","","","","","","","","","","",""
"","","","","","html-slider-response","21","1007318","0.0-17.0-0.1","2ceaea9e-daa3-4a04-924f-85cb92a5ef04","1000","
                  <p style=""text-align: center;"">₪36
                                                <br>30%</p>
                  <p id=""wtp"" style=""text-align:center; margin-top: 0px; margin-bottom: 0px; font-size: 40px"";>&ensp;</p>","-","viewing","0","11","3C,20A,22A","","","","","","","","","","","","","","","","","","","",""
"","","","","","html-slider-response","22","1009671","0.0-17.0-1.1","2ceaea9e-daa3-4a04-924f-85cb92a5ef04","2352","
                  <p style=""text-align: center;"">₪36
                                                <br>30%</p>
                  <p id=""wtp"" style=""text-align:center; margin-top: 0px; margin-bottom: 0px; font-size: 40px"";>מוכנים לשלם: <span id=""c_p_y""></span></p>","12","evaluation","63","11","3C,20A,22A","30","36","12","","","","","","","","","","","","","","","","",""
"","","","","","html-keyboard-response","23","1010719","0.0-17.0-2.1","2ceaea9e-daa3-4a04-924f-85cb92a5ef04","null","<p style=""text-align: center;"">+</p>","null","fixation","","","","","","","","","","","","","","","","","","","","","","",""
"","","","","","html-slider-response","24","1011723","0.0-17.0-0.2","2ceaea9e-daa3-4a04-924f-85cb92a5ef04","1000","
                  <p style=""text-align: center;"">₪71
                                                <br>75%</p>
                  <p id=""wtp"" style=""text-align:center; margin-top: 0px; margin-bottom: 0px; font-size: 40px"";>&ensp;</p>","-","viewing","0","28","8B","","","","","","","","","","","","","","","","","","","",""
"","","","","","html-slider-response","25","1014215","0.0-17.0-1.2","2ceaea9e-daa3-4a04-924f-85cb92a5ef04","2491","
                  <p style=""text-align: center;"">₪71
                                                <br>75%</p>
                  <p id=""wtp"" style=""text-align:center; margin-top: 0px; margin-bottom: 0px; font-size: 40px"";>מוכנים לשלם: <span id=""c_p_y""></span></p>","29","evaluation","34","28","8B","75","71","29","","","","","","","","","","","","","","","","",""
"","","","","","html-keyboard-response","26","1014750","0.0-17.0-2.2","2ceaea9e-daa3-4a04-924f-85cb92a5ef04","null","<p style=""text-align: center;"">+</p>","null","fixation","","","","","","","","","","","","","","","","","","","","","","",""
"","","","","","html-slider-response","27","1015757","0.0-17.0-0.3","2ceaea9e-daa3-4a04-924f-85cb92a5ef04","1000","
                  <p style=""text-align: center;"">₪11
                                                <br>75%</p>
                  <p id=""wtp"" style=""text-align:center; margin-top: 0px; margin-bottom: 0px; font-size: 40px"";>&ensp;</p>","-","viewing","0","7","6B,18B,22C,24C,29A","","","","","","","","","","","","","","","","","","","",""
"","","","","","html-slider-response","28","1017447","0.0-17.0-1.3","2ceaea9e-daa3-4a04-924f-85cb92a5ef04","1689","
                  <p style=""text-align: center;"">₪11
                                                <br>75%</p>
                  <p id=""wtp"" style=""text-align:center; margin-top: 0px; margin-bottom: 0px; font-size: 40px"";>מוכנים לשלם: <span id=""c_p_y""></span></p>","4","evaluation","80","7","6B,18B,22C,24C,29A","75","11","4","","","","","","","","","","","","","","","","",""
"","","","","","html-keyboard-response","29","1018240","0.0-17.0-2.3","2ceaea9e-daa3-4a04-924f-85cb92a5ef04","null","<p style=""text-align: center;"">+</p>","null","fixation","","","","","","","","","","","","","","","","","","","","","","",""
"","","","","","html-slider-response","30","1019254","0.0-17.0-0.4","2ceaea9e-daa3-4a04-924f-85cb92a5ef04","1000","
                  <p style=""text-align: center;"">₪11
                                                <br>45%</p>
                  <p id=""wtp"" style=""text-align:center; margin-top: 0px; margin-bottom: 0px; font-size: 40px"";>&ensp;</p>","-","viewing","0","6","14B,21C,25C","","","","","","","","","","","","","","","","","","","",""
"","","","","","html-slider-response","31","1021831","0.0-17.0-1.4","2ceaea9e-daa3-4a04-924f-85cb92a5ef04","2575","
                  <p style=""text-align: center;"">₪11
                                                <br>45%</p>
                  <p id=""wtp"" style=""text-align:center; margin-top: 0px; margin-bottom: 0px; font-size: 40px"";>מוכנים לשלם: <span id=""c_p_y""></span></p>","1","evaluation","62","6","14B,21C,25C","45","11","2","","","","","","","","","","","","","","","","",""
"","","","","","html-keyboard-response","32","1022411","0.0-17.0-2.4","2ceaea9e-daa3-4a04-924f-85cb92a5ef04","null","<p style=""text-align: center;"">+</p>","null","fixation","","","","","","","","","","","","","","","","","","","","","","",""
"","","","","","html-slider-response","33","1023417","0.0-17.0-0.5","2ceaea9e-daa3-4a04-924f-85cb92a5ef04","1000","
                  <p style=""text-align: center;"">₪36
                                                <br>60%</p>
                  <p id=""wtp"" style=""text-align:center; margin-top: 0px; margin-bottom: 0px; font-size: 40px"";>&ensp;</p>","-","viewing","0","12","1C,7C,15C","","","","","","","","","","","","","","","","","","","",""
"","","","","","html-slider-response","34","1025959","0.0-17.0-1.5","2ceaea9e-daa3-4a04-924f-85cb92a5ef04","2540","
                  <p style=""text-align: center;"">₪36
                                                <br>60%</p>
                  <p id=""wtp"" style=""text-align:center; margin-top: 0px; margin-bottom: 0px; font-size: 40px"";>מוכנים לשלם: <span id=""c_p_y""></span></p>","12","evaluation","61","12","1C,7C,15C","60","36","13","","","","","","","","","","","","","","","","",""
"","","","","","html-keyboard-response","35","1027126","0.0-17.0-2.5","2ceaea9e-daa3-4a04-924f-85cb92a5ef04","null","<p style=""text-align: center;"">+</p>","null","fixation","","","","","","","","","","","","","","","","","","","","","","",""
"","","","","","html-slider-response","36","1028131","0.0-17.0-0.6","2ceaea9e-daa3-4a04-924f-85cb92a5ef04","1000","
                  <p style=""text-align: center;"">₪18
                                                <br>25%</p>
                  <p id=""wtp"" style=""text-align:center; margin-top: 0px; margin-bottom: 0px; font-size: 40px"";>&ensp;</p>","-","viewing","0","9","14A,23A","","","","","","","","","","","","","","","","","","","",""
"","","","","","html-slider-response","37","1030447","0.0-17.0-1.6","2ceaea9e-daa3-4a04-924f-85cb92a5ef04","2315","
                  <p style=""text-align: center;"">₪18
                                                <br>25%</p>
                  <p id=""wtp"" style=""text-align:center; margin-top: 0px; margin-bottom: 0px; font-size: 40px"";>מוכנים לשלם: <span id=""c_p_y""></span></p>","3","evaluation","71","9","14A,23A","25","18","3","","","","","","","","","","","","","","","","",""
"","","","","","html-keyboard-response","38","1031318","0.0-17.0-2.6","2ceaea9e-daa3-4a04-924f-85cb92a5ef04","null","<p style=""text-align: center;"">+</p>","null","fixation","","","","","","","","","","","","","","","","","","","","","","",""
"","","","","","html-slider-response","39","1032325","0.0-17.0-0.7","2ceaea9e-daa3-4a04-924f-85cb92a5ef04","1000","
                  <p style=""text-align: center;"">₪71
                                                <br>45%</p>
                  <p id=""wtp"" style=""text-align:center; margin-top: 0px; margin-bottom: 0px; font-size: 40px"";>&ensp;</p>","-","viewing","0","26","2B,16A","","","","","","","","","","","","","","","","","","","",""
"","","","","","html-slider-response","40","1035631","0.0-17.0-1.7","2ceaea9e-daa3-4a04-924f-85cb92a5ef04","3304","
                  <p style=""text-align: center;"">₪71
                                                <br>45%</p>
                  <p id=""wtp"" style=""text-align:center; margin-top: 0px; margin-bottom: 0px; font-size: 40px"";>מוכנים לשלם: <span id=""c_p_y""></span></p>","24","evaluation","35","26","2B,16A","45","71","24","","","","","","","","","","","","","","","","",""
"","","","","","html-keyboard-response","41","1036739","0.0-17.0-2.7","2ceaea9e-daa3-4a04-924f-85cb92a5ef04","null","<p style=""text-align: center;"">+</p>","null","fixation","","","","","","","","","","","","","","","","","","","","","","",""
"","","","","","html-slider-response","42","1037747","0.0-17.0-0.8","2ceaea9e-daa3-4a04-924f-85cb92a5ef04","1000","
                  <p style=""text-align: center;"">₪43
                                                <br>60%</p>
                  <p id=""wtp"" style=""text-align:center; margin-top: 0px; margin-bottom: 0px; font-size: 40px"";>&ensp;</p>","-","viewing","0","17","2A,7A,9A,15B","","","","","","","","","","","","","","","","","","","",""
"","","","","","html-slider-response","43","1040503","0.0-17.0-1.8","2ceaea9e-daa3-4a04-924f-85cb92a5ef04","2755","
                  <p style=""text-align: center;"">₪43
                                                <br>60%</p>
                  <p id=""wtp"" style=""text-align:center; margin-top: 0px; margin-bottom: 0px; font-size: 40px"";>מוכנים לשלם: <span id=""c_p_y""></span></p>","20","evaluation","20","17","2A,7A,9A,15B","60","43","20","","","","","","","","","","","","","","","","",""
"","","","","","html-keyboard-response","44","1041221","0.0-17.0-2.8","2ceaea9e-daa3-4a04-924f-85cb92a5ef04","null","<p style=""text-align: center;"">+</p>","null","fixation","","","","","","","","","","","","","","","","","","","","","","",""
"","","","","","html-slider-response","45","1042224","0.0-17.0-0.9","2ceaea9e-daa3-4a04-924f-85cb92a5ef04","1000","
                  <p style=""text-align: center;"">₪11
                                                <br>20%</p>
                  <p id=""wtp"" style=""text-align:center; margin-top: 0px; margin-bottom: 0px; font-size: 40px"";>&ensp;</p>","-","viewing","0","4","12C,17C,23C,28C","","","","","","","","","","","","","","","","","","","",""
"","","","","","html-slider-response","46","1044319","0.0-17.0-1.9","2ceaea9e-daa3-4a04-924f-85cb92a5ef04","2094","
                  <p style=""text-align: center;"">₪11
                                                <br>20%</p>
                  <p id=""wtp"" style=""text-align:center; margin-top: 0px; margin-bottom: 0px; font-size: 40px"";>מוכנים לשלם: <span id=""c_p_y""></span></p>","3","evaluation","20","4","12C,17C,23C,28C","20","11","3","","","","","","","","","","","","","","","","",""
"","","","","","html-keyboard-response","47","1045151","0.0-17.0-2.9","2ceaea9e-daa3-4a04-924f-85cb92a5ef04","null","<p style=""text-align: center;"">+</p>","null","fixation","","","","","","","","","","","","","","","","","","","","","","",""
"","","","","","html-slider-response","48","1046153","0.0-17.0-0.10","2ceaea9e-daa3-4a04-924f-85cb92a5ef04","1000","
                  <p style=""text-align: center;"">₪64
                                                <br>25%</p>
                  <p id=""wtp"" style=""text-align:center; margin-top: 0px; margin-bottom: 0px; font-size: 40px"";>&ensp;</p>","-","viewing","0","24","6A,21A","","","","","","","","","","","","","","","","","","","",""
"","","","","","html-slider-response","49","1049591","0.0-17.0-1.10","2ceaea9e-daa3-4a04-924f-85cb92a5ef04","3437","
                  <p style=""text-align: center;"">₪64
                                                <br>25%</p>
                  <p id=""wtp"" style=""text-align:center; margin-top: 0px; margin-bottom: 0px; font-size: 40px"";>מוכנים לשלם: <span id=""c_p_y""></span></p>","16","evaluation","67","24","6A,21A","25","64","16","","","","","","","","","","","","","","","","",""
"","","","","","html-keyboard-response","50","1050579","0.0-17.0-2.10","2ceaea9e-daa3-4a04-924f-85cb92a5ef04","null","<p style=""text-align: center;"">+</p>","null","fixation","","","","","","","","","","","","","","","","","","","","","","",""
"","","","","","html-slider-response","51","1051595","0.0-17.0-0.11","2ceaea9e-daa3-4a04-924f-85cb92a5ef04","1000","
                  <p style=""text-align: center;"">₪79
                                                <br>40%</p>
                  <p id=""wtp"" style=""text-align:center; margin-top: 0px; margin-bottom: 0px; font-size: 40px"";>&ensp;</p>","-","viewing","0","30","9B","","","","","","","","","","","","","","","","","","","",""
"","","","","","html-slider-response","52","1055247","0.0-17.0-1.11","2ceaea9e-daa3-4a04-924f-85cb92a5ef04","3651","
                  <p style=""text-align: center;"">₪79
                                                <br>40%</p>
                  <p id=""wtp"" style=""text-align:center; margin-top: 0px; margin-bottom: 0px; font-size: 40px"";>מוכנים לשלם: <span id=""c_p_y""></span></p>","30","evaluation","23","30","9B","40","79","30","","","","","","","","","","","","","","","","",""
"","","","","","html-keyboard-response","53","1056492","0.0-17.0-2.11","2ceaea9e-daa3-4a04-924f-85cb92a5ef04","null","<p style=""text-align: center;"">+</p>","null","fixation","","","","","","","","","","","","","","","","","","","","","","",""
"","","","","","html-slider-response","54","1057495","0.0-17.0-0.12","2ceaea9e-daa3-4a04-924f-85cb92a5ef04","1000","
                  <p style=""text-align: center;"">₪36
                                                <br>75%</p>
                  <p id=""wtp"" style=""text-align:center; margin-top: 0px; margin-bottom: 0px; font-size: 40px"";>&ensp;</p>","-","viewing","0","14","4B,5A,13B,16B","","","","","","","","","","","","","","","","","","","",""
"","","","","","html-slider-response","55","1060327","0.0-17.0-1.12","2ceaea9e-daa3-4a04-924f-85cb92a5ef04","2830","
                  <p style=""text-align: center;"">₪36
                                                <br>75%</p>
                  <p id=""wtp"" style=""text-align:center; margin-top: 0px; margin-bottom: 0px; font-size: 40px"";>מוכנים לשלם: <span id=""c_p_y""></span></p>","10","evaluation","66","14","4B,5A,13B,16B","75","36","10","","","","","","","","","","","","","","","","",""
"","","","","","html-keyboard-response","56","1061650","0.0-17.0-2.12","2ceaea9e-daa3-4a04-924f-85cb92a5ef04","null","<p style=""text-align: center;"">+</p>","null","fixation","","","","","","","","","","","","","","","","","","","","","","",""
"","","","","","html-slider-response","57","1062656","0.0-17.0-0.13","2ceaea9e-daa3-4a04-924f-85cb92a5ef04","1000","
                  <p style=""text-align: center;"">₪18
                                                <br>50%</p>
                  <p id=""wtp"" style=""text-align:center; margin-top: 0px; margin-bottom: 0px; font-size: 40px"";>&ensp;</p>","-","viewing","0","10","2C,16C,22B,28A","","","","","","","","","","","","","","","","","","","",""
"","","","","","html-slider-response","58","1065415","0.0-17.0-1.13","2ceaea9e-daa3-4a04-924f-85cb92a5ef04","2758","
                  <p style=""text-align: center;"">₪18
                                                <br>50%</p>
                  <p id=""wtp"" style=""text-align:center; margin-top: 0px; margin-bottom: 0px; font-size: 40px"";>מוכנים לשלם: <span id=""c_p_y""></span></p>","3","evaluation","31","10","2C,16C,22B,28A","50","18","3","","","","","","","","","","","","","","","","",""
"","","","","","html-keyboard-response","59","1066208","0.0-17.0-2.13","2ceaea9e-daa3-4a04-924f-85cb92a5ef04","null","<p style=""text-align: center;"">+</p>","null","fixation","","","","","","","","","","","","","","","","","","","","","","",""
"","","","","","html-slider-response","60","1067211","0.0-17.0-0.14","2ceaea9e-daa3-4a04-924f-85cb92a5ef04","1000","
                  <p style=""text-align: center;"">₪11
                                                <br>25%</p>
                  <p id=""wtp"" style=""text-align:center; margin-top: 0px; margin-bottom: 0px; font-size: 40px"";>&ensp;</p>","-","viewing","0","5","12A,27B,28B,30B","","","","","","","","","","","","","","","","","","","",""
"","","","","","html-slider-response","61","1068262","0.0-17.0-1.14","2ceaea9e-daa3-4a04-924f-85cb92a5ef04","1051","
                  <p style=""text-align: center;"">₪11
                                                <br>25%</p>
                  <p id=""wtp"" style=""text-align:center; margin-top: 0px; margin-bottom: 0px; font-size: 40px"";>מוכנים לשלם: <span id=""c_p_y""></span></p>","2","evaluation","72","5","12A,27B,28B,30B","25","11","2","","","","","","","","","","","","","","","","",""
"","","","","","html-keyboard-response","62","1069482","0.0-17.0-2.14","2ceaea9e-daa3-4a04-924f-85cb92a5ef04","null","<p style=""text-align: center;"">+</p>","null","fixation","","","","","","","","","","","","","","","","","","","","","","",""
"","","","","","html-slider-response","63","1070497","0.0-17.0-0.15","2ceaea9e-daa3-4a04-924f-85cb92a5ef04","1000","
                  <p style=""text-align: center;"">₪64
                                                <br>50%</p>
                  <p id=""wtp"" style=""text-align:center; margin-top: 0px; margin-bottom: 0px; font-size: 40px"";>&ensp;</p>","-","viewing","0","25","1B,3B,4A","","","","","","","","","","","","","","","","","","","",""
"","","","","","html-slider-response","64","1073422","0.0-17.0-1.15","2ceaea9e-daa3-4a04-924f-85cb92a5ef04","2925","
                  <p style=""text-align: center;"">₪64
                                                <br>50%</p>
                  <p id=""wtp"" style=""text-align:center; margin-top: 0px; margin-bottom: 0px; font-size: 40px"";>מוכנים לשלם: <span id=""c_p_y""></span></p>","24","evaluation","44","25","1B,3B,4A","50","64","24","","","","","","","","","","","","","","","","",""
"","","","","","html-keyboard-response","65","1074189","0.0-17.0-2.15","2ceaea9e-daa3-4a04-924f-85cb92a5ef04","null","<p style=""text-align: center;"">+</p>","null","fixation","","","","","","","","","","","","","","","","","","","","","","",""
"","","","","","html-slider-response","66","1075201","0.0-17.0-0.16","2ceaea9e-daa3-4a04-924f-85cb92a5ef04","1000","
                  <p style=""text-align: center;"">₪4
                                                <br>25%</p>
                  <p id=""wtp"" style=""text-align:center; margin-top: 0px; margin-bottom: 0px; font-size: 40px"";>&ensp;</p>","-","viewing","0","1","6C,29B,30C","","","","","","","","","","","","","","","","","","","",""
"","","","","","html-slider-response","67","1078238","0.0-17.0-1.16","2ceaea9e-daa3-4a04-924f-85cb92a5ef04","3036","
                  <p style=""text-align: center;"">₪4
                                                <br>25%</p>
                  <p id=""wtp"" style=""text-align:center; margin-top: 0px; margin-bottom: 0px; font-size: 40px"";>מוכנים לשלם: <span id=""c_p_y""></span></p>","0","evaluation","26","1","6C,29B,30C","25","4","0","","","","","","","","","","","","","","","","",""
"","","","","","html-keyboard-response","68","1079583","0.0-17.0-2.16","2ceaea9e-daa3-4a04-924f-85cb92a5ef04","null","<p style=""text-align: center;"">+</p>","null","fixation","","","","","","","","","","","","","","","","","","","","","","",""
"","","","","","html-slider-response","69","1080590","0.0-17.0-0.17","2ceaea9e-daa3-4a04-924f-85cb92a5ef04","1000","
                  <p style=""text-align: center;"">₪58
                                                <br>30%</p>
                  <p id=""wtp"" style=""text-align:center; margin-top: 0px; margin-bottom: 0px; font-size: 40px"";>&ensp;</p>","-","viewing","0","19","13C,30A","","","","","","","","","","","","","","","","","","","",""
"","","","","","html-slider-response","70","1084190","0.0-17.0-1.17","2ceaea9e-daa3-4a04-924f-85cb92a5ef04","3600","
                  <p style=""text-align: center;"">₪58
                                                <br>30%</p>
                  <p id=""wtp"" style=""text-align:center; margin-top: 0px; margin-bottom: 0px; font-size: 40px"";>מוכנים לשלם: <span id=""c_p_y""></span></p>","20","evaluation","25","19","13C,30A","30","58","20","","","","","","","","","","","","","","","","",""
"","","","","","html-keyboard-response","71","1084858","0.0-17.0-2.17","2ceaea9e-daa3-4a04-924f-85cb92a5ef04","null","<p style=""text-align: center;"">+</p>","null","fixation","","","","","","","","","","","","","","","","","","","","","","",""
"","","","","","html-slider-response","72","1085870","0.0-17.0-0.18","2ceaea9e-daa3-4a04-924f-85cb92a5ef04","1000","
                  <p style=""text-align: center;"">₪71
                                                <br>55%</p>
                  <p id=""wtp"" style=""text-align:center; margin-top: 0px; margin-bottom: 0px; font-size: 40px"";>&ensp;</p>","-","viewing","0","27","5B,18A","","","","","","","","","","","","","","","","","","","",""
"","","","","","html-slider-response","73","1088814","0.0-17.0-1.18","2ceaea9e-daa3-4a04-924f-85cb92a5ef04","2943","
                  <p style=""text-align: center;"">₪71
                                                <br>55%</p>
                  <p id=""wtp"" style=""text-align:center; margin-top: 0px; margin-bottom: 0px; font-size: 40px"";>מוכנים לשלם: <span id=""c_p_y""></span></p>","25","evaluation","30","27","5B,18A","55","71","25","","","","","","","","","","","","","","","","",""
"","","","","","html-keyboard-response","74","1089865","0.0-17.0-2.18","2ceaea9e-daa3-4a04-924f-85cb92a5ef04","null","<p style=""text-align: center;"">+</p>","null","fixation","","","","","","","","","","","","","","","","","","","","","","",""
"","","","","","html-slider-response","75","1090878","0.0-17.0-0.19","2ceaea9e-daa3-4a04-924f-85cb92a5ef04","1000","
                  <p style=""text-align: center;"">₪61
                                                <br>55%</p>
                  <p id=""wtp"" style=""text-align:center; margin-top: 0px; margin-bottom: 0px; font-size: 40px"";>&ensp;</p>","-","viewing","0","23","7B,26B","","","","","","","","","","","","","","","","","","","",""
"","","","","","html-slider-response","76","1094142","0.0-17.0-1.19","2ceaea9e-daa3-4a04-924f-85cb92a5ef04","3263","
                  <p style=""text-align: center;"">₪61
                                                <br>55%</p>
                  <p id=""wtp"" style=""text-align:center; margin-top: 0px; margin-bottom: 0px; font-size: 40px"";>מוכנים לשלם: <span id=""c_p_y""></span></p>","26","evaluation","18","23","7B,26B","55","61","26","","","","","","","","","","","","","","","","",""
"","","","","","html-keyboard-response","77","1095422","0.0-17.0-2.19","2ceaea9e-daa3-4a04-924f-85cb92a5ef04","null","<p style=""text-align: center;"">+</p>","null","fixation","","","","","","","","","","","","","","","","","","","","","","",""
"","","","","","html-slider-response","78","1096439","0.0-17.0-0.20","2ceaea9e-daa3-4a04-924f-85cb92a5ef04","1000","
                  <p style=""text-align: center;"">₪76
                                                <br>65%</p>
                  <p id=""wtp"" style=""text-align:center; margin-top: 0px; margin-bottom: 0px; font-size: 40px"";>&ensp;</p>","-","viewing","0","29","8C,19A,24B","","","","","","","","","","","","","","","","","","","",""
"","","","","","html-slider-response","79","1099174","0.0-17.0-1.20","2ceaea9e-daa3-4a04-924f-85cb92a5ef04","2734","
                  <p style=""text-align: center;"">₪76
                                                <br>65%</p>
                  <p id=""wtp"" style=""text-align:center; margin-top: 0px; margin-bottom: 0px; font-size: 40px"";>מוכנים לשלם: <span id=""c_p_y""></span></p>","39","evaluation","44","29","8C,19A,24B","65","76","39","","","","","","","","","","","","","","","","",""
"","","","","","html-keyboard-response","80","1100571","0.0-17.0-2.20","2ceaea9e-daa3-4a04-924f-85cb92a5ef04","null","<p style=""text-align: center;"">+</p>","null","fixation","","","","","","","","","","","","","","","","","","","","","","",""
"","","","","","html-slider-response","81","1101587","0.0-17.0-0.21","2ceaea9e-daa3-4a04-924f-85cb92a5ef04","1000","
                  <p style=""text-align: center;"">₪4
                                                <br>75%</p>
                  <p id=""wtp"" style=""text-align:center; margin-top: 0px; margin-bottom: 0px; font-size: 40px"";>&ensp;</p>","-","viewing","0","3","12B,20B,23B,27C,29C","","","","","","","","","","","","","","","","","","","",""
"","","","","","html-slider-response","82","1102351","0.0-17.0-1.21","2ceaea9e-daa3-4a04-924f-85cb92a5ef04","762","
                  <p style=""text-align: center;"">₪4
                                                <br>75%</p>
                  <p id=""wtp"" style=""text-align:center; margin-top: 0px; margin-bottom: 0px; font-size: 40px"";>מוכנים לשלם: <span id=""c_p_y""></span></p>","0","evaluation","70","3","12B,20B,23B,27C,29C","75","4","0","","","","","","","","","","","","","","","","",""
"","","","","","html-keyboard-response","83","1103376","0.0-17.0-2.21","2ceaea9e-daa3-4a04-924f-85cb92a5ef04","null","<p style=""text-align: center;"">+</p>","null","fixation","","","","","","","","","","","","","","","","","","","","","","",""
"","","","","","html-slider-response","84","1104378","0.0-17.0-0.22","2ceaea9e-daa3-4a04-924f-85cb92a5ef04","1000","
                  <p style=""text-align: center;"">₪61
                                                <br>45%</p>
                  <p id=""wtp"" style=""text-align:center; margin-top: 0px; margin-bottom: 0px; font-size: 40px"";>&ensp;</p>","-","viewing","0","22","10A,11A","","","","","","","","","","","","","","","","","","","",""
"","","","","","html-slider-response","85","1108086","0.0-17.0-1.22","2ceaea9e-daa3-4a04-924f-85cb92a5ef04","3707","
                  <p style=""text-align: center;"">₪61
                                                <br>45%</p>
                  <p id=""wtp"" style=""text-align:center; margin-top: 0px; margin-bottom: 0px; font-size: 40px"";>מוכנים לשלם: <span id=""c_p_y""></span></p>","23","evaluation","36","22","10A,11A","45","61","23","","","","","","","","","","","","","","","","",""
"","","","","","html-keyboard-response","86","1109211","0.0-17.0-2.22","2ceaea9e-daa3-4a04-924f-85cb92a5ef04","null","<p style=""text-align: center;"">+</p>","null","fixation","","","","","","","","","","","","","","","","","","","","","","",""
"","","","","","html-slider-response","87","1110215","0.0-17.0-0.23","2ceaea9e-daa3-4a04-924f-85cb92a5ef04","1000","
                  <p style=""text-align: center;"">₪79
                                                <br>65%</p>
                  <p id=""wtp"" style=""text-align:center; margin-top: 0px; margin-bottom: 0px; font-size: 40px"";>&ensp;</p>","-","viewing","0","31","8A","","","","","","","","","","","","","","","","","","","",""
"","","","","","html-slider-response","88","1114228","0.0-17.0-1.23","2ceaea9e-daa3-4a04-924f-85cb92a5ef04","null","
                  <p style=""text-align: center;"">₪79
                                                <br>65%</p>
                  <p id=""wtp"" style=""text-align:center; margin-top: 0px; margin-bottom: 0px; font-size: 40px"";>מוכנים לשלם: <span id=""c_p_y""></span></p>","null","evaluation","1","31","8A","65","79","25","","","","","","","","","","","","","","","","",""
"","","","","","html-keyboard-response","89","1115220","0.0-17.0-2.23","2ceaea9e-daa3-4a04-924f-85cb92a5ef04","null","<p style=""text-align: center;"">+</p>","null","fixation","","","","","","","","","","","","","","","","","","","","","","",""
"","","","","","html-slider-response","90","1116225","0.0-17.0-0.24","2ceaea9e-daa3-4a04-924f-85cb92a5ef04","1000","
                  <p style=""text-align: center;"">₪4
                                                <br>50%</p>
                  <p id=""wtp"" style=""text-align:center; margin-top: 0px; margin-bottom: 0px; font-size: 40px"";>&ensp;</p>","-","viewing","0","2","4C,17B","","","","","","","","","","","","","","","","","","","",""
"","","","","","html-slider-response","91","1117310","0.0-17.0-1.24","2ceaea9e-daa3-4a04-924f-85cb92a5ef04","1084","
                  <p style=""text-align: center;"">₪4
                                                <br>50%</p>
                  <p id=""wtp"" style=""text-align:center; margin-top: 0px; margin-bottom: 0px; font-size: 40px"";>מוכנים לשלם: <span id=""c_p_y""></span></p>","0","evaluation","40","2","4C,17B","50","4","0","","","","","","","","","","","","","","","","",""
"","","","","","html-keyboard-response","92","1118543","0.0-17.0-2.24","2ceaea9e-daa3-4a04-924f-85cb92a5ef04","null","<p style=""text-align: center;"">+</p>","null","fixation","","","","","","","","","","","","","","","","","","","","","","",""
"","","","","","html-slider-response","93","1119550","0.0-17.0-0.25","2ceaea9e-daa3-4a04-924f-85cb92a5ef04","1000","
                  <p style=""text-align: center;"">₪39
                                                <br>65%</p>
                  <p id=""wtp"" style=""text-align:center; margin-top: 0px; margin-bottom: 0px; font-size: 40px"";>&ensp;</p>","-","viewing","0","16","1A,15A,26C","","","","","","","","","","","","","","","","","","","",""
"","","","","","html-slider-response","94","1122022","0.0-17.0-1.25","2ceaea9e-daa3-4a04-924f-85cb92a5ef04","2471","
                  <p style=""text-align: center;"">₪39
                                                <br>65%</p>
                  <p id=""wtp"" style=""text-align:center; margin-top: 0px; margin-bottom: 0px; font-size: 40px"";>מוכנים לשלם: <span id=""c_p_y""></span></p>","20","evaluation","33","16","1A,15A,26C","65","39","20","","","","","","","","","","","","","","","","",""
"","","","","","html-keyboard-response","95","1122658","0.0-17.0-2.25","2ceaea9e-daa3-4a04-924f-85cb92a5ef04","null","<p style=""text-align: center;"">+</p>","null","fixation","","","","","","","","","","","","","","","","","","","","","","",""
"","","","","","html-slider-response","96","1123667","0.0-17.0-0.26","2ceaea9e-daa3-4a04-924f-85cb92a5ef04","1000","
                  <p style=""text-align: center;"">₪39
                                                <br>60%</p>
                  <p id=""wtp"" style=""text-align:center; margin-top: 0px; margin-bottom: 0px; font-size: 40px"";>&ensp;</p>","-","viewing","0","15","9C,25B","","","","","","","","","","","","","","","","","","","",""
"","","","","","html-slider-response","97","1124990","0.0-17.0-1.26","2ceaea9e-daa3-4a04-924f-85cb92a5ef04","1321","
                  <p style=""text-align: center;"">₪39
                                                <br>60%</p>
                  <p id=""wtp"" style=""text-align:center; margin-top: 0px; margin-bottom: 0px; font-size: 40px"";>מוכנים לשלם: <span id=""c_p_y""></span></p>","10","evaluation","77","15","9C,25B","60","39","10","","","","","","","","","","","","","","","","",""
"","","","","","html-keyboard-response","98","1125867","0.0-17.0-2.26","2ceaea9e-daa3-4a04-924f-85cb92a5ef04","null","<p style=""text-align: center;"">+</p>","null","fixation","","","","","","","","","","","","","","","","","","","","","","",""
"","","","","","html-slider-response","99","1126871","0.0-17.0-0.27","2ceaea9e-daa3-4a04-924f-85cb92a5ef04","1000","
                  <p style=""text-align: center;"">₪16
                                                <br>20%</p>
                  <p id=""wtp"" style=""text-align:center; margin-top: 0px; margin-bottom: 0px; font-size: 40px"";>&ensp;</p>","-","viewing","0","8","14C,17A,20C,27A","","","","","","","","","","","","","","","","","","","",""
"","","","","","html-slider-response","100","1128895","0.0-17.0-1.27","2ceaea9e-daa3-4a04-924f-85cb92a5ef04","2023","
                  <p style=""text-align: center;"">₪16
                                                <br>20%</p>
                  <p id=""wtp"" style=""text-align:center; margin-top: 0px; margin-bottom: 0px; font-size: 40px"";>מוכנים לשלם: <span id=""c_p_y""></span></p>","2","evaluation","6","8","14C,17A,20C,27A","20","16","3","","","","","","","","","","","","","","","","",""
"","","","","","html-keyboard-response","101","1130112","0.0-17.0-2.27","2ceaea9e-daa3-4a04-924f-85cb92a5ef04","null","<p style=""text-align: center;"">+</p>","null","fixation","","","","","","","","","","","","","","","","","","","","","","",""
"","","","","","html-slider-response","102","1131118","0.0-17.0-0.28","2ceaea9e-daa3-4a04-924f-85cb92a5ef04","1000","
                  <p style=""text-align: center;"">₪36
                                                <br>70%</p>
                  <p id=""wtp"" style=""text-align:center; margin-top: 0px; margin-bottom: 0px; font-size: 40px"";>&ensp;</p>","-","viewing","0","13","3A,5C,10B","","","","","","","","","","","","","","","","","","","",""
"","","","","","html-slider-response","103","1132511","0.0-17.0-1.28","2ceaea9e-daa3-4a04-924f-85cb92a5ef04","1392","
                  <p style=""text-align: center;"">₪36
                                                <br>70%</p>
                  <p id=""wtp"" style=""text-align:center; margin-top: 0px; margin-bottom: 0px; font-size: 40px"";>מוכנים לשלם: <span id=""c_p_y""></span></p>","4","evaluation","65","13","3A,5C,10B","70","36","4","","","","","","","","","","","","","","","","",""
"","","","","","html-keyboard-response","104","1133808","0.0-17.0-2.28","2ceaea9e-daa3-4a04-924f-85cb92a5ef04","null","<p style=""text-align: center;"">+</p>","null","fixation","","","","","","","","","","","","","","","","","","","","","","",""
"","","","","","html-slider-response","105","1134812","0.0-17.0-0.29","2ceaea9e-daa3-4a04-924f-85cb92a5ef04","1000","
                  <p style=""text-align: center;"">₪58
                                                <br>40%</p>
                  <p id=""wtp"" style=""text-align:center; margin-top: 0px; margin-bottom: 0px; font-size: 40px"";>&ensp;</p>","-","viewing","0","20","10C,13A,19C,21B","","","","","","","","","","","","","","","","","","","",""
"","","","","","html-slider-response","106","1137366","0.0-17.0-1.29","2ceaea9e-daa3-4a04-924f-85cb92a5ef04","2553","
                  <p style=""text-align: center;"">₪58
                                                <br>40%</p>
                  <p id=""wtp"" style=""text-align:center; margin-top: 0px; margin-bottom: 0px; font-size: 40px"";>מוכנים לשלם: <span id=""c_p_y""></span></p>","15","evaluation","13","20","10C,13A,19C,21B","40","58","15","","","","","","","","","","","","","","","","",""
"","","","","","html-keyboard-response","107","1138665","0.0-17.0-2.29","2ceaea9e-daa3-4a04-924f-85cb92a5ef04","null","<p style=""text-align: center;"">+</p>","null","fixation","","","","","","","","","","","","","","","","","","","","","","",""
"","","","","","html-slider-response","108","1139667","0.0-17.0-0.30","2ceaea9e-daa3-4a04-924f-85cb92a5ef04","1000","
                  <p style=""text-align: center;"">₪58
                                                <br>45%</p>
                  <p id=""wtp"" style=""text-align:center; margin-top: 0px; margin-bottom: 0px; font-size: 40px"";>&ensp;</p>","-","viewing","0","21","11C,18C,25A","","","","","","","","","","","","","","","","","","","",""
"","","","","","html-slider-response","109","1141511","0.0-17.0-1.30","2ceaea9e-daa3-4a04-924f-85cb92a5ef04","1842","
                  <p style=""text-align: center;"">₪58
                                                <br>45%</p>
                  <p id=""wtp"" style=""text-align:center; margin-top: 0px; margin-bottom: 0px; font-size: 40px"";>מוכנים לשלם: <span id=""c_p_y""></span></p>","18","evaluation","35","21","11C,18C,25A","45","58","19","","","","","","","","","","","","","","","","",""
"","","","","","html-keyboard-response","110","1142925","0.0-17.0-2.30","2ceaea9e-daa3-4a04-924f-85cb92a5ef04","null","<p style=""text-align: center;"">+</p>","null","fixation","","","","","","","","","","","","","","","","","","","","","","",""
"","","","","","html-keyboard-response","111","1143937","0.0-18.0","2ceaea9e-daa3-4a04-924f-85cb92a5ef04","null","<p style=""text-align: center;"">+</p>","null","fixation","","","","","","","","","","","","","","","","","","","","","","",""
"","","","","","html-keyboard-response","112","1149887","0.0-19.0","2ceaea9e-daa3-4a04-924f-85cb92a5ef04","null","<p>הפסקה.
          <br>לחצו כדי להמשיך.</p>","1","scan_wait","","","","","","","","","","","","","","","","","","","","","","",""
"","","","","","html-keyboard-response","113","1150888","0.0-20.0","2ceaea9e-daa3-4a04-924f-85cb92a5ef04","null","<p style=""text-align: center;"">+</p>","null","fixation","","","","","","","","","","","","","","","","","","","","","","",""
"","","","","","html-slider-response","114","1151893","0.0-21.0-0.0","2ceaea9e-daa3-4a04-924f-85cb92a5ef04","1000","
                  <p style=""text-align: center;"">₪58
                                                <br>45%</p>
                  <p id=""wtp"" style=""text-align:center; margin-top: 0px; margin-bottom: 0px; font-size: 40px"";>&ensp;</p>","-","viewing","0","21","11C,18C,25A","","","","","","","","","","","","","","","","","","","",""
"","","","","","html-slider-response","115","1153647","0.0-21.0-1.0","2ceaea9e-daa3-4a04-924f-85cb92a5ef04","1753","
                  <p style=""text-align: center;"">₪58
                                                <br>45%</p>
                  <p id=""wtp"" style=""text-align:center; margin-top: 0px; margin-bottom: 0px; font-size: 40px"";>מוכנים לשלם: <span id=""c_p_y""></span></p>","15","evaluation","11","21","11C,18C,25A","45","58","15","","","","","","","","","","","","","","","","",""
"","","","","","html-keyboard-response","116","1154921","0.0-21.0-2.0","2ceaea9e-daa3-4a04-924f-85cb92a5ef04","null","<p style=""text-align: center;"">+</p>","null","fixation","","","","","","","","","","","","","","","","","","","","","","",""
"","","","","","html-slider-response","117","1155927","0.0-21.0-0.1","2ceaea9e-daa3-4a04-924f-85cb92a5ef04","1000","
                  <p style=""text-align: center;"">₪71
                                                <br>55%</p>
                  <p id=""wtp"" style=""text-align:center; margin-top: 0px; margin-bottom: 0px; font-size: 40px"";>&ensp;</p>","-","viewing","0","27","5B,18A","","","","","","","","","","","","","","","","","","","",""
"","","","","","html-slider-response","118","1157919","0.0-21.0-1.1","2ceaea9e-daa3-4a04-924f-85cb92a5ef04","1990","
                  <p style=""text-align: center;"">₪71
                                                <br>55%</p>
                  <p id=""wtp"" style=""text-align:center; margin-top: 0px; margin-bottom: 0px; font-size: 40px"";>מוכנים לשלם: <span id=""c_p_y""></span></p>","26","evaluation","44","27","5B,18A","55","71","26","","","","","","","","","","","","","","","","",""
"","","","","","html-keyboard-response","119","1158885","0.0-21.0-2.1","2ceaea9e-daa3-4a04-924f-85cb92a5ef04","null","<p style=""text-align: center;"">+</p>","null","fixation","","","","","","","","","","","","","","","","","","","","","","",""
"","","","","","html-slider-response","120","1159887","0.0-21.0-0.2","2ceaea9e-daa3-4a04-924f-85cb92a5ef04","1000","
                  <p style=""text-align: center;"">₪4
                                                <br>75%</p>
                  <p id=""wtp"" style=""text-align:center; margin-top: 0px; margin-bottom: 0px; font-size: 40px"";>&ensp;</p>","-","viewing","0","3","12B,20B,23B,27C,29C","","","","","","","","","","","","","","","","","","","",""
"","","","","","html-slider-response","121","1160687","0.0-21.0-1.2","2ceaea9e-daa3-4a04-924f-85cb92a5ef04","798","
                  <p style=""text-align: center;"">₪4
                                                <br>75%</p>
                  <p id=""wtp"" style=""text-align:center; margin-top: 0px; margin-bottom: 0px; font-size: 40px"";>מוכנים לשלם: <span id=""c_p_y""></span></p>","0","evaluation","54","3","12B,20B,23B,27C,29C","75","4","0","","","","","","","","","","","","","","","","",""
"","","","","","html-keyboard-response","122","1161678","0.0-21.0-2.2","2ceaea9e-daa3-4a04-924f-85cb92a5ef04","null","<p style=""text-align: center;"">+</p>","null","fixation","","","","","","","","","","","","","","","","","","","","","","",""
"","","","","","html-slider-response","123","1162686","0.0-21.0-0.3","2ceaea9e-daa3-4a04-924f-85cb92a5ef04","1000","
                  <p style=""text-align: center;"">₪43
                                                <br>60%</p>
                  <p id=""wtp"" style=""text-align:center; margin-top: 0px; margin-bottom: 0px; font-size: 40px"";>&ensp;</p>","-","viewing","0","17","2A,7A,9A,15B","","","","","","","","","","","","","","","","","","","",""
"","","","","","html-slider-response","124","1165063","0.0-21.0-1.3","2ceaea9e-daa3-4a04-924f-85cb92a5ef04","2376","
                  <p style=""text-align: center;"">₪43
                                                <br>60%</p>
                  <p id=""wtp"" style=""text-align:center; margin-top: 0px; margin-bottom: 0px; font-size: 40px"";>מוכנים לשלם: <span id=""c_p_y""></span></p>","15","evaluation","53","17","2A,7A,9A,15B","60","43","15","","","","","","","","","","","","","","","","",""
"","","","","","html-keyboard-response","125","1165960","0.0-21.0-2.3","2ceaea9e-daa3-4a04-924f-85cb92a5ef04","null","<p style=""text-align: center;"">+</p>","null","fixation","","","","","","","","","","","","","","","","","","","","","","",""
"","","","","","html-slider-response","126","1166977","0.0-21.0-0.4","2ceaea9e-daa3-4a04-924f-85cb92a5ef04","1000","
                  <p style=""text-align: center;"">₪36
                                                <br>60%</p>
                  <p id=""wtp"" style=""text-align:center; margin-top: 0px; margin-bottom: 0px; font-size: 40px"";>&ensp;</p>","-","viewing","0","12","1C,7C,15C","","","","","","","","","","","","","","","","","","","",""
"","","","","","html-slider-response","127","1168399","0.0-21.0-1.4","2ceaea9e-daa3-4a04-924f-85cb92a5ef04","1421","
                  <p style=""text-align: center;"">₪36
                                                <br>60%</p>
                  <p id=""wtp"" style=""text-align:center; margin-top: 0px; margin-bottom: 0px; font-size: 40px"";>מוכנים לשלם: <span id=""c_p_y""></span></p>","14","evaluation","33","12","1C,7C,15C","60","36","14","","","","","","","","","","","","","","","","",""
"","","","","","html-keyboard-response","128","1169678","0.0-21.0-2.4","2ceaea9e-daa3-4a04-924f-85cb92a5ef04","null","<p style=""text-align: center;"">+</p>","null","fixation","","","","","","","","","","","","","","","","","","","","","","",""
"","","","","","html-slider-response","129","1170681","0.0-21.0-0.5","2ceaea9e-daa3-4a04-924f-85cb92a5ef04","1000","
                  <p style=""text-align: center;"">₪11
                                                <br>45%</p>
                  <p id=""wtp"" style=""text-align:center; margin-top: 0px; margin-bottom: 0px; font-size: 40px"";>&ensp;</p>","-","viewing","0","6","14B,21C,25C","","","","","","","","","","","","","","","","","","","",""
"","","","","","html-slider-response","130","1173766","0.0-21.0-1.5","2ceaea9e-daa3-4a04-924f-85cb92a5ef04","3085","
                  <p style=""text-align: center;"">₪11
                                                <br>45%</p>
                  <p id=""wtp"" style=""text-align:center; margin-top: 0px; margin-bottom: 0px; font-size: 40px"";>מוכנים לשלם: <span id=""c_p_y""></span></p>","1","evaluation","41","6","14B,21C,25C","45","11","1","","","","","","","","","","","","","","","","",""
"","","","","","html-keyboard-response","131","1174849","0.0-21.0-2.5","2ceaea9e-daa3-4a04-924f-85cb92a5ef04","null","<p style=""text-align: center;"">+</p>","null","fixation","","","","","","","","","","","","","","","","","","","","","","",""
"","","","","","html-slider-response","132","1175863","0.0-21.0-0.6","2ceaea9e-daa3-4a04-924f-85cb92a5ef04","1000","
                  <p style=""text-align: center;"">₪76
                                                <br>65%</p>
                  <p id=""wtp"" style=""text-align:center; margin-top: 0px; margin-bottom: 0px; font-size: 40px"";>&ensp;</p>","-","viewing","0","29","8C,19A,24B","","","","","","","","","","","","","","","","","","","",""
"","","","","","html-slider-response","133","1178863","0.0-21.0-1.6","2ceaea9e-daa3-4a04-924f-85cb92a5ef04","2999","
                  <p style=""text-align: center;"">₪76
                                                <br>65%</p>
                  <p id=""wtp"" style=""text-align:center; margin-top: 0px; margin-bottom: 0px; font-size: 40px"";>מוכנים לשלם: <span id=""c_p_y""></span></p>","23","evaluation","3","29","8C,19A,24B","65","76","23","","","","","","","","","","","","","","","","",""
"","","","","","html-keyboard-response","134","1179591","0.0-21.0-2.6","2ceaea9e-daa3-4a04-924f-85cb92a5ef04","null","<p style=""text-align: center;"">+</p>","null","fixation","","","","","","","","","","","","","","","","","","","","","","",""
"","","","","","html-slider-response","135","1180606","0.0-21.0-0.7","2ceaea9e-daa3-4a04-924f-85cb92a5ef04","1000","
                  <p style=""text-align: center;"">₪4
                                                <br>50%</p>
                  <p id=""wtp"" style=""text-align:center; margin-top: 0px; margin-bottom: 0px; font-size: 40px"";>&ensp;</p>","-","viewing","0","2","4C,17B","","","","","","","","","","","","","","","","","","","",""
"","","","","","html-slider-response","136","1181103","0.0-21.0-1.7","2ceaea9e-daa3-4a04-924f-85cb92a5ef04","495","
                  <p style=""text-align: center;"">₪4
                                                <br>50%</p>
                  <p id=""wtp"" style=""text-align:center; margin-top: 0px; margin-bottom: 0px; font-size: 40px"";>מוכנים לשלם: <span id=""c_p_y""></span></p>","0","evaluation","23","2","4C,17B","50","4","0","","","","","","","","","","","","","","","","",""
"","","","","","html-keyboard-response","137","1181607","0.0-21.0-2.7","2ceaea9e-daa3-4a04-924f-85cb92a5ef04","null","<p style=""text-align: center;"">+</p>","null","fixation","","","","","","","","","","","","","","","","","","","","","","",""
"","","","","","html-slider-response","138","1182614","0.0-21.0-0.8","2ceaea9e-daa3-4a04-924f-85cb92a5ef04","1000","
                  <p style=""text-align: center;"">₪11
                                                <br>25%</p>
                  <p id=""wtp"" style=""text-align:center; margin-top: 0px; margin-bottom: 0px; font-size: 40px"";>&ensp;</p>","-","viewing","0","5","12A,27B,28B,30B","","","","","","","","","","","","","","","","","","","",""
"","","","","","html-slider-response","139","1184335","0.0-21.0-1.8","2ceaea9e-daa3-4a04-924f-85cb92a5ef04","1720","
                  <p style=""text-align: center;"">₪11
                                                <br>25%</p>
                  <p id=""wtp"" style=""text-align:center; margin-top: 0px; margin-bottom: 0px; font-size: 40px"";>מוכנים לשלם: <span id=""c_p_y""></span></p>","1","evaluation","79","5","12A,27B,28B,30B","25","11","1","","","","","","","","","","","","","","","","",""
"","","","","","html-keyboard-response","140","1185736","0.0-21.0-2.8","2ceaea9e-daa3-4a04-924f-85cb92a5ef04","null","<p style=""text-align: center;"">+</p>","null","fixation","","","","","","","","","","","","","","","","","","","","","","",""
"","","","","","html-slider-response","141","1186747","0.0-21.0-0.9","2ceaea9e-daa3-4a04-924f-85cb92a5ef04","1000","
                  <p style=""text-align: center;"">₪79
                                                <br>40%</p>
                  <p id=""wtp"" style=""text-align:center; margin-top: 0px; margin-bottom: 0px; font-size: 40px"";>&ensp;</p>","-","viewing","0","30","9B","","","","","","","","","","","","","","","","","","","",""
"","","","","","html-slider-response","142","1189127","0.0-21.0-1.9","2ceaea9e-daa3-4a04-924f-85cb92a5ef04","2378","
                  <p style=""text-align: center;"">₪79
                                                <br>40%</p>
                  <p id=""wtp"" style=""text-align:center; margin-top: 0px; margin-bottom: 0px; font-size: 40px"";>מוכנים לשלם: <span id=""c_p_y""></span></p>","22","evaluation","66","30","9B","40","79","22","","","","","","","","","","","","","","","","",""
"","","","","","html-keyboard-response","143","1190065","0.0-21.0-2.9","2ceaea9e-daa3-4a04-924f-85cb92a5ef04","null","<p style=""text-align: center;"">+</p>","null","fixation","","","","","","","","","","","","","","","","","","","","","","",""
"","","","","","html-slider-response","144","1191081","0.0-21.0-0.10","2ceaea9e-daa3-4a04-924f-85cb92a5ef04","1000","
                  <p style=""text-align: center;"">₪39
                                                <br>60%</p>
                  <p id=""wtp"" style=""text-align:center; margin-top: 0px; margin-bottom: 0px; font-size: 40px"";>&ensp;</p>","-","viewing","0","15","9C,25B","","","","","","","","","","","","","","","","","","","",""
"","","","","","html-slider-response","145","1193655","0.0-21.0-1.10","2ceaea9e-daa3-4a04-924f-85cb92a5ef04","2573","
                  <p style=""text-align: center;"">₪39
                                                <br>60%</p>
                  <p id=""wtp"" style=""text-align:center; margin-top: 0px; margin-bottom: 0px; font-size: 40px"";>מוכנים לשלם: <span id=""c_p_y""></span></p>","12","evaluation","68","15","9C,25B","60","39","12","","","","","","","","","","","","","","","","",""
"","","","","","html-keyboard-response","146","1194740","0.0-21.0-2.10","2ceaea9e-daa3-4a04-924f-85cb92a5ef04","null","<p style=""text-align: center;"">+</p>","null","fixation","","","","","","","","","","","","","","","","","","","","","","",""
"","","","","","html-slider-response","147","1195756","0.0-21.0-0.11","2ceaea9e-daa3-4a04-924f-85cb92a5ef04","1000","
                  <p style=""text-align: center;"">₪64
                                                <br>50%</p>
                  <p id=""wtp"" style=""text-align:center; margin-top: 0px; margin-bottom: 0px; font-size: 40px"";>&ensp;</p>","-","viewing","0","25","1B,3B,4A","","","","","","","","","","","","","","","","","","","",""
"","","","","","html-slider-response","148","1198975","0.0-21.0-1.11","2ceaea9e-daa3-4a04-924f-85cb92a5ef04","3218","
                  <p style=""text-align: center;"">₪64
                                                <br>50%</p>
                  <p id=""wtp"" style=""text-align:center; margin-top: 0px; margin-bottom: 0px; font-size: 40px"";>מוכנים לשלם: <span id=""c_p_y""></span></p>","20","evaluation","26","25","1B,3B,4A","50","64","20","","","","","","","","","","","","","","","","",""
"","","","","","html-keyboard-response","149","1200202","0.0-21.0-2.11","2ceaea9e-daa3-4a04-924f-85cb92a5ef04","null","<p style=""text-align: center;"">+</p>","null","fixation","","","","","","","","","","","","","","","","","","","","","","",""
"","","","","","html-slider-response","150","1201209","0.0-21.0-0.12","2ceaea9e-daa3-4a04-924f-85cb92a5ef04","1000","
                  <p style=""text-align: center;"">₪36
                                                <br>30%</p>
                  <p id=""wtp"" style=""text-align:center; margin-top: 0px; margin-bottom: 0px; font-size: 40px"";>&ensp;</p>","-","viewing","0","11","3C,20A,22A","","","","","","","","","","","","","","","","","","","",""
"","","","","","html-slider-response","151","1203863","0.0-21.0-1.12","2ceaea9e-daa3-4a04-924f-85cb92a5ef04","2653","
                  <p style=""text-align: center;"">₪36
                                                <br>30%</p>
                  <p id=""wtp"" style=""text-align:center; margin-top: 0px; margin-bottom: 0px; font-size: 40px"";>מוכנים לשלם: <span id=""c_p_y""></span></p>","9","evaluation","5","11","3C,20A,22A","30","36","9","","","","","","","","","","","","","","","","",""
"","","","","","html-keyboard-response","152","1205247","0.0-21.0-2.12","2ceaea9e-daa3-4a04-924f-85cb92a5ef04","null","<p style=""text-align: center;"">+</p>","null","fixation","","","","","","","","","","","","","","","","","","","","","","",""
"","","","","","html-slider-response","153","1206250","0.0-21.0-0.13","2ceaea9e-daa3-4a04-924f-85cb92a5ef04","1000","
                  <p style=""text-align: center;"">₪16
                                                <br>20%</p>
                  <p id=""wtp"" style=""text-align:center; margin-top: 0px; margin-bottom: 0px; font-size: 40px"";>&ensp;</p>","-","viewing","0","8","14C,17A,20C,27A","","","","","","","","","","","","","","","","","","","",""
"","","","","","html-slider-response","154","1208287","0.0-21.0-1.13","2ceaea9e-daa3-4a04-924f-85cb92a5ef04","2036","
                  <p style=""text-align: center;"">₪16
                                                <br>20%</p>
                  <p id=""wtp"" style=""text-align:center; margin-top: 0px; margin-bottom: 0px; font-size: 40px"";>מוכנים לשלם: <span id=""c_p_y""></span></p>","4","evaluation","42","8","14C,17A,20C,27A","20","16","5","","","","","","","","","","","","","","","","",""
"","","","","","html-keyboard-response","155","1209428","0.0-21.0-2.13","2ceaea9e-daa3-4a04-924f-85cb92a5ef04","null","<p style=""text-align: center;"">+</p>","null","fixation","","","","","","","","","","","","","","","","","","","","","","",""
"","","","","","html-slider-response","156","1210436","0.0-21.0-0.14","2ceaea9e-daa3-4a04-924f-85cb92a5ef04","1000","
                  <p style=""text-align: center;"">₪61
                                                <br>55%</p>
                  <p id=""wtp"" style=""text-align:center; margin-top: 0px; margin-bottom: 0px; font-size: 40px"";>&ensp;</p>","-","viewing","0","23","7B,26B","","","","","","","","","","","","","","","","","","","",""
"","","","","","html-slider-response","157","1213039","0.0-21.0-1.14","2ceaea9e-daa3-4a04-924f-85cb92a5ef04","2602","
                  <p style=""text-align: center;"">₪61
                                                <br>55%</p>
                  <p id=""wtp"" style=""text-align:center; margin-top: 0px; margin-bottom: 0px; font-size: 40px"";>מוכנים לשלם: <span id=""c_p_y""></span></p>","14","evaluation","51","23","7B,26B","55","61","15","","","","","","","","","","","","","","","","",""
"","","","","","html-keyboard-response","158","1213839","0.0-21.0-2.14","2ceaea9e-daa3-4a04-924f-85cb92a5ef04","null","<p style=""text-align: center;"">+</p>","null","fixation","","","","","","","","","","","","","","","","","","","","","","",""
"","","","","","html-slider-response","159","1214850","0.0-21.0-0.15","2ceaea9e-daa3-4a04-924f-85cb92a5ef04","1000","
                  <p style=""text-align: center;"">₪39
                                                <br>65%</p>
                  <p id=""wtp"" style=""text-align:center; margin-top: 0px; margin-bottom: 0px; font-size: 40px"";>&ensp;</p>","-","viewing","0","16","1A,15A,26C","","","","","","","","","","","","","","","","","","","",""
"","","","","","html-slider-response","160","1218271","0.0-21.0-1.15","2ceaea9e-daa3-4a04-924f-85cb92a5ef04","3420","
                  <p style=""text-align: center;"">₪39
                                                <br>65%</p>
                  <p id=""wtp"" style=""text-align:center; margin-top: 0px; margin-bottom: 0px; font-size: 40px"";>מוכנים לשלם: <span id=""c_p_y""></span></p>","9","evaluation","72","16","1A,15A,26C","65","39","9","","","","","","","","","","","","","","","","",""
"","","","","","html-keyboard-response","161","1219639","0.0-21.0-2.15","2ceaea9e-daa3-4a04-924f-85cb92a5ef04","null","<p style=""text-align: center;"">+</p>","null","fixation","","","","","","","","","","","","","","","","","","","","","","",""
"","","","","","html-slider-response","162","1220648","0.0-21.0-0.16","2ceaea9e-daa3-4a04-924f-85cb92a5ef04","1000","
                  <p style=""text-align: center;"">₪64
                                                <br>25%</p>
                  <p id=""wtp"" style=""text-align:center; margin-top: 0px; margin-bottom: 0px; font-size: 40px"";>&ensp;</p>","-","viewing","0","24","6A,21A","","","","","","","","","","","","","","","","","","","",""
"","","","","","html-slider-response","163","1222943","0.0-21.0-1.16","2ceaea9e-daa3-4a04-924f-85cb92a5ef04","2294","
                  <p style=""text-align: center;"">₪64
                                                <br>25%</p>
                  <p id=""wtp"" style=""text-align:center; margin-top: 0px; margin-bottom: 0px; font-size: 40px"";>מוכנים לשלם: <span id=""c_p_y""></span></p>","9","evaluation","13","24","6A,21A","25","64","10","","","","","","","","","","","","","","","","",""
"","","","","","html-keyboard-response","164","1223920","0.0-21.0-2.16","2ceaea9e-daa3-4a04-924f-85cb92a5ef04","null","<p style=""text-align: center;"">+</p>","null","fixation","","","","","","","","","","","","","","","","","","","","","","",""
"","","","","","html-slider-response","165","1224935","0.0-21.0-0.17","2ceaea9e-daa3-4a04-924f-85cb92a5ef04","1000","
                  <p style=""text-align: center;"">₪43
                                                <br>75%</p>
                  <p id=""wtp"" style=""text-align:center; margin-top: 0px; margin-bottom: 0px; font-size: 40px"";>&ensp;</p>","-","viewing","0","18","11B,19B,24A,26A","","","","","","","","","","","","","","","","","","","",""
"","","","","","html-slider-response","166","1228727","0.0-21.0-1.17","2ceaea9e-daa3-4a04-924f-85cb92a5ef04","3791","
                  <p style=""text-align: center;"">₪43
                                                <br>75%</p>
                  <p id=""wtp"" style=""text-align:center; margin-top: 0px; margin-bottom: 0px; font-size: 40px"";>מוכנים לשלם: <span id=""c_p_y""></span></p>","14","evaluation","50","18","11B,19B,24A,26A","75","43","15","","","","","","","","","","","","","","","","",""
"","","","","","html-keyboard-response","167","1230183","0.0-21.0-2.17","2ceaea9e-daa3-4a04-924f-85cb92a5ef04","null","<p style=""text-align: center;"">+</p>","null","fixation","","","","","","","","","","","","","","","","","","","","","","",""
"","","","","","html-slider-response","168","1231189","0.0-21.0-0.18","2ceaea9e-daa3-4a04-924f-85cb92a5ef04","1000","
                  <p style=""text-align: center;"">₪71
                                                <br>45%</p>
                  <p id=""wtp"" style=""text-align:center; margin-top: 0px; margin-bottom: 0px; font-size: 40px"";>&ensp;</p>","-","viewing","0","26","2B,16A","","","","","","","","","","","","","","","","","","","",""
"","","","","","html-slider-response","169","1235103","0.0-21.0-1.18","2ceaea9e-daa3-4a04-924f-85cb92a5ef04","3913","
                  <p style=""text-align: center;"">₪71
                                                <br>45%</p>
                  <p id=""wtp"" style=""text-align:center; margin-top: 0px; margin-bottom: 0px; font-size: 40px"";>מוכנים לשלם: <span id=""c_p_y""></span></p>","14","evaluation","65","26","2B,16A","45","71","14","","","","","","","","","","","","","","","","",""
"","","","","","html-keyboard-response","170","1235613","0.0-21.0-2.18","2ceaea9e-daa3-4a04-924f-85cb92a5ef04","null","<p style=""text-align: center;"">+</p>","null","fixation","","","","","","","","","","","","","","","","","","","","","","",""
"","","","","","html-slider-response","171","1236617","0.0-21.0-0.19","2ceaea9e-daa3-4a04-924f-85cb92a5ef04","1000","
                  <p style=""text-align: center;"">₪58
                                                <br>30%</p>
                  <p id=""wtp"" style=""text-align:center; margin-top: 0px; margin-bottom: 0px; font-size: 40px"";>&ensp;</p>","-","viewing","0","19","13C,30A","","","","","","","","","","","","","","","","","","","",""
"","","","","","html-slider-response","172","1238223","0.0-21.0-1.19","2ceaea9e-daa3-4a04-924f-85cb92a5ef04","1604","
                  <p style=""text-align: center;"">₪58
                                                <br>30%</p>
                  <p id=""wtp"" style=""text-align:center; margin-top: 0px; margin-bottom: 0px; font-size: 40px"";>מוכנים לשלם: <span id=""c_p_y""></span></p>","14","evaluation","4","19","13C,30A","30","58","15","","","","","","","","","","","","","","","","",""
"","","","","","html-keyboard-response","173","1239520","0.0-21.0-2.19","2ceaea9e-daa3-4a04-924f-85cb92a5ef04","null","<p style=""text-align: center;"">+</p>","null","fixation","","","","","","","","","","","","","","","","","","","","","","",""
"","","","","","html-slider-response","174","1240534","0.0-21.0-0.20","2ceaea9e-daa3-4a04-924f-85cb92a5ef04","1000","
                  <p style=""text-align: center;"">₪71
                                                <br>75%</p>
                  <p id=""wtp"" style=""text-align:center; margin-top: 0px; margin-bottom: 0px; font-size: 40px"";>&ensp;</p>","-","viewing","0","28","8B","","","","","","","","","","","","","","","","","","","",""
"","","","","","html-slider-response","175","1243687","0.0-21.0-1.20","2ceaea9e-daa3-4a04-924f-85cb92a5ef04","3152","
                  <p style=""text-align: center;"">₪71
                                                <br>75%</p>
                  <p id=""wtp"" style=""text-align:center; margin-top: 0px; margin-bottom: 0px; font-size: 40px"";>מוכנים לשלם: <span id=""c_p_y""></span></p>","25","evaluation","51","28","8B","75","71","25","","","","","","","","","","","","","","","","",""
"","","","","","html-keyboard-response","176","1244298","0.0-21.0-2.20","2ceaea9e-daa3-4a04-924f-85cb92a5ef04","null","<p style=""text-align: center;"">+</p>","null","fixation","","","","","","","","","","","","","","","","","","","","","","",""
"","","","","","html-slider-response","177","1245306","0.0-21.0-0.21","2ceaea9e-daa3-4a04-924f-85cb92a5ef04","1000","
                  <p style=""text-align: center;"">₪11
                                                <br>20%</p>
                  <p id=""wtp"" style=""text-align:center; margin-top: 0px; margin-bottom: 0px; font-size: 40px"";>&ensp;</p>","-","viewing","0","4","12C,17C,23C,28C","","","","","","","","","","","","","","","","","","","",""
"","","","","","html-slider-response","178","1247639","0.0-21.0-1.21","2ceaea9e-daa3-4a04-924f-85cb92a5ef04","2331","
                  <p style=""text-align: center;"">₪11
                                                <br>20%</p>
                  <p id=""wtp"" style=""text-align:center; margin-top: 0px; margin-bottom: 0px; font-size: 40px"";>מוכנים לשלם: <span id=""c_p_y""></span></p>","1","evaluation","20","4","12C,17C,23C,28C","20","11","1","","","","","","","","","","","","","","","","",""
"","","","","","html-keyboard-response","179","1248605","0.0-21.0-2.21","2ceaea9e-daa3-4a04-924f-85cb92a5ef04","null","<p style=""text-align: center;"">+</p>","null","fixation","","","","","","","","","","","","","","","","","","","","","","",""
"","","","","","html-slider-response","180","1249623","0.0-21.0-0.22","2ceaea9e-daa3-4a04-924f-85cb92a5ef04","1000","
                  <p style=""text-align: center;"">₪4
                                                <br>25%</p>
                  <p id=""wtp"" style=""text-align:center; margin-top: 0px; margin-bottom: 0px; font-size: 40px"";>&ensp;</p>","-","viewing","0","1","6C,29B,30C","","","","","","","","","","","","","","","","","","","",""
"","","","","","html-slider-response","181","1250256","0.0-21.0-1.22","2ceaea9e-daa3-4a04-924f-85cb92a5ef04","631","
                  <p style=""text-align: center;"">₪4
                                                <br>25%</p>
                  <p id=""wtp"" style=""text-align:center; margin-top: 0px; margin-bottom: 0px; font-size: 40px"";>מוכנים לשלם: <span id=""c_p_y""></span></p>","0","evaluation","13","1","6C,29B,30C","25","4","0","","","","","","","","","","","","","","","","",""
"","","","","","html-keyboard-response","182","1251312","0.0-21.0-2.22","2ceaea9e-daa3-4a04-924f-85cb92a5ef04","null","<p style=""text-align: center;"">+</p>","null","fixation","","","","","","","","","","","","","","","","","","","","","","",""
"","","","","","html-slider-response","183","1252314","0.0-21.0-0.23","2ceaea9e-daa3-4a04-924f-85cb92a5ef04","1000","
                  <p style=""text-align: center;"">₪36
                                                <br>70%</p>
                  <p id=""wtp"" style=""text-align:center; margin-top: 0px; margin-bottom: 0px; font-size: 40px"";>&ensp;</p>","-","viewing","0","13","3A,5C,10B","","","","","","","","","","","","","","","","","","","",""
"","","","","","html-slider-response","184","1256317","0.0-21.0-1.23","2ceaea9e-daa3-4a04-924f-85cb92a5ef04","null","
                  <p style=""text-align: center;"">₪36
                                                <br>70%</p>
                  <p id=""wtp"" style=""text-align:center; margin-top: 0px; margin-bottom: 0px; font-size: 40px"";>מוכנים לשלם: <span id=""c_p_y""></span></p>","null","evaluation","32","13","3A,5C,10B","70","36","4","","","","","","","","","","","","","","","","",""
"","","","","","html-keyboard-response","185","1257752","0.0-21.0-2.23","2ceaea9e-daa3-4a04-924f-85cb92a5ef04","null","<p style=""text-align: center;"">+</p>","null","fixation","","","","","","","","","","","","","","","","","","","","","","",""
"","","","","","html-slider-response","186","1258765","0.0-21.0-0.24","2ceaea9e-daa3-4a04-924f-85cb92a5ef04","1000","
                  <p style=""text-align: center;"">₪18
                                                <br>25%</p>
                  <p id=""wtp"" style=""text-align:center; margin-top: 0px; margin-bottom: 0px; font-size: 40px"";>&ensp;</p>","-","viewing","0","9","14A,23A","","","","","","","","","","","","","","","","","","","",""
"","","","","","html-slider-response","187","1260623","0.0-21.0-1.24","2ceaea9e-daa3-4a04-924f-85cb92a5ef04","1856","
                  <p style=""text-align: center;"">₪18
                                                <br>25%</p>
                  <p id=""wtp"" style=""text-align:center; margin-top: 0px; margin-bottom: 0px; font-size: 40px"";>מוכנים לשלם: <span id=""c_p_y""></span></p>","5","evaluation","63","9","14A,23A","25","18","6","","","","","","","","","","","","","","","","",""
"","","","","","html-keyboard-response","188","1261746","0.0-21.0-2.24","2ceaea9e-daa3-4a04-924f-85cb92a5ef04","null","<p style=""text-align: center;"">+</p>","null","fixation","","","","","","","","","","","","","","","","","","","","","","",""
"","","","","","html-slider-response","189","1262755","0.0-21.0-0.25","2ceaea9e-daa3-4a04-924f-85cb92a5ef04","1000","
                  <p style=""text-align: center;"">₪79
                                                <br>65%</p>
                  <p id=""wtp"" style=""text-align:center; margin-top: 0px; margin-bottom: 0px; font-size: 40px"";>&ensp;</p>","-","viewing","0","31","8A","","","","","","","","","","","","","","","","","","","",""
"","","","","","html-slider-response","190","1264968","0.0-21.0-1.25","2ceaea9e-daa3-4a04-924f-85cb92a5ef04","2212","
                  <p style=""text-align: center;"">₪79
                                                <br>65%</p>
                  <p id=""wtp"" style=""text-align:center; margin-top: 0px; margin-bottom: 0px; font-size: 40px"";>מוכנים לשלם: <span id=""c_p_y""></span></p>","26","evaluation","79","31","8A","65","79","26","","","","","","","","","","","","","","","","",""
"","","","","","html-keyboard-response","191","1265789","0.0-21.0-2.25","2ceaea9e-daa3-4a04-924f-85cb92a5ef04","null","<p style=""text-align: center;"">+</p>","null","fixation","","","","","","","","","","","","","","","","","","","","","","",""
"","","","","","html-slider-response","192","1266791","0.0-21.0-0.26","2ceaea9e-daa3-4a04-924f-85cb92a5ef04","1000","
                  <p style=""text-align: center;"">₪18
                                                <br>50%</p>
                  <p id=""wtp"" style=""text-align:center; margin-top: 0px; margin-bottom: 0px; font-size: 40px"";>&ensp;</p>","-","viewing","0","10","2C,16C,22B,28A","","","","","","","","","","","","","","","","","","","",""
"","","","","","html-slider-response","193","1269142","0.0-21.0-1.26","2ceaea9e-daa3-4a04-924f-85cb92a5ef04","2350","
                  <p style=""text-align: center;"">₪18
                                                <br>50%</p>
                  <p id=""wtp"" style=""text-align:center; margin-top: 0px; margin-bottom: 0px; font-size: 40px"";>מוכנים לשלם: <span id=""c_p_y""></span></p>","10","evaluation","59","10","2C,16C,22B,28A","50","18","10","","","","","","","","","","","","","","","","",""
"","","","","","html-keyboard-response","194","1269743","0.0-21.0-2.26","2ceaea9e-daa3-4a04-924f-85cb92a5ef04","null","<p style=""text-align: center;"">+</p>","null","fixation","","","","","","","","","","","","","","","","","","","","","","",""
"","","","","","html-slider-response","195","1270749","0.0-21.0-0.27","2ceaea9e-daa3-4a04-924f-85cb92a5ef04","1000","
                  <p style=""text-align: center;"">₪11
                                                <br>75%</p>
                  <p id=""wtp"" style=""text-align:center; margin-top: 0px; margin-bottom: 0px; font-size: 40px"";>&ensp;</p>","-","viewing","0","7","6B,18B,22C,24C,29A","","","","","","","","","","","","","","","","","","","",""
"","","","","","html-slider-response","196","1273175","0.0-21.0-1.27","2ceaea9e-daa3-4a04-924f-85cb92a5ef04","2424","
                  <p style=""text-align: center;"">₪11
                                                <br>75%</p>
                  <p id=""wtp"" style=""text-align:center; margin-top: 0px; margin-bottom: 0px; font-size: 40px"";>מוכנים לשלם: <span id=""c_p_y""></span></p>","3","evaluation","23","7","6B,18B,22C,24C,29A","75","11","3","","","","","","","","","","","","","","","","",""
"","","","","","html-keyboard-response","197","1273789","0.0-21.0-2.27","2ceaea9e-daa3-4a04-924f-85cb92a5ef04","null","<p style=""text-align: center;"">+</p>","null","fixation","","","","","","","","","","","","","","","","","","","","","","",""
"","","","","","html-slider-response","198","1274792","0.0-21.0-0.28","2ceaea9e-daa3-4a04-924f-85cb92a5ef04","1000","
                  <p style=""text-align: center;"">₪36
                                                <br>75%</p>
                  <p id=""wtp"" style=""text-align:center; margin-top: 0px; margin-bottom: 0px; font-size: 40px"";>&ensp;</p>","-","viewing","0","14","4B,5A,13B,16B","","","","","","","","","","","","","","","","","","","",""
"","","","","","html-slider-response","199","1277119","0.0-21.0-1.28","2ceaea9e-daa3-4a04-924f-85cb92a5ef04","2325","
                  <p style=""text-align: center;"">₪36
                                                <br>75%</p>
                  <p id=""wtp"" style=""text-align:center; margin-top: 0px; margin-bottom: 0px; font-size: 40px"";>מוכנים לשלם: <span id=""c_p_y""></span></p>","10","evaluation","24","14","4B,5A,13B,16B","75","36","10","","","","","","","","","","","","","","","","",""
"","","","","","html-keyboard-response","200","1277716","0.0-21.0-2.28","2ceaea9e-daa3-4a04-924f-85cb92a5ef04","null","<p style=""text-align: center;"">+</p>","null","fixation","","","","","","","","","","","","","","","","","","","","","","",""
"","","","","","html-slider-response","201","1278723","0.0-21.0-0.29","2ceaea9e-daa3-4a04-924f-85cb92a5ef04","1000","
                  <p style=""text-align: center;"">₪58
                                                <br>40%</p>
                  <p id=""wtp"" style=""text-align:center; margin-top: 0px; margin-bottom: 0px; font-size: 40px"";>&ensp;</p>","-","viewing","0","20","10C,13A,19C,21B","","","","","","","","","","","","","","","","","","","",""
"","","","","","html-slider-response","202","1281655","0.0-21.0-1.29","2ceaea9e-daa3-4a04-924f-85cb92a5ef04","2930","
                  <p style=""text-align: center;"">₪58
                                                <br>40%</p>
                  <p id=""wtp"" style=""text-align:center; margin-top: 0px; margin-bottom: 0px; font-size: 40px"";>מוכנים לשלם: <span id=""c_p_y""></span></p>","9","evaluation","59","20","10C,13A,19C,21B","40","58","10","","","","","","","","","","","","","","","","",""
"","","","","","html-keyboard-response","203","1282285","0.0-21.0-2.29","2ceaea9e-daa3-4a04-924f-85cb92a5ef04","null","<p style=""text-align: center;"">+</p>","null","fixation","","","","","","","","","","","","","","","","","","","","","","",""
"","","","","","html-slider-response","204","1283286","0.0-21.0-0.30","2ceaea9e-daa3-4a04-924f-85cb92a5ef04","1000","
                  <p style=""text-align: center;"">₪61
                                                <br>45%</p>
                  <p id=""wtp"" style=""text-align:center; margin-top: 0px; margin-bottom: 0px; font-size: 40px"";>&ensp;</p>","-","viewing","0","22","10A,11A","","","","","","","","","","","","","","","","","","","",""
"","","","","","html-slider-response","205","1286534","0.0-21.0-1.30","2ceaea9e-daa3-4a04-924f-85cb92a5ef04","3248","
                  <p style=""text-align: center;"">₪61
                                                <br>45%</p>
                  <p id=""wtp"" style=""text-align:center; margin-top: 0px; margin-bottom: 0px; font-size: 40px"";>מוכנים לשלם: <span id=""c_p_y""></span></p>","15","evaluation","20","22","10A,11A","45","61","15","","","","","","","","","","","","","","","","",""
"","","","","","html-keyboard-response","206","1287735","0.0-21.0-2.30","2ceaea9e-daa3-4a04-924f-85cb92a5ef04","null","<p style=""text-align: center;"">+</p>","null","fixation","","","","","","","","","","","","","","","","","","","","","","",""
"","","","","","html-keyboard-response","207","1288741","0.0-22.0","2ceaea9e-daa3-4a04-924f-85cb92a5ef04","null","<p style=""text-align: center;"">+</p>","null","fixation","","","","","","","","","","","","","","","","","","","","","","",""
"","","","","","html-keyboard-response","208","1293230","0.0-23.0","2ceaea9e-daa3-4a04-924f-85cb92a5ef04","null","<p>הפסקה.
          <br>לחצו כדי להמשיך.</p>","1","scan_wait","","","","","","","","","","","","","","","","","","","","","","",""
"","","","","","html-keyboard-response","209","1294233","0.0-24.0","2ceaea9e-daa3-4a04-924f-85cb92a5ef04","null","<p style=""text-align: center;"">+</p>","null","fixation","","","","","","","","","","","","","","","","","","","","","","",""
"","","","","","html-slider-response","210","1295235","0.0-25.0-0.0","2ceaea9e-daa3-4a04-924f-85cb92a5ef04","1000","
                  <p style=""text-align: center;"">₪71
                                                <br>75%</p>
                  <p id=""wtp"" style=""text-align:center; margin-top: 0px; margin-bottom: 0px; font-size: 40px"";>&ensp;</p>","-","viewing","0","28","8B","","","","","","","","","","","","","","","","","","","",""
"","","","","","html-slider-response","211","1297807","0.0-25.0-1.0","2ceaea9e-daa3-4a04-924f-85cb92a5ef04","2570","
                  <p style=""text-align: center;"">₪71
                                                <br>75%</p>
                  <p id=""wtp"" style=""text-align:center; margin-top: 0px; margin-bottom: 0px; font-size: 40px"";>מוכנים לשלם: <span id=""c_p_y""></span></p>","20","evaluation","27","28","8B","75","71","20","","","","","","","","","","","","","","","","",""
"","","","","","html-keyboard-response","212","1298544","0.0-25.0-2.0","2ceaea9e-daa3-4a04-924f-85cb92a5ef04","null","<p style=""text-align: center;"">+</p>","null","fixation","","","","","","","","","","","","","","","","","","","","","","",""
"","","","","","html-slider-response","213","1299559","0.0-25.0-0.1","2ceaea9e-daa3-4a04-924f-85cb92a5ef04","1000","
                  <p style=""text-align: center;"">₪61
                                                <br>45%</p>
                  <p id=""wtp"" style=""text-align:center; margin-top: 0px; margin-bottom: 0px; font-size: 40px"";>&ensp;</p>","-","viewing","0","22","10A,11A","","","","","","","","","","","","","","","","","","","",""
"","","","","","html-slider-response","214","1301927","0.0-25.0-1.1","2ceaea9e-daa3-4a04-924f-85cb92a5ef04","2366","
                  <p style=""text-align: center;"">₪61
                                                <br>45%</p>
                  <p id=""wtp"" style=""text-align:center; margin-top: 0px; margin-bottom: 0px; font-size: 40px"";>מוכנים לשלם: <span id=""c_p_y""></span></p>","14","evaluation","56","22","10A,11A","45","61","14","","","","","","","","","","","","","","","","",""
"","","","","","html-keyboard-response","215","1303167","0.0-25.0-2.1","2ceaea9e-daa3-4a04-924f-85cb92a5ef04","null","<p style=""text-align: center;"">+</p>","null","fixation","","","","","","","","","","","","","","","","","","","","","","",""
"","","","","","html-slider-response","216","1304176","0.0-25.0-0.2","2ceaea9e-daa3-4a04-924f-85cb92a5ef04","1000","
                  <p style=""text-align: center;"">₪76
                                                <br>65%</p>
                  <p id=""wtp"" style=""text-align:center; margin-top: 0px; margin-bottom: 0px; font-size: 40px"";>&ensp;</p>","-","viewing","0","29","8C,19A,24B","","","","","","","","","","","","","","","","","","","",""
"","","","","","html-slider-response","217","1306774","0.0-25.0-1.2","2ceaea9e-daa3-4a04-924f-85cb92a5ef04","2598","
                  <p style=""text-align: center;"">₪76
                                                <br>65%</p>
                  <p id=""wtp"" style=""text-align:center; margin-top: 0px; margin-bottom: 0px; font-size: 40px"";>מוכנים לשלם: <span id=""c_p_y""></span></p>","26","evaluation","20","29","8C,19A,24B","65","76","26","","","","","","","","","","","","","","","","",""
"","","","","","html-keyboard-response","218","1307311","0.0-25.0-2.2","2ceaea9e-daa3-4a04-924f-85cb92a5ef04","null","<p style=""text-align: center;"">+</p>","null","fixation","","","","","","","","","","","","","","","","","","","","","","",""
"","","","","","html-slider-response","219","1308316","0.0-25.0-0.3","2ceaea9e-daa3-4a04-924f-85cb92a5ef04","1000","
                  <p style=""text-align: center;"">₪36
                                                <br>60%</p>
                  <p id=""wtp"" style=""text-align:center; margin-top: 0px; margin-bottom: 0px; font-size: 40px"";>&ensp;</p>","-","viewing","0","12","1C,7C,15C","","","","","","","","","","","","","","","","","","","",""
"","","","","","html-slider-response","220","1311151","0.0-25.0-1.3","2ceaea9e-daa3-4a04-924f-85cb92a5ef04","2834","
                  <p style=""text-align: center;"">₪36
                                                <br>60%</p>
                  <p id=""wtp"" style=""text-align:center; margin-top: 0px; margin-bottom: 0px; font-size: 40px"";>מוכנים לשלם: <span id=""c_p_y""></span></p>","15","evaluation","59","12","1C,7C,15C","60","36","15","","","","","","","","","","","","","","","","",""
"","","","","","html-keyboard-response","221","1312172","0.0-25.0-2.3","2ceaea9e-daa3-4a04-924f-85cb92a5ef04","null","<p style=""text-align: center;"">+</p>","null","fixation","","","","","","","","","","","","","","","","","","","","","","",""
"","","","","","html-slider-response","222","1313183","0.0-25.0-0.4","2ceaea9e-daa3-4a04-924f-85cb92a5ef04","1000","
                  <p style=""text-align: center;"">₪39
                                                <br>60%</p>
                  <p id=""wtp"" style=""text-align:center; margin-top: 0px; margin-bottom: 0px; font-size: 40px"";>&ensp;</p>","-","viewing","0","15","9C,25B","","","","","","","","","","","","","","","","","","","",""
"","","","","","html-slider-response","223","1315063","0.0-25.0-1.4","2ceaea9e-daa3-4a04-924f-85cb92a5ef04","1879","
                  <p style=""text-align: center;"">₪39
                                                <br>60%</p>
                  <p id=""wtp"" style=""text-align:center; margin-top: 0px; margin-bottom: 0px; font-size: 40px"";>מוכנים לשלם: <span id=""c_p_y""></span></p>","10","evaluation","76","15","9C,25B","60","39","10","","","","","","","","","","","","","","","","",""
"","","","","","html-keyboard-response","224","1316170","0.0-25.0-2.4","2ceaea9e-daa3-4a04-924f-85cb92a5ef04","null","<p style=""text-align: center;"">+</p>","null","fixation","","","","","","","","","","","","","","","","","","","","","","",""
"","","","","","html-slider-response","225","1317177","0.0-25.0-0.5","2ceaea9e-daa3-4a04-924f-85cb92a5ef04","1000","
                  <p style=""text-align: center;"">₪11
                                                <br>20%</p>
                  <p id=""wtp"" style=""text-align:center; margin-top: 0px; margin-bottom: 0px; font-size: 40px"";>&ensp;</p>","-","viewing","0","4","12C,17C,23C,28C","","","","","","","","","","","","","","","","","","","",""
"","","","","","html-slider-response","226","1318287","0.0-25.0-1.5","2ceaea9e-daa3-4a04-924f-85cb92a5ef04","1109","
                  <p style=""text-align: center;"">₪11
                                                <br>20%</p>
                  <p id=""wtp"" style=""text-align:center; margin-top: 0px; margin-bottom: 0px; font-size: 40px"";>מוכנים לשלם: <span id=""c_p_y""></span></p>","0","evaluation","70","4","12C,17C,23C,28C","20","11","1","","","","","","","","","","","","","","","","",""
"","","","","","html-keyboard-response","227","1319608","0.0-25.0-2.5","2ceaea9e-daa3-4a04-924f-85cb92a5ef04","null","<p style=""text-align: center;"">+</p>","null","fixation","","","","","","","","","","","","","","","","","","","","","","",""
"","","","","","html-slider-response","228","1320615","0.0-25.0-0.6","2ceaea9e-daa3-4a04-924f-85cb92a5ef04","1000","
                  <p style=""text-align: center;"">₪79
                                                <br>65%</p>
                  <p id=""wtp"" style=""text-align:center; margin-top: 0px; margin-bottom: 0px; font-size: 40px"";>&ensp;</p>","-","viewing","0","31","8A","","","","","","","","","","","","","","","","","","","",""
"","","","","","html-slider-response","229","1322990","0.0-25.0-1.6","2ceaea9e-daa3-4a04-924f-85cb92a5ef04","2375","
                  <p style=""text-align: center;"">₪79
                                                <br>65%</p>
                  <p id=""wtp"" style=""text-align:center; margin-top: 0px; margin-bottom: 0px; font-size: 40px"";>מוכנים לשלם: <span id=""c_p_y""></span></p>","11","evaluation","79","31","8A","65","79","12","","","","","","","","","","","","","","","","",""
"","","","","","html-keyboard-response","230","1323986","0.0-25.0-2.6","2ceaea9e-daa3-4a04-924f-85cb92a5ef04","null","<p style=""text-align: center;"">+</p>","null","fixation","","","","","","","","","","","","","","","","","","","","","","",""
"","","","","","html-slider-response","231","1325002","0.0-25.0-0.7","2ceaea9e-daa3-4a04-924f-85cb92a5ef04","1000","
                  <p style=""text-align: center;"">₪61
                                                <br>55%</p>
                  <p id=""wtp"" style=""text-align:center; margin-top: 0px; margin-bottom: 0px; font-size: 40px"";>&ensp;</p>","-","viewing","0","23","7B,26B","","","","","","","","","","","","","","","","","","","",""
"","","","","","html-slider-response","232","1327759","0.0-25.0-1.7","2ceaea9e-daa3-4a04-924f-85cb92a5ef04","2756","
                  <p style=""text-align: center;"">₪61
                                                <br>55%</p>
                  <p id=""wtp"" style=""text-align:center; margin-top: 0px; margin-bottom: 0px; font-size: 40px"";>מוכנים לשלם: <span id=""c_p_y""></span></p>","15","evaluation","8","23","7B,26B","55","61","16","","","","","","","","","","","","","","","","",""
"","","","","","html-keyboard-response","233","1328675","0.0-25.0-2.7","2ceaea9e-daa3-4a04-924f-85cb92a5ef04","null","<p style=""text-align: center;"">+</p>","null","fixation","","","","","","","","","","","","","","","","","","","","","","",""
"","","","","","html-slider-response","234","1329689","0.0-25.0-0.8","2ceaea9e-daa3-4a04-924f-85cb92a5ef04","1000","
                  <p style=""text-align: center;"">₪58
                                                <br>45%</p>
                  <p id=""wtp"" style=""text-align:center; margin-top: 0px; margin-bottom: 0px; font-size: 40px"";>&ensp;</p>","-","viewing","0","21","11C,18C,25A","","","","","","","","","","","","","","","","","","","",""
"","","","","","html-slider-response","235","1331359","0.0-25.0-1.8","2ceaea9e-daa3-4a04-924f-85cb92a5ef04","1668","
                  <p style=""text-align: center;"">₪58
                                                <br>45%</p>
                  <p id=""wtp"" style=""text-align:center; margin-top: 0px; margin-bottom: 0px; font-size: 40px"";>מוכנים לשלם: <span id=""c_p_y""></span></p>","15","evaluation","38","21","11C,18C,25A","45","58","15","","","","","","","","","","","","","","","","",""
"","","","","","html-keyboard-response","236","1332266","0.0-25.0-2.8","2ceaea9e-daa3-4a04-924f-85cb92a5ef04","null","<p style=""text-align: center;"">+</p>","null","fixation","","","","","","","","","","","","","","","","","","","","","","",""
"","","","","","html-slider-response","237","1333271","0.0-25.0-0.9","2ceaea9e-daa3-4a04-924f-85cb92a5ef04","1000","
                  <p style=""text-align: center;"">₪16
                                                <br>20%</p>
                  <p id=""wtp"" style=""text-align:center; margin-top: 0px; margin-bottom: 0px; font-size: 40px"";>&ensp;</p>","-","viewing","0","8","14C,17A,20C,27A","","","","","","","","","","","","","","","","","","","",""
"","","","","","html-slider-response","238","1334463","0.0-25.0-1.9","2ceaea9e-daa3-4a04-924f-85cb92a5ef04","1190","
                  <p style=""text-align: center;"">₪16
                                                <br>20%</p>
                  <p id=""wtp"" style=""text-align:center; margin-top: 0px; margin-bottom: 0px; font-size: 40px"";>מוכנים לשלם: <span id=""c_p_y""></span></p>","1","evaluation","65","8","14C,17A,20C,27A","20","16","1","","","","","","","","","","","","","","","","",""
"","","","","","html-keyboard-response","239","1335541","0.0-25.0-2.9","2ceaea9e-daa3-4a04-924f-85cb92a5ef04","null","<p style=""text-align: center;"">+</p>","null","fixation","","","","","","","","","","","","","","","","","","","","","","",""
"","","","","","html-slider-response","240","1336547","0.0-25.0-0.10","2ceaea9e-daa3-4a04-924f-85cb92a5ef04","1000","
                  <p style=""text-align: center;"">₪71
                                                <br>45%</p>
                  <p id=""wtp"" style=""text-align:center; margin-top: 0px; margin-bottom: 0px; font-size: 40px"";>&ensp;</p>","-","viewing","0","26","2B,16A","","","","","","","","","","","","","","","","","","","",""
"","","","","","html-slider-response","241","1339614","0.0-25.0-1.10","2ceaea9e-daa3-4a04-924f-85cb92a5ef04","3066","
                  <p style=""text-align: center;"">₪71
                                                <br>45%</p>
                  <p id=""wtp"" style=""text-align:center; margin-top: 0px; margin-bottom: 0px; font-size: 40px"";>מוכנים לשלם: <span id=""c_p_y""></span></p>","20","evaluation","53","26","2B,16A","45","71","20","","","","","","","","","","","","","","","","",""
"","","","","","html-keyboard-response","242","1340976","0.0-25.0-2.10","2ceaea9e-daa3-4a04-924f-85cb92a5ef04","null","<p style=""text-align: center;"">+</p>","null","fixation","","","","","","","","","","","","","","","","","","","","","","",""
"","","","","","html-slider-response","243","1341986","0.0-25.0-0.11","2ceaea9e-daa3-4a04-924f-85cb92a5ef04","1000","
                  <p style=""text-align: center;"">₪39
                                                <br>65%</p>
                  <p id=""wtp"" style=""text-align:center; margin-top: 0px; margin-bottom: 0px; font-size: 40px"";>&ensp;</p>","-","viewing","0","16","1A,15A,26C","","","","","","","","","","","","","","","","","","","",""
"","","","","","html-slider-response","244","1344711","0.0-25.0-1.11","2ceaea9e-daa3-4a04-924f-85cb92a5ef04","2723","
                  <p style=""text-align: center;"">₪39
                                                <br>65%</p>
                  <p id=""wtp"" style=""text-align:center; margin-top: 0px; margin-bottom: 0px; font-size: 40px"";>מוכנים לשלם: <span id=""c_p_y""></span></p>","10","evaluation","32","16","1A,15A,26C","65","39","10","","","","","","","","","","","","","","","","",""
"","","","","","html-keyboard-response","245","1345988","0.0-25.0-2.11","2ceaea9e-daa3-4a04-924f-85cb92a5ef04","null","<p style=""text-align: center;"">+</p>","null","fixation","","","","","","","","","","","","","","","","","","","","","","",""
"","","","","","html-slider-response","246","1346991","0.0-25.0-0.12","2ceaea9e-daa3-4a04-924f-85cb92a5ef04","1000","
                  <p style=""text-align: center;"">₪43
                                                <br>75%</p>
                  <p id=""wtp"" style=""text-align:center; margin-top: 0px; margin-bottom: 0px; font-size: 40px"";>&ensp;</p>","-","viewing","0","18","11B,19B,24A,26A","","","","","","","","","","","","","","","","","","","",""
"","","","","","html-slider-response","247","1349478","0.0-25.0-1.12","2ceaea9e-daa3-4a04-924f-85cb92a5ef04","2487","
                  <p style=""text-align: center;"">₪43
                                                <br>75%</p>
                  <p id=""wtp"" style=""text-align:center; margin-top: 0px; margin-bottom: 0px; font-size: 40px"";>מוכנים לשלם: <span id=""c_p_y""></span></p>","10","evaluation","47","18","11B,19B,24A,26A","75","43","10","","","","","","","","","","","","","","","","",""
"","","","","","html-keyboard-response","248","1350103","0.0-25.0-2.12","2ceaea9e-daa3-4a04-924f-85cb92a5ef04","null","<p style=""text-align: center;"">+</p>","null","fixation","","","","","","","","","","","","","","","","","","","","","","",""
"","","","","","html-slider-response","249","1351111","0.0-25.0-0.13","2ceaea9e-daa3-4a04-924f-85cb92a5ef04","1000","
                  <p style=""text-align: center;"">₪71
