"success","timeout","failed_images","failed_audio","failed_video","trial_type","trial_index","time_elapsed","internal_node_id","subject_id","rt","stimulus","response","part","slider_start","ID","set_ID","prob","amount","last_location","actual_choice","actual_EV","binary_id","trinary_id","catch","direction","A_key","S_key","D_key","choice_prob","choice_amount","won_prize","potential_prize_amount","potential_prize_prob","total_prize","accuracy"
"true","false","[]","[]","[]","preload","0","16","0.0-0.0","0c2f0184-fefb-4602-bc9f-ee27470ce031","","","","","","","","","","","","","","","","","","","","","","","","","",""
"","","","","","html-keyboard-response","1","17834","0.0-1.0","0c2f0184-fefb-4602-bc9f-ee27470ce031","null","
          <h1>שלום וברוכים הבאים!</h1>
          <p>לפניכם ניסוי בקבלת החלטות עם שני חלקים.
          <br><br>לחצו על העכבר כדי להמשיך.</p>","0","example","","","","","","","","","","","","","","","","","","","","","",""
"","","","","","html-keyboard-response","2","31921","0.0-2.0","0c2f0184-fefb-4602-bc9f-ee27470ce031","null","
        <h1>חלק 1</h1>
        <p>בקרוב יוצגו בפניכם הגרלות.
        <br>עליכם לבחור את המחיר המירבי שתהיו מוכנים לשלם כדי להשתתף בהגרלה שתוצג.
        <br>יש לכם תקציב של ₪80 לכל הגרלה. 
        <br>נסו להעריך כל הגרלה בנפרד ולחשוב כמה היא שווה עבורכם, ₪80 זמינים לכל הגרלה בנפרד.
        <br><br>לחצו על העכבר כדי להמשיך.</p>","1","instructions","","","","","","","","","","","","","","","","","","","","","",""
"","","","","","html-keyboard-response","3","47641","0.0-3.0","0c2f0184-fefb-4602-bc9f-ee27470ce031","null","
        <p>בסוף הניסוי, המחשב יבחר את אחת ההגרלות ויקבע מחיר לכרטיס עבורה. 
        <br>במידה והמחיר שבחרתם נמוך מהמחיר שנבחר על ידי המחשב, לא תשתתפו בהגרלה ותשארו עם מלוא התקציב.
        <br>במידה והמחיר שבחרתם גבוה מהמחיר שנבחר על ידי המחשב, תשלמו את המחיר שנקבע ותשתתפו בהגרלה.
        <br><br>לחצו על העכבר כדי להמשיך.</p>","1","instructions","","","","","","","","","","","","","","","","","","","","","",""
"","","","","","html-slider-response","4","66578","0.0-4.0","0c2f0184-fefb-4602-bc9f-ee27470ce031","18825","
        <p style=""font-size: 42px;"">נתחיל עם דוגמא: 
        <br>ההגרלה מטה מציעה 65% סיכוי לזכות ב-₪40 
        <br>&emsp;&emsp;&emsp;&emsp;&emsp;&emsp;&emsp;&emsp;&ensp;35% סיכוי לזכות ב-₪0.
        <br><br>מה המחיר המירבי שתהיו מוכנים לשלם על כרטיס להגרלה זו בין 0 ל-₪80?
        <br>הזיזו את העכבר על פני המלבן ולחצו כדי לבצע בחירה.</p>
        
        <p style=""text-align: center;"">₪40<br>65%</p>

        <p id=""wtp"" style=""text-align:center; margin-top: 0px; margin-bottom: 0px; font-size: 40px"";>מוכנים לשלם: <span id=""c_p_y""></span></p>","17","example","35","","","","","","","","","","","","","","","","","","","","",""
"","","","","","html-keyboard-response","5","73082","0.0-5.0","0c2f0184-fefb-4602-bc9f-ee27470ce031","null","<p>יפה מאוד!
                <br> בחרתם שתהיו מוכנים לשלם ₪17 כדי להשתתף בהגרלה:
                <br><p style=""text-align: center;"">₪40<br>65%</p>
                <p>נשמע נכון?
                <br>נניח שהגרלה זו נבחרה בסוף הניסוי.
                <br>כעת המחשב יקבע מחיר עבורה באקראי.
                <br>לחצו על העכבר להמשך.</p>","1","example","","","","","","","","","","","","","","","","","","","","","",""
"","","","","","html-keyboard-response","6","79361","0.0-6.0","0c2f0184-fefb-4602-bc9f-ee27470ce031","null","<p>המחשב קבע מחיר: ₪65
                <br>ואתם בחרתם לשלם לכל היותר: ₪17
                <br><br>מכיוון שהמחיר שבחרתם נמוך מהמחיר שנקבע, לא תתשתתפו בהגרלה.
                <br>במקרה כזה, בסוף הניסוי תקבלו את כל התקציב ההתחלתי של ₪80.
                <br><br>לחצו על העכבר להמשך.</p>","1","example","","","","","","","","","","","","","","","","","","","","","",""
"","","","","","html-slider-response","7","88634","0.0-7.0","0c2f0184-fefb-4602-bc9f-ee27470ce031","9005","<p style=""font-size: 42px;"">הנה עוד דוגמא:
                <br>ההגרלה מטה מציעה 35% סיכוי לזכות ב-₪18 
                <br>&emsp;&emsp;&emsp;&emsp;&emsp;&emsp;&emsp;&emsp;&ensp;65% סיכוי לזכות ב-₪0.</p>
        
                <p style=""text-align: center;"">₪18<br>35%</p>
                <p id=""wtp"" style=""text-align:center; margin-top: 0px; margin-bottom: 0px; font-size: 40px"";>מוכנים לשלם: <span id=""c_p_y""></span></p>","2","example","14","","","","","","","","","","","","","","","","","","","","",""
"","","","","","html-keyboard-response","8","92450","0.0-8.0","0c2f0184-fefb-4602-bc9f-ee27470ce031","null","<p>הייתם מוכנים לשלם  ₪2 כדי להשתתף בהגרלה:
                <p style=""text-align: center;"">₪18<br>35%</p>
                <p>כעת נניח שהמחשב בחר את ההגרלה הזו בסוף הניסוי, וקבע עבורה מחיר.
                <br><br>לחצו על העכבר כדי להמשיך.</p>","1","instructions","","","","","","","","","","","","","","","","","","","","","",""
"","","","","","html-keyboard-response","9","113194","0.0-9.0","0c2f0184-fefb-4602-bc9f-ee27470ce031","null","<p>המחשב קבע מחיר להגרלה: ₪0<br>ואתם בחרתם לשלם לכל היותר: ₪2
                <br><br>כעת המחיר שנקבע נמוך מזה שבחרתם, אז תשלמו את המחיר שקבע המחשב (₪0) ותשתתפו בהגרלה.
                <br>במקרה כזה, תסיימו את הניסוי עם תקציב של ₪80 ועם סיכוי לזכות ב-₪18 נוספים מההגרלה.
                <br>כלומר, תוכלו לקבל ₪80 אם לא תזכו בהגרלה, או ₪98 אם תזכו בהגרלה.
                <br><br>לחצו על העכבר להמשך.</p>","1","example","","","","","","","","","","","","","","","","","","","","","",""
"","","","","","html-keyboard-response","10","126762","0.0-10.0","0c2f0184-fefb-4602-bc9f-ee27470ce031","null","<p>במהלך הניסוי, קודם תראו את ההגרלה ורק לאחר מכן תוכלו לבחור.
                <p>כמו כן, יהיו לכם מספר שניות מוגבל להגיב.
                <p>בואו ננסה זאת עם ההגרלה הקודמת.
                <br>לחצו על העכבר כדי להמשיך.</p>","1","instructions","","","","","","","","","","","","","","","","","","","","","",""
"","","","","","html-slider-response","11","128033","0.0-11.0","0c2f0184-fefb-4602-bc9f-ee27470ce031","1000","
                    <p style=""text-align: center;"">₪18<br>35%</p>
                    <p id=""wtp"" style=""text-align:center; margin-top: 0px; margin-bottom: 0px; font-size: 40px"";>&ensp;</p>","27","instructions","0","","","","","","","","","","","","","","","","","","","","",""
"","","","","","html-slider-response","12","131507","0.0-12.0","0c2f0184-fefb-4602-bc9f-ee27470ce031","3215","
                    <p style=""text-align: center;"">₪18<br>35%</p>
                    <p id=""wtp"" style=""text-align:center; margin-top: 0px; margin-bottom: 0px; font-size: 40px"";>מוכנים לשלם: <span id=""c_p_y""></span></p>","2","instructions","41","","","","","","","","","","","","","","","","","","","","",""
"","","","","","html-keyboard-response","13","136522","0.0-13.0","0c2f0184-fefb-4602-bc9f-ee27470ce031","null","<p>יפה. הפעם בחרתם לשלם לכל היותר ₪2.
                <br><br>לחצו על העכבר כדי להמשיך.</p>","1","instructions","","","","","","","","","","","","","","","","","","","","","",""
"","","","","","html-keyboard-response","14","148994","0.0-15.0","0c2f0184-fefb-4602-bc9f-ee27470ce031","null","<p>כעת נתחיל את הניסוי.
                <br><br>אתם תראו הגרלות ותתבקשו לבחור כמה תהיו מוכנים לשלם כדי להשתתף בהן.
                <br>יש לכם תקציב של ₪80 עבור כל הגרלה.
                <br>בסוף הניסוי הגרלה אחת תבחר באקראי ותשוחק.
                <br><br>לחצו על העכבר כדי להתחיל את הניסוי.</p>","1","instructions","","","","","","","","","","","","","","","","","","","","","",""
"","","","","","html-keyboard-response","15","150265","0.0-16.0","0c2f0184-fefb-4602-bc9f-ee27470ce031","null","<p style=""text-align: center;"">+</p>","null","fixation","","","","","","","","","","","","","","","","","","","","","",""
"","","","","","html-slider-response","16","151268","0.0-17.0-0.0","0c2f0184-fefb-4602-bc9f-ee27470ce031","1000","
                  <p style=""text-align: center;"">₪79
                                                <br>40%</p>
                  <p id=""wtp"" style=""text-align:center; margin-top: 0px; margin-bottom: 0px; font-size: 40px"";>&ensp;</p>","-","viewing","0","30","9B","","","","","","","","","","","","","","","","","","",""
"","","","","","html-slider-response","17","154843","0.0-17.0-1.0","0c2f0184-fefb-4602-bc9f-ee27470ce031","3573","
                  <p style=""text-align: center;"">₪79
                                                <br>40%</p>
                  <p id=""wtp"" style=""text-align:center; margin-top: 0px; margin-bottom: 0px; font-size: 40px"";>מוכנים לשלם: <span id=""c_p_y""></span></p>","23","evaluation","23","30","9B","40","79","23","","","","","","","","","","","","","","","",""
"","","","","","html-keyboard-response","18","155906","0.0-17.0-2.0","0c2f0184-fefb-4602-bc9f-ee27470ce031","null","<p style=""text-align: center;"">+</p>","null","fixation","","","","","","","","","","","","","","","","","","","","","",""
"","","","","","html-slider-response","19","156913","0.0-17.0-0.1","0c2f0184-fefb-4602-bc9f-ee27470ce031","1000","
                  <p style=""text-align: center;"">₪43
                                                <br>75%</p>
                  <p id=""wtp"" style=""text-align:center; margin-top: 0px; margin-bottom: 0px; font-size: 40px"";>&ensp;</p>","-","viewing","0","18","11B,19B,24A,26A","","","","","","","","","","","","","","","","","","",""
"","","","","","html-slider-response","20","160915","0.0-17.0-1.1","0c2f0184-fefb-4602-bc9f-ee27470ce031","4001","
                  <p style=""text-align: center;"">₪43
                                                <br>75%</p>
                  <p id=""wtp"" style=""text-align:center; margin-top: 0px; margin-bottom: 0px; font-size: 40px"";>מוכנים לשלם: <span id=""c_p_y""></span></p>","20","evaluation","46","18","11B,19B,24A,26A","75","43","20","","","","","","","","","","","","","","","",""
"","","","","","html-keyboard-response","21","161473","0.0-17.0-2.1","0c2f0184-fefb-4602-bc9f-ee27470ce031","null","<p style=""text-align: center;"">+</p>","null","fixation","","","","","","","","","","","","","","","","","","","","","",""
"","","","","","html-slider-response","22","162490","0.0-17.0-0.2","0c2f0184-fefb-4602-bc9f-ee27470ce031","1000","
                  <p style=""text-align: center;"">₪11
                                                <br>45%</p>
                  <p id=""wtp"" style=""text-align:center; margin-top: 0px; margin-bottom: 0px; font-size: 40px"";>&ensp;</p>","-","viewing","0","6","14B,21C,25C","","","","","","","","","","","","","","","","","","",""
"","","","","","html-slider-response","23","165459","0.0-17.0-1.2","0c2f0184-fefb-4602-bc9f-ee27470ce031","2968","
                  <p style=""text-align: center;"">₪11
                                                <br>45%</p>
                  <p id=""wtp"" style=""text-align:center; margin-top: 0px; margin-bottom: 0px; font-size: 40px"";>מוכנים לשלם: <span id=""c_p_y""></span></p>","3","evaluation","9","6","14B,21C,25C","45","11","3","","","","","","","","","","","","","","","",""
"","","","","","html-keyboard-response","24","166609","0.0-17.0-2.2","0c2f0184-fefb-4602-bc9f-ee27470ce031","null","<p style=""text-align: center;"">+</p>","null","fixation","","","","","","","","","","","","","","","","","","","","","",""
"","","","","","html-slider-response","25","167622","0.0-17.0-0.3","0c2f0184-fefb-4602-bc9f-ee27470ce031","1000","
                  <p style=""text-align: center;"">₪11
                                                <br>20%</p>
                  <p id=""wtp"" style=""text-align:center; margin-top: 0px; margin-bottom: 0px; font-size: 40px"";>&ensp;</p>","-","viewing","0","4","12C,17C,23C,28C","","","","","","","","","","","","","","","","","","",""
"","","","","","html-slider-response","26","169874","0.0-17.0-1.3","0c2f0184-fefb-4602-bc9f-ee27470ce031","2252","
                  <p style=""text-align: center;"">₪11
                                                <br>20%</p>
                  <p id=""wtp"" style=""text-align:center; margin-top: 0px; margin-bottom: 0px; font-size: 40px"";>מוכנים לשלם: <span id=""c_p_y""></span></p>","2","evaluation","68","4","12C,17C,23C,28C","20","11","2","","","","","","","","","","","","","","","",""
"","","","","","html-keyboard-response","27","170878","0.0-17.0-2.3","0c2f0184-fefb-4602-bc9f-ee27470ce031","null","<p style=""text-align: center;"">+</p>","null","fixation","","","","","","","","","","","","","","","","","","","","","",""
"","","","","","html-slider-response","28","171890","0.0-17.0-0.4","0c2f0184-fefb-4602-bc9f-ee27470ce031","1000","
                  <p style=""text-align: center;"">₪71
                                                <br>75%</p>
                  <p id=""wtp"" style=""text-align:center; margin-top: 0px; margin-bottom: 0px; font-size: 40px"";>&ensp;</p>","-","viewing","0","28","8B","","","","","","","","","","","","","","","","","","",""
"","","","","","html-slider-response","29","175902","0.0-17.0-1.4","0c2f0184-fefb-4602-bc9f-ee27470ce031","null","
                  <p style=""text-align: center;"">₪71
                                                <br>75%</p>
                  <p id=""wtp"" style=""text-align:center; margin-top: 0px; margin-bottom: 0px; font-size: 40px"";>מוכנים לשלם: <span id=""c_p_y""></span></p>","null","evaluation","14","28","8B","75","71","46","","","","","","","","","","","","","","","",""
"","","","","","html-keyboard-response","30","176899","0.0-17.0-2.4","0c2f0184-fefb-4602-bc9f-ee27470ce031","null","<p style=""text-align: center;"">+</p>","null","fixation","","","","","","","","","","","","","","","","","","","","","",""
"","","","","","html-slider-response","31","177903","0.0-17.0-0.5","0c2f0184-fefb-4602-bc9f-ee27470ce031","1000","
                  <p style=""text-align: center;"">₪11
                                                <br>75%</p>
                  <p id=""wtp"" style=""text-align:center; margin-top: 0px; margin-bottom: 0px; font-size: 40px"";>&ensp;</p>","-","viewing","0","7","6B,18B,22C,24C,29A","","","","","","","","","","","","","","","","","","",""
"","","","","","html-slider-response","32","180451","0.0-17.0-1.5","0c2f0184-fefb-4602-bc9f-ee27470ce031","2546","
                  <p style=""text-align: center;"">₪11
                                                <br>75%</p>
                  <p id=""wtp"" style=""text-align:center; margin-top: 0px; margin-bottom: 0px; font-size: 40px"";>מוכנים לשלם: <span id=""c_p_y""></span></p>","5","evaluation","41","7","6B,18B,22C,24C,29A","75","11","6","","","","","","","","","","","","","","","",""
"","","","","","html-keyboard-response","33","181691","0.0-17.0-2.5","0c2f0184-fefb-4602-bc9f-ee27470ce031","null","<p style=""text-align: center;"">+</p>","null","fixation","","","","","","","","","","","","","","","","","","","","","",""
"","","","","","html-slider-response","34","182697","0.0-17.0-0.6","0c2f0184-fefb-4602-bc9f-ee27470ce031","1000","
                  <p style=""text-align: center;"">₪43
                                                <br>60%</p>
                  <p id=""wtp"" style=""text-align:center; margin-top: 0px; margin-bottom: 0px; font-size: 40px"";>&ensp;</p>","-","viewing","0","17","2A,7A,9A,15B","","","","","","","","","","","","","","","","","","",""
"","","","","","html-slider-response","35","184619","0.0-17.0-1.6","0c2f0184-fefb-4602-bc9f-ee27470ce031","1921","
                  <p style=""text-align: center;"">₪43
                                                <br>60%</p>
                  <p id=""wtp"" style=""text-align:center; margin-top: 0px; margin-bottom: 0px; font-size: 40px"";>מוכנים לשלם: <span id=""c_p_y""></span></p>","18","evaluation","9","17","2A,7A,9A,15B","60","43","19","","","","","","","","","","","","","","","",""
"","","","","","html-keyboard-response","36","185645","0.0-17.0-2.6","0c2f0184-fefb-4602-bc9f-ee27470ce031","null","<p style=""text-align: center;"">+</p>","null","fixation","","","","","","","","","","","","","","","","","","","","","",""
"","","","","","html-slider-response","37","186662","0.0-17.0-0.7","0c2f0184-fefb-4602-bc9f-ee27470ce031","1000","
                  <p style=""text-align: center;"">₪36
                                                <br>70%</p>
                  <p id=""wtp"" style=""text-align:center; margin-top: 0px; margin-bottom: 0px; font-size: 40px"";>&ensp;</p>","-","viewing","0","13","3A,5C,10B","","","","","","","","","","","","","","","","","","",""
"","","","","","html-slider-response","38","188595","0.0-17.0-1.7","0c2f0184-fefb-4602-bc9f-ee27470ce031","1931","
                  <p style=""text-align: center;"">₪36
                                                <br>70%</p>
                  <p id=""wtp"" style=""text-align:center; margin-top: 0px; margin-bottom: 0px; font-size: 40px"";>מוכנים לשלם: <span id=""c_p_y""></span></p>","16","evaluation","65","13","3A,5C,10B","70","36","16","","","","","","","","","","","","","","","",""
"","","","","","html-keyboard-response","39","189235","0.0-17.0-2.7","0c2f0184-fefb-4602-bc9f-ee27470ce031","null","<p style=""text-align: center;"">+</p>","null","fixation","","","","","","","","","","","","","","","","","","","","","",""
"","","","","","html-slider-response","40","190251","0.0-17.0-0.8","0c2f0184-fefb-4602-bc9f-ee27470ce031","1000","
                  <p style=""text-align: center;"">₪36
                                                <br>60%</p>
                  <p id=""wtp"" style=""text-align:center; margin-top: 0px; margin-bottom: 0px; font-size: 40px"";>&ensp;</p>","-","viewing","0","12","1C,7C,15C","","","","","","","","","","","","","","","","","","",""
"","","","","","html-slider-response","41","192611","0.0-17.0-1.8","0c2f0184-fefb-4602-bc9f-ee27470ce031","2358","
                  <p style=""text-align: center;"">₪36
                                                <br>60%</p>
                  <p id=""wtp"" style=""text-align:center; margin-top: 0px; margin-bottom: 0px; font-size: 40px"";>מוכנים לשלם: <span id=""c_p_y""></span></p>","12","evaluation","61","12","1C,7C,15C","60","36","13","","","","","","","","","","","","","","","",""
"","","","","","html-keyboard-response","42","193436","0.0-17.0-2.8","0c2f0184-fefb-4602-bc9f-ee27470ce031","null","<p style=""text-align: center;"">+</p>","null","fixation","","","","","","","","","","","","","","","","","","","","","",""
"","","","","","html-slider-response","43","194444","0.0-17.0-0.9","0c2f0184-fefb-4602-bc9f-ee27470ce031","1000","
                  <p style=""text-align: center;"">₪71
                                                <br>55%</p>
                  <p id=""wtp"" style=""text-align:center; margin-top: 0px; margin-bottom: 0px; font-size: 40px"";>&ensp;</p>","-","viewing","0","27","5B,18A","","","","","","","","","","","","","","","","","","",""
"","","","","","html-slider-response","44","196130","0.0-17.0-1.9","0c2f0184-fefb-4602-bc9f-ee27470ce031","1685","
                  <p style=""text-align: center;"">₪71
                                                <br>55%</p>
                  <p id=""wtp"" style=""text-align:center; margin-top: 0px; margin-bottom: 0px; font-size: 40px"";>מוכנים לשלם: <span id=""c_p_y""></span></p>","46","evaluation","70","27","5B,18A","55","71","46","","","","","","","","","","","","","","","",""
"","","","","","html-keyboard-response","45","197402","0.0-17.0-2.9","0c2f0184-fefb-4602-bc9f-ee27470ce031","null","<p style=""text-align: center;"">+</p>","null","fixation","","","","","","","","","","","","","","","","","","","","","",""
"","","","","","html-slider-response","46","198405","0.0-17.0-0.10","0c2f0184-fefb-4602-bc9f-ee27470ce031","1000","
                  <p style=""text-align: center;"">₪79
                                                <br>65%</p>
                  <p id=""wtp"" style=""text-align:center; margin-top: 0px; margin-bottom: 0px; font-size: 40px"";>&ensp;</p>","-","viewing","0","31","8A","","","","","","","","","","","","","","","","","","",""
"","","","","","html-slider-response","47","200027","0.0-17.0-1.10","0c2f0184-fefb-4602-bc9f-ee27470ce031","1621","
                  <p style=""text-align: center;"">₪79
                                                <br>65%</p>
                  <p id=""wtp"" style=""text-align:center; margin-top: 0px; margin-bottom: 0px; font-size: 40px"";>מוכנים לשלם: <span id=""c_p_y""></span></p>","59","evaluation","67","31","8A","65","79","59","","","","","","","","","","","","","","","",""
"","","","","","html-keyboard-response","48","200936","0.0-17.0-2.10","0c2f0184-fefb-4602-bc9f-ee27470ce031","null","<p style=""text-align: center;"">+</p>","null","fixation","","","","","","","","","","","","","","","","","","","","","",""
"","","","","","html-slider-response","49","201952","0.0-17.0-0.11","0c2f0184-fefb-4602-bc9f-ee27470ce031","1000","
                  <p style=""text-align: center;"">₪71
                                                <br>45%</p>
                  <p id=""wtp"" style=""text-align:center; margin-top: 0px; margin-bottom: 0px; font-size: 40px"";>&ensp;</p>","-","viewing","0","26","2B,16A","","","","","","","","","","","","","","","","","","",""
"","","","","","html-slider-response","50","203715","0.0-17.0-1.11","0c2f0184-fefb-4602-bc9f-ee27470ce031","1761","
                  <p style=""text-align: center;"">₪71
                                                <br>45%</p>
                  <p id=""wtp"" style=""text-align:center; margin-top: 0px; margin-bottom: 0px; font-size: 40px"";>מוכנים לשלם: <span id=""c_p_y""></span></p>","51","evaluation","51","26","2B,16A","45","71","51","","","","","","","","","","","","","","","",""
"","","","","","html-keyboard-response","51","204546","0.0-17.0-2.11","0c2f0184-fefb-4602-bc9f-ee27470ce031","null","<p style=""text-align: center;"">+</p>","null","fixation","","","","","","","","","","","","","","","","","","","","","",""
"","","","","","html-slider-response","52","205557","0.0-17.0-0.12","0c2f0184-fefb-4602-bc9f-ee27470ce031","1000","
                  <p style=""text-align: center;"">₪11
                                                <br>25%</p>
                  <p id=""wtp"" style=""text-align:center; margin-top: 0px; margin-bottom: 0px; font-size: 40px"";>&ensp;</p>","-","viewing","0","5","12A,27B,28B,30B","","","","","","","","","","","","","","","","","","",""
"","","","","","html-slider-response","53","207946","0.0-17.0-1.12","0c2f0184-fefb-4602-bc9f-ee27470ce031","2388","
                  <p style=""text-align: center;"">₪11
                                                <br>25%</p>
                  <p id=""wtp"" style=""text-align:center; margin-top: 0px; margin-bottom: 0px; font-size: 40px"";>מוכנים לשלם: <span id=""c_p_y""></span></p>","9","evaluation","40","5","12A,27B,28B,30B","25","11","9","","","","","","","","","","","","","","","",""
"","","","","","html-keyboard-response","54","209397","0.0-17.0-2.12","0c2f0184-fefb-4602-bc9f-ee27470ce031","null","<p style=""text-align: center;"">+</p>","null","fixation","","","","","","","","","","","","","","","","","","","","","",""
"","","","","","html-slider-response","55","210404","0.0-17.0-0.13","0c2f0184-fefb-4602-bc9f-ee27470ce031","1000","
                  <p style=""text-align: center;"">₪64
                                                <br>50%</p>
                  <p id=""wtp"" style=""text-align:center; margin-top: 0px; margin-bottom: 0px; font-size: 40px"";>&ensp;</p>","-","viewing","0","25","1B,3B,4A","","","","","","","","","","","","","","","","","","",""
"","","","","","html-slider-response","56","212515","0.0-17.0-1.13","0c2f0184-fefb-4602-bc9f-ee27470ce031","2109","
                  <p style=""text-align: center;"">₪64
                                                <br>50%</p>
                  <p id=""wtp"" style=""text-align:center; margin-top: 0px; margin-bottom: 0px; font-size: 40px"";>מוכנים לשלם: <span id=""c_p_y""></span></p>","35","evaluation","45","25","1B,3B,4A","50","64","35","","","","","","","","","","","","","","","",""
"","","","","","html-keyboard-response","57","213493","0.0-17.0-2.13","0c2f0184-fefb-4602-bc9f-ee27470ce031","null","<p style=""text-align: center;"">+</p>","null","fixation","","","","","","","","","","","","","","","","","","","","","",""
"","","","","","html-slider-response","58","214507","0.0-17.0-0.14","0c2f0184-fefb-4602-bc9f-ee27470ce031","1000","
                  <p style=""text-align: center;"">₪4
                                                <br>50%</p>
                  <p id=""wtp"" style=""text-align:center; margin-top: 0px; margin-bottom: 0px; font-size: 40px"";>&ensp;</p>","-","viewing","0","2","4C,17B","","","","","","","","","","","","","","","","","","",""
"","","","","","html-slider-response","59","216491","0.0-17.0-1.14","0c2f0184-fefb-4602-bc9f-ee27470ce031","1982","
                  <p style=""text-align: center;"">₪4
                                                <br>50%</p>
                  <p id=""wtp"" style=""text-align:center; margin-top: 0px; margin-bottom: 0px; font-size: 40px"";>מוכנים לשלם: <span id=""c_p_y""></span></p>","2","evaluation","41","2","4C,17B","50","4","2","","","","","","","","","","","","","","","",""
"","","","","","html-keyboard-response","60","217280","0.0-17.0-2.14","0c2f0184-fefb-4602-bc9f-ee27470ce031","null","<p style=""text-align: center;"">+</p>","null","fixation","","","","","","","","","","","","","","","","","","","","","",""
"","","","","","html-slider-response","61","218294","0.0-17.0-0.15","0c2f0184-fefb-4602-bc9f-ee27470ce031","1000","
                  <p style=""text-align: center;"">₪76
                                                <br>65%</p>
                  <p id=""wtp"" style=""text-align:center; margin-top: 0px; margin-bottom: 0px; font-size: 40px"";>&ensp;</p>","-","viewing","0","29","8C,19A,24B","","","","","","","","","","","","","","","","","","",""
"","","","","","html-slider-response","62","219507","0.0-17.0-1.15","0c2f0184-fefb-4602-bc9f-ee27470ce031","1211","
                  <p style=""text-align: center;"">₪76
                                                <br>65%</p>
                  <p id=""wtp"" style=""text-align:center; margin-top: 0px; margin-bottom: 0px; font-size: 40px"";>מוכנים לשלם: <span id=""c_p_y""></span></p>","47","evaluation","48","29","8C,19A,24B","65","76","47","","","","","","","","","","","","","","","",""
"","","","","","html-keyboard-response","63","220712","0.0-17.0-2.15","0c2f0184-fefb-4602-bc9f-ee27470ce031","null","<p style=""text-align: center;"">+</p>","null","fixation","","","","","","","","","","","","","","","","","","","","","",""
"","","","","","html-slider-response","64","221728","0.0-17.0-0.16","0c2f0184-fefb-4602-bc9f-ee27470ce031","1000","
                  <p style=""text-align: center;"">₪39
                                                <br>60%</p>
                  <p id=""wtp"" style=""text-align:center; margin-top: 0px; margin-bottom: 0px; font-size: 40px"";>&ensp;</p>","-","viewing","0","15","9C,25B","","","","","","","","","","","","","","","","","","",""
"","","","","","html-slider-response","65","223450","0.0-17.0-1.16","0c2f0184-fefb-4602-bc9f-ee27470ce031","1721","
                  <p style=""text-align: center;"">₪39
                                                <br>60%</p>
                  <p id=""wtp"" style=""text-align:center; margin-top: 0px; margin-bottom: 0px; font-size: 40px"";>מוכנים לשלם: <span id=""c_p_y""></span></p>","18","evaluation","52","15","9C,25B","60","39","18","","","","","","","","","","","","","","","",""
"","","","","","html-keyboard-response","66","224272","0.0-17.0-2.16","0c2f0184-fefb-4602-bc9f-ee27470ce031","null","<p style=""text-align: center;"">+</p>","null","fixation","","","","","","","","","","","","","","","","","","","","","",""
"","","","","","html-slider-response","67","225283","0.0-17.0-0.17","0c2f0184-fefb-4602-bc9f-ee27470ce031","1000","
                  <p style=""text-align: center;"">₪64
                                                <br>25%</p>
                  <p id=""wtp"" style=""text-align:center; margin-top: 0px; margin-bottom: 0px; font-size: 40px"";>&ensp;</p>","-","viewing","0","24","6A,21A","","","","","","","","","","","","","","","","","","",""
"","","","","","html-slider-response","68","227098","0.0-17.0-1.17","0c2f0184-fefb-4602-bc9f-ee27470ce031","1814","
                  <p style=""text-align: center;"">₪64
                                                <br>25%</p>
                  <p id=""wtp"" style=""text-align:center; margin-top: 0px; margin-bottom: 0px; font-size: 40px"";>מוכנים לשלם: <span id=""c_p_y""></span></p>","35","evaluation","55","24","6A,21A","25","64","35","","","","","","","","","","","","","","","",""
"","","","","","html-keyboard-response","69","227749","0.0-17.0-2.17","0c2f0184-fefb-4602-bc9f-ee27470ce031","null","<p style=""text-align: center;"">+</p>","null","fixation","","","","","","","","","","","","","","","","","","","","","",""
"","","","","","html-slider-response","70","228753","0.0-17.0-0.18","0c2f0184-fefb-4602-bc9f-ee27470ce031","1000","
                  <p style=""text-align: center;"">₪58
                                                <br>30%</p>
                  <p id=""wtp"" style=""text-align:center; margin-top: 0px; margin-bottom: 0px; font-size: 40px"";>&ensp;</p>","-","viewing","0","19","13C,30A","","","","","","","","","","","","","","","","","","",""
"","","","","","html-slider-response","71","230203","0.0-17.0-1.18","0c2f0184-fefb-4602-bc9f-ee27470ce031","1448","
                  <p style=""text-align: center;"">₪58
                                                <br>30%</p>
                  <p id=""wtp"" style=""text-align:center; margin-top: 0px; margin-bottom: 0px; font-size: 40px"";>מוכנים לשלם: <span id=""c_p_y""></span></p>","20","evaluation","28","19","13C,30A","30","58","20","","","","","","","","","","","","","","","",""
"","","","","","html-keyboard-response","72","231220","0.0-17.0-2.18","0c2f0184-fefb-4602-bc9f-ee27470ce031","null","<p style=""text-align: center;"">+</p>","null","fixation","","","","","","","","","","","","","","","","","","","","","",""
"","","","","","html-slider-response","73","232235","0.0-17.0-0.19","0c2f0184-fefb-4602-bc9f-ee27470ce031","1000","
                  <p style=""text-align: center;"">₪61
                                                <br>45%</p>
                  <p id=""wtp"" style=""text-align:center; margin-top: 0px; margin-bottom: 0px; font-size: 40px"";>&ensp;</p>","-","viewing","0","22","10A,11A","","","","","","","","","","","","","","","","","","",""
"","","","","","html-slider-response","74","233891","0.0-17.0-1.19","0c2f0184-fefb-4602-bc9f-ee27470ce031","1655","
                  <p style=""text-align: center;"">₪61
                                                <br>45%</p>
                  <p id=""wtp"" style=""text-align:center; margin-top: 0px; margin-bottom: 0px; font-size: 40px"";>מוכנים לשלם: <span id=""c_p_y""></span></p>","29","evaluation","46","22","10A,11A","45","61","29","","","","","","","","","","","","","","","",""
"","","","","","html-keyboard-response","75","234692","0.0-17.0-2.19","0c2f0184-fefb-4602-bc9f-ee27470ce031","null","<p style=""text-align: center;"">+</p>","null","fixation","","","","","","","","","","","","","","","","","","","","","",""
"","","","","","html-slider-response","76","235706","0.0-17.0-0.20","0c2f0184-fefb-4602-bc9f-ee27470ce031","1000","
                  <p style=""text-align: center;"">₪4
                                                <br>25%</p>
                  <p id=""wtp"" style=""text-align:center; margin-top: 0px; margin-bottom: 0px; font-size: 40px"";>&ensp;</p>","-","viewing","0","1","6C,29B,30C","","","","","","","","","","","","","","","","","","",""
"","","","","","html-slider-response","77","237523","0.0-17.0-1.20","0c2f0184-fefb-4602-bc9f-ee27470ce031","1815","
                  <p style=""text-align: center;"">₪4
                                                <br>25%</p>
                  <p id=""wtp"" style=""text-align:center; margin-top: 0px; margin-bottom: 0px; font-size: 40px"";>מוכנים לשלם: <span id=""c_p_y""></span></p>","1","evaluation","79","1","6C,29B,30C","25","4","2","","","","","","","","","","","","","","","",""
"","","","","","html-keyboard-response","78","238152","0.0-17.0-2.20","0c2f0184-fefb-4602-bc9f-ee27470ce031","null","<p style=""text-align: center;"">+</p>","null","fixation","","","","","","","","","","","","","","","","","","","","","",""
"","","","","","html-slider-response","79","239154","0.0-17.0-0.21","0c2f0184-fefb-4602-bc9f-ee27470ce031","1000","
                  <p style=""text-align: center;"">₪16
                                                <br>20%</p>
                  <p id=""wtp"" style=""text-align:center; margin-top: 0px; margin-bottom: 0px; font-size: 40px"";>&ensp;</p>","-","viewing","0","8","14C,17A,20C,27A","","","","","","","","","","","","","","","","","","",""
"","","","","","html-slider-response","80","240459","0.0-17.0-1.21","0c2f0184-fefb-4602-bc9f-ee27470ce031","1303","
                  <p style=""text-align: center;"">₪16
                                                <br>20%</p>
                  <p id=""wtp"" style=""text-align:center; margin-top: 0px; margin-bottom: 0px; font-size: 40px"";>מוכנים לשלם: <span id=""c_p_y""></span></p>","1","evaluation","49","8","14C,17A,20C,27A","20","16","2","","","","","","","","","","","","","","","",""
"","","","","","html-keyboard-response","81","241150","0.0-17.0-2.21","0c2f0184-fefb-4602-bc9f-ee27470ce031","null","<p style=""text-align: center;"">+</p>","null","fixation","","","","","","","","","","","","","","","","","","","","","",""
"","","","","","html-slider-response","82","242166","0.0-17.0-0.22","0c2f0184-fefb-4602-bc9f-ee27470ce031","1000","
                  <p style=""text-align: center;"">₪58
                                                <br>40%</p>
                  <p id=""wtp"" style=""text-align:center; margin-top: 0px; margin-bottom: 0px; font-size: 40px"";>&ensp;</p>","-","viewing","0","20","10C,13A,19C,21B","","","","","","","","","","","","","","","","","","",""
"","","","","","html-slider-response","83","243754","0.0-17.0-1.22","0c2f0184-fefb-4602-bc9f-ee27470ce031","1588","
                  <p style=""text-align: center;"">₪58
                                                <br>40%</p>
                  <p id=""wtp"" style=""text-align:center; margin-top: 0px; margin-bottom: 0px; font-size: 40px"";>מוכנים לשלם: <span id=""c_p_y""></span></p>","20","evaluation","4","20","10C,13A,19C,21B","40","58","20","","","","","","","","","","","","","","","",""
"","","","","","html-keyboard-response","84","244604","0.0-17.0-2.22","0c2f0184-fefb-4602-bc9f-ee27470ce031","null","<p style=""text-align: center;"">+</p>","null","fixation","","","","","","","","","","","","","","","","","","","","","",""
"","","","","","html-slider-response","85","245607","0.0-17.0-0.23","0c2f0184-fefb-4602-bc9f-ee27470ce031","1000","
                  <p style=""text-align: center;"">₪36
                                                <br>75%</p>
                  <p id=""wtp"" style=""text-align:center; margin-top: 0px; margin-bottom: 0px; font-size: 40px"";>&ensp;</p>","-","viewing","0","14","4B,5A,13B,16B","","","","","","","","","","","","","","","","","","",""
"","","","","","html-slider-response","86","248762","0.0-17.0-1.23","0c2f0184-fefb-4602-bc9f-ee27470ce031","3154","
                  <p style=""text-align: center;"">₪36
                                                <br>75%</p>
                  <p id=""wtp"" style=""text-align:center; margin-top: 0px; margin-bottom: 0px; font-size: 40px"";>מוכנים לשלם: <span id=""c_p_y""></span></p>","23","evaluation","37","14","4B,5A,13B,16B","75","36","23","","","","","","","","","","","","","","","",""
"","","","","","html-keyboard-response","87","249342","0.0-17.0-2.23","0c2f0184-fefb-4602-bc9f-ee27470ce031","null","<p style=""text-align: center;"">+</p>","null","fixation","","","","","","","","","","","","","","","","","","","","","",""
"","","","","","html-slider-response","88","250344","0.0-17.0-0.24","0c2f0184-fefb-4602-bc9f-ee27470ce031","1000","
                  <p style=""text-align: center;"">₪36
                                                <br>30%</p>
                  <p id=""wtp"" style=""text-align:center; margin-top: 0px; margin-bottom: 0px; font-size: 40px"";>&ensp;</p>","-","viewing","0","11","3C,20A,22A","","","","","","","","","","","","","","","","","","",""
"","","","","","html-slider-response","89","251066","0.0-17.0-1.24","0c2f0184-fefb-4602-bc9f-ee27470ce031","720","
                  <p style=""text-align: center;"">₪36
                                                <br>30%</p>
                  <p id=""wtp"" style=""text-align:center; margin-top: 0px; margin-bottom: 0px; font-size: 40px"";>מוכנים לשלם: <span id=""c_p_y""></span></p>","11","evaluation","9","11","3C,20A,22A","30","36","11","","","","","","","","","","","","","","","",""
"","","","","","html-keyboard-response","90","252018","0.0-17.0-2.24","0c2f0184-fefb-4602-bc9f-ee27470ce031","null","<p style=""text-align: center;"">+</p>","null","fixation","","","","","","","","","","","","","","","","","","","","","",""
"","","","","","html-slider-response","91","253024","0.0-17.0-0.25","0c2f0184-fefb-4602-bc9f-ee27470ce031","1000","
                  <p style=""text-align: center;"">₪18
                                                <br>50%</p>
                  <p id=""wtp"" style=""text-align:center; margin-top: 0px; margin-bottom: 0px; font-size: 40px"";>&ensp;</p>","-","viewing","0","10","2C,16C,22B,28A","","","","","","","","","","","","","","","","","","",""
"","","","","","html-slider-response","92","254586","0.0-17.0-1.25","0c2f0184-fefb-4602-bc9f-ee27470ce031","1560","
                  <p style=""text-align: center;"">₪18
                                                <br>50%</p>
                  <p id=""wtp"" style=""text-align:center; margin-top: 0px; margin-bottom: 0px; font-size: 40px"";>מוכנים לשלם: <span id=""c_p_y""></span></p>","9","evaluation","54","10","2C,16C,22B,28A","50","18","9","","","","","","","","","","","","","","","",""
"","","","","","html-keyboard-response","93","255730","0.0-17.0-2.25","0c2f0184-fefb-4602-bc9f-ee27470ce031","null","<p style=""text-align: center;"">+</p>","null","fixation","","","","","","","","","","","","","","","","","","","","","",""
"","","","","","html-slider-response","94","256746","0.0-17.0-0.26","0c2f0184-fefb-4602-bc9f-ee27470ce031","1000","
                  <p style=""text-align: center;"">₪61
                                                <br>55%</p>
                  <p id=""wtp"" style=""text-align:center; margin-top: 0px; margin-bottom: 0px; font-size: 40px"";>&ensp;</p>","-","viewing","0","23","7B,26B","","","","","","","","","","","","","","","","","","",""
"","","","","","html-slider-response","95","258442","0.0-17.0-1.26","0c2f0184-fefb-4602-bc9f-ee27470ce031","1694","
                  <p style=""text-align: center;"">₪61
                                                <br>55%</p>
                  <p id=""wtp"" style=""text-align:center; margin-top: 0px; margin-bottom: 0px; font-size: 40px"";>מוכנים לשלם: <span id=""c_p_y""></span></p>","12","evaluation","43","23","7B,26B","55","61","12","","","","","","","","","","","","","","","",""
"","","","","","html-keyboard-response","96","259679","0.0-17.0-2.26","0c2f0184-fefb-4602-bc9f-ee27470ce031","null","<p style=""text-align: center;"">+</p>","null","fixation","","","","","","","","","","","","","","","","","","","","","",""
"","","","","","html-slider-response","97","260683","0.0-17.0-0.27","0c2f0184-fefb-4602-bc9f-ee27470ce031","1000","
                  <p style=""text-align: center;"">₪58
                                                <br>45%</p>
                  <p id=""wtp"" style=""text-align:center; margin-top: 0px; margin-bottom: 0px; font-size: 40px"";>&ensp;</p>","-","viewing","0","21","11C,18C,25A","","","","","","","","","","","","","","","","","","",""
"","","","","","html-slider-response","98","262202","0.0-17.0-1.27","0c2f0184-fefb-4602-bc9f-ee27470ce031","1517","
                  <p style=""text-align: center;"">₪58
                                                <br>45%</p>
                  <p id=""wtp"" style=""text-align:center; margin-top: 0px; margin-bottom: 0px; font-size: 40px"";>מוכנים לשלם: <span id=""c_p_y""></span></p>","27","evaluation","71","21","11C,18C,25A","45","58","27","","","","","","","","","","","","","","","",""
"","","","","","html-keyboard-response","99","263074","0.0-17.0-2.27","0c2f0184-fefb-4602-bc9f-ee27470ce031","null","<p style=""text-align: center;"">+</p>","null","fixation","","","","","","","","","","","","","","","","","","","","","",""
"","","","","","html-slider-response","100","264084","0.0-17.0-0.28","0c2f0184-fefb-4602-bc9f-ee27470ce031","1000","
                  <p style=""text-align: center;"">₪39
                                                <br>65%</p>
                  <p id=""wtp"" style=""text-align:center; margin-top: 0px; margin-bottom: 0px; font-size: 40px"";>&ensp;</p>","-","viewing","0","16","1A,15A,26C","","","","","","","","","","","","","","","","","","",""
"","","","","","html-slider-response","101","266058","0.0-17.0-1.28","0c2f0184-fefb-4602-bc9f-ee27470ce031","1973","
                  <p style=""text-align: center;"">₪39
                                                <br>65%</p>
                  <p id=""wtp"" style=""text-align:center; margin-top: 0px; margin-bottom: 0px; font-size: 40px"";>מוכנים לשלם: <span id=""c_p_y""></span></p>","19","evaluation","59","16","1A,15A,26C","65","39","19","","","","","","","","","","","","","","","",""
"","","","","","html-keyboard-response","102","267012","0.0-17.0-2.28","0c2f0184-fefb-4602-bc9f-ee27470ce031","null","<p style=""text-align: center;"">+</p>","null","fixation","","","","","","","","","","","","","","","","","","","","","",""
"","","","","","html-slider-response","103","268020","0.0-17.0-0.29","0c2f0184-fefb-4602-bc9f-ee27470ce031","1000","
                  <p style=""text-align: center;"">₪18
                                                <br>25%</p>
                  <p id=""wtp"" style=""text-align:center; margin-top: 0px; margin-bottom: 0px; font-size: 40px"";>&ensp;</p>","-","viewing","0","9","14A,23A","","","","","","","","","","","","","","","","","","",""
"","","","","","html-slider-response","104","269178","0.0-17.0-1.29","0c2f0184-fefb-4602-bc9f-ee27470ce031","1156","
                  <p style=""text-align: center;"">₪18
                                                <br>25%</p>
                  <p id=""wtp"" style=""text-align:center; margin-top: 0px; margin-bottom: 0px; font-size: 40px"";>מוכנים לשלם: <span id=""c_p_y""></span></p>","7","evaluation","29","9","14A,23A","25","18","7","","","","","","","","","","","","","","","",""
"","","","","","html-keyboard-response","105","270116","0.0-17.0-2.29","0c2f0184-fefb-4602-bc9f-ee27470ce031","null","<p style=""text-align: center;"">+</p>","null","fixation","","","","","","","","","","","","","","","","","","","","","",""
"","","","","","html-slider-response","106","271132","0.0-17.0-0.30","0c2f0184-fefb-4602-bc9f-ee27470ce031","1000","
                  <p style=""text-align: center;"">₪4
                                                <br>75%</p>
                  <p id=""wtp"" style=""text-align:center; margin-top: 0px; margin-bottom: 0px; font-size: 40px"";>&ensp;</p>","-","viewing","0","3","12B,20B,23B,27C,29C","","","","","","","","","","","","","","","","","","",""
"","","","","","html-slider-response","107","273322","0.0-17.0-1.30","0c2f0184-fefb-4602-bc9f-ee27470ce031","2188","
                  <p style=""text-align: center;"">₪4
                                                <br>75%</p>
                  <p id=""wtp"" style=""text-align:center; margin-top: 0px; margin-bottom: 0px; font-size: 40px"";>מוכנים לשלם: <span id=""c_p_y""></span></p>","3","evaluation","66","3","12B,20B,23B,27C,29C","75","4","3","","","","","","","","","","","","","","","",""
"","","","","","html-keyboard-response","108","274037","0.0-17.0-2.30","0c2f0184-fefb-4602-bc9f-ee27470ce031","null","<p style=""text-align: center;"">+</p>","null","fixation","","","","","","","","","","","","","","","","","","","","","",""
"","","","","","html-keyboard-response","109","275038","0.0-18.0","0c2f0184-fefb-4602-bc9f-ee27470ce031","null","<p style=""text-align: center;"">+</p>","null","fixation","","","","","","","","","","","","","","","","","","","","","",""
"","","","","","html-keyboard-response","110","282466","0.0-19.0","0c2f0184-fefb-4602-bc9f-ee27470ce031","null","<p>הפסקה.
          <br>לחצו כדי להמשיך.</p>","1","scan_wait","","","","","","","","","","","","","","","","","","","","","",""
"","","","","","html-keyboard-response","111","283476","0.0-20.0","0c2f0184-fefb-4602-bc9f-ee27470ce031","null","<p style=""text-align: center;"">+</p>","null","fixation","","","","","","","","","","","","","","","","","","","","","",""
"","","","","","html-slider-response","112","284492","0.0-21.0-0.0","0c2f0184-fefb-4602-bc9f-ee27470ce031","1000","
                  <p style=""text-align: center;"">₪71
                                                <br>45%</p>
                  <p id=""wtp"" style=""text-align:center; margin-top: 0px; margin-bottom: 0px; font-size: 40px"";>&ensp;</p>","-","viewing","0","26","2B,16A","","","","","","","","","","","","","","","","","","",""
"","","","","","html-slider-response","113","285898","0.0-21.0-1.0","0c2f0184-fefb-4602-bc9f-ee27470ce031","1404","
                  <p style=""text-align: center;"">₪71
                                                <br>45%</p>
                  <p id=""wtp"" style=""text-align:center; margin-top: 0px; margin-bottom: 0px; font-size: 40px"";>מוכנים לשלם: <span id=""c_p_y""></span></p>","38","evaluation","45","26","2B,16A","45","71","38","","","","","","","","","","","","","","","",""
"","","","","","html-keyboard-response","114","287227","0.0-21.0-2.0","0c2f0184-fefb-4602-bc9f-ee27470ce031","null","<p style=""text-align: center;"">+</p>","null","fixation","","","","","","","","","","","","","","","","","","","","","",""
"","","","","","html-slider-response","115","288230","0.0-21.0-0.1","0c2f0184-fefb-4602-bc9f-ee27470ce031","1000","
                  <p style=""text-align: center;"">₪11
                                                <br>75%</p>
                  <p id=""wtp"" style=""text-align:center; margin-top: 0px; margin-bottom: 0px; font-size: 40px"";>&ensp;</p>","-","viewing","0","7","6B,18B,22C,24C,29A","","","","","","","","","","","","","","","","","","",""
"","","","","","html-slider-response","116","289850","0.0-21.0-1.1","0c2f0184-fefb-4602-bc9f-ee27470ce031","1618","
                  <p style=""text-align: center;"">₪11
                                                <br>75%</p>
                  <p id=""wtp"" style=""text-align:center; margin-top: 0px; margin-bottom: 0px; font-size: 40px"";>מוכנים לשלם: <span id=""c_p_y""></span></p>","4","evaluation","46","7","6B,18B,22C,24C,29A","75","11","4","","","","","","","","","","","","","","","",""
"","","","","","html-keyboard-response","117","290858","0.0-21.0-2.1","0c2f0184-fefb-4602-bc9f-ee27470ce031","null","<p style=""text-align: center;"">+</p>","null","fixation","","","","","","","","","","","","","","","","","","","","","",""
"","","","","","html-slider-response","118","291875","0.0-21.0-0.2","0c2f0184-fefb-4602-bc9f-ee27470ce031","1000","
                  <p style=""text-align: center;"">₪61
                                                <br>45%</p>
                  <p id=""wtp"" style=""text-align:center; margin-top: 0px; margin-bottom: 0px; font-size: 40px"";>&ensp;</p>","-","viewing","0","22","10A,11A","","","","","","","","","","","","","","","","","","",""
"","","","","","html-slider-response","119","294490","0.0-21.0-1.2","0c2f0184-fefb-4602-bc9f-ee27470ce031","2612","
                  <p style=""text-align: center;"">₪61
                                                <br>45%</p>
                  <p id=""wtp"" style=""text-align:center; margin-top: 0px; margin-bottom: 0px; font-size: 40px"";>מוכנים לשלם: <span id=""c_p_y""></span></p>","34","evaluation","70","22","10A,11A","45","61","34","","","","","","","","","","","","","","","",""
"","","","","","html-keyboard-response","120","295533","0.0-21.0-2.2","0c2f0184-fefb-4602-bc9f-ee27470ce031","null","<p style=""text-align: center;"">+</p>","null","fixation","","","","","","","","","","","","","","","","","","","","","",""
"","","","","","html-slider-response","121","296537","0.0-21.0-0.3","0c2f0184-fefb-4602-bc9f-ee27470ce031","1000","
                  <p style=""text-align: center;"">₪71
                                                <br>55%</p>
                  <p id=""wtp"" style=""text-align:center; margin-top: 0px; margin-bottom: 0px; font-size: 40px"";>&ensp;</p>","-","viewing","0","27","5B,18A","","","","","","","","","","","","","","","","","","",""
"","","","","","html-slider-response","122","298218","0.0-21.0-1.3","0c2f0184-fefb-4602-bc9f-ee27470ce031","1679","
                  <p style=""text-align: center;"">₪71
                                                <br>55%</p>
                  <p id=""wtp"" style=""text-align:center; margin-top: 0px; margin-bottom: 0px; font-size: 40px"";>מוכנים לשלם: <span id=""c_p_y""></span></p>","35","evaluation","22","27","5B,18A","55","71","35","","","","","","","","","","","","","","","",""
"","","","","","html-keyboard-response","123","299129","0.0-21.0-2.3","0c2f0184-fefb-4602-bc9f-ee27470ce031","null","<p style=""text-align: center;"">+</p>","null","fixation","","","","","","","","","","","","","","","","","","","","","",""
"","","","","","html-slider-response","124","300133","0.0-21.0-0.4","0c2f0184-fefb-4602-bc9f-ee27470ce031","1000","
                  <p style=""text-align: center;"">₪18
                                                <br>25%</p>
                  <p id=""wtp"" style=""text-align:center; margin-top: 0px; margin-bottom: 0px; font-size: 40px"";>&ensp;</p>","-","viewing","0","9","14A,23A","","","","","","","","","","","","","","","","","","",""
"","","","","","html-slider-response","125","301178","0.0-21.0-1.4","0c2f0184-fefb-4602-bc9f-ee27470ce031","1043","
                  <p style=""text-align: center;"">₪18
                                                <br>25%</p>
                  <p id=""wtp"" style=""text-align:center; margin-top: 0px; margin-bottom: 0px; font-size: 40px"";>מוכנים לשלם: <span id=""c_p_y""></span></p>","2","evaluation","72","9","14A,23A","25","18","2","","","","","","","","","","","","","","","",""
"","","","","","html-keyboard-response","126","301846","0.0-21.0-2.4","0c2f0184-fefb-4602-bc9f-ee27470ce031","null","<p style=""text-align: center;"">+</p>","null","fixation","","","","","","","","","","","","","","","","","","","","","",""
"","","","","","html-slider-response","127","302848","0.0-21.0-0.5","0c2f0184-fefb-4602-bc9f-ee27470ce031","1000","
                  <p style=""text-align: center;"">₪11
                                                <br>45%</p>
                  <p id=""wtp"" style=""text-align:center; margin-top: 0px; margin-bottom: 0px; font-size: 40px"";>&ensp;</p>","-","viewing","0","6","14B,21C,25C","","","","","","","","","","","","","","","","","","",""
"","","","","","html-slider-response","128","304530","0.0-21.0-1.5","0c2f0184-fefb-4602-bc9f-ee27470ce031","1681","
                  <p style=""text-align: center;"">₪11
                                                <br>45%</p>
                  <p id=""wtp"" style=""text-align:center; margin-top: 0px; margin-bottom: 0px; font-size: 40px"";>מוכנים לשלם: <span id=""c_p_y""></span></p>","7","evaluation","18","6","14B,21C,25C","45","11","8","","","","","","","","","","","","","","","",""
"","","","","","html-keyboard-response","129","305453","0.0-21.0-2.5","0c2f0184-fefb-4602-bc9f-ee27470ce031","null","<p style=""text-align: center;"">+</p>","null","fixation","","","","","","","","","","","","","","","","","","","","","",""
"","","","","","html-slider-response","130","306470","0.0-21.0-0.6","0c2f0184-fefb-4602-bc9f-ee27470ce031","1000","
                  <p style=""text-align: center;"">₪76
                                                <br>65%</p>
                  <p id=""wtp"" style=""text-align:center; margin-top: 0px; margin-bottom: 0px; font-size: 40px"";>&ensp;</p>","-","viewing","0","29","8C,19A,24B","","","","","","","","","","","","","","","","","","",""
"","","","","","html-slider-response","131","307602","0.0-21.0-1.6","0c2f0184-fefb-4602-bc9f-ee27470ce031","1131","
                  <p style=""text-align: center;"">₪76
                                                <br>65%</p>
                  <p id=""wtp"" style=""text-align:center; margin-top: 0px; margin-bottom: 0px; font-size: 40px"";>מוכנים לשלם: <span id=""c_p_y""></span></p>","40","evaluation","22","29","8C,19A,24B","65","76","40","","","","","","","","","","","","","","","",""
"","","","","","html-keyboard-response","132","308203","0.0-21.0-2.6","0c2f0184-fefb-4602-bc9f-ee27470ce031","null","<p style=""text-align: center;"">+</p>","null","fixation","","","","","","","","","","","","","","","","","","","","","",""
"","","","","","html-slider-response","133","309218","0.0-21.0-0.7","0c2f0184-fefb-4602-bc9f-ee27470ce031","1000","
                  <p style=""text-align: center;"">₪39
                                                <br>65%</p>
                  <p id=""wtp"" style=""text-align:center; margin-top: 0px; margin-bottom: 0px; font-size: 40px"";>&ensp;</p>","-","viewing","0","16","1A,15A,26C","","","","","","","","","","","","","","","","","","",""
"","","","","","html-slider-response","134","310962","0.0-21.0-1.7","0c2f0184-fefb-4602-bc9f-ee27470ce031","1743","
                  <p style=""text-align: center;"">₪39
                                                <br>65%</p>
                  <p id=""wtp"" style=""text-align:center; margin-top: 0px; margin-bottom: 0px; font-size: 40px"";>מוכנים לשלם: <span id=""c_p_y""></span></p>","8","evaluation","71","16","1A,15A,26C","65","39","8","","","","","","","","","","","","","","","",""
"","","","","","html-keyboard-response","135","311806","0.0-21.0-2.7","0c2f0184-fefb-4602-bc9f-ee27470ce031","null","<p style=""text-align: center;"">+</p>","null","fixation","","","","","","","","","","","","","","","","","","","","","",""
"","","","","","html-slider-response","136","312809","0.0-21.0-0.8","0c2f0184-fefb-4602-bc9f-ee27470ce031","1000","
                  <p style=""text-align: center;"">₪71
                                                <br>75%</p>
                  <p id=""wtp"" style=""text-align:center; margin-top: 0px; margin-bottom: 0px; font-size: 40px"";>&ensp;</p>","-","viewing","0","28","8B","","","","","","","","","","","","","","","","","","",""
"","","","","","html-slider-response","137","314082","0.0-21.0-1.8","0c2f0184-fefb-4602-bc9f-ee27470ce031","1271","
                  <p style=""text-align: center;"">₪71
                                                <br>75%</p>
                  <p id=""wtp"" style=""text-align:center; margin-top: 0px; margin-bottom: 0px; font-size: 40px"";>מוכנים לשלם: <span id=""c_p_y""></span></p>","56","evaluation","56","28","8B","75","71","56","","","","","","","","","","","","","","","",""
"","","","","","html-keyboard-response","138","315450","0.0-21.0-2.8","0c2f0184-fefb-4602-bc9f-ee27470ce031","null","<p style=""text-align: center;"">+</p>","null","fixation","","","","","","","","","","","","","","","","","","","","","",""
"","","","","","html-slider-response","139","316458","0.0-21.0-0.9","0c2f0184-fefb-4602-bc9f-ee27470ce031","1000","
                  <p style=""text-align: center;"">₪36
                                                <br>70%</p>
                  <p id=""wtp"" style=""text-align:center; margin-top: 0px; margin-bottom: 0px; font-size: 40px"";>&ensp;</p>","-","viewing","0","13","3A,5C,10B","","","","","","","","","","","","","","","","","","",""
"","","","","","html-slider-response","140","318370","0.0-21.0-1.9","0c2f0184-fefb-4602-bc9f-ee27470ce031","1911","
                  <p style=""text-align: center;"">₪36
                                                <br>70%</p>
                  <p id=""wtp"" style=""text-align:center; margin-top: 0px; margin-bottom: 0px; font-size: 40px"";>מוכנים לשלם: <span id=""c_p_y""></span></p>","10","evaluation","43","13","3A,5C,10B","70","36","11","","","","","","","","","","","","","","","",""
"","","","","","html-keyboard-response","141","319499","0.0-21.0-2.9","0c2f0184-fefb-4602-bc9f-ee27470ce031","null","<p style=""text-align: center;"">+</p>","null","fixation","","","","","","","","","","","","","","","","","","","","","",""
"","","","","","html-slider-response","142","320503","0.0-21.0-0.10","0c2f0184-fefb-4602-bc9f-ee27470ce031","1000","
                  <p style=""text-align: center;"">₪16
                                                <br>20%</p>
                  <p id=""wtp"" style=""text-align:center; margin-top: 0px; margin-bottom: 0px; font-size: 40px"";>&ensp;</p>","-","viewing","0","8","14C,17A,20C,27A","","","","","","","","","","","","","","","","","","",""
"","","","","","html-slider-response","143","321770","0.0-21.0-1.10","0c2f0184-fefb-4602-bc9f-ee27470ce031","1266","
                  <p style=""text-align: center;"">₪16
                                                <br>20%</p>
                  <p id=""wtp"" style=""text-align:center; margin-top: 0px; margin-bottom: 0px; font-size: 40px"";>מוכנים לשלם: <span id=""c_p_y""></span></p>","3","evaluation","64","8","14C,17A,20C,27A","20","16","4","","","","","","","","","","","","","","","",""
"","","","","","html-keyboard-response","144","323219","0.0-21.0-2.10","0c2f0184-fefb-4602-bc9f-ee27470ce031","null","<p style=""text-align: center;"">+</p>","null","fixation","","","","","","","","","","","","","","","","","","","","","",""
"","","","","","html-slider-response","145","324227","0.0-21.0-0.11","0c2f0184-fefb-4602-bc9f-ee27470ce031","1000","
                  <p style=""text-align: center;"">₪11
                                                <br>20%</p>
                  <p id=""wtp"" style=""text-align:center; margin-top: 0px; margin-bottom: 0px; font-size: 40px"";>&ensp;</p>","-","viewing","0","4","12C,17C,23C,28C","","","","","","","","","","","","","","","","","","",""
"","","","","","html-slider-response","146","326650","0.0-21.0-1.11","0c2f0184-fefb-4602-bc9f-ee27470ce031","2422","
                  <p style=""text-align: center;"">₪11
                                                <br>20%</p>
                  <p id=""wtp"" style=""text-align:center; margin-top: 0px; margin-bottom: 0px; font-size: 40px"";>מוכנים לשלם: <span id=""c_p_y""></span></p>","5","evaluation","25","4","12C,17C,23C,28C","20","11","6","","","","","","","","","","","","","","","",""
"","","","","","html-keyboard-response","147","327993","0.0-21.0-2.11","0c2f0184-fefb-4602-bc9f-ee27470ce031","null","<p style=""text-align: center;"">+</p>","null","fixation","","","","","","","","","","","","","","","","","","","","","",""
"","","","","","html-slider-response","148","329009","0.0-21.0-0.12","0c2f0184-fefb-4602-bc9f-ee27470ce031","1000","
                  <p style=""text-align: center;"">₪79
                                                <br>40%</p>
                  <p id=""wtp"" style=""text-align:center; margin-top: 0px; margin-bottom: 0px; font-size: 40px"";>&ensp;</p>","-","viewing","0","30","9B","","","","","","","","","","","","","","","","","","",""
"","","","","","html-slider-response","149","330346","0.0-21.0-1.12","0c2f0184-fefb-4602-bc9f-ee27470ce031","1336","
                  <p style=""text-align: center;"">₪79
                                                <br>40%</p>
                  <p id=""wtp"" style=""text-align:center; margin-top: 0px; margin-bottom: 0px; font-size: 40px"";>מוכנים לשלם: <span id=""c_p_y""></span></p>","28","evaluation","68","30","9B","40","79","28","","","","","","","","","","","","","","","",""
"","","","","","html-keyboard-response","150","331138","0.0-21.0-2.12","0c2f0184-fefb-4602-bc9f-ee27470ce031","null","<p style=""text-align: center;"">+</p>","null","fixation","","","","","","","","","","","","","","","","","","","","","",""
"","","","","","html-slider-response","151","332141","0.0-21.0-0.13","0c2f0184-fefb-4602-bc9f-ee27470ce031","1000","
                  <p style=""text-align: center;"">₪58
                                                <br>30%</p>
                  <p id=""wtp"" style=""text-align:center; margin-top: 0px; margin-bottom: 0px; font-size: 40px"";>&ensp;</p>","-","viewing","0","19","13C,30A","","","","","","","","","","","","","","","","","","",""
"","","","","","html-slider-response","152","334058","0.0-21.0-1.13","0c2f0184-fefb-4602-bc9f-ee27470ce031","1916","
                  <p style=""text-align: center;"">₪58
                                                <br>30%</p>
                  <p id=""wtp"" style=""text-align:center; margin-top: 0px; margin-bottom: 0px; font-size: 40px"";>מוכנים לשלם: <span id=""c_p_y""></span></p>","14","evaluation","30","19","13C,30A","30","58","14","","","","","","","","","","","","","","","",""
"","","","","","html-keyboard-response","153","334631","0.0-21.0-2.13","0c2f0184-fefb-4602-bc9f-ee27470ce031","null","<p style=""text-align: center;"">+</p>","null","fixation","","","","","","","","","","","","","","","","","","","","","",""
"","","","","","html-slider-response","154","335640","0.0-21.0-0.14","0c2f0184-fefb-4602-bc9f-ee27470ce031","1000","
                  <p style=""text-align: center;"">₪43
                                                <br>75%</p>
                  <p id=""wtp"" style=""text-align:center; margin-top: 0px; margin-bottom: 0px; font-size: 40px"";>&ensp;</p>","-","viewing","0","18","11B,19B,24A,26A","","","","","","","","","","","","","","","","","","",""
"","","","","","html-slider-response","155","337802","0.0-21.0-1.14","0c2f0184-fefb-4602-bc9f-ee27470ce031","2161","
                  <p style=""text-align: center;"">₪43
                                                <br>75%</p>
                  <p id=""wtp"" style=""text-align:center; margin-top: 0px; margin-bottom: 0px; font-size: 40px"";>מוכנים לשלם: <span id=""c_p_y""></span></p>","52","evaluation","73","18","11B,19B,24A,26A","75","43","52","","","","","","","","","","","","","","","",""
"","","","","","html-keyboard-response","156","339117","0.0-21.0-2.14","0c2f0184-fefb-4602-bc9f-ee27470ce031","null","<p style=""text-align: center;"">+</p>","null","fixation","","","","","","","","","","","","","","","","","","","","","",""
"","","","","","html-slider-response","157","340130","0.0-21.0-0.15","0c2f0184-fefb-4602-bc9f-ee27470ce031","1000","
                  <p style=""text-align: center;"">₪36
                                                <br>30%</p>
                  <p id=""wtp"" style=""text-align:center; margin-top: 0px; margin-bottom: 0px; font-size: 40px"";>&ensp;</p>","-","viewing","0","11","3C,20A,22A","","","","","","","","","","","","","","","","","","",""
"","","","","","html-slider-response","158","342714","0.0-21.0-1.15","0c2f0184-fefb-4602-bc9f-ee27470ce031","2582","
                  <p style=""text-align: center;"">₪36
                                                <br>30%</p>
                  <p id=""wtp"" style=""text-align:center; margin-top: 0px; margin-bottom: 0px; font-size: 40px"";>מוכנים לשלם: <span id=""c_p_y""></span></p>","24","evaluation","13","11","3C,20A,22A","30","36","24","","","","","","","","","","","","","","","",""
"","","","","","html-keyboard-response","159","344154","0.0-21.0-2.15","0c2f0184-fefb-4602-bc9f-ee27470ce031","null","<p style=""text-align: center;"">+</p>","null","fixation","","","","","","","","","","","","","","","","","","","","","",""
"","","","","","html-slider-response","160","345160","0.0-21.0-0.16","0c2f0184-fefb-4602-bc9f-ee27470ce031","1000","
                  <p style=""text-align: center;"">₪58
                                                <br>40%</p>
                  <p id=""wtp"" style=""text-align:center; margin-top: 0px; margin-bottom: 0px; font-size: 40px"";>&ensp;</p>","-","viewing","0","20","10C,13A,19C,21B","","","","","","","","","","","","","","","","","","",""
"","","","","","html-slider-response","161","347050","0.0-21.0-1.16","0c2f0184-fefb-4602-bc9f-ee27470ce031","1889","
                  <p style=""text-align: center;"">₪58
                                                <br>40%</p>
                  <p id=""wtp"" style=""text-align:center; margin-top: 0px; margin-bottom: 0px; font-size: 40px"";>מוכנים לשלם: <span id=""c_p_y""></span></p>","32","evaluation","26","20","10C,13A,19C,21B","40","58","32","","","","","","","","","","","","","","","",""
"","","","","","html-keyboard-response","162","347998","0.0-21.0-2.16","0c2f0184-fefb-4602-bc9f-ee27470ce031","null","<p style=""text-align: center;"">+</p>","null","fixation","","","","","","","","","","","","","","","","","","","","","",""
"","","","","","html-slider-response","163","349001","0.0-21.0-0.17","0c2f0184-fefb-4602-bc9f-ee27470ce031","1000","
                  <p style=""text-align: center;"">₪18
                                                <br>50%</p>
                  <p id=""wtp"" style=""text-align:center; margin-top: 0px; margin-bottom: 0px; font-size: 40px"";>&ensp;</p>","-","viewing","0","10","2C,16C,22B,28A","","","","","","","","","","","","","","","","","","",""
"","","","","","html-slider-response","164","350138","0.0-21.0-1.17","0c2f0184-fefb-4602-bc9f-ee27470ce031","1135","
                  <p style=""text-align: center;"">₪18
                                                <br>50%</p>
                  <p id=""wtp"" style=""text-align:center; margin-top: 0px; margin-bottom: 0px; font-size: 40px"";>מוכנים לשלם: <span id=""c_p_y""></span></p>","5","evaluation","6","10","2C,16C,22B,28A","50","18","5","","","","","","","","","","","","","","","",""
"","","","","","html-keyboard-response","165","350914","0.0-21.0-2.17","0c2f0184-fefb-4602-bc9f-ee27470ce031","null","<p style=""text-align: center;"">+</p>","null","fixation","","","","","","","","","","","","","","","","","","","","","",""
"","","","","","html-slider-response","166","351931","0.0-21.0-0.18","0c2f0184-fefb-4602-bc9f-ee27470ce031","1000","
                  <p style=""text-align: center;"">₪64
                                                <br>50%</p>
                  <p id=""wtp"" style=""text-align:center; margin-top: 0px; margin-bottom: 0px; font-size: 40px"";>&ensp;</p>","-","viewing","0","25","1B,3B,4A","","","","","","","","","","","","","","","","","","",""
"","","","","","html-slider-response","167","354026","0.0-21.0-1.18","0c2f0184-fefb-4602-bc9f-ee27470ce031","2094","
                  <p style=""text-align: center;"">₪64
                                                <br>50%</p>
                  <p id=""wtp"" style=""text-align:center; margin-top: 0px; margin-bottom: 0px; font-size: 40px"";>מוכנים לשלם: <span id=""c_p_y""></span></p>","31","evaluation","14","25","1B,3B,4A","50","64","31","","","","","","","","","","","","","","","",""
"","","","","","html-keyboard-response","168","355429","0.0-21.0-2.18","0c2f0184-fefb-4602-bc9f-ee27470ce031","null","<p style=""text-align: center;"">+</p>","null","fixation","","","","","","","","","","","","","","","","","","","","","",""
"","","","","","html-slider-response","169","356438","0.0-21.0-0.19","0c2f0184-fefb-4602-bc9f-ee27470ce031","1000","
                  <p style=""text-align: center;"">₪79
                                                <br>65%</p>
                  <p id=""wtp"" style=""text-align:center; margin-top: 0px; margin-bottom: 0px; font-size: 40px"";>&ensp;</p>","-","viewing","0","31","8A","","","","","","","","","","","","","","","","","","",""
"","","","","","html-slider-response","170","358458","0.0-21.0-1.19","0c2f0184-fefb-4602-bc9f-ee27470ce031","2018","
                  <p style=""text-align: center;"">₪79
                                                <br>65%</p>
                  <p id=""wtp"" style=""text-align:center; margin-top: 0px; margin-bottom: 0px; font-size: 40px"";>מוכנים לשלם: <span id=""c_p_y""></span></p>","46","evaluation","11","31","8A","65","79","46","","","","","","","","","","","","","","","",""
"","","","","","html-keyboard-response","171","359056","0.0-21.0-2.19","0c2f0184-fefb-4602-bc9f-ee27470ce031","null","<p style=""text-align: center;"">+</p>","null","fixation","","","","","","","","","","","","","","","","","","","","","",""
"","","","","","html-slider-response","172","360059","0.0-21.0-0.20","0c2f0184-fefb-4602-bc9f-ee27470ce031","1000","
                  <p style=""text-align: center;"">₪36
                                                <br>60%</p>
                  <p id=""wtp"" style=""text-align:center; margin-top: 0px; margin-bottom: 0px; font-size: 40px"";>&ensp;</p>","-","viewing","0","12","1C,7C,15C","","","","","","","","","","","","","","","","","","",""
"","","","","","html-slider-response","173","361754","0.0-21.0-1.20","0c2f0184-fefb-4602-bc9f-ee27470ce031","1694","
                  <p style=""text-align: center;"">₪36
                                                <br>60%</p>
                  <p id=""wtp"" style=""text-align:center; margin-top: 0px; margin-bottom: 0px; font-size: 40px"";>מוכנים לשלם: <span id=""c_p_y""></span></p>","13","evaluation","79","12","1C,7C,15C","60","36","13","","","","","","","","","","","","","","","",""
"","","","","","html-keyboard-response","174","362529","0.0-21.0-2.20","0c2f0184-fefb-4602-bc9f-ee27470ce031","null","<p style=""text-align: center;"">+</p>","null","fixation","","","","","","","","","","","","","","","","","","","","","",""
"","","","","","html-slider-response","175","363544","0.0-21.0-0.21","0c2f0184-fefb-4602-bc9f-ee27470ce031","1000","
                  <p style=""text-align: center;"">₪43
                                                <br>60%</p>
                  <p id=""wtp"" style=""text-align:center; margin-top: 0px; margin-bottom: 0px; font-size: 40px"";>&ensp;</p>","-","viewing","0","17","2A,7A,9A,15B","","","","","","","","","","","","","","","","","","",""
"","","","","","html-slider-response","176","365874","0.0-21.0-1.21","0c2f0184-fefb-4602-bc9f-ee27470ce031","2328","
                  <p style=""text-align: center;"">₪43
                                                <br>60%</p>
                  <p id=""wtp"" style=""text-align:center; margin-top: 0px; margin-bottom: 0px; font-size: 40px"";>מוכנים לשלם: <span id=""c_p_y""></span></p>","24","evaluation","59","17","2A,7A,9A,15B","60","43","24","","","","","","","","","","","","","","","",""
"","","","","","html-keyboard-response","177","366921","0.0-21.0-2.21","0c2f0184-fefb-4602-bc9f-ee27470ce031","null","<p style=""text-align: center;"">+</p>","null","fixation","","","","","","","","","","","","","","","","","","","","","",""
"","","","","","html-slider-response","178","367934","0.0-21.0-0.22","0c2f0184-fefb-4602-bc9f-ee27470ce031","1000","
                  <p style=""text-align: center;"">₪36
                                                <br>75%</p>
                  <p id=""wtp"" style=""text-align:center; margin-top: 0px; margin-bottom: 0px; font-size: 40px"";>&ensp;</p>","-","viewing","0","14","4B,5A,13B,16B","","","","","","","","","","","","","","","","","","",""
"","","","","","html-slider-response","179","369979","0.0-21.0-1.22","0c2f0184-fefb-4602-bc9f-ee27470ce031","2044","
                  <p style=""text-align: center;"">₪36
                                                <br>75%</p>
                  <p id=""wtp"" style=""text-align:center; margin-top: 0px; margin-bottom: 0px; font-size: 40px"";>מוכנים לשלם: <span id=""c_p_y""></span></p>","20","evaluation","40","14","4B,5A,13B,16B","75","36","20","","","","","","","","","","","","","","","",""
"","","","","","html-keyboard-response","180","370653","0.0-21.0-2.22","0c2f0184-fefb-4602-bc9f-ee27470ce031","null","<p style=""text-align: center;"">+</p>","null","fixation","","","","","","","","","","","","","","","","","","","","","",""
"","","","","","html-slider-response","181","371657","0.0-21.0-0.23","0c2f0184-fefb-4602-bc9f-ee27470ce031","1000","
                  <p style=""text-align: center;"">₪39
                                                <br>60%</p>
                  <p id=""wtp"" style=""text-align:center; margin-top: 0px; margin-bottom: 0px; font-size: 40px"";>&ensp;</p>","-","viewing","0","15","9C,25B","","","","","","","","","","","","","","","","","","",""
"","","","","","html-slider-response","182","373667","0.0-21.0-1.23","0c2f0184-fefb-4602-bc9f-ee27470ce031","2009","
                  <p style=""text-align: center;"">₪39
                                                <br>60%</p>
                  <p id=""wtp"" style=""text-align:center; margin-top: 0px; margin-bottom: 0px; font-size: 40px"";>מוכנים לשלם: <span id=""c_p_y""></span></p>","20","evaluation","47","15","9C,25B","60","39","20","","","","","","","","","","","","","","","",""
"","","","","","html-keyboard-response","183","374833","0.0-21.0-2.23","0c2f0184-fefb-4602-bc9f-ee27470ce031","null","<p style=""text-align: center;"">+</p>","null","fixation","","","","","","","","","","","","","","","","","","","","","",""
"","","","","","html-slider-response","184","375836","0.0-21.0-0.24","0c2f0184-fefb-4602-bc9f-ee27470ce031","1000","
                  <p style=""text-align: center;"">₪61
                                                <br>55%</p>
                  <p id=""wtp"" style=""text-align:center; margin-top: 0px; margin-bottom: 0px; font-size: 40px"";>&ensp;</p>","-","viewing","0","23","7B,26B","","","","","","","","","","","","","","","","","","",""
"","","","","","html-slider-response","185","377403","0.0-21.0-1.24","0c2f0184-fefb-4602-bc9f-ee27470ce031","1566","
                  <p style=""text-align: center;"">₪61
                                                <br>55%</p>
                  <p id=""wtp"" style=""text-align:center; margin-top: 0px; margin-bottom: 0px; font-size: 40px"";>מוכנים לשלם: <span id=""c_p_y""></span></p>","34","evaluation","38","23","7B,26B","55","61","34","","","","","","","","","","","","","","","",""
"","","","","","html-keyboard-response","186","378117","0.0-21.0-2.24","0c2f0184-fefb-4602-bc9f-ee27470ce031","null","<p style=""text-align: center;"">+</p>","null","fixation","","","","","","","","","","","","","","","","","","","","","",""
"","","","","","html-slider-response","187","379124","0.0-21.0-0.25","0c2f0184-fefb-4602-bc9f-ee27470ce031","1000","
                  <p style=""text-align: center;"">₪4
                                                <br>50%</p>
                  <p id=""wtp"" style=""text-align:center; margin-top: 0px; margin-bottom: 0px; font-size: 40px"";>&ensp;</p>","-","viewing","0","2","4C,17B","","","","","","","","","","","","","","","","","","",""
"","","","","","html-slider-response","188","380947","0.0-21.0-1.25","0c2f0184-fefb-4602-bc9f-ee27470ce031","1822","
                  <p style=""text-align: center;"">₪4
                                                <br>50%</p>
                  <p id=""wtp"" style=""text-align:center; margin-top: 0px; margin-bottom: 0px; font-size: 40px"";>מוכנים לשלם: <span id=""c_p_y""></span></p>","2","evaluation","53","2","4C,17B","50","4","2","","","","","","","","","","","","","","","",""
"","","","","","html-keyboard-response","189","381945","0.0-21.0-2.25","0c2f0184-fefb-4602-bc9f-ee27470ce031","null","<p style=""text-align: center;"">+</p>","null","fixation","","","","","","","","","","","","","","","","","","","","","",""
"","","","","","html-slider-response","190","382957","0.0-21.0-0.26","0c2f0184-fefb-4602-bc9f-ee27470ce031","1000","
                  <p style=""text-align: center;"">₪4
                                                <br>25%</p>
                  <p id=""wtp"" style=""text-align:center; margin-top: 0px; margin-bottom: 0px; font-size: 40px"";>&ensp;</p>","-","viewing","0","1","6C,29B,30C","","","","","","","","","","","","","","","","","","",""
"","","","","","html-slider-response","191","384731","0.0-21.0-1.26","0c2f0184-fefb-4602-bc9f-ee27470ce031","1772","
                  <p style=""text-align: center;"">₪4
                                                <br>25%</p>
                  <p id=""wtp"" style=""text-align:center; margin-top: 0px; margin-bottom: 0px; font-size: 40px"";>מוכנים לשלם: <span id=""c_p_y""></span></p>","2","evaluation","19","1","6C,29B,30C","25","4","3","","","","","","","","","","","","","","","",""
"","","","","","html-keyboard-response","192","386045","0.0-21.0-2.26","0c2f0184-fefb-4602-bc9f-ee27470ce031","null","<p style=""text-align: center;"">+</p>","null","fixation","","","","","","","","","","","","","","","","","","","","","",""
"","","","","","html-slider-response","193","387050","0.0-21.0-0.27","0c2f0184-fefb-4602-bc9f-ee27470ce031","1000","
                  <p style=""text-align: center;"">₪58
                                                <br>45%</p>
                  <p id=""wtp"" style=""text-align:center; margin-top: 0px; margin-bottom: 0px; font-size: 40px"";>&ensp;</p>","-","viewing","0","21","11C,18C,25A","","","","","","","","","","","","","","","","","","",""
"","","","","","html-slider-response","194","389227","0.0-21.0-1.27","0c2f0184-fefb-4602-bc9f-ee27470ce031","2175","
                  <p style=""text-align: center;"">₪58
                                                <br>45%</p>
                  <p id=""wtp"" style=""text-align:center; margin-top: 0px; margin-bottom: 0px; font-size: 40px"";>מוכנים לשלם: <span id=""c_p_y""></span></p>","16","evaluation","16","21","11C,18C,25A","45","58","16","","","","","","","","","","","","","","","",""
"","","","","","html-keyboard-response","195","390203","0.0-21.0-2.27","0c2f0184-fefb-4602-bc9f-ee27470ce031","null","<p style=""text-align: center;"">+</p>","null","fixation","","","","","","","","","","","","","","","","","","","","","",""
"","","","","","html-slider-response","196","391205","0.0-21.0-0.28","0c2f0184-fefb-4602-bc9f-ee27470ce031","1000","
                  <p style=""text-align: center;"">₪11
                                                <br>25%</p>
                  <p id=""wtp"" style=""text-align:center; margin-top: 0px; margin-bottom: 0px; font-size: 40px"";>&ensp;</p>","-","viewing","0","5","12A,27B,28B,30B","","","","","","","","","","","","","","","","","","",""
"","","","","","html-slider-response","197","394155","0.0-21.0-1.28","0c2f0184-fefb-4602-bc9f-ee27470ce031","2949","
                  <p style=""text-align: center;"">₪11
                                                <br>25%</p>
                  <p id=""wtp"" style=""text-align:center; margin-top: 0px; margin-bottom: 0px; font-size: 40px"";>מוכנים לשלם: <span id=""c_p_y""></span></p>","1","evaluation","66","5","12A,27B,28B,30B","25","11","2","","","","","","","","","","","","","","","",""
"","","","","","html-keyboard-response","198","395659","0.0-21.0-2.28","0c2f0184-fefb-4602-bc9f-ee27470ce031","null","<p style=""text-align: center;"">+</p>","null","fixation","","","","","","","","","","","","","","","","","","","","","",""
"","","","","","html-slider-response","199","396664","0.0-21.0-0.29","0c2f0184-fefb-4602-bc9f-ee27470ce031","1000","
                  <p style=""text-align: center;"">₪64
                                                <br>25%</p>
                  <p id=""wtp"" style=""text-align:center; margin-top: 0px; margin-bottom: 0px; font-size: 40px"";>&ensp;</p>","-","viewing","0","24","6A,21A","","","","","","","","","","","","","","","","","","",""
"","","","","","html-slider-response","200","398835","0.0-21.0-1.29","0c2f0184-fefb-4602-bc9f-ee27470ce031","2169","
                  <p style=""text-align: center;"">₪64
                                                <br>25%</p>
                  <p id=""wtp"" style=""text-align:center; margin-top: 0px; margin-bottom: 0px; font-size: 40px"";>מוכנים לשלם: <span id=""c_p_y""></span></p>","10","evaluation","50","24","6A,21A","25","64","10","","","","","","","","","","","","","","","",""
"","","","","","html-keyboard-response","201","399900","0.0-21.0-2.29","0c2f0184-fefb-4602-bc9f-ee27470ce031","null","<p style=""text-align: center;"">+</p>","null","fixation","","","","","","","","","","","","","","","","","","","","","",""
"","","","","","html-slider-response","202","400915","0.0-21.0-0.30","0c2f0184-fefb-4602-bc9f-ee27470ce031","1000","
                  <p style=""text-align: center;"">₪4
                                                <br>75%</p>
                  <p id=""wtp"" style=""text-align:center; margin-top: 0px; margin-bottom: 0px; font-size: 40px"";>&ensp;</p>","-","viewing","0","3","12B,20B,23B,27C,29C","","","","","","","","","","","","","","","","","","",""
"","","","","","html-slider-response","203","403395","0.0-21.0-1.30","0c2f0184-fefb-4602-bc9f-ee27470ce031","2478","
                  <p style=""text-align: center;"">₪4
                                                <br>75%</p>
                  <p id=""wtp"" style=""text-align:center; margin-top: 0px; margin-bottom: 0px; font-size: 40px"";>מוכנים לשלם: <span id=""c_p_y""></span></p>","2","evaluation","32","3","12B,20B,23B,27C,29C","75","4","3","","","","","","","","","","","","","","","",""
"","","","","","html-keyboard-response","204","404724","0.0-21.0-2.30","0c2f0184-fefb-4602-bc9f-ee27470ce031","null","<p style=""text-align: center;"">+</p>","null","fixation","","","","","","","","","","","","","","","","","","","","","",""
"","","","","","html-keyboard-response","205","405733","0.0-22.0","0c2f0184-fefb-4602-bc9f-ee27470ce031","null","<p style=""text-align: center;"">+</p>","null","fixation","","","","","","","","","","","","","","","","","","","","","",""
"","","","","","html-keyboard-response","206","426922","0.0-23.0","0c2f0184-fefb-4602-bc9f-ee27470ce031","null","<p>הפסקה.
          <br>לחצו כדי להמשיך.</p>","1","scan_wait","","","","","","","","","","","","","","","","","","","","","",""
"","","","","","html-keyboard-response","207","427930","0.0-24.0","0c2f0184-fefb-4602-bc9f-ee27470ce031","null","<p style=""text-align: center;"">+</p>","null","fixation","","","","","","","","","","","","","","","","","","","","","",""
"","","","","","html-slider-response","208","428946","0.0-25.0-0.0","0c2f0184-fefb-4602-bc9f-ee27470ce031","1000","
                  <p style=""text-align: center;"">₪64
                                                <br>25%</p>
                  <p id=""wtp"" style=""text-align:center; margin-top: 0px; margin-bottom: 0px; font-size: 40px"";>&ensp;</p>","-","viewing","0","24","6A,21A","","","","","","","","","","","","","","","","","","",""
"","","","","","html-slider-response","209","430410","0.0-25.0-1.0","0c2f0184-fefb-4602-bc9f-ee27470ce031","1463","
                  <p style=""text-align: center;"">₪64
                                                <br>25%</p>
                  <p id=""wtp"" style=""text-align:center; margin-top: 0px; margin-bottom: 0px; font-size: 40px"";>מוכנים לשלם: <span id=""c_p_y""></span></p>","5","evaluation","11","24","6A,21A","25","64","5","","","","","","","","","","","","","","","",""
"","","","","","html-keyboard-response","210","431677","0.0-25.0-2.0","0c2f0184-fefb-4602-bc9f-ee27470ce031","null","<p style=""text-align: center;"">+</p>","null","fixation","","","","","","","","","","","","","","","","","","","","","",""
"","","","","","html-slider-response","211","432690","0.0-25.0-0.1","0c2f0184-fefb-4602-bc9f-ee27470ce031","1000","
                  <p style=""text-align: center;"">₪11
                                                <br>25%</p>
                  <p id=""wtp"" style=""text-align:center; margin-top: 0px; margin-bottom: 0px; font-size: 40px"";>&ensp;</p>","-","viewing","0","5","12A,27B,28B,30B","","","","","","","","","","","","","","","","","","",""
"","","","","","html-slider-response","212","433971","0.0-25.0-1.1","0c2f0184-fefb-4602-bc9f-ee27470ce031","1279","
                  <p style=""text-align: center;"">₪11
                                                <br>25%</p>
                  <p id=""wtp"" style=""text-align:center; margin-top: 0px; margin-bottom: 0px; font-size: 40px"";>מוכנים לשלם: <span id=""c_p_y""></span></p>","5","evaluation","54","5","12A,27B,28B,30B","25","11","6","","","","","","","","","","","","","","","",""
"","","","","","html-keyboard-response","213","435419","0.0-25.0-2.1","0c2f0184-fefb-4602-bc9f-ee27470ce031","null","<p style=""text-align: center;"">+</p>","null","fixation","","","","","","","","","","","","","","","","","","","","","",""
"","","","","","html-slider-response","214","436433","0.0-25.0-0.2","0c2f0184-fefb-4602-bc9f-ee27470ce031","1000","
                  <p style=""text-align: center;"">₪71
                                                <br>75%</p>
                  <p id=""wtp"" style=""text-align:center; margin-top: 0px; margin-bottom: 0px; font-size: 40px"";>&ensp;</p>","-","viewing","0","28","8B","","","","","","","","","","","","","","","","","","",""
"","","","","","html-slider-response","215","438227","0.0-25.0-1.2","0c2f0184-fefb-4602-bc9f-ee27470ce031","1792","
                  <p style=""text-align: center;"">₪71
                                                <br>75%</p>
                  <p id=""wtp"" style=""text-align:center; margin-top: 0px; margin-bottom: 0px; font-size: 40px"";>מוכנים לשלם: <span id=""c_p_y""></span></p>","41","evaluation","5","28","8B","75","71","41","","","","","","","","","","","","","","","",""
"","","","","","html-keyboard-response","216","438775","0.0-25.0-2.2","0c2f0184-fefb-4602-bc9f-ee27470ce031","null","<p style=""text-align: center;"">+</p>","null","fixation","","","","","","","","","","","","","","","","","","","","","",""
"","","","","","html-slider-response","217","439790","0.0-25.0-0.3","0c2f0184-fefb-4602-bc9f-ee27470ce031","1000","
                  <p style=""text-align: center;"">₪58
                                                <br>45%</p>
                  <p id=""wtp"" style=""text-align:center; margin-top: 0px; margin-bottom: 0px; font-size: 40px"";>&ensp;</p>","-","viewing","0","21","11C,18C,25A","","","","","","","","","","","","","","","","","","",""
"","","","","","html-slider-response","218","441603","0.0-25.0-1.3","0c2f0184-fefb-4602-bc9f-ee27470ce031","1811","
                  <p style=""text-align: center;"">₪58
                                                <br>45%</p>
                  <p id=""wtp"" style=""text-align:center; margin-top: 0px; margin-bottom: 0px; font-size: 40px"";>מוכנים לשלם: <span id=""c_p_y""></span></p>","10","evaluation","27","21","11C,18C,25A","45","58","11","","","","","","","","","","","","","","","",""
"","","","","","html-keyboard-response","219","442469","0.0-25.0-2.3","0c2f0184-fefb-4602-bc9f-ee27470ce031","null","<p style=""text-align: center;"">+</p>","null","fixation","","","","","","","","","","","","","","","","","","","","","",""
"","","","","","html-slider-response","220","443471","0.0-25.0-0.4","0c2f0184-fefb-4602-bc9f-ee27470ce031","1000","
                  <p style=""text-align: center;"">₪39
                                                <br>60%</p>
                  <p id=""wtp"" style=""text-align:center; margin-top: 0px; margin-bottom: 0px; font-size: 40px"";>&ensp;</p>","-","viewing","0","15","9C,25B","","","","","","","","","","","","","","","","","","",""
"","","","","","html-slider-response","221","445395","0.0-25.0-1.4","0c2f0184-fefb-4602-bc9f-ee27470ce031","1922","
                  <p style=""text-align: center;"">₪39
                                                <br>60%</p>
                  <p id=""wtp"" style=""text-align:center; margin-top: 0px; margin-bottom: 0px; font-size: 40px"";>מוכנים לשלם: <span id=""c_p_y""></span></p>","12","evaluation","50","15","9C,25B","60","39","12","","","","","","","","","","","","","","","",""
"","","","","","html-keyboard-response","222","446138","0.0-25.0-2.4","0c2f0184-fefb-4602-bc9f-ee27470ce031","null","<p style=""text-align: center;"">+</p>","null","fixation","","","","","","","","","","","","","","","","","","","","","",""
"","","","","","html-slider-response","223","447144","0.0-25.0-0.5","0c2f0184-fefb-4602-bc9f-ee27470ce031","1000","
                  <p style=""text-align: center;"">₪58
                                                <br>40%</p>
                  <p id=""wtp"" style=""text-align:center; margin-top: 0px; margin-bottom: 0px; font-size: 40px"";>&ensp;</p>","-","viewing","0","20","10C,13A,19C,21B","","","","","","","","","","","","","","","","","","",""
"","","","","","html-slider-response","224","448323","0.0-25.0-1.5","0c2f0184-fefb-4602-bc9f-ee27470ce031","1177","
                  <p style=""text-align: center;"">₪58
                                                <br>40%</p>
                  <p id=""wtp"" style=""text-align:center; margin-top: 0px; margin-bottom: 0px; font-size: 40px"";>מוכנים לשלם: <span id=""c_p_y""></span></p>","12","evaluation","56","20","10C,13A,19C,21B","40","58","12","","","","","","","","","","","","","","","",""
"","","","","","html-keyboard-response","225","449794","0.0-25.0-2.5","0c2f0184-fefb-4602-bc9f-ee27470ce031","null","<p style=""text-align: center;"">+</p>","null","fixation","","","","","","","","","","","","","","","","","","","","","",""
"","","","","","html-slider-response","226","450797","0.0-25.0-0.6","0c2f0184-fefb-4602-bc9f-ee27470ce031","1000","
                  <p style=""text-align: center;"">₪4
                                                <br>50%</p>
                  <p id=""wtp"" style=""text-align:center; margin-top: 0px; margin-bottom: 0px; font-size: 40px"";>&ensp;</p>","-","viewing","0","2","4C,17B","","","","","","","","","","","","","","","","","","",""
"","","","","","html-slider-response","227","452171","0.0-25.0-1.6","0c2f0184-fefb-4602-bc9f-ee27470ce031","1373","
                  <p style=""text-align: center;"">₪4
                                                <br>50%</p>
                  <p id=""wtp"" style=""text-align:center; margin-top: 0px; margin-bottom: 0px; font-size: 40px"";>מוכנים לשלם: <span id=""c_p_y""></span></p>","1","evaluation","77","2","4C,17B","50","4","2","","","","","","","","","","","","","","","",""
"","","","","","html-keyboard-response","228","453618","0.0-25.0-2.6","0c2f0184-fefb-4602-bc9f-ee27470ce031","null","<p style=""text-align: center;"">+</p>","null","fixation","","","","","","","","","","","","","","","","","","","","","",""
"","","","","","html-slider-response","229","454628","0.0-25.0-0.7","0c2f0184-fefb-4602-bc9f-ee27470ce031","1000","
                  <p style=""text-align: center;"">₪4
                                                <br>25%</p>
                  <p id=""wtp"" style=""text-align:center; margin-top: 0px; margin-bottom: 0px; font-size: 40px"";>&ensp;</p>","-","viewing","0","1","6C,29B,30C","","","","","","","","","","","","","","","","","","",""
"","","","","","html-slider-response","230","455691","0.0-25.0-1.7","0c2f0184-fefb-4602-bc9f-ee27470ce031","1061","
                  <p style=""text-align: center;"">₪4
                                                <br>25%</p>
                  <p id=""wtp"" style=""text-align:center; margin-top: 0px; margin-bottom: 0px; font-size: 40px"";>מוכנים לשלם: <span id=""c_p_y""></span></p>","1","evaluation","45","1","6C,29B,30C","25","4","2","","","","","","","","","","","","","","","",""
"","","","","","html-keyboard-response","231","456286","0.0-25.0-2.7","0c2f0184-fefb-4602-bc9f-ee27470ce031","null","<p style=""text-align: center;"">+</p>","null","fixation","","","","","","","","","","","","","","","","","","","","","",""
"","","","","","html-slider-response","232","457293","0.0-25.0-0.8","0c2f0184-fefb-4602-bc9f-ee27470ce031","1000","
                  <p style=""text-align: center;"">₪79
                                                <br>65%</p>
                  <p id=""wtp"" style=""text-align:center; margin-top: 0px; margin-bottom: 0px; font-size: 40px"";>&ensp;</p>","-","viewing","0","31","8A","","","","","","","","","","","","","","","","","","",""
"","","","","","html-slider-response","233","458803","0.0-25.0-1.8","0c2f0184-fefb-4602-bc9f-ee27470ce031","1508","
                  <p style=""text-align: center;"">₪79
                                                <br>65%</p>
                  <p id=""wtp"" style=""text-align:center; margin-top: 0px; margin-bottom: 0px; font-size: 40px"";>מוכנים לשלם: <span id=""c_p_y""></span></p>","40","evaluation","20","31","8A","65","79","40","","","","","","","","","","","","","","","",""
"","","","","","html-keyboard-response","234","460066","0.0-25.0-2.8","0c2f0184-fefb-4602-bc9f-ee27470ce031","null","<p style=""text-align: center;"">+</p>","null","fixation","","","","","","","","","","","","","","","","","","","","","",""
"","","","","","html-slider-response","235","461069","0.0-25.0-0.9","0c2f0184-fefb-4602-bc9f-ee27470ce031","1000","
                  <p style=""text-align: center;"">₪43
                                                <br>75%</p>
                  <p id=""wtp"" style=""text-align:center; margin-top: 0px; margin-bottom: 0px; font-size: 40px"";>&ensp;</p>","-","viewing","0","18","11B,19B,24A,26A","","","","","","","","","","","","","","","","","","",""
"","","","","","html-slider-response","236","462859","0.0-25.0-1.9","0c2f0184-fefb-4602-bc9f-ee27470ce031","1788","
                  <p style=""text-align: center;"">₪43
                                                <br>75%</p>
                  <p id=""wtp"" style=""text-align:center; margin-top: 0px; margin-bottom: 0px; font-size: 40px"";>מוכנים לשלם: <span id=""c_p_y""></span></p>","49","evaluation","58","18","11B,19B,24A,26A","75","43","49","","","","","","","","","","","","","","","",""
"","","","","","html-keyboard-response","237","463625","0.0-25.0-2.9","0c2f0184-fefb-4602-bc9f-ee27470ce031","null","<p style=""text-align: center;"">+</p>","null","fixation","","","","","","","","","","","","","","","","","","","","","",""
"","","","","","html-slider-response","238","464634","0.0-25.0-0.10","0c2f0184-fefb-4602-bc9f-ee27470ce031","1000","
                  <p style=""text-align: center;"">₪36
                                                <br>70%</p>
                  <p id=""wtp"" style=""text-align:center; margin-top: 0px; margin-bottom: 0px; font-size: 40px"";>&ensp;</p>","-","viewing","0","13","3A,5C,10B","","","","","","","","","","","","","","","","","","",""
"","","","","","html-slider-response","239","467611","0.0-25.0-1.10","0c2f0184-fefb-4602-bc9f-ee27470ce031","2975","
                  <p style=""text-align: center;"">₪36
                                                <br>70%</p>
                  <p id=""wtp"" style=""text-align:center; margin-top: 0px; margin-bottom: 0px; font-size: 40px"";>מוכנים לשלם: <span id=""c_p_y""></span></p>","29","evaluation","1","13","3A,5C,10B","70","36","29","","","","","","","","","","","","","","","",""
"","","","","","html-keyboard-response","240","468125","0.0-25.0-2.10","0c2f0184-fefb-4602-bc9f-ee27470ce031","null","<p style=""text-align: center;"">+</p>","null","fixation","","","","","","","","","","","","","","","","","","","","","",""
"","","","","","html-slider-response","241","469135","0.0-25.0-0.11","0c2f0184-fefb-4602-bc9f-ee27470ce031","1000","
                  <p style=""text-align: center;"">₪16
                                                <br>20%</p>
                  <p id=""wtp"" style=""text-align:center; margin-top: 0px; margin-bottom: 0px; font-size: 40px"";>&ensp;</p>","-","viewing","0","8","14C,17A,20C,27A","","","","","","","","","","","","","","","","","","",""
"","","","","","html-slider-response","242","471147","0.0-25.0-1.11","0c2f0184-fefb-4602-bc9f-ee27470ce031","2012","
                  <p style=""text-align: center;"">₪16
                                                <br>20%</p>
                  <p id=""wtp"" style=""text-align:center; margin-top: 0px; margin-bottom: 0px; font-size: 40px"";>מוכנים לשלם: <span id=""c_p_y""></span></p>","6","evaluation","78","8","14C,17A,20C,27A","20","16","6","","","","","","","","","","","","","","","",""
"","","","","","html-keyboard-response","243","471932","0.0-25.0-2.11","0c2f0184-fefb-4602-bc9f-ee27470ce031","null","<p style=""text-align: center;"">+</p>","null","fixation","","","","","","","","","","","","","","","","","","","","","",""
"","","","","","html-slider-response","244","472936","0.0-25.0-0.12","0c2f0184-fefb-4602-bc9f-ee27470ce031","1000","
                  <p style=""text-align: center;"">₪64
                                                <br>50%</p>
                  <p id=""wtp"" style=""text-align:center; margin-top: 0px; margin-bottom: 0px; font-size: 40px"";>&ensp;</p>","-","viewing","0","25","1B,3B,4A","","","","","","","","","","","","","","","","","","",""
"","","","","","html-slider-response","245","474779","0.0-25.0-1.12","0c2f0184-fefb-4602-bc9f-ee27470ce031","1841","
                  <p style=""text-align: center;"">₪64
                                                <br>50%</p>
                  <p id=""wtp"" style=""text-align:center; margin-top: 0px; margin-bottom: 0px; font-size: 40px"";>מוכנים לשלם: <span id=""c_p_y""></span></p>","5","evaluation","25","25","1B,3B,4A","50","64","6","","","","","","","","","","","","","","","",""
"","","","","","html-keyboard-response","246","475453","0.0-25.0-2.12","0c2f0184-fefb-4602-bc9f-ee27470ce031","null","<p style=""text-align: center;"">+</p>","null","fixation","","","","","","","","","","","","","","","","","","","","","",""
"","","","","","html-slider-response","247","476455","0.0-25.0-0.13","0c2f0184-fefb-4602-bc9f-ee27470ce031","1000","
                  <p style=""text-align: center;"">₪4
                                                <br>75%</p>
                  <p id=""wtp"" style=""text-align:center; margin-top: 0px; margin-bottom: 0px; font-size: 40px"";>&ensp;</p>","-","viewing","0","3","12B,20B,23B,27C,29C","","","","","","","","","","","","","","","","","","",""
"","","","","","html-slider-response","248","477987","0.0-25.0-1.13","0c2f0184-fefb-4602-bc9f-ee27470ce031","1530","
                  <p style=""text-align: center;"">₪4
                                                <br>75%</p>
                  <p id=""wtp"" style=""text-align:center; margin-top: 0px; margin-bottom: 0px; font-size: 40px"";>מוכנים לשלם: <span id=""c_p_y""></span></p>","1","evaluation","14","3","12B,20B,23B,27C,29C","75","4","1","","","","","","","","","","","","","","","",""
"","","","","","html-keyboard-response","249","478807","0.0-25.0-2.13","0c2f0184-fefb-4602-bc9f-ee27470ce031","null","<p style=""text-align: center;"">+</p>","null","fixation","","","","","","","","","","","","","","","","","","","","","",""
"","","","","","html-slider-response","250","479820","0.0-25.0-0.14","0c2f0184-fefb-4602-bc9f-ee27470ce031","1000","
                  <p style=""text-align: center;"">₪76
                                                <br>65%</p>
                  <p id=""wtp"" style=""text-align:center; margin-top: 0px; margin-bottom: 0px; font-size: 40px"";>&ensp;</p>","-","viewing","0","29","8C,19A,24B","","","","","","","","","","","","","","","","","","",""
