"success","timeout","failed_images","failed_audio","failed_video","trial_type","trial_index","time_elapsed","internal_node_id","subject_id","rt","stimulus","response","part","slider_start","ID","set_ID","prob","amount","last_location","actual_choice","actual_EV","binary_id","trinary_id","catch","direction","A_key","S_key","D_key","choice_prob","choice_amount","chosen_part","potential_prize_prob","potential_prize_amount","won_prize","total_prize","prize_cost","remaining_budget","accuracy"
"true","false","[]","[]","[]","preload","0","93","0.0-0.0","3aef7628-6e8a-41a0-8bec-3f3beeb86c4b","","","","","","","","","","","","","","","","","","","","","","","","","","","","",""
"","","","","","html-keyboard-response","1","3166837","0.0-1.0","3aef7628-6e8a-41a0-8bec-3f3beeb86c4b","null","
          <h1>שלום וברוכים הבאים!</h1>
          <p>לפניכם ניסוי בקבלת החלטות עם שני חלקים.
          <br><br>לחצו על העכבר כדי להמשיך.</p>","0","example","","","","","","","","","","","","","","","","","","","","","","","","",""
"","","","","","html-keyboard-response","2","3187470","0.0-2.0","3aef7628-6e8a-41a0-8bec-3f3beeb86c4b","null","
        <h1>חלק 1</h1>
        <p>בקרוב יוצגו בפניכם הגרלות.
        <br>עליכם לבחור את המחיר המירבי שתהיו מוכנים לשלם כדי להשתתף בהגרלה שתוצג.
        <br>יש לכם תקציב של ₪80 לכל הגרלה. 
        <br>נסו להעריך כל הגרלה בנפרד ולחשוב כמה היא שווה עבורכם, ₪80 זמינים לכל הגרלה בנפרד.
        <br><br>לחצו על העכבר כדי להמשיך.</p>","1","instructions","","","","","","","","","","","","","","","","","","","","","","","","",""
"","","","","","html-keyboard-response","3","3211542","0.0-3.0","3aef7628-6e8a-41a0-8bec-3f3beeb86c4b","null","
        <p>בסוף הניסוי, המחשב יבחר את אחת ההגרלות ויקבע מחיר לכרטיס עבורה. 
        <br>במידה והמחיר שבחרתם נמוך מהמחיר שנבחר על ידי המחשב, לא תשתתפו בהגרלה ותשארו עם מלוא התקציב.
        <br>במידה והמחיר שבחרתם גבוה מהמחיר שנבחר על ידי המחשב, תשלמו את המחיר שנקבע ותשתתפו בהגרלה.
        <br><br>לחצו על העכבר כדי להמשיך.</p>","1","instructions","","","","","","","","","","","","","","","","","","","","","","","","",""
"","","","","","html-slider-response","4","3232566","0.0-4.0","3aef7628-6e8a-41a0-8bec-3f3beeb86c4b","20919","
        <p style=""font-size: 42px;"">נתחיל עם דוגמא: 
        <br>ההגרלה מטה מציעה 65% סיכוי לזכות ב-₪40 
        <br>&emsp;&emsp;&emsp;&emsp;&emsp;&emsp;&emsp;&emsp;&ensp;35% סיכוי לזכות ב-₪0.
        <br><br>מה המחיר המירבי שתהיו מוכנים לשלם על כרטיס להגרלה זו בין 0 ל-₪80?
        <br>הזיזו את העכבר על פני המלבן ולחצו כדי לבצע בחירה.</p>
        
        <p style=""text-align: center;"">₪40<br>65%</p>

        <p id=""wtp"" style=""text-align:center; margin-top: 0px; margin-bottom: 0px; font-size: 40px"";>מוכנים לשלם: <span id=""c_p_y""></span></p>","46","example","46","","","","","","","","","","","","","","","","","","","","","","","",""
"","","","","","html-keyboard-response","5","3245061","0.0-5.0","3aef7628-6e8a-41a0-8bec-3f3beeb86c4b","null","<p>יפה מאוד!
                <br> בחרתם שתהיו מוכנים לשלם ₪46 כדי להשתתף בהגרלה:
                <br><p style=""text-align: center;"">₪40<br>65%</p>
                <p>נשמע נכון?
                <br>נניח שהגרלה זו נבחרה בסוף הניסוי.
                <br>כעת המחשב יקבע מחיר עבורה באקראי.
                <br>לחצו על העכבר להמשך.</p>","1","example","","","","","","","","","","","","","","","","","","","","","","","","",""
"","","","","","html-keyboard-response","6","3252005","0.0-6.0","3aef7628-6e8a-41a0-8bec-3f3beeb86c4b","null","<p>המחשב קבע מחיר: ₪66
                <br>ואתם בחרתם לשלם לכל היותר: ₪46
                <br><br>מכיוון שהמחיר שבחרתם נמוך מהמחיר שנקבע, לא תתשתתפו בהגרלה.
                <br>במקרה כזה, בסוף הניסוי תקבלו את כל התקציב ההתחלתי של ₪80.
                <br><br>לחצו על העכבר להמשך.</p>","1","example","","","","","","","","","","","","","","","","","","","","","","","","",""
"","","","","","html-slider-response","7","3259950","0.0-7.0","3aef7628-6e8a-41a0-8bec-3f3beeb86c4b","7688","<p style=""font-size: 42px;"">הנה עוד דוגמא:
                <br>ההגרלה מטה מציעה 35% סיכוי לזכות ב-₪18 
                <br>&emsp;&emsp;&emsp;&emsp;&emsp;&emsp;&emsp;&emsp;&ensp;65% סיכוי לזכות ב-₪0.</p>
        
                <p style=""text-align: center;"">₪18<br>35%</p>
                <p id=""wtp"" style=""text-align:center; margin-top: 0px; margin-bottom: 0px; font-size: 40px"";>מוכנים לשלם: <span id=""c_p_y""></span></p>","20","example","27","","","","","","","","","","","","","","","","","","","","","","","",""
"","","","","","html-keyboard-response","8","3264301","0.0-8.0","3aef7628-6e8a-41a0-8bec-3f3beeb86c4b","null","<p>הייתם מוכנים לשלם  ₪20 כדי להשתתף בהגרלה:
                <p style=""text-align: center;"">₪18<br>35%</p>
                <p>כעת נניח שהמחשב בחר את ההגרלה הזו בסוף הניסוי, וקבע עבורה מחיר.
                <br><br>לחצו על העכבר כדי להמשיך.</p>","1","instructions","","","","","","","","","","","","","","","","","","","","","","","","",""
"","","","","","html-keyboard-response","9","3286437","0.0-9.0","3aef7628-6e8a-41a0-8bec-3f3beeb86c4b","null","<p>המחשב קבע מחיר להגרלה: ₪11<br>ואתם בחרתם לשלם לכל היותר: ₪20
                <br><br>כעת המחיר שנקבע נמוך מזה שבחרתם, אז תשלמו את המחיר שקבע המחשב (₪11) ותשתתפו בהגרלה.
                <br>במקרה כזה, תסיימו את הניסוי עם תקציב של ₪69 ועם סיכוי לזכות ב-₪18 נוספים מההגרלה.
                <br>כלומר, תוכלו לקבל ₪69 אם לא תזכו בהגרלה, או ₪87 אם תזכו בהגרלה.
                <br><br>לחצו על העכבר להמשך.</p>","1","example","","","","","","","","","","","","","","","","","","","","","","","","",""
"","","","","","html-keyboard-response","10","3299022","0.0-10.0","3aef7628-6e8a-41a0-8bec-3f3beeb86c4b","null","<p>במהלך הניסוי, קודם תראו את ההגרלה ורק לאחר מכן תוכלו לבחור.
                <p>כמו כן, יהיו לכם מספר שניות מוגבל להגיב.
                <p>בואו ננסה זאת עם ההגרלה הקודמת.
                <br>לחצו על העכבר כדי להמשיך.</p>","1","instructions","","","","","","","","","","","","","","","","","","","","","","","","",""
"","","","","","html-slider-response","11","3300276","0.0-11.0","3aef7628-6e8a-41a0-8bec-3f3beeb86c4b","1000","
                    <p style=""text-align: center;"">₪18<br>35%</p>
                    <p id=""wtp"" style=""text-align:center; margin-top: 0px; margin-bottom: 0px; font-size: 40px"";>&ensp;</p>","41","instructions","0","","","","","","","","","","","","","","","","","","","","","","","",""
"","","","","","html-slider-response","12","3303942","0.0-12.0","3aef7628-6e8a-41a0-8bec-3f3beeb86c4b","3411","
                    <p style=""text-align: center;"">₪18<br>35%</p>
                    <p id=""wtp"" style=""text-align:center; margin-top: 0px; margin-bottom: 0px; font-size: 40px"";>מוכנים לשלם: <span id=""c_p_y""></span></p>","22","instructions","54","","","","","","","","","","","","","","","","","","","","","","","",""
"","","","","","html-keyboard-response","13","3307534","0.0-13.0","3aef7628-6e8a-41a0-8bec-3f3beeb86c4b","null","<p>יפה. הפעם בחרתם לשלם לכל היותר ₪22.
                <br><br>לחצו על העכבר כדי להמשיך.</p>","1","instructions","","","","","","","","","","","","","","","","","","","","","","","","",""
"","","","","","html-keyboard-response","14","3318245","0.0-15.0","3aef7628-6e8a-41a0-8bec-3f3beeb86c4b","null","<p>כעת נתחיל את הניסוי.
                <br><br>אתם תראו הגרלות ותתבקשו לבחור כמה תהיו מוכנים לשלם כדי להשתתף בהן.
                <br>יש לכם תקציב של ₪80 עבור כל הגרלה.
                <br>בסוף הניסוי הגרלה אחת תבחר באקראי ותשוחק.
                <br><br>לחצו על העכבר כדי להתחיל את הניסוי.</p>","1","instructions","","","","","","","","","","","","","","","","","","","","","","","","",""
"","","","","","html-keyboard-response","15","3319510","0.0-16.0","3aef7628-6e8a-41a0-8bec-3f3beeb86c4b","null","<p style=""text-align: center;"">+</p>","null","fixation","","","","","","","","","","","","","","","","","","","","","","","","",""
"","","","","","html-slider-response","16","3320523","0.0-17.0-0.0","3aef7628-6e8a-41a0-8bec-3f3beeb86c4b","1000","
                  <p style=""text-align: center;"">₪18
                                                <br>50%</p>
                  <p id=""wtp"" style=""text-align:center; margin-top: 0px; margin-bottom: 0px; font-size: 40px"";>&ensp;</p>","-","viewing","0","10","2C,16C,22B,28A","","","","","","","","","","","","","","","","","","","","","",""
"","","","","","html-slider-response","17","3322134","0.0-17.0-1.0","3aef7628-6e8a-41a0-8bec-3f3beeb86c4b","1609","
                  <p style=""text-align: center;"">₪18
                                                <br>50%</p>
                  <p id=""wtp"" style=""text-align:center; margin-top: 0px; margin-bottom: 0px; font-size: 40px"";>מוכנים לשלם: <span id=""c_p_y""></span></p>","43","evaluation","36","10","2C,16C,22B,28A","50","18","43","","","","","","","","","","","","","","","","","","",""
"","","","","","html-keyboard-response","18","3322911","0.0-17.0-2.0","3aef7628-6e8a-41a0-8bec-3f3beeb86c4b","null","<p style=""text-align: center;"">+</p>","null","fixation","","","","","","","","","","","","","","","","","","","","","","","","",""
"","","","","","html-slider-response","19","3323914","0.0-17.0-0.1","3aef7628-6e8a-41a0-8bec-3f3beeb86c4b","1000","
                  <p style=""text-align: center;"">₪76
                                                <br>65%</p>
                  <p id=""wtp"" style=""text-align:center; margin-top: 0px; margin-bottom: 0px; font-size: 40px"";>&ensp;</p>","-","viewing","0","29","8C,19A,24B","","","","","","","","","","","","","","","","","","","","","",""
"","","","","","html-slider-response","20","3327915","0.0-17.0-1.1","3aef7628-6e8a-41a0-8bec-3f3beeb86c4b","null","
                  <p style=""text-align: center;"">₪76
                                                <br>65%</p>
                  <p id=""wtp"" style=""text-align:center; margin-top: 0px; margin-bottom: 0px; font-size: 40px"";>מוכנים לשלם: <span id=""c_p_y""></span></p>","null","evaluation","8","29","8C,19A,24B","65","76","45","","","","","","","","","","","","","","","","","","",""
"","","","","","html-keyboard-response","21","3328982","0.0-17.0-2.1","3aef7628-6e8a-41a0-8bec-3f3beeb86c4b","null","<p style=""text-align: center;"">+</p>","null","fixation","","","","","","","","","","","","","","","","","","","","","","","","",""
"","","","","","html-slider-response","22","3329988","0.0-17.0-0.2","3aef7628-6e8a-41a0-8bec-3f3beeb86c4b","1000","
                  <p style=""text-align: center;"">₪43
                                                <br>75%</p>
                  <p id=""wtp"" style=""text-align:center; margin-top: 0px; margin-bottom: 0px; font-size: 40px"";>&ensp;</p>","-","viewing","0","18","11B,19B,24A,26A","","","","","","","","","","","","","","","","","","","","","",""
"","","","","","html-slider-response","23","3332206","0.0-17.0-1.2","3aef7628-6e8a-41a0-8bec-3f3beeb86c4b","2217","
                  <p style=""text-align: center;"">₪43
                                                <br>75%</p>
                  <p id=""wtp"" style=""text-align:center; margin-top: 0px; margin-bottom: 0px; font-size: 40px"";>מוכנים לשלם: <span id=""c_p_y""></span></p>","57","evaluation","52","18","11B,19B,24A,26A","75","43","57","","","","","","","","","","","","","","","","","","",""
"","","","","","html-keyboard-response","24","3333488","0.0-17.0-2.2","3aef7628-6e8a-41a0-8bec-3f3beeb86c4b","null","<p style=""text-align: center;"">+</p>","null","fixation","","","","","","","","","","","","","","","","","","","","","","","","",""
"","","","","","html-slider-response","25","3334491","0.0-17.0-0.3","3aef7628-6e8a-41a0-8bec-3f3beeb86c4b","1000","
                  <p style=""text-align: center;"">₪36
                                                <br>60%</p>
                  <p id=""wtp"" style=""text-align:center; margin-top: 0px; margin-bottom: 0px; font-size: 40px"";>&ensp;</p>","-","viewing","0","12","1C,7C,15C","","","","","","","","","","","","","","","","","","","","","",""
"","","","","","html-slider-response","26","3338493","0.0-17.0-1.3","3aef7628-6e8a-41a0-8bec-3f3beeb86c4b","null","
                  <p style=""text-align: center;"">₪36
                                                <br>60%</p>
                  <p id=""wtp"" style=""text-align:center; margin-top: 0px; margin-bottom: 0px; font-size: 40px"";>מוכנים לשלם: <span id=""c_p_y""></span></p>","null","evaluation","35","12","1C,7C,15C","60","36","39","","","","","","","","","","","","","","","","","","",""
"","","","","","html-keyboard-response","27","3339902","0.0-17.0-2.3","3aef7628-6e8a-41a0-8bec-3f3beeb86c4b","null","<p style=""text-align: center;"">+</p>","null","fixation","","","","","","","","","","","","","","","","","","","","","","","","",""
"","","","","","html-slider-response","28","3340904","0.0-17.0-0.4","3aef7628-6e8a-41a0-8bec-3f3beeb86c4b","1000","
                  <p style=""text-align: center;"">₪11
                                                <br>45%</p>
                  <p id=""wtp"" style=""text-align:center; margin-top: 0px; margin-bottom: 0px; font-size: 40px"";>&ensp;</p>","-","viewing","0","6","14B,21C,25C","","","","","","","","","","","","","","","","","","","","","",""
"","","","","","html-slider-response","29","3342558","0.0-17.0-1.4","3aef7628-6e8a-41a0-8bec-3f3beeb86c4b","1652","
                  <p style=""text-align: center;"">₪11
                                                <br>45%</p>
                  <p id=""wtp"" style=""text-align:center; margin-top: 0px; margin-bottom: 0px; font-size: 40px"";>מוכנים לשלם: <span id=""c_p_y""></span></p>","20","evaluation","65","6","14B,21C,25C","45","11","20","","","","","","","","","","","","","","","","","","",""
"","","","","","html-keyboard-response","30","3343722","0.0-17.0-2.4","3aef7628-6e8a-41a0-8bec-3f3beeb86c4b","null","<p style=""text-align: center;"">+</p>","null","fixation","","","","","","","","","","","","","","","","","","","","","","","","",""
"","","","","","html-slider-response","31","3344734","0.0-17.0-0.5","3aef7628-6e8a-41a0-8bec-3f3beeb86c4b","1000","
                  <p style=""text-align: center;"">₪43
                                                <br>60%</p>
                  <p id=""wtp"" style=""text-align:center; margin-top: 0px; margin-bottom: 0px; font-size: 40px"";>&ensp;</p>","-","viewing","0","17","2A,7A,9A,15B","","","","","","","","","","","","","","","","","","","","","",""
"","","","","","html-slider-response","32","3347678","0.0-17.0-1.5","3aef7628-6e8a-41a0-8bec-3f3beeb86c4b","2942","
                  <p style=""text-align: center;"">₪43
                                                <br>60%</p>
                  <p id=""wtp"" style=""text-align:center; margin-top: 0px; margin-bottom: 0px; font-size: 40px"";>מוכנים לשלם: <span id=""c_p_y""></span></p>","56","evaluation","40","17","2A,7A,9A,15B","60","43","56","","","","","","","","","","","","","","","","","","",""
"","","","","","html-keyboard-response","33","3348969","0.0-17.0-2.5","3aef7628-6e8a-41a0-8bec-3f3beeb86c4b","null","<p style=""text-align: center;"">+</p>","null","fixation","","","","","","","","","","","","","","","","","","","","","","","","",""
"","","","","","html-slider-response","34","3349973","0.0-17.0-0.6","3aef7628-6e8a-41a0-8bec-3f3beeb86c4b","1000","
                  <p style=""text-align: center;"">₪61
                                                <br>55%</p>
                  <p id=""wtp"" style=""text-align:center; margin-top: 0px; margin-bottom: 0px; font-size: 40px"";>&ensp;</p>","-","viewing","0","23","7B,26B","","","","","","","","","","","","","","","","","","","","","",""
"","","","","","html-slider-response","35","3353982","0.0-17.0-1.6","3aef7628-6e8a-41a0-8bec-3f3beeb86c4b","null","
                  <p style=""text-align: center;"">₪61
                                                <br>55%</p>
                  <p id=""wtp"" style=""text-align:center; margin-top: 0px; margin-bottom: 0px; font-size: 40px"";>מוכנים לשלם: <span id=""c_p_y""></span></p>","null","evaluation","75","23","7B,26B","55","61","65","","","","","","","","","","","","","","","","","","",""
"","","","","","html-keyboard-response","36","3354532","0.0-17.0-2.6","3aef7628-6e8a-41a0-8bec-3f3beeb86c4b","null","<p style=""text-align: center;"">+</p>","null","fixation","","","","","","","","","","","","","","","","","","","","","","","","",""
"","","","","","html-slider-response","37","3355534","0.0-17.0-0.7","3aef7628-6e8a-41a0-8bec-3f3beeb86c4b","1000","
                  <p style=""text-align: center;"">₪71
                                                <br>75%</p>
                  <p id=""wtp"" style=""text-align:center; margin-top: 0px; margin-bottom: 0px; font-size: 40px"";>&ensp;</p>","-","viewing","0","28","8B","","","","","","","","","","","","","","","","","","","","","",""
"","","","","","html-slider-response","38","3358869","0.0-17.0-1.7","3aef7628-6e8a-41a0-8bec-3f3beeb86c4b","3334","
                  <p style=""text-align: center;"">₪71
                                                <br>75%</p>
                  <p id=""wtp"" style=""text-align:center; margin-top: 0px; margin-bottom: 0px; font-size: 40px"";>מוכנים לשלם: <span id=""c_p_y""></span></p>","56","evaluation","33","28","8B","75","71","56","","","","","","","","","","","","","","","","","","",""
"","","","","","html-keyboard-response","39","3359398","0.0-17.0-2.7","3aef7628-6e8a-41a0-8bec-3f3beeb86c4b","null","<p style=""text-align: center;"">+</p>","null","fixation","","","","","","","","","","","","","","","","","","","","","","","","",""
"","","","","","html-slider-response","40","3360401","0.0-17.0-0.8","3aef7628-6e8a-41a0-8bec-3f3beeb86c4b","1000","
                  <p style=""text-align: center;"">₪36
                                                <br>30%</p>
                  <p id=""wtp"" style=""text-align:center; margin-top: 0px; margin-bottom: 0px; font-size: 40px"";>&ensp;</p>","-","viewing","0","11","3C,20A,22A","","","","","","","","","","","","","","","","","","","","","",""
"","","","","","html-slider-response","41","3363253","0.0-17.0-1.8","3aef7628-6e8a-41a0-8bec-3f3beeb86c4b","2851","
                  <p style=""text-align: center;"">₪36
                                                <br>30%</p>
                  <p id=""wtp"" style=""text-align:center; margin-top: 0px; margin-bottom: 0px; font-size: 40px"";>מוכנים לשלם: <span id=""c_p_y""></span></p>","22","evaluation","58","11","3C,20A,22A","30","36","22","","","","","","","","","","","","","","","","","","",""
"","","","","","html-keyboard-response","42","3364426","0.0-17.0-2.8","3aef7628-6e8a-41a0-8bec-3f3beeb86c4b","null","<p style=""text-align: center;"">+</p>","null","fixation","","","","","","","","","","","","","","","","","","","","","","","","",""
"","","","","","html-slider-response","43","3365436","0.0-17.0-0.9","3aef7628-6e8a-41a0-8bec-3f3beeb86c4b","1000","
                  <p style=""text-align: center;"">₪58
                                                <br>40%</p>
                  <p id=""wtp"" style=""text-align:center; margin-top: 0px; margin-bottom: 0px; font-size: 40px"";>&ensp;</p>","-","viewing","0","20","10C,13A,19C,21B","","","","","","","","","","","","","","","","","","","","","",""
"","","","","","html-slider-response","44","3368173","0.0-17.0-1.9","3aef7628-6e8a-41a0-8bec-3f3beeb86c4b","2736","
                  <p style=""text-align: center;"">₪58
                                                <br>40%</p>
                  <p id=""wtp"" style=""text-align:center; margin-top: 0px; margin-bottom: 0px; font-size: 40px"";>מוכנים לשלם: <span id=""c_p_y""></span></p>","26","evaluation","79","20","10C,13A,19C,21B","40","58","26","","","","","","","","","","","","","","","","","","",""
"","","","","","html-keyboard-response","45","3369472","0.0-17.0-2.9","3aef7628-6e8a-41a0-8bec-3f3beeb86c4b","null","<p style=""text-align: center;"">+</p>","null","fixation","","","","","","","","","","","","","","","","","","","","","","","","",""
"","","","","","html-slider-response","46","3370477","0.0-17.0-0.10","3aef7628-6e8a-41a0-8bec-3f3beeb86c4b","1000","
                  <p style=""text-align: center;"">₪4
                                                <br>75%</p>
                  <p id=""wtp"" style=""text-align:center; margin-top: 0px; margin-bottom: 0px; font-size: 40px"";>&ensp;</p>","-","viewing","0","3","12B,20B,23B,27C,29C","","","","","","","","","","","","","","","","","","","","","",""
"","","","","","html-slider-response","47","3373141","0.0-17.0-1.10","3aef7628-6e8a-41a0-8bec-3f3beeb86c4b","2663","
                  <p style=""text-align: center;"">₪4
                                                <br>75%</p>
                  <p id=""wtp"" style=""text-align:center; margin-top: 0px; margin-bottom: 0px; font-size: 40px"";>מוכנים לשלם: <span id=""c_p_y""></span></p>","9","evaluation","44","3","12B,20B,23B,27C,29C","75","4","10","","","","","","","","","","","","","","","","","","",""
"","","","","","html-keyboard-response","48","3373927","0.0-17.0-2.10","3aef7628-6e8a-41a0-8bec-3f3beeb86c4b","null","<p style=""text-align: center;"">+</p>","null","fixation","","","","","","","","","","","","","","","","","","","","","","","","",""
"","","","","","html-slider-response","49","3374931","0.0-17.0-0.11","3aef7628-6e8a-41a0-8bec-3f3beeb86c4b","1000","
                  <p style=""text-align: center;"">₪64
                                                <br>50%</p>
                  <p id=""wtp"" style=""text-align:center; margin-top: 0px; margin-bottom: 0px; font-size: 40px"";>&ensp;</p>","-","viewing","0","25","1B,3B,4A","","","","","","","","","","","","","","","","","","","","","",""
"","","","","","html-slider-response","50","3377173","0.0-17.0-1.11","3aef7628-6e8a-41a0-8bec-3f3beeb86c4b","2241","
                  <p style=""text-align: center;"">₪64
                                                <br>50%</p>
                  <p id=""wtp"" style=""text-align:center; margin-top: 0px; margin-bottom: 0px; font-size: 40px"";>מוכנים לשלם: <span id=""c_p_y""></span></p>","47","evaluation","45","25","1B,3B,4A","50","64","47","","","","","","","","","","","","","","","","","","",""
"","","","","","html-keyboard-response","51","3378230","0.0-17.0-2.11","3aef7628-6e8a-41a0-8bec-3f3beeb86c4b","null","<p style=""text-align: center;"">+</p>","null","fixation","","","","","","","","","","","","","","","","","","","","","","","","",""
"","","","","","html-slider-response","52","3379236","0.0-17.0-0.12","3aef7628-6e8a-41a0-8bec-3f3beeb86c4b","1000","
                  <p style=""text-align: center;"">₪11
                                                <br>25%</p>
                  <p id=""wtp"" style=""text-align:center; margin-top: 0px; margin-bottom: 0px; font-size: 40px"";>&ensp;</p>","-","viewing","0","5","12A,27B,28B,30B","","","","","","","","","","","","","","","","","","","","","",""
"","","","","","html-slider-response","53","3381933","0.0-17.0-1.12","3aef7628-6e8a-41a0-8bec-3f3beeb86c4b","2697","
                  <p style=""text-align: center;"">₪11
                                                <br>25%</p>
                  <p id=""wtp"" style=""text-align:center; margin-top: 0px; margin-bottom: 0px; font-size: 40px"";>מוכנים לשלם: <span id=""c_p_y""></span></p>","10","evaluation","0","5","12A,27B,28B,30B","25","11","10","","","","","","","","","","","","","","","","","","",""
"","","","","","html-keyboard-response","54","3383392","0.0-17.0-2.12","3aef7628-6e8a-41a0-8bec-3f3beeb86c4b","null","<p style=""text-align: center;"">+</p>","null","fixation","","","","","","","","","","","","","","","","","","","","","","","","",""
"","","","","","html-slider-response","55","3384402","0.0-17.0-0.13","3aef7628-6e8a-41a0-8bec-3f3beeb86c4b","1000","
                  <p style=""text-align: center;"">₪36
                                                <br>75%</p>
                  <p id=""wtp"" style=""text-align:center; margin-top: 0px; margin-bottom: 0px; font-size: 40px"";>&ensp;</p>","-","viewing","0","14","4B,5A,13B,16B","","","","","","","","","","","","","","","","","","","","","",""
"","","","","","html-slider-response","56","3386693","0.0-17.0-1.13","3aef7628-6e8a-41a0-8bec-3f3beeb86c4b","2290","
                  <p style=""text-align: center;"">₪36
                                                <br>75%</p>
                  <p id=""wtp"" style=""text-align:center; margin-top: 0px; margin-bottom: 0px; font-size: 40px"";>מוכנים לשלם: <span id=""c_p_y""></span></p>","46","evaluation","54","14","4B,5A,13B,16B","75","36","46","","","","","","","","","","","","","","","","","","",""
"","","","","","html-keyboard-response","57","3387872","0.0-17.0-2.13","3aef7628-6e8a-41a0-8bec-3f3beeb86c4b","null","<p style=""text-align: center;"">+</p>","null","fixation","","","","","","","","","","","","","","","","","","","","","","","","",""
"","","","","","html-slider-response","58","3388878","0.0-17.0-0.14","3aef7628-6e8a-41a0-8bec-3f3beeb86c4b","1000","
                  <p style=""text-align: center;"">₪79
                                                <br>40%</p>
                  <p id=""wtp"" style=""text-align:center; margin-top: 0px; margin-bottom: 0px; font-size: 40px"";>&ensp;</p>","-","viewing","0","30","9B","","","","","","","","","","","","","","","","","","","","","",""
"","","","","","html-slider-response","59","3392005","0.0-17.0-1.14","3aef7628-6e8a-41a0-8bec-3f3beeb86c4b","3125","
                  <p style=""text-align: center;"">₪79
                                                <br>40%</p>
                  <p id=""wtp"" style=""text-align:center; margin-top: 0px; margin-bottom: 0px; font-size: 40px"";>מוכנים לשלם: <span id=""c_p_y""></span></p>","60","evaluation","46","30","9B","40","79","60","","","","","","","","","","","","","","","","","","",""
"","","","","","html-keyboard-response","60","3393062","0.0-17.0-2.14","3aef7628-6e8a-41a0-8bec-3f3beeb86c4b","null","<p style=""text-align: center;"">+</p>","null","fixation","","","","","","","","","","","","","","","","","","","","","","","","",""
"","","","","","html-slider-response","61","3394078","0.0-17.0-0.15","3aef7628-6e8a-41a0-8bec-3f3beeb86c4b","1000","
                  <p style=""text-align: center;"">₪61
                                                <br>45%</p>
                  <p id=""wtp"" style=""text-align:center; margin-top: 0px; margin-bottom: 0px; font-size: 40px"";>&ensp;</p>","-","viewing","0","22","10A,11A","","","","","","","","","","","","","","","","","","","","","",""
"","","","","","html-slider-response","62","3397197","0.0-17.0-1.15","3aef7628-6e8a-41a0-8bec-3f3beeb86c4b","3118","
                  <p style=""text-align: center;"">₪61
                                                <br>45%</p>
                  <p id=""wtp"" style=""text-align:center; margin-top: 0px; margin-bottom: 0px; font-size: 40px"";>מוכנים לשלם: <span id=""c_p_y""></span></p>","71","evaluation","15","22","10A,11A","45","61","71","","","","","","","","","","","","","","","","","","",""
"","","","","","html-keyboard-response","63","3398375","0.0-17.0-2.15","3aef7628-6e8a-41a0-8bec-3f3beeb86c4b","null","<p style=""text-align: center;"">+</p>","null","fixation","","","","","","","","","","","","","","","","","","","","","","","","",""
"","","","","","html-slider-response","64","3399381","0.0-17.0-0.16","3aef7628-6e8a-41a0-8bec-3f3beeb86c4b","1000","
                  <p style=""text-align: center;"">₪39
                                                <br>65%</p>
                  <p id=""wtp"" style=""text-align:center; margin-top: 0px; margin-bottom: 0px; font-size: 40px"";>&ensp;</p>","-","viewing","0","16","1A,15A,26C","","","","","","","","","","","","","","","","","","","","","",""
"","","","","","html-slider-response","65","3401053","0.0-17.0-1.16","3aef7628-6e8a-41a0-8bec-3f3beeb86c4b","1671","
                  <p style=""text-align: center;"">₪39
                                                <br>65%</p>
                  <p id=""wtp"" style=""text-align:center; margin-top: 0px; margin-bottom: 0px; font-size: 40px"";>מוכנים לשלם: <span id=""c_p_y""></span></p>","71","evaluation","4","16","1A,15A,26C","65","39","71","","","","","","","","","","","","","","","","","","",""
"","","","","","html-keyboard-response","66","3402262","0.0-17.0-2.16","3aef7628-6e8a-41a0-8bec-3f3beeb86c4b","null","<p style=""text-align: center;"">+</p>","null","fixation","","","","","","","","","","","","","","","","","","","","","","","","",""
"","","","","","html-slider-response","67","3403275","0.0-17.0-0.17","3aef7628-6e8a-41a0-8bec-3f3beeb86c4b","1000","
                  <p style=""text-align: center;"">₪64
                                                <br>25%</p>
                  <p id=""wtp"" style=""text-align:center; margin-top: 0px; margin-bottom: 0px; font-size: 40px"";>&ensp;</p>","-","viewing","0","24","6A,21A","","","","","","","","","","","","","","","","","","","","","",""
"","","","","","html-slider-response","68","3406189","0.0-17.0-1.17","3aef7628-6e8a-41a0-8bec-3f3beeb86c4b","2913","
                  <p style=""text-align: center;"">₪64
                                                <br>25%</p>
                  <p id=""wtp"" style=""text-align:center; margin-top: 0px; margin-bottom: 0px; font-size: 40px"";>מוכנים לשלם: <span id=""c_p_y""></span></p>","58","evaluation","75","24","6A,21A","25","64","58","","","","","","","","","","","","","","","","","","",""
"","","","","","html-keyboard-response","69","3406743","0.0-17.0-2.17","3aef7628-6e8a-41a0-8bec-3f3beeb86c4b","null","<p style=""text-align: center;"">+</p>","null","fixation","","","","","","","","","","","","","","","","","","","","","","","","",""
"","","","","","html-slider-response","70","3407747","0.0-17.0-0.18","3aef7628-6e8a-41a0-8bec-3f3beeb86c4b","1000","
                  <p style=""text-align: center;"">₪58
                                                <br>30%</p>
                  <p id=""wtp"" style=""text-align:center; margin-top: 0px; margin-bottom: 0px; font-size: 40px"";>&ensp;</p>","-","viewing","0","19","13C,30A","","","","","","","","","","","","","","","","","","","","","",""
"","","","","","html-slider-response","71","3411758","0.0-17.0-1.18","3aef7628-6e8a-41a0-8bec-3f3beeb86c4b","null","
                  <p style=""text-align: center;"">₪58
                                                <br>30%</p>
                  <p id=""wtp"" style=""text-align:center; margin-top: 0px; margin-bottom: 0px; font-size: 40px"";>מוכנים לשלם: <span id=""c_p_y""></span></p>","null","evaluation","3","19","13C,30A","30","58","69","","","","","","","","","","","","","","","","","","",""
"","","","","","html-keyboard-response","72","3412909","0.0-17.0-2.18","3aef7628-6e8a-41a0-8bec-3f3beeb86c4b","null","<p style=""text-align: center;"">+</p>","null","fixation","","","","","","","","","","","","","","","","","","","","","","","","",""
"","","","","","html-slider-response","73","3413912","0.0-17.0-0.19","3aef7628-6e8a-41a0-8bec-3f3beeb86c4b","1000","
                  <p style=""text-align: center;"">₪39
                                                <br>60%</p>
                  <p id=""wtp"" style=""text-align:center; margin-top: 0px; margin-bottom: 0px; font-size: 40px"";>&ensp;</p>","-","viewing","0","15","9C,25B","","","","","","","","","","","","","","","","","","","","","",""
"","","","","","html-slider-response","74","3415341","0.0-17.0-1.19","3aef7628-6e8a-41a0-8bec-3f3beeb86c4b","1429","
                  <p style=""text-align: center;"">₪39
                                                <br>60%</p>
                  <p id=""wtp"" style=""text-align:center; margin-top: 0px; margin-bottom: 0px; font-size: 40px"";>מוכנים לשלם: <span id=""c_p_y""></span></p>","65","evaluation","73","15","9C,25B","60","39","65","","","","","","","","","","","","","","","","","","",""
"","","","","","html-keyboard-response","75","3416467","0.0-17.0-2.19","3aef7628-6e8a-41a0-8bec-3f3beeb86c4b","null","<p style=""text-align: center;"">+</p>","null","fixation","","","","","","","","","","","","","","","","","","","","","","","","",""
"","","","","","html-slider-response","76","3417470","0.0-17.0-0.20","3aef7628-6e8a-41a0-8bec-3f3beeb86c4b","1000","
                  <p style=""text-align: center;"">₪11
                                                <br>75%</p>
                  <p id=""wtp"" style=""text-align:center; margin-top: 0px; margin-bottom: 0px; font-size: 40px"";>&ensp;</p>","-","viewing","0","7","6B,18B,22C,24C,29A","","","","","","","","","","","","","","","","","","","","","",""
"","","","","","html-slider-response","77","3417997","0.0-17.0-1.20","3aef7628-6e8a-41a0-8bec-3f3beeb86c4b","526","
                  <p style=""text-align: center;"">₪11
                                                <br>75%</p>
                  <p id=""wtp"" style=""text-align:center; margin-top: 0px; margin-bottom: 0px; font-size: 40px"";>מוכנים לשלם: <span id=""c_p_y""></span></p>","63","evaluation","69","7","6B,18B,22C,24C,29A","75","11","63","","","","","","","","","","","","","","","","","","",""
"","","","","","html-keyboard-response","78","3418836","0.0-17.0-2.20","3aef7628-6e8a-41a0-8bec-3f3beeb86c4b","null","<p style=""text-align: center;"">+</p>","null","fixation","","","","","","","","","","","","","","","","","","","","","","","","",""
"","","","","","html-slider-response","79","3419838","0.0-17.0-0.21","3aef7628-6e8a-41a0-8bec-3f3beeb86c4b","1000","
                  <p style=""text-align: center;"">₪36
                                                <br>70%</p>
                  <p id=""wtp"" style=""text-align:center; margin-top: 0px; margin-bottom: 0px; font-size: 40px"";>&ensp;</p>","-","viewing","0","13","3A,5C,10B","","","","","","","","","","","","","","","","","","","","","",""
"","","","","","html-slider-response","80","3420773","0.0-17.0-1.21","3aef7628-6e8a-41a0-8bec-3f3beeb86c4b","934","
                  <p style=""text-align: center;"">₪36
                                                <br>70%</p>
                  <p id=""wtp"" style=""text-align:center; margin-top: 0px; margin-bottom: 0px; font-size: 40px"";>מוכנים לשלם: <span id=""c_p_y""></span></p>","50","evaluation","57","13","3A,5C,10B","70","36","50","","","","","","","","","","","","","","","","","","",""
"","","","","","html-keyboard-response","81","3421358","0.0-17.0-2.21","3aef7628-6e8a-41a0-8bec-3f3beeb86c4b","null","<p style=""text-align: center;"">+</p>","null","fixation","","","","","","","","","","","","","","","","","","","","","","","","",""
"","","","","","html-slider-response","82","3422362","0.0-17.0-0.22","3aef7628-6e8a-41a0-8bec-3f3beeb86c4b","1000","
                  <p style=""text-align: center;"">₪18
                                                <br>25%</p>
                  <p id=""wtp"" style=""text-align:center; margin-top: 0px; margin-bottom: 0px; font-size: 40px"";>&ensp;</p>","-","viewing","0","9","14A,23A","","","","","","","","","","","","","","","","","","","","","",""
"","","","","","html-slider-response","83","3423909","0.0-17.0-1.22","3aef7628-6e8a-41a0-8bec-3f3beeb86c4b","1546","
                  <p style=""text-align: center;"">₪18
                                                <br>25%</p>
                  <p id=""wtp"" style=""text-align:center; margin-top: 0px; margin-bottom: 0px; font-size: 40px"";>מוכנים לשלם: <span id=""c_p_y""></span></p>","20","evaluation","35","9","14A,23A","25","18","20","","","","","","","","","","","","","","","","","","",""
"","","","","","html-keyboard-response","84","3425244","0.0-17.0-2.22","3aef7628-6e8a-41a0-8bec-3f3beeb86c4b","null","<p style=""text-align: center;"">+</p>","null","fixation","","","","","","","","","","","","","","","","","","","","","","","","",""
"","","","","","html-slider-response","85","3426246","0.0-17.0-0.23","3aef7628-6e8a-41a0-8bec-3f3beeb86c4b","1000","
                  <p style=""text-align: center;"">₪71
                                                <br>55%</p>
                  <p id=""wtp"" style=""text-align:center; margin-top: 0px; margin-bottom: 0px; font-size: 40px"";>&ensp;</p>","-","viewing","0","27","5B,18A","","","","","","","","","","","","","","","","","","","","","",""
"","","","","","html-slider-response","86","3427613","0.0-17.0-1.23","3aef7628-6e8a-41a0-8bec-3f3beeb86c4b","1366","
                  <p style=""text-align: center;"">₪71
                                                <br>55%</p>
                  <p id=""wtp"" style=""text-align:center; margin-top: 0px; margin-bottom: 0px; font-size: 40px"";>מוכנים לשלם: <span id=""c_p_y""></span></p>","64","evaluation","54","27","5B,18A","55","71","64","","","","","","","","","","","","","","","","","","",""
"","","","","","html-keyboard-response","87","3428729","0.0-17.0-2.23","3aef7628-6e8a-41a0-8bec-3f3beeb86c4b","null","<p style=""text-align: center;"">+</p>","null","fixation","","","","","","","","","","","","","","","","","","","","","","","","",""
"","","","","","html-slider-response","88","3429734","0.0-17.0-0.24","3aef7628-6e8a-41a0-8bec-3f3beeb86c4b","1000","
                  <p style=""text-align: center;"">₪71
                                                <br>45%</p>
                  <p id=""wtp"" style=""text-align:center; margin-top: 0px; margin-bottom: 0px; font-size: 40px"";>&ensp;</p>","-","viewing","0","26","2B,16A","","","","","","","","","","","","","","","","","","","","","",""
"","","","","","html-slider-response","89","3431949","0.0-17.0-1.24","3aef7628-6e8a-41a0-8bec-3f3beeb86c4b","2214","
                  <p style=""text-align: center;"">₪71
                                                <br>45%</p>
                  <p id=""wtp"" style=""text-align:center; margin-top: 0px; margin-bottom: 0px; font-size: 40px"";>מוכנים לשלם: <span id=""c_p_y""></span></p>","62","evaluation","80","26","2B,16A","45","71","62","","","","","","","","","","","","","","","","","","",""
"","","","","","html-keyboard-response","90","3433033","0.0-17.0-2.24","3aef7628-6e8a-41a0-8bec-3f3beeb86c4b","null","<p style=""text-align: center;"">+</p>","null","fixation","","","","","","","","","","","","","","","","","","","","","","","","",""
"","","","","","html-slider-response","91","3434040","0.0-17.0-0.25","3aef7628-6e8a-41a0-8bec-3f3beeb86c4b","1000","
                  <p style=""text-align: center;"">₪79
                                                <br>65%</p>
                  <p id=""wtp"" style=""text-align:center; margin-top: 0px; margin-bottom: 0px; font-size: 40px"";>&ensp;</p>","-","viewing","0","31","8A","","","","","","","","","","","","","","","","","","","","","",""
"","","","","","html-slider-response","92","3435733","0.0-17.0-1.25","3aef7628-6e8a-41a0-8bec-3f3beeb86c4b","1693","
                  <p style=""text-align: center;"">₪79
                                                <br>65%</p>
                  <p id=""wtp"" style=""text-align:center; margin-top: 0px; margin-bottom: 0px; font-size: 40px"";>מוכנים לשלם: <span id=""c_p_y""></span></p>","73","evaluation","13","31","8A","65","79","72","","","","","","","","","","","","","","","","","","",""
"","","","","","html-keyboard-response","93","3437182","0.0-17.0-2.25","3aef7628-6e8a-41a0-8bec-3f3beeb86c4b","null","<p style=""text-align: center;"">+</p>","null","fixation","","","","","","","","","","","","","","","","","","","","","","","","",""
"","","","","","html-slider-response","94","3438185","0.0-17.0-0.26","3aef7628-6e8a-41a0-8bec-3f3beeb86c4b","1000","
                  <p style=""text-align: center;"">₪4
                                                <br>50%</p>
                  <p id=""wtp"" style=""text-align:center; margin-top: 0px; margin-bottom: 0px; font-size: 40px"";>&ensp;</p>","-","viewing","0","2","4C,17B","","","","","","","","","","","","","","","","","","","","","",""
"","","","","","html-slider-response","95","3439581","0.0-17.0-1.26","3aef7628-6e8a-41a0-8bec-3f3beeb86c4b","1396","
                  <p style=""text-align: center;"">₪4
                                                <br>50%</p>
                  <p id=""wtp"" style=""text-align:center; margin-top: 0px; margin-bottom: 0px; font-size: 40px"";>מוכנים לשלם: <span id=""c_p_y""></span></p>","5","evaluation","66","2","4C,17B","50","4","5","","","","","","","","","","","","","","","","","","",""
"","","","","","html-keyboard-response","96","3440970","0.0-17.0-2.26","3aef7628-6e8a-41a0-8bec-3f3beeb86c4b","null","<p style=""text-align: center;"">+</p>","null","fixation","","","","","","","","","","","","","","","","","","","","","","","","",""
"","","","","","html-slider-response","97","3441980","0.0-17.0-0.27","3aef7628-6e8a-41a0-8bec-3f3beeb86c4b","1000","
                  <p style=""text-align: center;"">₪11
                                                <br>20%</p>
                  <p id=""wtp"" style=""text-align:center; margin-top: 0px; margin-bottom: 0px; font-size: 40px"";>&ensp;</p>","-","viewing","0","4","12C,17C,23C,28C","","","","","","","","","","","","","","","","","","","","","",""
"","","","","","html-slider-response","98","3443405","0.0-17.0-1.27","3aef7628-6e8a-41a0-8bec-3f3beeb86c4b","1425","
                  <p style=""text-align: center;"">₪11
                                                <br>20%</p>
                  <p id=""wtp"" style=""text-align:center; margin-top: 0px; margin-bottom: 0px; font-size: 40px"";>מוכנים לשלם: <span id=""c_p_y""></span></p>","11","evaluation","40","4","12C,17C,23C,28C","20","11","11","","","","","","","","","","","","","","","","","","",""
"","","","","","html-keyboard-response","99","3444229","0.0-17.0-2.27","3aef7628-6e8a-41a0-8bec-3f3beeb86c4b","null","<p style=""text-align: center;"">+</p>","null","fixation","","","","","","","","","","","","","","","","","","","","","","","","",""
"","","","","","html-slider-response","100","3445235","0.0-17.0-0.28","3aef7628-6e8a-41a0-8bec-3f3beeb86c4b","1000","
                  <p style=""text-align: center;"">₪16
                                                <br>20%</p>
                  <p id=""wtp"" style=""text-align:center; margin-top: 0px; margin-bottom: 0px; font-size: 40px"";>&ensp;</p>","-","viewing","0","8","14C,17A,20C,27A","","","","","","","","","","","","","","","","","","","","","",""
"","","","","","html-slider-response","101","3449086","0.0-17.0-1.28","3aef7628-6e8a-41a0-8bec-3f3beeb86c4b","3849","
                  <p style=""text-align: center;"">₪16
                                                <br>20%</p>
                  <p id=""wtp"" style=""text-align:center; margin-top: 0px; margin-bottom: 0px; font-size: 40px"";>מוכנים לשלם: <span id=""c_p_y""></span></p>","31","evaluation","12","8","14C,17A,20C,27A","20","16","31","","","","","","","","","","","","","","","","","","",""
"","","","","","html-keyboard-response","102","3450465","0.0-17.0-2.28","3aef7628-6e8a-41a0-8bec-3f3beeb86c4b","null","<p style=""text-align: center;"">+</p>","null","fixation","","","","","","","","","","","","","","","","","","","","","","","","",""
"","","","","","html-slider-response","103","3451475","0.0-17.0-0.29","3aef7628-6e8a-41a0-8bec-3f3beeb86c4b","1000","
                  <p style=""text-align: center;"">₪58
                                                <br>45%</p>
                  <p id=""wtp"" style=""text-align:center; margin-top: 0px; margin-bottom: 0px; font-size: 40px"";>&ensp;</p>","-","viewing","0","21","11C,18C,25A","","","","","","","","","","","","","","","","","","","","","",""
"","","","","","html-slider-response","104","3454773","0.0-17.0-1.29","3aef7628-6e8a-41a0-8bec-3f3beeb86c4b","3298","
                  <p style=""text-align: center;"">₪58
                                                <br>45%</p>
                  <p id=""wtp"" style=""text-align:center; margin-top: 0px; margin-bottom: 0px; font-size: 40px"";>מוכנים לשלם: <span id=""c_p_y""></span></p>","58","evaluation","67","21","11C,18C,25A","45","58","58","","","","","","","","","","","","","","","","","","",""
"","","","","","html-keyboard-response","105","3456152","0.0-17.0-2.29","3aef7628-6e8a-41a0-8bec-3f3beeb86c4b","null","<p style=""text-align: center;"">+</p>","null","fixation","","","","","","","","","","","","","","","","","","","","","","","","",""
"","","","","","html-slider-response","106","3457161","0.0-17.0-0.30","3aef7628-6e8a-41a0-8bec-3f3beeb86c4b","1000","
                  <p style=""text-align: center;"">₪4
                                                <br>25%</p>
                  <p id=""wtp"" style=""text-align:center; margin-top: 0px; margin-bottom: 0px; font-size: 40px"";>&ensp;</p>","-","viewing","0","1","6C,29B,30C","","","","","","","","","","","","","","","","","","","","","",""
"","","","","","html-slider-response","107","3458269","0.0-17.0-1.30","3aef7628-6e8a-41a0-8bec-3f3beeb86c4b","1108","
                  <p style=""text-align: center;"">₪4
                                                <br>25%</p>
                  <p id=""wtp"" style=""text-align:center; margin-top: 0px; margin-bottom: 0px; font-size: 40px"";>מוכנים לשלם: <span id=""c_p_y""></span></p>","15","evaluation","25","1","6C,29B,30C","25","4","15","","","","","","","","","","","","","","","","","","",""
"","","","","","html-keyboard-response","108","3459297","0.0-17.0-2.30","3aef7628-6e8a-41a0-8bec-3f3beeb86c4b","null","<p style=""text-align: center;"">+</p>","null","fixation","","","","","","","","","","","","","","","","","","","","","","","","",""
"","","","","","html-keyboard-response","109","3460299","0.0-18.0","3aef7628-6e8a-41a0-8bec-3f3beeb86c4b","null","<p style=""text-align: center;"">+</p>","null","fixation","","","","","","","","","","","","","","","","","","","","","","","","",""
"","","","","","html-keyboard-response","110","3462381","0.0-19.0","3aef7628-6e8a-41a0-8bec-3f3beeb86c4b","null","<p>הפסקה.
          <br>לחצו כדי להמשיך.</p>","1","scan_wait","","","","","","","","","","","","","","","","","","","","","","","","",""
"","","","","","html-keyboard-response","111","3463387","0.0-20.0","3aef7628-6e8a-41a0-8bec-3f3beeb86c4b","null","<p style=""text-align: center;"">+</p>","null","fixation","","","","","","","","","","","","","","","","","","","","","","","","",""
"","","","","","html-slider-response","112","3464403","0.0-21.0-0.0","3aef7628-6e8a-41a0-8bec-3f3beeb86c4b","1000","
                  <p style=""text-align: center;"">₪36
                                                <br>30%</p>
                  <p id=""wtp"" style=""text-align:center; margin-top: 0px; margin-bottom: 0px; font-size: 40px"";>&ensp;</p>","-","viewing","0","11","3C,20A,22A","","","","","","","","","","","","","","","","","","","","","",""
"","","","","","html-slider-response","113","3466693","0.0-21.0-1.0","3aef7628-6e8a-41a0-8bec-3f3beeb86c4b","2289","
                  <p style=""text-align: center;"">₪36
                                                <br>30%</p>
                  <p id=""wtp"" style=""text-align:center; margin-top: 0px; margin-bottom: 0px; font-size: 40px"";>מוכנים לשלם: <span id=""c_p_y""></span></p>","20","evaluation","3","11","3C,20A,22A","30","36","20","","","","","","","","","","","","","","","","","","",""
"","","","","","html-keyboard-response","114","3467722","0.0-21.0-2.0","3aef7628-6e8a-41a0-8bec-3f3beeb86c4b","null","<p style=""text-align: center;"">+</p>","null","fixation","","","","","","","","","","","","","","","","","","","","","","","","",""
"","","","","","html-slider-response","115","3468725","0.0-21.0-0.1","3aef7628-6e8a-41a0-8bec-3f3beeb86c4b","1000","
                  <p style=""text-align: center;"">₪58
                                                <br>30%</p>
                  <p id=""wtp"" style=""text-align:center; margin-top: 0px; margin-bottom: 0px; font-size: 40px"";>&ensp;</p>","-","viewing","0","19","13C,30A","","","","","","","","","","","","","","","","","","","","","",""
"","","","","","html-slider-response","116","3471693","0.0-21.0-1.1","3aef7628-6e8a-41a0-8bec-3f3beeb86c4b","2967","
                  <p style=""text-align: center;"">₪58
                                                <br>30%</p>
                  <p id=""wtp"" style=""text-align:center; margin-top: 0px; margin-bottom: 0px; font-size: 40px"";>מוכנים לשלם: <span id=""c_p_y""></span></p>","33","evaluation","25","19","13C,30A","30","58","33","","","","","","","","","","","","","","","","","","",""
"","","","","","html-keyboard-response","117","3472852","0.0-21.0-2.1","3aef7628-6e8a-41a0-8bec-3f3beeb86c4b","null","<p style=""text-align: center;"">+</p>","null","fixation","","","","","","","","","","","","","","","","","","","","","","","","",""
"","","","","","html-slider-response","118","3473862","0.0-21.0-0.2","3aef7628-6e8a-41a0-8bec-3f3beeb86c4b","1000","
                  <p style=""text-align: center;"">₪58
                                                <br>40%</p>
                  <p id=""wtp"" style=""text-align:center; margin-top: 0px; margin-bottom: 0px; font-size: 40px"";>&ensp;</p>","-","viewing","0","20","10C,13A,19C,21B","","","","","","","","","","","","","","","","","","","","","",""
"","","","","","html-slider-response","119","3476621","0.0-21.0-1.2","3aef7628-6e8a-41a0-8bec-3f3beeb86c4b","2758","
                  <p style=""text-align: center;"">₪58
                                                <br>40%</p>
                  <p id=""wtp"" style=""text-align:center; margin-top: 0px; margin-bottom: 0px; font-size: 40px"";>מוכנים לשלם: <span id=""c_p_y""></span></p>","40","evaluation","36","20","10C,13A,19C,21B","40","58","40","","","","","","","","","","","","","","","","","","",""
"","","","","","html-keyboard-response","120","3477414","0.0-21.0-2.2","3aef7628-6e8a-41a0-8bec-3f3beeb86c4b","null","<p style=""text-align: center;"">+</p>","null","fixation","","","","","","","","","","","","","","","","","","","","","","","","",""
"","","","","","html-slider-response","121","3478430","0.0-21.0-0.3","3aef7628-6e8a-41a0-8bec-3f3beeb86c4b","1000","
                  <p style=""text-align: center;"">₪36
                                                <br>70%</p>
                  <p id=""wtp"" style=""text-align:center; margin-top: 0px; margin-bottom: 0px; font-size: 40px"";>&ensp;</p>","-","viewing","0","13","3A,5C,10B","","","","","","","","","","","","","","","","","","","","","",""
"","","","","","html-slider-response","122","3480677","0.0-21.0-1.3","3aef7628-6e8a-41a0-8bec-3f3beeb86c4b","2246","
                  <p style=""text-align: center;"">₪36
                                                <br>70%</p>
                  <p id=""wtp"" style=""text-align:center; margin-top: 0px; margin-bottom: 0px; font-size: 40px"";>מוכנים לשלם: <span id=""c_p_y""></span></p>","60","evaluation","77","13","3A,5C,10B","70","36","60","","","","","","","","","","","","","","","","","","",""
"","","","","","html-keyboard-response","123","3481203","0.0-21.0-2.3","3aef7628-6e8a-41a0-8bec-3f3beeb86c4b","null","<p style=""text-align: center;"">+</p>","null","fixation","","","","","","","","","","","","","","","","","","","","","","","","",""
"","","","","","html-slider-response","124","3482205","0.0-21.0-0.4","3aef7628-6e8a-41a0-8bec-3f3beeb86c4b","1000","
                  <p style=""text-align: center;"">₪58
                                                <br>45%</p>
                  <p id=""wtp"" style=""text-align:center; margin-top: 0px; margin-bottom: 0px; font-size: 40px"";>&ensp;</p>","-","viewing","0","21","11C,18C,25A","","","","","","","","","","","","","","","","","","","","","",""
"","","","","","html-slider-response","125","3484789","0.0-21.0-1.4","3aef7628-6e8a-41a0-8bec-3f3beeb86c4b","2584","
                  <p style=""text-align: center;"">₪58
                                                <br>45%</p>
                  <p id=""wtp"" style=""text-align:center; margin-top: 0px; margin-bottom: 0px; font-size: 40px"";>מוכנים לשלם: <span id=""c_p_y""></span></p>","40","evaluation","33","21","11C,18C,25A","45","58","40","","","","","","","","","","","","","","","","","","",""
"","","","","","html-keyboard-response","126","3485948","0.0-21.0-2.4","3aef7628-6e8a-41a0-8bec-3f3beeb86c4b","null","<p style=""text-align: center;"">+</p>","null","fixation","","","","","","","","","","","","","","","","","","","","","","","","",""
"","","","","","html-slider-response","127","3486958","0.0-21.0-0.5","3aef7628-6e8a-41a0-8bec-3f3beeb86c4b","1000","
                  <p style=""text-align: center;"">₪76
                                                <br>65%</p>
                  <p id=""wtp"" style=""text-align:center; margin-top: 0px; margin-bottom: 0px; font-size: 40px"";>&ensp;</p>","-","viewing","0","29","8C,19A,24B","","","","","","","","","","","","","","","","","","","","","",""
"","","","","","html-slider-response","128","3489349","0.0-21.0-1.5","3aef7628-6e8a-41a0-8bec-3f3beeb86c4b","2390","
                  <p style=""text-align: center;"">₪76
                                                <br>65%</p>
                  <p id=""wtp"" style=""text-align:center; margin-top: 0px; margin-bottom: 0px; font-size: 40px"";>מוכנים לשלם: <span id=""c_p_y""></span></p>","73","evaluation","26","29","8C,19A,24B","65","76","73","","","","","","","","","","","","","","","","","","",""
"","","","","","html-keyboard-response","129","3489987","0.0-21.0-2.5","3aef7628-6e8a-41a0-8bec-3f3beeb86c4b","null","<p style=""text-align: center;"">+</p>","null","fixation","","","","","","","","","","","","","","","","","","","","","","","","",""
"","","","","","html-slider-response","130","3490995","0.0-21.0-0.6","3aef7628-6e8a-41a0-8bec-3f3beeb86c4b","1000","
                  <p style=""text-align: center;"">₪43
                                                <br>75%</p>
                  <p id=""wtp"" style=""text-align:center; margin-top: 0px; margin-bottom: 0px; font-size: 40px"";>&ensp;</p>","-","viewing","0","18","11B,19B,24A,26A","","","","","","","","","","","","","","","","","","","","","",""
"","","","","","html-slider-response","131","3494357","0.0-21.0-1.6","3aef7628-6e8a-41a0-8bec-3f3beeb86c4b","3361","
                  <p style=""text-align: center;"">₪43
                                                <br>75%</p>
                  <p id=""wtp"" style=""text-align:center; margin-top: 0px; margin-bottom: 0px; font-size: 40px"";>מוכנים לשלם: <span id=""c_p_y""></span></p>","50","evaluation","21","18","11B,19B,24A,26A","75","43","50","","","","","","","","","","","","","","","","","","",""
"","","","","","html-keyboard-response","132","3495580","0.0-21.0-2.6","3aef7628-6e8a-41a0-8bec-3f3beeb86c4b","null","<p style=""text-align: center;"">+</p>","null","fixation","","","","","","","","","","","","","","","","","","","","","","","","",""
"","","","","","html-slider-response","133","3496583","0.0-21.0-0.7","3aef7628-6e8a-41a0-8bec-3f3beeb86c4b","1000","
                  <p style=""text-align: center;"">₪71
                                                <br>55%</p>
                  <p id=""wtp"" style=""text-align:center; margin-top: 0px; margin-bottom: 0px; font-size: 40px"";>&ensp;</p>","-","viewing","0","27","5B,18A","","","","","","","","","","","","","","","","","","","","","",""
"","","","","","html-slider-response","134","3498861","0.0-21.0-1.7","3aef7628-6e8a-41a0-8bec-3f3beeb86c4b","2277","
                  <p style=""text-align: center;"">₪71
                                                <br>55%</p>
                  <p id=""wtp"" style=""text-align:center; margin-top: 0px; margin-bottom: 0px; font-size: 40px"";>מוכנים לשלם: <span id=""c_p_y""></span></p>","75","evaluation","2","27","5B,18A","55","71","75","","","","","","","","","","","","","","","","","","",""
"","","","","","html-keyboard-response","135","3499823","0.0-21.0-2.7","3aef7628-6e8a-41a0-8bec-3f3beeb86c4b","null","<p style=""text-align: center;"">+</p>","null","fixation","","","","","","","","","","","","","","","","","","","","","","","","",""
"","","","","","html-slider-response","136","3500837","0.0-21.0-0.8","3aef7628-6e8a-41a0-8bec-3f3beeb86c4b","1000","
                  <p style=""text-align: center;"">₪36
                                                <br>60%</p>
                  <p id=""wtp"" style=""text-align:center; margin-top: 0px; margin-bottom: 0px; font-size: 40px"";>&ensp;</p>","-","viewing","0","12","1C,7C,15C","","","","","","","","","","","","","","","","","","","","","",""
"","","","","","html-slider-response","137","3503757","0.0-21.0-1.8","3aef7628-6e8a-41a0-8bec-3f3beeb86c4b","2919","
                  <p style=""text-align: center;"">₪36
                                                <br>60%</p>
                  <p id=""wtp"" style=""text-align:center; margin-top: 0px; margin-bottom: 0px; font-size: 40px"";>מוכנים לשלם: <span id=""c_p_y""></span></p>","40","evaluation","59","12","1C,7C,15C","60","36","40","","","","","","","","","","","","","","","","","","",""
"","","","","","html-keyboard-response","138","3504277","0.0-21.0-2.8","3aef7628-6e8a-41a0-8bec-3f3beeb86c4b","null","<p style=""text-align: center;"">+</p>","null","fixation","","","","","","","","","","","","","","","","","","","","","","","","",""
"","","","","","html-slider-response","139","3505294","0.0-21.0-0.9","3aef7628-6e8a-41a0-8bec-3f3beeb86c4b","1000","
                  <p style=""text-align: center;"">₪71
                                                <br>75%</p>
                  <p id=""wtp"" style=""text-align:center; margin-top: 0px; margin-bottom: 0px; font-size: 40px"";>&ensp;</p>","-","viewing","0","28","8B","","","","","","","","","","","","","","","","","","","","","",""
"","","","","","html-slider-response","140","3507117","0.0-21.0-1.9","3aef7628-6e8a-41a0-8bec-3f3beeb86c4b","1822","
                  <p style=""text-align: center;"">₪71
                                                <br>75%</p>
                  <p id=""wtp"" style=""text-align:center; margin-top: 0px; margin-bottom: 0px; font-size: 40px"";>מוכנים לשלם: <span id=""c_p_y""></span></p>","75","evaluation","46","28","8B","75","71","75","","","","","","","","","","","","","","","","","","",""
"","","","","","html-keyboard-response","141","3508192","0.0-21.0-2.9","3aef7628-6e8a-41a0-8bec-3f3beeb86c4b","null","<p style=""text-align: center;"">+</p>","null","fixation","","","","","","","","","","","","","","","","","","","","","","","","",""
"","","","","","html-slider-response","142","3509207","0.0-21.0-0.10","3aef7628-6e8a-41a0-8bec-3f3beeb86c4b","1000","
                  <p style=""text-align: center;"">₪4
                                                <br>75%</p>
                  <p id=""wtp"" style=""text-align:center; margin-top: 0px; margin-bottom: 0px; font-size: 40px"";>&ensp;</p>","-","viewing","0","3","12B,20B,23B,27C,29C","","","","","","","","","","","","","","","","","","","","","",""
"","","","","","html-slider-response","143","3510525","0.0-21.0-1.10","3aef7628-6e8a-41a0-8bec-3f3beeb86c4b","1318","
                  <p style=""text-align: center;"">₪4
                                                <br>75%</p>
                  <p id=""wtp"" style=""text-align:center; margin-top: 0px; margin-bottom: 0px; font-size: 40px"";>מוכנים לשלם: <span id=""c_p_y""></span></p>","8","evaluation","10","3","12B,20B,23B,27C,29C","75","4","8","","","","","","","","","","","","","","","","","","",""
"","","","","","html-keyboard-response","144","3511736","0.0-21.0-2.10","3aef7628-6e8a-41a0-8bec-3f3beeb86c4b","null","<p style=""text-align: center;"">+</p>","null","fixation","","","","","","","","","","","","","","","","","","","","","","","","",""
"","","","","","html-slider-response","145","3512742","0.0-21.0-0.11","3aef7628-6e8a-41a0-8bec-3f3beeb86c4b","1000","
                  <p style=""text-align: center;"">₪39
                                                <br>60%</p>
                  <p id=""wtp"" style=""text-align:center; margin-top: 0px; margin-bottom: 0px; font-size: 40px"";>&ensp;</p>","-","viewing","0","15","9C,25B","","","","","","","","","","","","","","","","","","","","","",""
"","","","","","html-slider-response","146","3514885","0.0-21.0-1.11","3aef7628-6e8a-41a0-8bec-3f3beeb86c4b","2142","
                  <p style=""text-align: center;"">₪39
                                                <br>60%</p>
                  <p id=""wtp"" style=""text-align:center; margin-top: 0px; margin-bottom: 0px; font-size: 40px"";>מוכנים לשלם: <span id=""c_p_y""></span></p>","60","evaluation","17","15","9C,25B","60","39","60","","","","","","","","","","","","","","","","","","",""
"","","","","","html-keyboard-response","147","3516371","0.0-21.0-2.11","3aef7628-6e8a-41a0-8bec-3f3beeb86c4b","null","<p style=""text-align: center;"">+</p>","null","fixation","","","","","","","","","","","","","","","","","","","","","","","","",""
"","","","","","html-slider-response","148","3517374","0.0-21.0-0.12","3aef7628-6e8a-41a0-8bec-3f3beeb86c4b","1000","
                  <p style=""text-align: center;"">₪64
                                                <br>50%</p>
                  <p id=""wtp"" style=""text-align:center; margin-top: 0px; margin-bottom: 0px; font-size: 40px"";>&ensp;</p>","-","viewing","0","25","1B,3B,4A","","","","","","","","","","","","","","","","","","","","","",""
"","","","","","html-slider-response","149","3518461","0.0-21.0-1.12","3aef7628-6e8a-41a0-8bec-3f3beeb86c4b","1086","
                  <p style=""text-align: center;"">₪64
                                                <br>50%</p>
                  <p id=""wtp"" style=""text-align:center; margin-top: 0px; margin-bottom: 0px; font-size: 40px"";>מוכנים לשלם: <span id=""c_p_y""></span></p>","60","evaluation","51","25","1B,3B,4A","50","64","60","","","","","","","","","","","","","","","","","","",""
"","","","","","html-keyboard-response","150","3519100","0.0-21.0-2.12","3aef7628-6e8a-41a0-8bec-3f3beeb86c4b","null","<p style=""text-align: center;"">+</p>","null","fixation","","","","","","","","","","","","","","","","","","","","","","","","",""
"","","","","","html-slider-response","151","3520101","0.0-21.0-0.13","3aef7628-6e8a-41a0-8bec-3f3beeb86c4b","1000","
                  <p style=""text-align: center;"">₪61
                                                <br>45%</p>
                  <p id=""wtp"" style=""text-align:center; margin-top: 0px; margin-bottom: 0px; font-size: 40px"";>&ensp;</p>","-","viewing","0","22","10A,11A","","","","","","","","","","","","","","","","","","","","","",""
"","","","","","html-slider-response","152","3521229","0.0-21.0-1.13","3aef7628-6e8a-41a0-8bec-3f3beeb86c4b","1127","
                  <p style=""text-align: center;"">₪61
                                                <br>45%</p>
                  <p id=""wtp"" style=""text-align:center; margin-top: 0px; margin-bottom: 0px; font-size: 40px"";>מוכנים לשלם: <span id=""c_p_y""></span></p>","39","evaluation","68","22","10A,11A","45","61","39","","","","","","","","","","","","","","","","","","",""
"","","","","","html-keyboard-response","153","3522010","0.0-21.0-2.13","3aef7628-6e8a-41a0-8bec-3f3beeb86c4b","null","<p style=""text-align: center;"">+</p>","null","fixation","","","","","","","","","","","","","","","","","","","","","","","","",""
"","","","","","html-slider-response","154","3523012","0.0-21.0-0.14","3aef7628-6e8a-41a0-8bec-3f3beeb86c4b","1000","
                  <p style=""text-align: center;"">₪11
                                                <br>75%</p>
                  <p id=""wtp"" style=""text-align:center; margin-top: 0px; margin-bottom: 0px; font-size: 40px"";>&ensp;</p>","-","viewing","0","7","6B,18B,22C,24C,29A","","","","","","","","","","","","","","","","","","","","","",""
"","","","","","html-slider-response","155","3524517","0.0-21.0-1.14","3aef7628-6e8a-41a0-8bec-3f3beeb86c4b","1504","
                  <p style=""text-align: center;"">₪11
                                                <br>75%</p>
                  <p id=""wtp"" style=""text-align:center; margin-top: 0px; margin-bottom: 0px; font-size: 40px"";>מוכנים לשלם: <span id=""c_p_y""></span></p>","20","evaluation","43","7","6B,18B,22C,24C,29A","75","11","20","","","","","","","","","","","","","","","","","","",""
"","","","","","html-keyboard-response","156","3525187","0.0-21.0-2.14","3aef7628-6e8a-41a0-8bec-3f3beeb86c4b","null","<p style=""text-align: center;"">+</p>","null","fixation","","","","","","","","","","","","","","","","","","","","","","","","",""
"","","","","","html-slider-response","157","3526198","0.0-21.0-0.15","3aef7628-6e8a-41a0-8bec-3f3beeb86c4b","1000","
                  <p style=""text-align: center;"">₪4
                                                <br>50%</p>
                  <p id=""wtp"" style=""text-align:center; margin-top: 0px; margin-bottom: 0px; font-size: 40px"";>&ensp;</p>","-","viewing","0","2","4C,17B","","","","","","","","","","","","","","","","","","","","","",""
"","","","","","html-slider-response","158","3528277","0.0-21.0-1.15","3aef7628-6e8a-41a0-8bec-3f3beeb86c4b","2078","
                  <p style=""text-align: center;"">₪4
                                                <br>50%</p>
                  <p id=""wtp"" style=""text-align:center; margin-top: 0px; margin-bottom: 0px; font-size: 40px"";>מוכנים לשלם: <span id=""c_p_y""></span></p>","8","evaluation","2","2","4C,17B","50","4","8","","","","","","","","","","","","","","","","","","",""
"","","","","","html-keyboard-response","159","3529503","0.0-21.0-2.15","3aef7628-6e8a-41a0-8bec-3f3beeb86c4b","null","<p style=""text-align: center;"">+</p>","null","fixation","","","","","","","","","","","","","","","","","","","","","","","","",""
"","","","","","html-slider-response","160","3530516","0.0-21.0-0.16","3aef7628-6e8a-41a0-8bec-3f3beeb86c4b","1000","
                  <p style=""text-align: center;"">₪79
                                                <br>65%</p>
                  <p id=""wtp"" style=""text-align:center; margin-top: 0px; margin-bottom: 0px; font-size: 40px"";>&ensp;</p>","-","viewing","0","31","8A","","","","","","","","","","","","","","","","","","","","","",""
"","","","","","html-slider-response","161","3533157","0.0-21.0-1.16","3aef7628-6e8a-41a0-8bec-3f3beeb86c4b","2641","
                  <p style=""text-align: center;"">₪79
                                                <br>65%</p>
                  <p id=""wtp"" style=""text-align:center; margin-top: 0px; margin-bottom: 0px; font-size: 40px"";>מוכנים לשלם: <span id=""c_p_y""></span></p>","21","evaluation","8","31","8A","65","79","21","","","","","","","","","","","","","","","","","","",""
"","","","","","html-keyboard-response","162","3534141","0.0-21.0-2.16","3aef7628-6e8a-41a0-8bec-3f3beeb86c4b","null","<p style=""text-align: center;"">+</p>","null","fixation","","","","","","","","","","","","","","","","","","","","","","","","",""
"","","","","","html-slider-response","163","3535157","0.0-21.0-0.17","3aef7628-6e8a-41a0-8bec-3f3beeb86c4b","1000","
                  <p style=""text-align: center;"">₪11
                                                <br>20%</p>
                  <p id=""wtp"" style=""text-align:center; margin-top: 0px; margin-bottom: 0px; font-size: 40px"";>&ensp;</p>","-","viewing","0","4","12C,17C,23C,28C","","","","","","","","","","","","","","","","","","","","","",""
"","","","","","html-slider-response","164","3537957","0.0-21.0-1.17","3aef7628-6e8a-41a0-8bec-3f3beeb86c4b","2800","
                  <p style=""text-align: center;"">₪11
                                                <br>20%</p>
                  <p id=""wtp"" style=""text-align:center; margin-top: 0px; margin-bottom: 0px; font-size: 40px"";>מוכנים לשלם: <span id=""c_p_y""></span></p>","47","evaluation","65","4","12C,17C,23C,28C","20","11","47","","","","","","","","","","","","","","","","","","",""
"","","","","","html-keyboard-response","165","3539158","0.0-21.0-2.17","3aef7628-6e8a-41a0-8bec-3f3beeb86c4b","null","<p style=""text-align: center;"">+</p>","null","fixation","","","","","","","","","","","","","","","","","","","","","","","","",""
"","","","","","html-slider-response","166","3540164","0.0-21.0-0.18","3aef7628-6e8a-41a0-8bec-3f3beeb86c4b","1000","
                  <p style=""text-align: center;"">₪16
                                                <br>20%</p>
                  <p id=""wtp"" style=""text-align:center; margin-top: 0px; margin-bottom: 0px; font-size: 40px"";>&ensp;</p>","-","viewing","0","8","14C,17A,20C,27A","","","","","","","","","","","","","","","","","","","","","",""
"","","","","","html-slider-response","167","3542021","0.0-21.0-1.18","3aef7628-6e8a-41a0-8bec-3f3beeb86c4b","1856","
                  <p style=""text-align: center;"">₪16
                                                <br>20%</p>
                  <p id=""wtp"" style=""text-align:center; margin-top: 0px; margin-bottom: 0px; font-size: 40px"";>מוכנים לשלם: <span id=""c_p_y""></span></p>","40","evaluation","41","8","14C,17A,20C,27A","20","16","40","","","","","","","","","","","","","","","","","","",""
"","","","","","html-keyboard-response","168","3542860","0.0-21.0-2.18","3aef7628-6e8a-41a0-8bec-3f3beeb86c4b","null","<p style=""text-align: center;"">+</p>","null","fixation","","","","","","","","","","","","","","","","","","","","","","","","",""
"","","","","","html-slider-response","169","3543866","0.0-21.0-0.19","3aef7628-6e8a-41a0-8bec-3f3beeb86c4b","1000","
                  <p style=""text-align: center;"">₪36
                                                <br>75%</p>
                  <p id=""wtp"" style=""text-align:center; margin-top: 0px; margin-bottom: 0px; font-size: 40px"";>&ensp;</p>","-","viewing","0","14","4B,5A,13B,16B","","","","","","","","","","","","","","","","","","","","","",""
"","","","","","html-slider-response","170","3545341","0.0-21.0-1.19","3aef7628-6e8a-41a0-8bec-3f3beeb86c4b","1475","
                  <p style=""text-align: center;"">₪36
                                                <br>75%</p>
                  <p id=""wtp"" style=""text-align:center; margin-top: 0px; margin-bottom: 0px; font-size: 40px"";>מוכנים לשלם: <span id=""c_p_y""></span></p>","50","evaluation","44","14","4B,5A,13B,16B","75","36","50","","","","","","","","","","","","","","","","","","",""
"","","","","","html-keyboard-response","171","3546679","0.0-21.0-2.19","3aef7628-6e8a-41a0-8bec-3f3beeb86c4b","null","<p style=""text-align: center;"">+</p>","null","fixation","","","","","","","","","","","","","","","","","","","","","","","","",""
"","","","","","html-slider-response","172","3547684","0.0-21.0-0.20","3aef7628-6e8a-41a0-8bec-3f3beeb86c4b","1000","
                  <p style=""text-align: center;"">₪43
                                                <br>60%</p>
                  <p id=""wtp"" style=""text-align:center; margin-top: 0px; margin-bottom: 0px; font-size: 40px"";>&ensp;</p>","-","viewing","0","17","2A,7A,9A,15B","","","","","","","","","","","","","","","","","","","","","",""
"","","","","","html-slider-response","173","3551688","0.0-21.0-1.20","3aef7628-6e8a-41a0-8bec-3f3beeb86c4b","null","
                  <p style=""text-align: center;"">₪43
                                                <br>60%</p>
                  <p id=""wtp"" style=""text-align:center; margin-top: 0px; margin-bottom: 0px; font-size: 40px"";>מוכנים לשלם: <span id=""c_p_y""></span></p>","null","evaluation","71","17","2A,7A,9A,15B","60","43","56","","","","","","","","","","","","","","","","","","",""
"","","","","","html-keyboard-response","174","3552288","0.0-21.0-2.20","3aef7628-6e8a-41a0-8bec-3f3beeb86c4b","null","<p style=""text-align: center;"">+</p>","null","fixation","","","","","","","","","","","","","","","","","","","","","","","","",""
"","","","","","html-slider-response","175","3553293","0.0-21.0-0.21","3aef7628-6e8a-41a0-8bec-3f3beeb86c4b","1000","
                  <p style=""text-align: center;"">₪79
                                                <br>40%</p>
                  <p id=""wtp"" style=""text-align:center; margin-top: 0px; margin-bottom: 0px; font-size: 40px"";>&ensp;</p>","-","viewing","0","30","9B","","","","","","","","","","","","","","","","","","","","","",""
"","","","","","html-slider-response","176","3554533","0.0-21.0-1.21","3aef7628-6e8a-41a0-8bec-3f3beeb86c4b","1239","
                  <p style=""text-align: center;"">₪79
                                                <br>40%</p>
                  <p id=""wtp"" style=""text-align:center; margin-top: 0px; margin-bottom: 0px; font-size: 40px"";>מוכנים לשלם: <span id=""c_p_y""></span></p>","40","evaluation","54","30","9B","40","79","40","","","","","","","","","","","","","","","","","","",""
"","","","","","html-keyboard-response","177","3555997","0.0-21.0-2.21","3aef7628-6e8a-41a0-8bec-3f3beeb86c4b","null","<p style=""text-align: center;"">+</p>","null","fixation","","","","","","","","","","","","","","","","","","","","","","","","",""
"","","","","","html-slider-response","178","3557012","0.0-21.0-0.22","3aef7628-6e8a-41a0-8bec-3f3beeb86c4b","1000","
                  <p style=""text-align: center;"">₪61
                                                <br>55%</p>
                  <p id=""wtp"" style=""text-align:center; margin-top: 0px; margin-bottom: 0px; font-size: 40px"";>&ensp;</p>","-","viewing","0","23","7B,26B","","","","","","","","","","","","","","","","","","","","","",""
"","","","","","html-slider-response","179","3559181","0.0-21.0-1.22","3aef7628-6e8a-41a0-8bec-3f3beeb86c4b","2168","
                  <p style=""text-align: center;"">₪61
                                                <br>55%</p>
                  <p id=""wtp"" style=""text-align:center; margin-top: 0px; margin-bottom: 0px; font-size: 40px"";>מוכנים לשלם: <span id=""c_p_y""></span></p>","57","evaluation","17","23","7B,26B","55","61","57","","","","","","","","","","","","","","","","","","",""
"","","","","","html-keyboard-response","180","3560390","0.0-21.0-2.22","3aef7628-6e8a-41a0-8bec-3f3beeb86c4b","null","<p style=""text-align: center;"">+</p>","null","fixation","","","","","","","","","","","","","","","","","","","","","","","","",""
"","","","","","html-slider-response","181","3561400","0.0-21.0-0.23","3aef7628-6e8a-41a0-8bec-3f3beeb86c4b","1000","
                  <p style=""text-align: center;"">₪18
                                                <br>50%</p>
                  <p id=""wtp"" style=""text-align:center; margin-top: 0px; margin-bottom: 0px; font-size: 40px"";>&ensp;</p>","-","viewing","0","10","2C,16C,22B,28A","","","","","","","","","","","","","","","","","","","","","",""
"","","","","","html-slider-response","182","3563965","0.0-21.0-1.23","3aef7628-6e8a-41a0-8bec-3f3beeb86c4b","2564","
                  <p style=""text-align: center;"">₪18
                                                <br>50%</p>
                  <p id=""wtp"" style=""text-align:center; margin-top: 0px; margin-bottom: 0px; font-size: 40px"";>מוכנים לשלם: <span id=""c_p_y""></span></p>","20","evaluation","48","10","2C,16C,22B,28A","50","18","20","","","","","","","","","","","","","","","","","","",""
"","","","","","html-keyboard-response","183","3564750","0.0-21.0-2.23","3aef7628-6e8a-41a0-8bec-3f3beeb86c4b","null","<p style=""text-align: center;"">+</p>","null","fixation","","","","","","","","","","","","","","","","","","","","","","","","",""
"","","","","","html-slider-response","184","3565763","0.0-21.0-0.24","3aef7628-6e8a-41a0-8bec-3f3beeb86c4b","1000","
                  <p style=""text-align: center;"">₪71
                                                <br>45%</p>
                  <p id=""wtp"" style=""text-align:center; margin-top: 0px; margin-bottom: 0px; font-size: 40px"";>&ensp;</p>","-","viewing","0","26","2B,16A","","","","","","","","","","","","","","","","","","","","","",""
"","","","","","html-slider-response","185","3568477","0.0-21.0-1.24","3aef7628-6e8a-41a0-8bec-3f3beeb86c4b","2713","
                  <p style=""text-align: center;"">₪71
                                                <br>45%</p>
                  <p id=""wtp"" style=""text-align:center; margin-top: 0px; margin-bottom: 0px; font-size: 40px"";>מוכנים לשלם: <span id=""c_p_y""></span></p>","56","evaluation","46","26","2B,16A","45","71","56","","","","","","","","","","","","","","","","","","",""
"","","","","","html-keyboard-response","186","3569835","0.0-21.0-2.24","3aef7628-6e8a-41a0-8bec-3f3beeb86c4b","null","<p style=""text-align: center;"">+</p>","null","fixation","","","","","","","","","","","","","","","","","","","","","","","","",""
"","","","","","html-slider-response","187","3570843","0.0-21.0-0.25","3aef7628-6e8a-41a0-8bec-3f3beeb86c4b","1000","
                  <p style=""text-align: center;"">₪11
                                                <br>25%</p>
                  <p id=""wtp"" style=""text-align:center; margin-top: 0px; margin-bottom: 0px; font-size: 40px"";>&ensp;</p>","-","viewing","0","5","12A,27B,28B,30B","","","","","","","","","","","","","","","","","","","","","",""
"","","","","","html-slider-response","188","3573293","0.0-21.0-1.25","3aef7628-6e8a-41a0-8bec-3f3beeb86c4b","2449","
                  <p style=""text-align: center;"">₪11
                                                <br>25%</p>
                  <p id=""wtp"" style=""text-align:center; margin-top: 0px; margin-bottom: 0px; font-size: 40px"";>מוכנים לשלם: <span id=""c_p_y""></span></p>","25","evaluation","15","5","12A,27B,28B,30B","25","11","25","","","","","","","","","","","","","","","","","","",""
"","","","","","html-keyboard-response","189","3574745","0.0-21.0-2.25","3aef7628-6e8a-41a0-8bec-3f3beeb86c4b","null","<p style=""text-align: center;"">+</p>","null","fixation","","","","","","","","","","","","","","","","","","","","","","","","",""
"","","","","","html-slider-response","190","3575761","0.0-21.0-0.26","3aef7628-6e8a-41a0-8bec-3f3beeb86c4b","1000","
                  <p style=""text-align: center;"">₪11
                                                <br>45%</p>
                  <p id=""wtp"" style=""text-align:center; margin-top: 0px; margin-bottom: 0px; font-size: 40px"";>&ensp;</p>","-","viewing","0","6","14B,21C,25C","","","","","","","","","","","","","","","","","","","","","",""
"","","","","","html-slider-response","191","3577269","0.0-21.0-1.26","3aef7628-6e8a-41a0-8bec-3f3beeb86c4b","1508","
                  <p style=""text-align: center;"">₪11
                                                <br>45%</p>
                  <p id=""wtp"" style=""text-align:center; margin-top: 0px; margin-bottom: 0px; font-size: 40px"";>מוכנים לשלם: <span id=""c_p_y""></span></p>","6","evaluation","52","6","14B,21C,25C","45","11","7","","","","","","","","","","","","","","","","","","",""
"","","","","","html-keyboard-response","192","3578407","0.0-21.0-2.26","3aef7628-6e8a-41a0-8bec-3f3beeb86c4b","null","<p style=""text-align: center;"">+</p>","null","fixation","","","","","","","","","","","","","","","","","","","","","","","","",""
"","","","","","html-slider-response","193","3579418","0.0-21.0-0.27","3aef7628-6e8a-41a0-8bec-3f3beeb86c4b","1000","
                  <p style=""text-align: center;"">₪64
                                                <br>25%</p>
                  <p id=""wtp"" style=""text-align:center; margin-top: 0px; margin-bottom: 0px; font-size: 40px"";>&ensp;</p>","-","viewing","0","24","6A,21A","","","","","","","","","","","","","","","","","","","","","",""
"","","","","","html-slider-response","194","3581205","0.0-21.0-1.27","3aef7628-6e8a-41a0-8bec-3f3beeb86c4b","1786","
                  <p style=""text-align: center;"">₪64
                                                <br>25%</p>
                  <p id=""wtp"" style=""text-align:center; margin-top: 0px; margin-bottom: 0px; font-size: 40px"";>מוכנים לשלם: <span id=""c_p_y""></span></p>","40","evaluation","41","24","6A,21A","25","64","40","","","","","","","","","","","","","","","","","","",""
"","","","","","html-keyboard-response","195","3582189","0.0-21.0-2.27","3aef7628-6e8a-41a0-8bec-3f3beeb86c4b","null","<p style=""text-align: center;"">+</p>","null","fixation","","","","","","","","","","","","","","","","","","","","","","","","",""
"","","","","","html-slider-response","196","3583204","0.0-21.0-0.28","3aef7628-6e8a-41a0-8bec-3f3beeb86c4b","1000","
                  <p style=""text-align: center;"">₪18
                                                <br>25%</p>
                  <p id=""wtp"" style=""text-align:center; margin-top: 0px; margin-bottom: 0px; font-size: 40px"";>&ensp;</p>","-","viewing","0","9","14A,23A","","","","","","","","","","","","","","","","","","","","","",""
"","","","","","html-slider-response","197","3585437","0.0-21.0-1.28","3aef7628-6e8a-41a0-8bec-3f3beeb86c4b","2232","
                  <p style=""text-align: center;"">₪18
                                                <br>25%</p>
                  <p id=""wtp"" style=""text-align:center; margin-top: 0px; margin-bottom: 0px; font-size: 40px"";>מוכנים לשלם: <span id=""c_p_y""></span></p>","40","evaluation","4","9","14A,23A","25","18","40","","","","","","","","","","","","","","","","","","",""
"","","","","","html-keyboard-response","198","3586131","0.0-21.0-2.28","3aef7628-6e8a-41a0-8bec-3f3beeb86c4b","null","<p style=""text-align: center;"">+</p>","null","fixation","","","","","","","","","","","","","","","","","","","","","","","","",""
"","","","","","html-slider-response","199","3587142","0.0-21.0-0.29","3aef7628-6e8a-41a0-8bec-3f3beeb86c4b","1000","
                  <p style=""text-align: center;"">₪39
                                                <br>65%</p>
                  <p id=""wtp"" style=""text-align:center; margin-top: 0px; margin-bottom: 0px; font-size: 40px"";>&ensp;</p>","-","viewing","0","16","1A,15A,26C","","","","","","","","","","","","","","","","","","","","","",""
"","","","","","html-slider-response","200","3590229","0.0-21.0-1.29","3aef7628-6e8a-41a0-8bec-3f3beeb86c4b","3086","
                  <p style=""text-align: center;"">₪39
                                                <br>65%</p>
                  <p id=""wtp"" style=""text-align:center; margin-top: 0px; margin-bottom: 0px; font-size: 40px"";>מוכנים לשלם: <span id=""c_p_y""></span></p>","50","evaluation","18","16","1A,15A,26C","65","39","50","","","","","","","","","","","","","","","","","","",""
"","","","","","html-keyboard-response","201","3591668","0.0-21.0-2.29","3aef7628-6e8a-41a0-8bec-3f3beeb86c4b","null","<p style=""text-align: center;"">+</p>","null","fixation","","","","","","","","","","","","","","","","","","","","","","","","",""
"","","","","","html-slider-response","202","3592670","0.0-21.0-0.30","3aef7628-6e8a-41a0-8bec-3f3beeb86c4b","1000","
                  <p style=""text-align: center;"">₪4
                                                <br>25%</p>
                  <p id=""wtp"" style=""text-align:center; margin-top: 0px; margin-bottom: 0px; font-size: 40px"";>&ensp;</p>","-","viewing","0","1","6C,29B,30C","","","","","","","","","","","","","","","","","","","","","",""
"","","","","","html-slider-response","203","3593813","0.0-21.0-1.30","3aef7628-6e8a-41a0-8bec-3f3beeb86c4b","1142","
                  <p style=""text-align: center;"">₪4
                                                <br>25%</p>
                  <p id=""wtp"" style=""text-align:center; margin-top: 0px; margin-bottom: 0px; font-size: 40px"";>מוכנים לשלם: <span id=""c_p_y""></span></p>","20","evaluation","38","1","6C,29B,30C","25","4","20","","","","","","","","","","","","","","","","","","",""
"","","","","","html-keyboard-response","204","3595038","0.0-21.0-2.30","3aef7628-6e8a-41a0-8bec-3f3beeb86c4b","null","<p style=""text-align: center;"">+</p>","null","fixation","","","","","","","","","","","","","","","","","","","","","","","","",""
"","","","","","html-keyboard-response","205","3596051","0.0-22.0","3aef7628-6e8a-41a0-8bec-3f3beeb86c4b","null","<p style=""text-align: center;"">+</p>","null","fixation","","","","","","","","","","","","","","","","","","","","","","","","",""
"","","","","","html-keyboard-response","206","3599013","0.0-23.0","3aef7628-6e8a-41a0-8bec-3f3beeb86c4b","null","<p>הפסקה.
          <br>לחצו כדי להמשיך.</p>","1","scan_wait","","","","","","","","","","","","","","","","","","","","","","","","",""
"","","","","","html-keyboard-response","207","3600022","0.0-24.0","3aef7628-6e8a-41a0-8bec-3f3beeb86c4b","null","<p style=""text-align: center;"">+</p>","null","fixation","","","","","","","","","","","","","","","","","","","","","","","","",""
"","","","","","html-slider-response","208","3601024","0.0-25.0-0.0","3aef7628-6e8a-41a0-8bec-3f3beeb86c4b","1000","
                  <p style=""text-align: center;"">₪4
                                                <br>25%</p>
                  <p id=""wtp"" style=""text-align:center; margin-top: 0px; margin-bottom: 0px; font-size: 40px"";>&ensp;</p>","-","viewing","0","1","6C,29B,30C","","","","","","","","","","","","","","","","","","","","","",""
"","","","","","html-slider-response","209","3603877","0.0-25.0-1.0","3aef7628-6e8a-41a0-8bec-3f3beeb86c4b","2852","
                  <p style=""text-align: center;"">₪4
                                                <br>25%</p>
                  <p id=""wtp"" style=""text-align:center; margin-top: 0px; margin-bottom: 0px; font-size: 40px"";>מוכנים לשלם: <span id=""c_p_y""></span></p>","20","evaluation","25","1","6C,29B,30C","25","4","20","","","","","","","","","","","","","","","","","","",""
"","","","","","html-keyboard-response","210","3604472","0.0-25.0-2.0","3aef7628-6e8a-41a0-8bec-3f3beeb86c4b","null","<p style=""text-align: center;"">+</p>","null","fixation","","","","","","","","","","","","","","","","","","","","","","","","",""
"","","","","","html-slider-response","211","3605478","0.0-25.0-0.1","3aef7628-6e8a-41a0-8bec-3f3beeb86c4b","1000","
                  <p style=""text-align: center;"">₪79
                                                <br>65%</p>
                  <p id=""wtp"" style=""text-align:center; margin-top: 0px; margin-bottom: 0px; font-size: 40px"";>&ensp;</p>","-","viewing","0","31","8A","","","","","","","","","","","","","","","","","","","","","",""
"","","","","","html-slider-response","212","3607389","0.0-25.0-1.1","3aef7628-6e8a-41a0-8bec-3f3beeb86c4b","1910","
                  <p style=""text-align: center;"">₪79
                                                <br>65%</p>
                  <p id=""wtp"" style=""text-align:center; margin-top: 0px; margin-bottom: 0px; font-size: 40px"";>מוכנים לשלם: <span id=""c_p_y""></span></p>","65","evaluation","24","31","8A","65","79","64","","","","","","","","","","","","","","","","","","",""
"","","","","","html-keyboard-response","213","3608631","0.0-25.0-2.1","3aef7628-6e8a-41a0-8bec-3f3beeb86c4b","null","<p style=""text-align: center;"">+</p>","null","fixation","","","","","","","","","","","","","","","","","","","","","","","","",""
"","","","","","html-slider-response","214","3609632","0.0-25.0-0.2","3aef7628-6e8a-41a0-8bec-3f3beeb86c4b","1000","
                  <p style=""text-align: center;"">₪71
                                                <br>75%</p>
                  <p id=""wtp"" style=""text-align:center; margin-top: 0px; margin-bottom: 0px; font-size: 40px"";>&ensp;</p>","-","viewing","0","28","8B","","","","","","","","","","","","","","","","","","","","","",""
"","","","","","html-slider-response","215","3611837","0.0-25.0-1.2","3aef7628-6e8a-41a0-8bec-3f3beeb86c4b","2204","
                  <p style=""text-align: center;"">₪71
                                                <br>75%</p>
                  <p id=""wtp"" style=""text-align:center; margin-top: 0px; margin-bottom: 0px; font-size: 40px"";>מוכנים לשלם: <span id=""c_p_y""></span></p>","79","evaluation","52","28","8B","75","71","78","","","","","","","","","","","","","","","","","","",""
"","","","","","html-keyboard-response","216","3613212","0.0-25.0-2.2","3aef7628-6e8a-41a0-8bec-3f3beeb86c4b","null","<p style=""text-align: center;"">+</p>","null","fixation","","","","","","","","","","","","","","","","","","","","","","","","",""
"","","","","","html-slider-response","217","3614220","0.0-25.0-0.3","3aef7628-6e8a-41a0-8bec-3f3beeb86c4b","1000","
                  <p style=""text-align: center;"">₪36
                                                <br>75%</p>
                  <p id=""wtp"" style=""text-align:center; margin-top: 0px; margin-bottom: 0px; font-size: 40px"";>&ensp;</p>","-","viewing","0","14","4B,5A,13B,16B","","","","","","","","","","","","","","","","","","","","","",""
"","","","","","html-slider-response","218","3616573","0.0-25.0-1.3","3aef7628-6e8a-41a0-8bec-3f3beeb86c4b","2352","
                  <p style=""text-align: center;"">₪36
                                                <br>75%</p>
                  <p id=""wtp"" style=""text-align:center; margin-top: 0px; margin-bottom: 0px; font-size: 40px"";>מוכנים לשלם: <span id=""c_p_y""></span></p>","40","evaluation","52","14","4B,5A,13B,16B","75","36","40","","","","","","","","","","","","","","","","","","",""
"","","","","","html-keyboard-response","219","3617589","0.0-25.0-2.3","3aef7628-6e8a-41a0-8bec-3f3beeb86c4b","null","<p style=""text-align: center;"">+</p>","null","fixation","","","","","","","","","","","","","","","","","","","","","","","","",""
"","","","","","html-slider-response","220","3618606","0.0-25.0-0.4","3aef7628-6e8a-41a0-8bec-3f3beeb86c4b","1000","
                  <p style=""text-align: center;"">₪11
                                                <br>75%</p>
                  <p id=""wtp"" style=""text-align:center; margin-top: 0px; margin-bottom: 0px; font-size: 40px"";>&ensp;</p>","-","viewing","0","7","6B,18B,22C,24C,29A","","","","","","","","","","","","","","","","","","","","","",""
"","","","","","html-slider-response","221","3620925","0.0-25.0-1.4","3aef7628-6e8a-41a0-8bec-3f3beeb86c4b","2318","
                  <p style=""text-align: center;"">₪11
                                                <br>75%</p>
                  <p id=""wtp"" style=""text-align:center; margin-top: 0px; margin-bottom: 0px; font-size: 40px"";>מוכנים לשלם: <span id=""c_p_y""></span></p>","9","evaluation","8","7","6B,18B,22C,24C,29A","75","11","9","","","","","","","","","","","","","","","","","","",""
"","","","","","html-keyboard-response","222","3621678","0.0-25.0-2.4","3aef7628-6e8a-41a0-8bec-3f3beeb86c4b","null","<p style=""text-align: center;"">+</p>","null","fixation","","","","","","","","","","","","","","","","","","","","","","","","",""
"","","","","","html-slider-response","223","3622692","0.0-25.0-0.5","3aef7628-6e8a-41a0-8bec-3f3beeb86c4b","1000","
                  <p style=""text-align: center;"">₪16
                                                <br>20%</p>
                  <p id=""wtp"" style=""text-align:center; margin-top: 0px; margin-bottom: 0px; font-size: 40px"";>&ensp;</p>","-","viewing","0","8","14C,17A,20C,27A","","","","","","","","","","","","","","","","","","","","","",""
"","","","","","html-slider-response","224","3625294","0.0-25.0-1.5","3aef7628-6e8a-41a0-8bec-3f3beeb86c4b","2601","
                  <p style=""text-align: center;"">₪16
                                                <br>20%</p>
                  <p id=""wtp"" style=""text-align:center; margin-top: 0px; margin-bottom: 0px; font-size: 40px"";>מוכנים לשלם: <span id=""c_p_y""></span></p>","12","evaluation","63","8","14C,17A,20C,27A","20","16","13","","","","","","","","","","","","","","","","","","",""
"","","","","","html-keyboard-response","225","3626581","0.0-25.0-2.5","3aef7628-6e8a-41a0-8bec-3f3beeb86c4b","null","<p style=""text-align: center;"">+</p>","null","fixation","","","","","","","","","","","","","","","","","","","","","","","","",""
"","","","","","html-slider-response","226","3627583","0.0-25.0-0.6","3aef7628-6e8a-41a0-8bec-3f3beeb86c4b","1000","
                  <p style=""text-align: center;"">₪61
                                                <br>55%</p>
                  <p id=""wtp"" style=""text-align:center; margin-top: 0px; margin-bottom: 0px; font-size: 40px"";>&ensp;</p>","-","viewing","0","23","7B,26B","","","","","","","","","","","","","","","","","","","","","",""
"","","","","","html-slider-response","227","3629061","0.0-25.0-1.6","3aef7628-6e8a-41a0-8bec-3f3beeb86c4b","1477","
                  <p style=""text-align: center;"">₪61
                                                <br>55%</p>
                  <p id=""wtp"" style=""text-align:center; margin-top: 0px; margin-bottom: 0px; font-size: 40px"";>מוכנים לשלם: <span id=""c_p_y""></span></p>","47","evaluation","56","23","7B,26B","55","61","47","","","","","","","","","","","","","","","","","","",""
"","","","","","html-keyboard-response","228","3629770","0.0-25.0-2.6","3aef7628-6e8a-41a0-8bec-3f3beeb86c4b","null","<p style=""text-align: center;"">+</p>","null","fixation","","","","","","","","","","","","","","","","","","","","","","","","",""
"","","","","","html-slider-response","229","3630786","0.0-25.0-0.7","3aef7628-6e8a-41a0-8bec-3f3beeb86c4b","1000","
                  <p style=""text-align: center;"">₪39
                                                <br>65%</p>
                  <p id=""wtp"" style=""text-align:center; margin-top: 0px; margin-bottom: 0px; font-size: 40px"";>&ensp;</p>","-","viewing","0","16","1A,15A,26C","","","","","","","","","","","","","","","","","","","","","",""
"","","","","","html-slider-response","230","3633405","0.0-25.0-1.7","3aef7628-6e8a-41a0-8bec-3f3beeb86c4b","2618","
                  <p style=""text-align: center;"">₪39
                                                <br>65%</p>
                  <p id=""wtp"" style=""text-align:center; margin-top: 0px; margin-bottom: 0px; font-size: 40px"";>מוכנים לשלם: <span id=""c_p_y""></span></p>","60","evaluation","13","16","1A,15A,26C","65","39","60","","","","","","","","","","","","","","","","","","",""
"","","","","","html-keyboard-response","231","3634178","0.0-25.0-2.7","3aef7628-6e8a-41a0-8bec-3f3beeb86c4b","null","<p style=""text-align: center;"">+</p>","null","fixation","","","","","","","","","","","","","","","","","","","","","","","","",""
"","","","","","html-slider-response","232","3635186","0.0-25.0-0.8","3aef7628-6e8a-41a0-8bec-3f3beeb86c4b","1000","
                  <p style=""text-align: center;"">₪39
                                                <br>60%</p>
                  <p id=""wtp"" style=""text-align:center; margin-top: 0px; margin-bottom: 0px; font-size: 40px"";>&ensp;</p>","-","viewing","0","15","9C,25B","","","","","","","","","","","","","","","","","","","","","",""
"","","","","","html-slider-response","233","3636765","0.0-25.0-1.8","3aef7628-6e8a-41a0-8bec-3f3beeb86c4b","1579","
                  <p style=""text-align: center;"">₪39
                                                <br>60%</p>
                  <p id=""wtp"" style=""text-align:center; margin-top: 0px; margin-bottom: 0px; font-size: 40px"";>מוכנים לשלם: <span id=""c_p_y""></span></p>","40","evaluation","52","15","9C,25B","60","39","40","","","","","","","","","","","","","","","","","","",""
"","","","","","html-keyboard-response","234","3637928","0.0-25.0-2.8","3aef7628-6e8a-41a0-8bec-3f3beeb86c4b","null","<p style=""text-align: center;"">+</p>","null","fixation","","","","","","","","","","","","","","","","","","","","","","","","",""
"","","","","","html-slider-response","235","3638934","0.0-25.0-0.9","3aef7628-6e8a-41a0-8bec-3f3beeb86c4b","1000","
                  <p style=""text-align: center;"">₪11
                                                <br>25%</p>
                  <p id=""wtp"" style=""text-align:center; margin-top: 0px; margin-bottom: 0px; font-size: 40px"";>&ensp;</p>","-","viewing","0","5","12A,27B,28B,30B","","","","","","","","","","","","","","","","","","","","","",""
"","","","","","html-slider-response","236","3640173","0.0-25.0-1.9","3aef7628-6e8a-41a0-8bec-3f3beeb86c4b","1238","
                  <p style=""text-align: center;"">₪11
                                                <br>25%</p>
                  <p id=""wtp"" style=""text-align:center; margin-top: 0px; margin-bottom: 0px; font-size: 40px"";>מוכנים לשלם: <span id=""c_p_y""></span></p>","4","evaluation","62","5","12A,27B,28B,30B","25","11","5","","","","","","","","","","","","","","","","","","",""
"","","","","","html-keyboard-response","237","3641008","0.0-25.0-2.9","3aef7628-6e8a-41a0-8bec-3f3beeb86c4b","null","<p style=""text-align: center;"">+</p>","null","fixation","","","","","","","","","","","","","","","","","","","","","","","","",""
"","","","","","html-slider-response","238","3642015","0.0-25.0-0.10","3aef7628-6e8a-41a0-8bec-3f3beeb86c4b","1000","
                  <p style=""text-align: center;"">₪36
                                                <br>70%</p>
                  <p id=""wtp"" style=""text-align:center; margin-top: 0px; margin-bottom: 0px; font-size: 40px"";>&ensp;</p>","-","viewing","0","13","3A,5C,10B","","","","","","","","","","","","","","","","","","","","","",""
"","","","","","html-slider-response","239","3643565","0.0-25.0-1.10","3aef7628-6e8a-41a0-8bec-3f3beeb86c4b","1550","
                  <p style=""text-align: center;"">₪36
                                                <br>70%</p>
                  <p id=""wtp"" style=""text-align:center; margin-top: 0px; margin-bottom: 0px; font-size: 40px"";>מוכנים לשלם: <span id=""c_p_y""></span></p>","41","evaluation","24","13","3A,5C,10B","70","36","41","","","","","","","","","","","","","","","","","","",""
"","","","","","html-keyboard-response","240","3644302","0.0-25.0-2.10","3aef7628-6e8a-41a0-8bec-3f3beeb86c4b","null","<p style=""text-align: center;"">+</p>","null","fixation","","","","","","","","","","","","","","","","","","","","","","","","",""
"","","","","","html-slider-response","241","3645317","0.0-25.0-0.11","3aef7628-6e8a-41a0-8bec-3f3beeb86c4b","1000","
                  <p style=""text-align: center;"">₪71
                                                <br>45%</p>
                  <p id=""wtp"" style=""text-align:center; margin-top: 0px; margin-bottom: 0px; font-size: 40px"";>&ensp;</p>","-","viewing","0","26","2B,16A","","","","","","","","","","","","","","","","","","","","","",""
"","","","","","html-slider-response","242","3647525","0.0-25.0-1.11","3aef7628-6e8a-41a0-8bec-3f3beeb86c4b","2207","
                  <p style=""text-align: center;"">₪71
                                                <br>45%</p>
                  <p id=""wtp"" style=""text-align:center; margin-top: 0px; margin-bottom: 0px; font-size: 40px"";>מוכנים לשלם: <span id=""c_p_y""></span></p>","52","evaluation","61","26","2B,16A","45","71","52","","","","","","","","","","","","","","","","","","",""
"","","","","","html-keyboard-response","243","3648802","0.0-25.0-2.11","3aef7628-6e8a-41a0-8bec-3f3beeb86c4b","null","<p style=""text-align: center;"">+</p>","null","fixation","","","","","","","","","","","","","","","","","","","","","","","","",""
"","","","","","html-slider-response","244","3649819","0.0-25.0-0.12","3aef7628-6e8a-41a0-8bec-3f3beeb86c4b","1000","
                  <p style=""text-align: center;"">₪58
                                                <br>30%</p>
                  <p id=""wtp"" style=""text-align:center; margin-top: 0px; margin-bottom: 0px; font-size: 40px"";>&ensp;</p>","-","viewing","0","19","13C,30A","","","","","","","","","","","","","","","","","","","","","",""
"","","","","","html-slider-response","245","3651493","0.0-25.0-1.12","3aef7628-6e8a-41a0-8bec-3f3beeb86c4b","1674","
                  <p style=""text-align: center;"">₪58
