"success","timeout","failed_images","failed_audio","failed_video","trial_type","trial_index","time_elapsed","internal_node_id","subject_id","rt","stimulus","response","part","slider_start","ID","set_ID","prob","amount","last_location","actual_choice","actual_EV","binary_id","trinary_id","catch","direction","A_key","S_key","D_key","choice_prob","choice_amount","chosen_part","won_prize","potential_prize_amount","potential_prize_prob","total_prize","accuracy"
"true","false","[]","[]","[]","preload","0","78","0.0-0.0","841f6a97-c9d3-4c02-86ca-e315512d4768","","","","","","","","","","","","","","","","","","","","","","","","","","",""
"","","","","","html-keyboard-response","1","4745","0.0-1.0","841f6a97-c9d3-4c02-86ca-e315512d4768","null","
          <h1>שלום וברוכים הבאים!</h1>
          <p>לפניכם ניסוי בקבלת החלטות עם שני חלקים.
          <br><br>לחצו על העכבר כדי להמשיך.</p>","0","example","","","","","","","","","","","","","","","","","","","","","","",""
"","","","","","html-keyboard-response","2","13545","0.0-2.0","841f6a97-c9d3-4c02-86ca-e315512d4768","null","
        <h1>חלק 1</h1>
        <p>בקרוב יוצגו בפניכם הגרלות.
        <br>עליכם לבחור את המחיר המירבי שתהיו מוכנים לשלם כדי להשתתף בהגרלה שתוצג.
        <br>יש לכם תקציב של ₪80 לכל הגרלה. 
        <br>נסו להעריך כל הגרלה בנפרד ולחשוב כמה היא שווה עבורכם, ₪80 זמינים לכל הגרלה בנפרד.
        <br><br>לחצו על העכבר כדי להמשיך.</p>","1","instructions","","","","","","","","","","","","","","","","","","","","","","",""
"","","","","","html-keyboard-response","3","23697","0.0-3.0","841f6a97-c9d3-4c02-86ca-e315512d4768","null","
        <p>בסוף הניסוי, המחשב יבחר את אחת ההגרלות ויקבע מחיר לכרטיס עבורה. 
        <br>במידה והמחיר שבחרתם נמוך מהמחיר שנבחר על ידי המחשב, לא תשתתפו בהגרלה ותשארו עם מלוא התקציב.
        <br>במידה והמחיר שבחרתם גבוה מהמחיר שנבחר על ידי המחשב, תשלמו את המחיר שנקבע ותשתתפו בהגרלה.
        <br><br>לחצו על העכבר כדי להמשיך.</p>","1","instructions","","","","","","","","","","","","","","","","","","","","","","",""
"","","","","","html-slider-response","4","34802","0.0-4.0","841f6a97-c9d3-4c02-86ca-e315512d4768","10995","
        <p style=""font-size: 42px;"">נתחיל עם דוגמא: 
        <br>ההגרלה מטה מציעה 65% סיכוי לזכות ב-₪40 
        <br>&emsp;&emsp;&emsp;&emsp;&emsp;&emsp;&emsp;&emsp;&ensp;35% סיכוי לזכות ב-₪0.
        <br><br>מה המחיר המירבי שתהיו מוכנים לשלם על כרטיס להגרלה זו בין 0 ל-₪80?
        <br>הזיזו את העכבר על פני המלבן ולחצו כדי לבצע בחירה.</p>
        
        <p style=""text-align: center;"">₪40<br>65%</p>

        <p id=""wtp"" style=""text-align:center; margin-top: 0px; margin-bottom: 0px; font-size: 40px"";>מוכנים לשלם: <span id=""c_p_y""></span></p>","42","example","8","","","","","","","","","","","","","","","","","","","","","",""
"","","","","","html-keyboard-response","5","43321","0.0-5.0","841f6a97-c9d3-4c02-86ca-e315512d4768","null","<p>יפה מאוד!
                <br> בחרתם שתהיו מוכנים לשלם ₪42 כדי להשתתף בהגרלה:
                <br><p style=""text-align: center;"">₪40<br>65%</p>
                <p>נשמע נכון?
                <br>נניח שהגרלה זו נבחרה בסוף הניסוי.
                <br>כעת המחשב יקבע מחיר עבורה באקראי.
                <br>לחצו על העכבר להמשך.</p>","1","example","","","","","","","","","","","","","","","","","","","","","","",""
"","","","","","html-keyboard-response","6","55049","0.0-6.0","841f6a97-c9d3-4c02-86ca-e315512d4768","null","<p>המחשב קבע מחיר: ₪49
                <br>ואתם בחרתם לשלם לכל היותר: ₪42
                <br><br>מכיוון שהמחיר שבחרתם נמוך מהמחיר שנקבע, לא תתשתתפו בהגרלה.
                <br>במקרה כזה, בסוף הניסוי תקבלו את כל התקציב ההתחלתי של ₪80.
                <br><br>לחצו על העכבר להמשך.</p>","1","example","","","","","","","","","","","","","","","","","","","","","","",""
"","","","","","html-slider-response","7","69584","0.0-7.0","841f6a97-c9d3-4c02-86ca-e315512d4768","14269","<p style=""font-size: 42px;"">הנה עוד דוגמא:
                <br>ההגרלה מטה מציעה 35% סיכוי לזכות ב-₪18 
                <br>&emsp;&emsp;&emsp;&emsp;&emsp;&emsp;&emsp;&emsp;&ensp;65% סיכוי לזכות ב-₪0.</p>
        
                <p style=""text-align: center;"">₪18<br>35%</p>
                <p id=""wtp"" style=""text-align:center; margin-top: 0px; margin-bottom: 0px; font-size: 40px"";>מוכנים לשלם: <span id=""c_p_y""></span></p>","20","example","79","","","","","","","","","","","","","","","","","","","","","",""
"","","","","","html-keyboard-response","8","75216","0.0-8.0","841f6a97-c9d3-4c02-86ca-e315512d4768","null","<p>הייתם מוכנים לשלם  ₪20 כדי להשתתף בהגרלה:
                <p style=""text-align: center;"">₪18<br>35%</p>
                <p>כעת נניח שהמחשב בחר את ההגרלה הזו בסוף הניסוי, וקבע עבורה מחיר.
                <br><br>לחצו על העכבר כדי להמשיך.</p>","1","instructions","","","","","","","","","","","","","","","","","","","","","","",""
"","","","","","html-keyboard-response","9","91704","0.0-9.0","841f6a97-c9d3-4c02-86ca-e315512d4768","null","<p>המחשב קבע מחיר להגרלה: ₪17<br>ואתם בחרתם לשלם לכל היותר: ₪20
                <br><br>כעת המחיר שנקבע נמוך מזה שבחרתם, אז תשלמו את המחיר שקבע המחשב (₪17) ותשתתפו בהגרלה.
                <br>במקרה כזה, תסיימו את הניסוי עם תקציב של ₪63 ועם סיכוי לזכות ב-₪18 נוספים מההגרלה.
                <br>כלומר, תוכלו לקבל ₪63 אם לא תזכו בהגרלה, או ₪81 אם תזכו בהגרלה.
                <br><br>לחצו על העכבר להמשך.</p>","1","example","","","","","","","","","","","","","","","","","","","","","","",""
"","","","","","html-keyboard-response","10","97360","0.0-10.0","841f6a97-c9d3-4c02-86ca-e315512d4768","null","<p>במהלך הניסוי, קודם תראו את ההגרלה ורק לאחר מכן תוכלו לבחור.
                <p>כמו כן, יהיו לכם מספר שניות מוגבל להגיב.
                <p>בואו ננסה זאת עם ההגרלה הקודמת.
                <br>לחצו על העכבר כדי להמשיך.</p>","1","instructions","","","","","","","","","","","","","","","","","","","","","","",""
"","","","","","html-slider-response","11","98640","0.0-11.0","841f6a97-c9d3-4c02-86ca-e315512d4768","1000","
                    <p style=""text-align: center;"">₪18<br>35%</p>
                    <p id=""wtp"" style=""text-align:center; margin-top: 0px; margin-bottom: 0px; font-size: 40px"";>&ensp;</p>","31","instructions","0","","","","","","","","","","","","","","","","","","","","","",""
"","","","","","html-slider-response","12","99048","0.0-12.0","841f6a97-c9d3-4c02-86ca-e315512d4768","141","
                    <p style=""text-align: center;"">₪18<br>35%</p>
                    <p id=""wtp"" style=""text-align:center; margin-top: 0px; margin-bottom: 0px; font-size: 40px"";>מוכנים לשלם: <span id=""c_p_y""></span></p>","21","instructions","21","","","","","","","","","","","","","","","","","","","","","",""
"","","","","","html-keyboard-response","13","102696","0.0-13.0","841f6a97-c9d3-4c02-86ca-e315512d4768","null","<p>יפה. הפעם בחרתם לשלם לכל היותר ₪21.
                <br><br>לחצו על העכבר כדי להמשיך.</p>","1","instructions","","","","","","","","","","","","","","","","","","","","","","",""
"","","","","","html-keyboard-response","14","112672","0.0-15.0","841f6a97-c9d3-4c02-86ca-e315512d4768","null","<p>כעת נתחיל את הניסוי.
                <br><br>אתם תראו הגרלות ותתבקשו לבחור כמה תהיו מוכנים לשלם כדי להשתתף בהן.
                <br>יש לכם תקציב של ₪80 עבור כל הגרלה.
                <br>בסוף הניסוי הגרלה אחת תבחר באקראי ותשוחק.
                <br><br>לחצו על העכבר כדי להתחיל את הניסוי.</p>","1","instructions","","","","","","","","","","","","","","","","","","","","","","",""
"","","","","","html-keyboard-response","15","113924","0.0-16.0","841f6a97-c9d3-4c02-86ca-e315512d4768","null","<p style=""text-align: center;"">+</p>","null","fixation","","","","","","","","","","","","","","","","","","","","","","",""
"","","","","","html-slider-response","16","114935","0.0-17.0-0.0","841f6a97-c9d3-4c02-86ca-e315512d4768","1000","
                  <p style=""text-align: center;"">₪71
                                                <br>45%</p>
                  <p id=""wtp"" style=""text-align:center; margin-top: 0px; margin-bottom: 0px; font-size: 40px"";>&ensp;</p>","-","viewing","0","26","2B,16A","","","","","","","","","","","","","","","","","","","",""
"","","","","","html-slider-response","17","118942","0.0-17.0-1.0","841f6a97-c9d3-4c02-86ca-e315512d4768","null","
                  <p style=""text-align: center;"">₪71
                                                <br>45%</p>
                  <p id=""wtp"" style=""text-align:center; margin-top: 0px; margin-bottom: 0px; font-size: 40px"";>מוכנים לשלם: <span id=""c_p_y""></span></p>","null","evaluation","41","26","2B,16A","45","71","61","","","","","","","","","","","","","","","","",""
"","","","","","html-keyboard-response","18","119922","0.0-17.0-2.0","841f6a97-c9d3-4c02-86ca-e315512d4768","null","<p style=""text-align: center;"">+</p>","null","fixation","","","","","","","","","","","","","","","","","","","","","","",""
"","","","","","html-slider-response","19","120923","0.0-17.0-0.1","841f6a97-c9d3-4c02-86ca-e315512d4768","1000","
                  <p style=""text-align: center;"">₪58
                                                <br>30%</p>
                  <p id=""wtp"" style=""text-align:center; margin-top: 0px; margin-bottom: 0px; font-size: 40px"";>&ensp;</p>","-","viewing","0","19","13C,30A","","","","","","","","","","","","","","","","","","","",""
"","","","","","html-slider-response","20","124930","0.0-17.0-1.1","841f6a97-c9d3-4c02-86ca-e315512d4768","null","
                  <p style=""text-align: center;"">₪58
                                                <br>30%</p>
                  <p id=""wtp"" style=""text-align:center; margin-top: 0px; margin-bottom: 0px; font-size: 40px"";>מוכנים לשלם: <span id=""c_p_y""></span></p>","null","evaluation","1","19","13C,30A","30","58","25","","","","","","","","","","","","","","","","",""
"","","","","","html-keyboard-response","21","126241","0.0-17.0-2.1","841f6a97-c9d3-4c02-86ca-e315512d4768","null","<p style=""text-align: center;"">+</p>","null","fixation","","","","","","","","","","","","","","","","","","","","","","",""
"","","","","","html-slider-response","22","127252","0.0-17.0-0.2","841f6a97-c9d3-4c02-86ca-e315512d4768","1000","
                  <p style=""text-align: center;"">₪79
                                                <br>65%</p>
                  <p id=""wtp"" style=""text-align:center; margin-top: 0px; margin-bottom: 0px; font-size: 40px"";>&ensp;</p>","-","viewing","0","31","8A","","","","","","","","","","","","","","","","","","","",""
"","","","","","html-slider-response","23","131257","0.0-17.0-1.2","841f6a97-c9d3-4c02-86ca-e315512d4768","null","
                  <p style=""text-align: center;"">₪79
                                                <br>65%</p>
                  <p id=""wtp"" style=""text-align:center; margin-top: 0px; margin-bottom: 0px; font-size: 40px"";>מוכנים לשלם: <span id=""c_p_y""></span></p>","null","evaluation","60","31","8A","65","79","53","","","","","","","","","","","","","","","","",""
"","","","","","html-keyboard-response","24","131805","0.0-17.0-2.2","841f6a97-c9d3-4c02-86ca-e315512d4768","null","<p style=""text-align: center;"">+</p>","null","fixation","","","","","","","","","","","","","","","","","","","","","","",""
"","","","","","html-slider-response","25","132821","0.0-17.0-0.3","841f6a97-c9d3-4c02-86ca-e315512d4768","1000","
                  <p style=""text-align: center;"">₪61
                                                <br>55%</p>
                  <p id=""wtp"" style=""text-align:center; margin-top: 0px; margin-bottom: 0px; font-size: 40px"";>&ensp;</p>","-","viewing","0","23","7B,26B","","","","","","","","","","","","","","","","","","","",""
"","","","","","html-slider-response","26","136830","0.0-17.0-1.3","841f6a97-c9d3-4c02-86ca-e315512d4768","null","
                  <p style=""text-align: center;"">₪61
                                                <br>55%</p>
                  <p id=""wtp"" style=""text-align:center; margin-top: 0px; margin-bottom: 0px; font-size: 40px"";>מוכנים לשלם: <span id=""c_p_y""></span></p>","null","evaluation","12","23","7B,26B","55","61","58","","","","","","","","","","","","","","","","",""
"","","","","","html-keyboard-response","27","138091","0.0-17.0-2.3","841f6a97-c9d3-4c02-86ca-e315512d4768","null","<p style=""text-align: center;"">+</p>","null","fixation","","","","","","","","","","","","","","","","","","","","","","",""
"","","","","","html-slider-response","28","139098","0.0-17.0-0.4","841f6a97-c9d3-4c02-86ca-e315512d4768","1000","
                  <p style=""text-align: center;"">₪43
                                                <br>75%</p>
                  <p id=""wtp"" style=""text-align:center; margin-top: 0px; margin-bottom: 0px; font-size: 40px"";>&ensp;</p>","-","viewing","0","18","11B,19B,24A,26A","","","","","","","","","","","","","","","","","","","",""
"","","","","","html-slider-response","29","143113","0.0-17.0-1.4","841f6a97-c9d3-4c02-86ca-e315512d4768","null","
                  <p style=""text-align: center;"">₪43
                                                <br>75%</p>
                  <p id=""wtp"" style=""text-align:center; margin-top: 0px; margin-bottom: 0px; font-size: 40px"";>מוכנים לשלם: <span id=""c_p_y""></span></p>","null","evaluation","1","18","11B,19B,24A,26A","75","43","67","","","","","","","","","","","","","","","","",""
"","","","","","html-keyboard-response","30","144057","0.0-17.0-2.4","841f6a97-c9d3-4c02-86ca-e315512d4768","null","<p style=""text-align: center;"">+</p>","null","fixation","","","","","","","","","","","","","","","","","","","","","","",""
"","","","","","html-slider-response","31","145070","0.0-17.0-0.5","841f6a97-c9d3-4c02-86ca-e315512d4768","1000","
                  <p style=""text-align: center;"">₪71
                                                <br>55%</p>
                  <p id=""wtp"" style=""text-align:center; margin-top: 0px; margin-bottom: 0px; font-size: 40px"";>&ensp;</p>","-","viewing","0","27","5B,18A","","","","","","","","","","","","","","","","","","","",""
"","","","","","html-slider-response","32","149081","0.0-17.0-1.5","841f6a97-c9d3-4c02-86ca-e315512d4768","null","
                  <p style=""text-align: center;"">₪71
                                                <br>55%</p>
                  <p id=""wtp"" style=""text-align:center; margin-top: 0px; margin-bottom: 0px; font-size: 40px"";>מוכנים לשלם: <span id=""c_p_y""></span></p>","null","evaluation","71","27","5B,18A","55","71","55","","","","","","","","","","","","","","","","",""
"","","","","","html-keyboard-response","33","150576","0.0-17.0-2.5","841f6a97-c9d3-4c02-86ca-e315512d4768","null","<p style=""text-align: center;"">+</p>","null","fixation","","","","","","","","","","","","","","","","","","","","","","",""
"","","","","","html-slider-response","34","151592","0.0-17.0-0.6","841f6a97-c9d3-4c02-86ca-e315512d4768","1000","
                  <p style=""text-align: center;"">₪71
                                                <br>75%</p>
                  <p id=""wtp"" style=""text-align:center; margin-top: 0px; margin-bottom: 0px; font-size: 40px"";>&ensp;</p>","-","viewing","0","28","8B","","","","","","","","","","","","","","","","","","","",""
"","","","","","html-slider-response","35","155603","0.0-17.0-1.6","841f6a97-c9d3-4c02-86ca-e315512d4768","null","
                  <p style=""text-align: center;"">₪71
                                                <br>75%</p>
                  <p id=""wtp"" style=""text-align:center; margin-top: 0px; margin-bottom: 0px; font-size: 40px"";>מוכנים לשלם: <span id=""c_p_y""></span></p>","null","evaluation","22","28","8B","75","71","68","","","","","","","","","","","","","","","","",""
"","","","","","html-keyboard-response","36","156506","0.0-17.0-2.6","841f6a97-c9d3-4c02-86ca-e315512d4768","null","<p style=""text-align: center;"">+</p>","null","fixation","","","","","","","","","","","","","","","","","","","","","","",""
"","","","","","html-slider-response","37","157516","0.0-17.0-0.7","841f6a97-c9d3-4c02-86ca-e315512d4768","1000","
                  <p style=""text-align: center;"">₪18
                                                <br>50%</p>
                  <p id=""wtp"" style=""text-align:center; margin-top: 0px; margin-bottom: 0px; font-size: 40px"";>&ensp;</p>","-","viewing","0","10","2C,16C,22B,28A","","","","","","","","","","","","","","","","","","","",""
"","","","","","html-slider-response","38","161520","0.0-17.0-1.7","841f6a97-c9d3-4c02-86ca-e315512d4768","null","
                  <p style=""text-align: center;"">₪18
                                                <br>50%</p>
                  <p id=""wtp"" style=""text-align:center; margin-top: 0px; margin-bottom: 0px; font-size: 40px"";>מוכנים לשלם: <span id=""c_p_y""></span></p>","null","evaluation","14","10","2C,16C,22B,28A","50","18","25","","","","","","","","","","","","","","","","",""
"","","","","","html-keyboard-response","39","162381","0.0-17.0-2.7","841f6a97-c9d3-4c02-86ca-e315512d4768","null","<p style=""text-align: center;"">+</p>","null","fixation","","","","","","","","","","","","","","","","","","","","","","",""
"","","","","","html-slider-response","40","163390","0.0-17.0-0.8","841f6a97-c9d3-4c02-86ca-e315512d4768","1000","
                  <p style=""text-align: center;"">₪36
                                                <br>70%</p>
                  <p id=""wtp"" style=""text-align:center; margin-top: 0px; margin-bottom: 0px; font-size: 40px"";>&ensp;</p>","-","viewing","0","13","3A,5C,10B","","","","","","","","","","","","","","","","","","","",""
"","","","","","html-slider-response","41","167394","0.0-17.0-1.8","841f6a97-c9d3-4c02-86ca-e315512d4768","null","
                  <p style=""text-align: center;"">₪36
                                                <br>70%</p>
                  <p id=""wtp"" style=""text-align:center; margin-top: 0px; margin-bottom: 0px; font-size: 40px"";>מוכנים לשלם: <span id=""c_p_y""></span></p>","null","evaluation","18","13","3A,5C,10B","70","36","60","","","","","","","","","","","","","","","","",""
"","","","","","html-keyboard-response","42","168129","0.0-17.0-2.8","841f6a97-c9d3-4c02-86ca-e315512d4768","null","<p style=""text-align: center;"">+</p>","null","fixation","","","","","","","","","","","","","","","","","","","","","","",""
"","","","","","html-slider-response","43","169144","0.0-17.0-0.9","841f6a97-c9d3-4c02-86ca-e315512d4768","1000","
                  <p style=""text-align: center;"">₪16
                                                <br>20%</p>
                  <p id=""wtp"" style=""text-align:center; margin-top: 0px; margin-bottom: 0px; font-size: 40px"";>&ensp;</p>","-","viewing","0","8","14C,17A,20C,27A","","","","","","","","","","","","","","","","","","","",""
"","","","","","html-slider-response","44","173153","0.0-17.0-1.9","841f6a97-c9d3-4c02-86ca-e315512d4768","null","
                  <p style=""text-align: center;"">₪16
                                                <br>20%</p>
                  <p id=""wtp"" style=""text-align:center; margin-top: 0px; margin-bottom: 0px; font-size: 40px"";>מוכנים לשלם: <span id=""c_p_y""></span></p>","null","evaluation","66","8","14C,17A,20C,27A","20","16","17","","","","","","","","","","","","","","","","",""
"","","","","","html-keyboard-response","45","174513","0.0-17.0-2.9","841f6a97-c9d3-4c02-86ca-e315512d4768","null","<p style=""text-align: center;"">+</p>","null","fixation","","","","","","","","","","","","","","","","","","","","","","",""
"","","","","","html-slider-response","46","175518","0.0-17.0-0.10","841f6a97-c9d3-4c02-86ca-e315512d4768","1000","
                  <p style=""text-align: center;"">₪58
                                                <br>40%</p>
                  <p id=""wtp"" style=""text-align:center; margin-top: 0px; margin-bottom: 0px; font-size: 40px"";>&ensp;</p>","-","viewing","0","20","10C,13A,19C,21B","","","","","","","","","","","","","","","","","","","",""
"","","","","","html-slider-response","47","179524","0.0-17.0-1.10","841f6a97-c9d3-4c02-86ca-e315512d4768","null","
                  <p style=""text-align: center;"">₪58
                                                <br>40%</p>
                  <p id=""wtp"" style=""text-align:center; margin-top: 0px; margin-bottom: 0px; font-size: 40px"";>מוכנים לשלם: <span id=""c_p_y""></span></p>","null","evaluation","24","20","10C,13A,19C,21B","40","58","35","","","","","","","","","","","","","","","","",""
"","","","","","html-keyboard-response","48","180851","0.0-17.0-2.10","841f6a97-c9d3-4c02-86ca-e315512d4768","null","<p style=""text-align: center;"">+</p>","null","fixation","","","","","","","","","","","","","","","","","","","","","","",""
"","","","","","html-slider-response","49","181857","0.0-17.0-0.11","841f6a97-c9d3-4c02-86ca-e315512d4768","1000","
                  <p style=""text-align: center;"">₪4
                                                <br>25%</p>
                  <p id=""wtp"" style=""text-align:center; margin-top: 0px; margin-bottom: 0px; font-size: 40px"";>&ensp;</p>","-","viewing","0","1","6C,29B,30C","","","","","","","","","","","","","","","","","","","",""
"","","","","","html-slider-response","50","185858","0.0-17.0-1.11","841f6a97-c9d3-4c02-86ca-e315512d4768","null","
                  <p style=""text-align: center;"">₪4
                                                <br>25%</p>
                  <p id=""wtp"" style=""text-align:center; margin-top: 0px; margin-bottom: 0px; font-size: 40px"";>מוכנים לשלם: <span id=""c_p_y""></span></p>","null","evaluation","57","1","6C,29B,30C","25","4","24","","","","","","","","","","","","","","","","",""
"","","","","","html-keyboard-response","51","187007","0.0-17.0-2.11","841f6a97-c9d3-4c02-86ca-e315512d4768","null","<p style=""text-align: center;"">+</p>","null","fixation","","","","","","","","","","","","","","","","","","","","","","",""
"","","","","","html-slider-response","52","188010","0.0-17.0-0.12","841f6a97-c9d3-4c02-86ca-e315512d4768","1000","
                  <p style=""text-align: center;"">₪11
                                                <br>20%</p>
                  <p id=""wtp"" style=""text-align:center; margin-top: 0px; margin-bottom: 0px; font-size: 40px"";>&ensp;</p>","-","viewing","0","4","12C,17C,23C,28C","","","","","","","","","","","","","","","","","","","",""
"","","","","","html-slider-response","53","190616","0.0-17.0-1.12","841f6a97-c9d3-4c02-86ca-e315512d4768","2604","
                  <p style=""text-align: center;"">₪11
                                                <br>20%</p>
                  <p id=""wtp"" style=""text-align:center; margin-top: 0px; margin-bottom: 0px; font-size: 40px"";>מוכנים לשלם: <span id=""c_p_y""></span></p>","17","evaluation","14","4","12C,17C,23C,28C","20","11","17","","","","","","","","","","","","","","","","",""
"","","","","","html-keyboard-response","54","191289","0.0-17.0-2.12","841f6a97-c9d3-4c02-86ca-e315512d4768","null","<p style=""text-align: center;"">+</p>","null","fixation","","","","","","","","","","","","","","","","","","","","","","",""
"","","","","","html-slider-response","55","192299","0.0-17.0-0.13","841f6a97-c9d3-4c02-86ca-e315512d4768","1000","
                  <p style=""text-align: center;"">₪11
                                                <br>75%</p>
                  <p id=""wtp"" style=""text-align:center; margin-top: 0px; margin-bottom: 0px; font-size: 40px"";>&ensp;</p>","-","viewing","0","7","6B,18B,22C,24C,29A","","","","","","","","","","","","","","","","","","","",""
"","","","","","html-slider-response","56","195456","0.0-17.0-1.13","841f6a97-c9d3-4c02-86ca-e315512d4768","3155","
                  <p style=""text-align: center;"">₪11
                                                <br>75%</p>
                  <p id=""wtp"" style=""text-align:center; margin-top: 0px; margin-bottom: 0px; font-size: 40px"";>מוכנים לשלם: <span id=""c_p_y""></span></p>","57","evaluation","35","7","6B,18B,22C,24C,29A","75","11","57","","","","","","","","","","","","","","","","",""
"","","","","","html-keyboard-response","57","196393","0.0-17.0-2.13","841f6a97-c9d3-4c02-86ca-e315512d4768","null","<p style=""text-align: center;"">+</p>","null","fixation","","","","","","","","","","","","","","","","","","","","","","",""
"","","","","","html-slider-response","58","197405","0.0-17.0-0.14","841f6a97-c9d3-4c02-86ca-e315512d4768","1000","
                  <p style=""text-align: center;"">₪64
                                                <br>25%</p>
                  <p id=""wtp"" style=""text-align:center; margin-top: 0px; margin-bottom: 0px; font-size: 40px"";>&ensp;</p>","-","viewing","0","24","6A,21A","","","","","","","","","","","","","","","","","","","",""
"","","","","","html-slider-response","59","200136","0.0-17.0-1.14","841f6a97-c9d3-4c02-86ca-e315512d4768","2729","
                  <p style=""text-align: center;"">₪64
                                                <br>25%</p>
                  <p id=""wtp"" style=""text-align:center; margin-top: 0px; margin-bottom: 0px; font-size: 40px"";>מוכנים לשלם: <span id=""c_p_y""></span></p>","28","evaluation","56","24","6A,21A","25","64","28","","","","","","","","","","","","","","","","",""
"","","","","","html-keyboard-response","60","201408","0.0-17.0-2.14","841f6a97-c9d3-4c02-86ca-e315512d4768","null","<p style=""text-align: center;"">+</p>","null","fixation","","","","","","","","","","","","","","","","","","","","","","",""
"","","","","","html-slider-response","61","202411","0.0-17.0-0.15","841f6a97-c9d3-4c02-86ca-e315512d4768","1000","
                  <p style=""text-align: center;"">₪39
                                                <br>60%</p>
                  <p id=""wtp"" style=""text-align:center; margin-top: 0px; margin-bottom: 0px; font-size: 40px"";>&ensp;</p>","-","viewing","0","15","9C,25B","","","","","","","","","","","","","","","","","","","",""
"","","","","","html-slider-response","62","205312","0.0-17.0-1.15","841f6a97-c9d3-4c02-86ca-e315512d4768","2899","
                  <p style=""text-align: center;"">₪39
                                                <br>60%</p>
                  <p id=""wtp"" style=""text-align:center; margin-top: 0px; margin-bottom: 0px; font-size: 40px"";>מוכנים לשלם: <span id=""c_p_y""></span></p>","55","evaluation","63","15","9C,25B","60","39","55","","","","","","","","","","","","","","","","",""
"","","","","","html-keyboard-response","63","206191","0.0-17.0-2.15","841f6a97-c9d3-4c02-86ca-e315512d4768","null","<p style=""text-align: center;"">+</p>","null","fixation","","","","","","","","","","","","","","","","","","","","","","",""
"","","","","","html-slider-response","64","207200","0.0-17.0-0.16","841f6a97-c9d3-4c02-86ca-e315512d4768","1000","
                  <p style=""text-align: center;"">₪76
                                                <br>65%</p>
                  <p id=""wtp"" style=""text-align:center; margin-top: 0px; margin-bottom: 0px; font-size: 40px"";>&ensp;</p>","-","viewing","0","29","8C,19A,24B","","","","","","","","","","","","","","","","","","","",""
"","","","","","html-slider-response","65","210704","0.0-17.0-1.16","841f6a97-c9d3-4c02-86ca-e315512d4768","3502","
                  <p style=""text-align: center;"">₪76
                                                <br>65%</p>
                  <p id=""wtp"" style=""text-align:center; margin-top: 0px; margin-bottom: 0px; font-size: 40px"";>מוכנים לשלם: <span id=""c_p_y""></span></p>","64","evaluation","32","29","8C,19A,24B","65","76","64","","","","","","","","","","","","","","","","",""
"","","","","","html-keyboard-response","66","211704","0.0-17.0-2.16","841f6a97-c9d3-4c02-86ca-e315512d4768","null","<p style=""text-align: center;"">+</p>","null","fixation","","","","","","","","","","","","","","","","","","","","","","",""
"","","","","","html-slider-response","67","212720","0.0-17.0-0.17","841f6a97-c9d3-4c02-86ca-e315512d4768","1000","
                  <p style=""text-align: center;"">₪43
                                                <br>60%</p>
                  <p id=""wtp"" style=""text-align:center; margin-top: 0px; margin-bottom: 0px; font-size: 40px"";>&ensp;</p>","-","viewing","0","17","2A,7A,9A,15B","","","","","","","","","","","","","","","","","","","",""
"","","","","","html-slider-response","68","216288","0.0-17.0-1.17","841f6a97-c9d3-4c02-86ca-e315512d4768","3566","
                  <p style=""text-align: center;"">₪43
                                                <br>60%</p>
                  <p id=""wtp"" style=""text-align:center; margin-top: 0px; margin-bottom: 0px; font-size: 40px"";>מוכנים לשלם: <span id=""c_p_y""></span></p>","32","evaluation","5","17","2A,7A,9A,15B","60","43","32","","","","","","","","","","","","","","","","",""
"","","","","","html-keyboard-response","69","217656","0.0-17.0-2.17","841f6a97-c9d3-4c02-86ca-e315512d4768","null","<p style=""text-align: center;"">+</p>","null","fixation","","","","","","","","","","","","","","","","","","","","","","",""
"","","","","","html-slider-response","70","218661","0.0-17.0-0.18","841f6a97-c9d3-4c02-86ca-e315512d4768","1000","
                  <p style=""text-align: center;"">₪58
                                                <br>45%</p>
                  <p id=""wtp"" style=""text-align:center; margin-top: 0px; margin-bottom: 0px; font-size: 40px"";>&ensp;</p>","-","viewing","0","21","11C,18C,25A","","","","","","","","","","","","","","","","","","","",""
"","","","","","html-slider-response","71","221128","0.0-17.0-1.18","841f6a97-c9d3-4c02-86ca-e315512d4768","2467","
                  <p style=""text-align: center;"">₪58
                                                <br>45%</p>
                  <p id=""wtp"" style=""text-align:center; margin-top: 0px; margin-bottom: 0px; font-size: 40px"";>מוכנים לשלם: <span id=""c_p_y""></span></p>","48","evaluation","52","21","11C,18C,25A","45","58","48","","","","","","","","","","","","","","","","",""
"","","","","","html-keyboard-response","72","222506","0.0-17.0-2.18","841f6a97-c9d3-4c02-86ca-e315512d4768","null","<p style=""text-align: center;"">+</p>","null","fixation","","","","","","","","","","","","","","","","","","","","","","",""
"","","","","","html-slider-response","73","223514","0.0-17.0-0.19","841f6a97-c9d3-4c02-86ca-e315512d4768","1000","
                  <p style=""text-align: center;"">₪64
                                                <br>50%</p>
                  <p id=""wtp"" style=""text-align:center; margin-top: 0px; margin-bottom: 0px; font-size: 40px"";>&ensp;</p>","-","viewing","0","25","1B,3B,4A","","","","","","","","","","","","","","","","","","","",""
"","","","","","html-slider-response","74","227184","0.0-17.0-1.19","841f6a97-c9d3-4c02-86ca-e315512d4768","3669","
                  <p style=""text-align: center;"">₪64
                                                <br>50%</p>
                  <p id=""wtp"" style=""text-align:center; margin-top: 0px; margin-bottom: 0px; font-size: 40px"";>מוכנים לשלם: <span id=""c_p_y""></span></p>","44","evaluation","31","25","1B,3B,4A","50","64","44","","","","","","","","","","","","","","","","",""
"","","","","","html-keyboard-response","75","228436","0.0-17.0-2.19","841f6a97-c9d3-4c02-86ca-e315512d4768","null","<p style=""text-align: center;"">+</p>","null","fixation","","","","","","","","","","","","","","","","","","","","","","",""
"","","","","","html-slider-response","76","229438","0.0-17.0-0.20","841f6a97-c9d3-4c02-86ca-e315512d4768","1000","
                  <p style=""text-align: center;"">₪36
                                                <br>75%</p>
                  <p id=""wtp"" style=""text-align:center; margin-top: 0px; margin-bottom: 0px; font-size: 40px"";>&ensp;</p>","-","viewing","0","14","4B,5A,13B,16B","","","","","","","","","","","","","","","","","","","",""
"","","","","","html-slider-response","77","232688","0.0-17.0-1.20","841f6a97-c9d3-4c02-86ca-e315512d4768","3248","
                  <p style=""text-align: center;"">₪36
                                                <br>75%</p>
                  <p id=""wtp"" style=""text-align:center; margin-top: 0px; margin-bottom: 0px; font-size: 40px"";>מוכנים לשלם: <span id=""c_p_y""></span></p>","55","evaluation","8","14","4B,5A,13B,16B","75","36","55","","","","","","","","","","","","","","","","",""
"","","","","","html-keyboard-response","78","233474","0.0-17.0-2.20","841f6a97-c9d3-4c02-86ca-e315512d4768","null","<p style=""text-align: center;"">+</p>","null","fixation","","","","","","","","","","","","","","","","","","","","","","",""
"","","","","","html-slider-response","79","234477","0.0-17.0-0.21","841f6a97-c9d3-4c02-86ca-e315512d4768","1000","
                  <p style=""text-align: center;"">₪11
                                                <br>45%</p>
                  <p id=""wtp"" style=""text-align:center; margin-top: 0px; margin-bottom: 0px; font-size: 40px"";>&ensp;</p>","-","viewing","0","6","14B,21C,25C","","","","","","","","","","","","","","","","","","","",""
"","","","","","html-slider-response","80","236968","0.0-17.0-1.21","841f6a97-c9d3-4c02-86ca-e315512d4768","2490","
                  <p style=""text-align: center;"">₪11
                                                <br>45%</p>
                  <p id=""wtp"" style=""text-align:center; margin-top: 0px; margin-bottom: 0px; font-size: 40px"";>מוכנים לשלם: <span id=""c_p_y""></span></p>","21","evaluation","69","6","14B,21C,25C","45","11","21","","","","","","","","","","","","","","","","",""
"","","","","","html-keyboard-response","81","238170","0.0-17.0-2.21","841f6a97-c9d3-4c02-86ca-e315512d4768","null","<p style=""text-align: center;"">+</p>","null","fixation","","","","","","","","","","","","","","","","","","","","","","",""
"","","","","","html-slider-response","82","239180","0.0-17.0-0.22","841f6a97-c9d3-4c02-86ca-e315512d4768","1000","
                  <p style=""text-align: center;"">₪39
                                                <br>65%</p>
                  <p id=""wtp"" style=""text-align:center; margin-top: 0px; margin-bottom: 0px; font-size: 40px"";>&ensp;</p>","-","viewing","0","16","1A,15A,26C","","","","","","","","","","","","","","","","","","","",""
"","","","","","html-slider-response","83","241328","0.0-17.0-1.22","841f6a97-c9d3-4c02-86ca-e315512d4768","2146","
                  <p style=""text-align: center;"">₪39
                                                <br>65%</p>
                  <p id=""wtp"" style=""text-align:center; margin-top: 0px; margin-bottom: 0px; font-size: 40px"";>מוכנים לשלם: <span id=""c_p_y""></span></p>","43","evaluation","53","16","1A,15A,26C","65","39","43","","","","","","","","","","","","","","","","",""
"","","","","","html-keyboard-response","84","242208","0.0-17.0-2.22","841f6a97-c9d3-4c02-86ca-e315512d4768","null","<p style=""text-align: center;"">+</p>","null","fixation","","","","","","","","","","","","","","","","","","","","","","",""
"","","","","","html-slider-response","85","243218","0.0-17.0-0.23","841f6a97-c9d3-4c02-86ca-e315512d4768","1000","
                  <p style=""text-align: center;"">₪4
                                                <br>75%</p>
                  <p id=""wtp"" style=""text-align:center; margin-top: 0px; margin-bottom: 0px; font-size: 40px"";>&ensp;</p>","-","viewing","0","3","12B,20B,23B,27C,29C","","","","","","","","","","","","","","","","","","","",""
"","","","","","html-slider-response","86","246448","0.0-17.0-1.23","841f6a97-c9d3-4c02-86ca-e315512d4768","3229","
                  <p style=""text-align: center;"">₪4
                                                <br>75%</p>
                  <p id=""wtp"" style=""text-align:center; margin-top: 0px; margin-bottom: 0px; font-size: 40px"";>מוכנים לשלם: <span id=""c_p_y""></span></p>","73","evaluation","41","3","12B,20B,23B,27C,29C","75","4","73","","","","","","","","","","","","","","","","",""
"","","","","","html-keyboard-response","87","247719","0.0-17.0-2.23","841f6a97-c9d3-4c02-86ca-e315512d4768","null","<p style=""text-align: center;"">+</p>","null","fixation","","","","","","","","","","","","","","","","","","","","","","",""
"","","","","","html-slider-response","88","248721","0.0-17.0-0.24","841f6a97-c9d3-4c02-86ca-e315512d4768","1000","
                  <p style=""text-align: center;"">₪79
                                                <br>40%</p>
                  <p id=""wtp"" style=""text-align:center; margin-top: 0px; margin-bottom: 0px; font-size: 40px"";>&ensp;</p>","-","viewing","0","30","9B","","","","","","","","","","","","","","","","","","","",""
"","","","","","html-slider-response","89","250479","0.0-17.0-1.24","841f6a97-c9d3-4c02-86ca-e315512d4768","1758","
                  <p style=""text-align: center;"">₪79
                                                <br>40%</p>
                  <p id=""wtp"" style=""text-align:center; margin-top: 0px; margin-bottom: 0px; font-size: 40px"";>מוכנים לשלם: <span id=""c_p_y""></span></p>","63","evaluation","51","30","9B","40","79","63","","","","","","","","","","","","","","","","",""
"","","","","","html-keyboard-response","90","251399","0.0-17.0-2.24","841f6a97-c9d3-4c02-86ca-e315512d4768","null","<p style=""text-align: center;"">+</p>","null","fixation","","","","","","","","","","","","","","","","","","","","","","",""
"","","","","","html-slider-response","91","252410","0.0-17.0-0.25","841f6a97-c9d3-4c02-86ca-e315512d4768","1000","
                  <p style=""text-align: center;"">₪36
                                                <br>60%</p>
                  <p id=""wtp"" style=""text-align:center; margin-top: 0px; margin-bottom: 0px; font-size: 40px"";>&ensp;</p>","-","viewing","0","12","1C,7C,15C","","","","","","","","","","","","","","","","","","","",""
"","","","","","html-slider-response","92","254335","0.0-17.0-1.25","841f6a97-c9d3-4c02-86ca-e315512d4768","1924","
                  <p style=""text-align: center;"">₪36
                                                <br>60%</p>
                  <p id=""wtp"" style=""text-align:center; margin-top: 0px; margin-bottom: 0px; font-size: 40px"";>מוכנים לשלם: <span id=""c_p_y""></span></p>","57","evaluation","26","12","1C,7C,15C","60","36","57","","","","","","","","","","","","","","","","",""
"","","","","","html-keyboard-response","93","255127","0.0-17.0-2.25","841f6a97-c9d3-4c02-86ca-e315512d4768","null","<p style=""text-align: center;"">+</p>","null","fixation","","","","","","","","","","","","","","","","","","","","","","",""
"","","","","","html-slider-response","94","256131","0.0-17.0-0.26","841f6a97-c9d3-4c02-86ca-e315512d4768","1000","
                  <p style=""text-align: center;"">₪36
                                                <br>30%</p>
                  <p id=""wtp"" style=""text-align:center; margin-top: 0px; margin-bottom: 0px; font-size: 40px"";>&ensp;</p>","-","viewing","0","11","3C,20A,22A","","","","","","","","","","","","","","","","","","","",""
"","","","","","html-slider-response","95","257247","0.0-17.0-1.26","841f6a97-c9d3-4c02-86ca-e315512d4768","1116","
                  <p style=""text-align: center;"">₪36
                                                <br>30%</p>
                  <p id=""wtp"" style=""text-align:center; margin-top: 0px; margin-bottom: 0px; font-size: 40px"";>מוכנים לשלם: <span id=""c_p_y""></span></p>","26","evaluation","31","11","3C,20A,22A","30","36","26","","","","","","","","","","","","","","","","",""
"","","","","","html-keyboard-response","96","258640","0.0-17.0-2.26","841f6a97-c9d3-4c02-86ca-e315512d4768","null","<p style=""text-align: center;"">+</p>","null","fixation","","","","","","","","","","","","","","","","","","","","","","",""
"","","","","","html-slider-response","97","259650","0.0-17.0-0.27","841f6a97-c9d3-4c02-86ca-e315512d4768","1000","
                  <p style=""text-align: center;"">₪61
                                                <br>45%</p>
                  <p id=""wtp"" style=""text-align:center; margin-top: 0px; margin-bottom: 0px; font-size: 40px"";>&ensp;</p>","-","viewing","0","22","10A,11A","","","","","","","","","","","","","","","","","","","",""
"","","","","","html-slider-response","98","261207","0.0-17.0-1.27","841f6a97-c9d3-4c02-86ca-e315512d4768","1557","
                  <p style=""text-align: center;"">₪61
                                                <br>45%</p>
                  <p id=""wtp"" style=""text-align:center; margin-top: 0px; margin-bottom: 0px; font-size: 40px"";>מוכנים לשלם: <span id=""c_p_y""></span></p>","38","evaluation","14","22","10A,11A","45","61","38","","","","","","","","","","","","","","","","",""
"","","","","","html-keyboard-response","99","261970","0.0-17.0-2.27","841f6a97-c9d3-4c02-86ca-e315512d4768","null","<p style=""text-align: center;"">+</p>","null","fixation","","","","","","","","","","","","","","","","","","","","","","",""
"","","","","","html-slider-response","100","262987","0.0-17.0-0.28","841f6a97-c9d3-4c02-86ca-e315512d4768","1000","
                  <p style=""text-align: center;"">₪4
                                                <br>50%</p>
                  <p id=""wtp"" style=""text-align:center; margin-top: 0px; margin-bottom: 0px; font-size: 40px"";>&ensp;</p>","-","viewing","0","2","4C,17B","","","","","","","","","","","","","","","","","","","",""
"","","","","","html-slider-response","101","267005","0.0-17.0-1.28","841f6a97-c9d3-4c02-86ca-e315512d4768","null","
                  <p style=""text-align: center;"">₪4
                                                <br>50%</p>
                  <p id=""wtp"" style=""text-align:center; margin-top: 0px; margin-bottom: 0px; font-size: 40px"";>מוכנים לשלם: <span id=""c_p_y""></span></p>","null","evaluation","26","2","4C,17B","50","4","13","","","","","","","","","","","","","","","","",""
"","","","","","html-keyboard-response","102","267978","0.0-17.0-2.28","841f6a97-c9d3-4c02-86ca-e315512d4768","null","<p style=""text-align: center;"">+</p>","null","fixation","","","","","","","","","","","","","","","","","","","","","","",""
"","","","","","html-slider-response","103","268981","0.0-17.0-0.29","841f6a97-c9d3-4c02-86ca-e315512d4768","1000","
                  <p style=""text-align: center;"">₪11
                                                <br>25%</p>
                  <p id=""wtp"" style=""text-align:center; margin-top: 0px; margin-bottom: 0px; font-size: 40px"";>&ensp;</p>","-","viewing","0","5","12A,27B,28B,30B","","","","","","","","","","","","","","","","","","","",""
"","","","","","html-slider-response","104","271207","0.0-17.0-1.29","841f6a97-c9d3-4c02-86ca-e315512d4768","2226","
                  <p style=""text-align: center;"">₪11
                                                <br>25%</p>
                  <p id=""wtp"" style=""text-align:center; margin-top: 0px; margin-bottom: 0px; font-size: 40px"";>מוכנים לשלם: <span id=""c_p_y""></span></p>","30","evaluation","56","5","12A,27B,28B,30B","25","11","30","","","","","","","","","","","","","","","","",""
"","","","","","html-keyboard-response","105","272024","0.0-17.0-2.29","841f6a97-c9d3-4c02-86ca-e315512d4768","null","<p style=""text-align: center;"">+</p>","null","fixation","","","","","","","","","","","","","","","","","","","","","","",""
"","","","","","html-slider-response","106","273029","0.0-17.0-0.30","841f6a97-c9d3-4c02-86ca-e315512d4768","1000","
                  <p style=""text-align: center;"">₪18
                                                <br>25%</p>
                  <p id=""wtp"" style=""text-align:center; margin-top: 0px; margin-bottom: 0px; font-size: 40px"";>&ensp;</p>","-","viewing","0","9","14A,23A","","","","","","","","","","","","","","","","","","","",""
"","","","","","html-slider-response","107","275471","0.0-17.0-1.30","841f6a97-c9d3-4c02-86ca-e315512d4768","2441","
                  <p style=""text-align: center;"">₪18
                                                <br>25%</p>
                  <p id=""wtp"" style=""text-align:center; margin-top: 0px; margin-bottom: 0px; font-size: 40px"";>מוכנים לשלם: <span id=""c_p_y""></span></p>","50","evaluation","78","9","14A,23A","25","18","50","","","","","","","","","","","","","","","","",""
"","","","","","html-keyboard-response","108","276812","0.0-17.0-2.30","841f6a97-c9d3-4c02-86ca-e315512d4768","null","<p style=""text-align: center;"">+</p>","null","fixation","","","","","","","","","","","","","","","","","","","","","","",""
"","","","","","html-keyboard-response","109","277819","0.0-18.0","841f6a97-c9d3-4c02-86ca-e315512d4768","null","<p style=""text-align: center;"">+</p>","null","fixation","","","","","","","","","","","","","","","","","","","","","","",""
"","","","","","html-keyboard-response","110","278967","0.0-19.0","841f6a97-c9d3-4c02-86ca-e315512d4768","null","<p>הפסקה.
          <br>לחצו כדי להמשיך.</p>","1","scan_wait","","","","","","","","","","","","","","","","","","","","","","",""
"","","","","","html-keyboard-response","111","279972","0.0-20.0","841f6a97-c9d3-4c02-86ca-e315512d4768","null","<p style=""text-align: center;"">+</p>","null","fixation","","","","","","","","","","","","","","","","","","","","","","",""
"","","","","","html-slider-response","112","280976","0.0-21.0-0.0","841f6a97-c9d3-4c02-86ca-e315512d4768","1000","
                  <p style=""text-align: center;"">₪79
                                                <br>65%</p>
                  <p id=""wtp"" style=""text-align:center; margin-top: 0px; margin-bottom: 0px; font-size: 40px"";>&ensp;</p>","-","viewing","0","31","8A","","","","","","","","","","","","","","","","","","","",""
"","","","","","html-slider-response","113","283751","0.0-21.0-1.0","841f6a97-c9d3-4c02-86ca-e315512d4768","2774","
                  <p style=""text-align: center;"">₪79
                                                <br>65%</p>
                  <p id=""wtp"" style=""text-align:center; margin-top: 0px; margin-bottom: 0px; font-size: 40px"";>מוכנים לשלם: <span id=""c_p_y""></span></p>","48","evaluation","49","31","8A","65","79","48","","","","","","","","","","","","","","","","",""
"","","","","","html-keyboard-response","114","285212","0.0-21.0-2.0","841f6a97-c9d3-4c02-86ca-e315512d4768","null","<p style=""text-align: center;"">+</p>","null","fixation","","","","","","","","","","","","","","","","","","","","","","",""
"","","","","","html-slider-response","115","286227","0.0-21.0-0.1","841f6a97-c9d3-4c02-86ca-e315512d4768","1000","
                  <p style=""text-align: center;"">₪18
                                                <br>50%</p>
                  <p id=""wtp"" style=""text-align:center; margin-top: 0px; margin-bottom: 0px; font-size: 40px"";>&ensp;</p>","-","viewing","0","10","2C,16C,22B,28A","","","","","","","","","","","","","","","","","","","",""
"","","","","","html-slider-response","116","287415","0.0-21.0-1.1","841f6a97-c9d3-4c02-86ca-e315512d4768","1188","
                  <p style=""text-align: center;"">₪18
                                                <br>50%</p>
                  <p id=""wtp"" style=""text-align:center; margin-top: 0px; margin-bottom: 0px; font-size: 40px"";>מוכנים לשלם: <span id=""c_p_y""></span></p>","33","evaluation","20","10","2C,16C,22B,28A","50","18","33","","","","","","","","","","","","","","","","",""
"","","","","","html-keyboard-response","117","288898","0.0-21.0-2.1","841f6a97-c9d3-4c02-86ca-e315512d4768","null","<p style=""text-align: center;"">+</p>","null","fixation","","","","","","","","","","","","","","","","","","","","","","",""
"","","","","","html-slider-response","118","289909","0.0-21.0-0.2","841f6a97-c9d3-4c02-86ca-e315512d4768","1000","
                  <p style=""text-align: center;"">₪39
                                                <br>60%</p>
                  <p id=""wtp"" style=""text-align:center; margin-top: 0px; margin-bottom: 0px; font-size: 40px"";>&ensp;</p>","-","viewing","0","15","9C,25B","","","","","","","","","","","","","","","","","","","",""
"","","","","","html-slider-response","119","293916","0.0-21.0-1.2","841f6a97-c9d3-4c02-86ca-e315512d4768","null","
                  <p style=""text-align: center;"">₪39
                                                <br>60%</p>
                  <p id=""wtp"" style=""text-align:center; margin-top: 0px; margin-bottom: 0px; font-size: 40px"";>מוכנים לשלם: <span id=""c_p_y""></span></p>","null","evaluation","15","15","9C,25B","60","39","62","","","","","","","","","","","","","","","","",""
"","","","","","html-keyboard-response","120","294811","0.0-21.0-2.2","841f6a97-c9d3-4c02-86ca-e315512d4768","null","<p style=""text-align: center;"">+</p>","null","fixation","","","","","","","","","","","","","","","","","","","","","","",""
"","","","","","html-slider-response","121","295813","0.0-21.0-0.3","841f6a97-c9d3-4c02-86ca-e315512d4768","1000","
                  <p style=""text-align: center;"">₪58
                                                <br>30%</p>
                  <p id=""wtp"" style=""text-align:center; margin-top: 0px; margin-bottom: 0px; font-size: 40px"";>&ensp;</p>","-","viewing","0","19","13C,30A","","","","","","","","","","","","","","","","","","","",""
"","","","","","html-slider-response","122","297279","0.0-21.0-1.3","841f6a97-c9d3-4c02-86ca-e315512d4768","1465","
                  <p style=""text-align: center;"">₪58
                                                <br>30%</p>
                  <p id=""wtp"" style=""text-align:center; margin-top: 0px; margin-bottom: 0px; font-size: 40px"";>מוכנים לשלם: <span id=""c_p_y""></span></p>","26","evaluation","20","19","13C,30A","30","58","26","","","","","","","","","","","","","","","","",""
"","","","","","html-keyboard-response","123","298648","0.0-21.0-2.3","841f6a97-c9d3-4c02-86ca-e315512d4768","null","<p style=""text-align: center;"">+</p>","null","fixation","","","","","","","","","","","","","","","","","","","","","","",""
"","","","","","html-slider-response","124","299656","0.0-21.0-0.4","841f6a97-c9d3-4c02-86ca-e315512d4768","1000","
                  <p style=""text-align: center;"">₪36
                                                <br>30%</p>
                  <p id=""wtp"" style=""text-align:center; margin-top: 0px; margin-bottom: 0px; font-size: 40px"";>&ensp;</p>","-","viewing","0","11","3C,20A,22A","","","","","","","","","","","","","","","","","","","",""
"","","","","","html-slider-response","125","300951","0.0-21.0-1.4","841f6a97-c9d3-4c02-86ca-e315512d4768","1294","
                  <p style=""text-align: center;"">₪36
                                                <br>30%</p>
                  <p id=""wtp"" style=""text-align:center; margin-top: 0px; margin-bottom: 0px; font-size: 40px"";>מוכנים לשלם: <span id=""c_p_y""></span></p>","17","evaluation","52","11","3C,20A,22A","30","36","17","","","","","","","","","","","","","","","","",""
"","","","","","html-keyboard-response","126","301502","0.0-21.0-2.4","841f6a97-c9d3-4c02-86ca-e315512d4768","null","<p style=""text-align: center;"">+</p>","null","fixation","","","","","","","","","","","","","","","","","","","","","","",""
"","","","","","html-slider-response","127","302511","0.0-21.0-0.5","841f6a97-c9d3-4c02-86ca-e315512d4768","1000","
                  <p style=""text-align: center;"">₪36
                                                <br>70%</p>
                  <p id=""wtp"" style=""text-align:center; margin-top: 0px; margin-bottom: 0px; font-size: 40px"";>&ensp;</p>","-","viewing","0","13","3A,5C,10B","","","","","","","","","","","","","","","","","","","",""
"","","","","","html-slider-response","128","305191","0.0-21.0-1.5","841f6a97-c9d3-4c02-86ca-e315512d4768","2679","
                  <p style=""text-align: center;"">₪36
                                                <br>70%</p>
                  <p id=""wtp"" style=""text-align:center; margin-top: 0px; margin-bottom: 0px; font-size: 40px"";>מוכנים לשלם: <span id=""c_p_y""></span></p>","61","evaluation","1","13","3A,5C,10B","70","36","61","","","","","","","","","","","","","","","","",""
"","","","","","html-keyboard-response","129","305837","0.0-21.0-2.5","841f6a97-c9d3-4c02-86ca-e315512d4768","null","<p style=""text-align: center;"">+</p>","null","fixation","","","","","","","","","","","","","","","","","","","","","","",""
"","","","","","html-slider-response","130","306847","0.0-21.0-0.6","841f6a97-c9d3-4c02-86ca-e315512d4768","1000","
                  <p style=""text-align: center;"">₪61
                                                <br>55%</p>
                  <p id=""wtp"" style=""text-align:center; margin-top: 0px; margin-bottom: 0px; font-size: 40px"";>&ensp;</p>","-","viewing","0","23","7B,26B","","","","","","","","","","","","","","","","","","","",""
"","","","","","html-slider-response","131","308856","0.0-21.0-1.6","841f6a97-c9d3-4c02-86ca-e315512d4768","2008","
                  <p style=""text-align: center;"">₪61
                                                <br>55%</p>
                  <p id=""wtp"" style=""text-align:center; margin-top: 0px; margin-bottom: 0px; font-size: 40px"";>מוכנים לשלם: <span id=""c_p_y""></span></p>","44","evaluation","47","23","7B,26B","55","61","44","","","","","","","","","","","","","","","","",""
"","","","","","html-keyboard-response","132","310278","0.0-21.0-2.6","841f6a97-c9d3-4c02-86ca-e315512d4768","null","<p style=""text-align: center;"">+</p>","null","fixation","","","","","","","","","","","","","","","","","","","","","","",""
"","","","","","html-slider-response","133","311286","0.0-21.0-0.7","841f6a97-c9d3-4c02-86ca-e315512d4768","1000","
                  <p style=""text-align: center;"">₪39
                                                <br>65%</p>
                  <p id=""wtp"" style=""text-align:center; margin-top: 0px; margin-bottom: 0px; font-size: 40px"";>&ensp;</p>","-","viewing","0","16","1A,15A,26C","","","","","","","","","","","","","","","","","","","",""
"","","","","","html-slider-response","134","314719","0.0-21.0-1.7","841f6a97-c9d3-4c02-86ca-e315512d4768","3433","
                  <p style=""text-align: center;"">₪39
                                                <br>65%</p>
                  <p id=""wtp"" style=""text-align:center; margin-top: 0px; margin-bottom: 0px; font-size: 40px"";>מוכנים לשלם: <span id=""c_p_y""></span></p>","56","evaluation","67","16","1A,15A,26C","65","39","56","","","","","","","","","","","","","","","","",""
"","","","","","html-keyboard-response","135","315661","0.0-21.0-2.7","841f6a97-c9d3-4c02-86ca-e315512d4768","null","<p style=""text-align: center;"">+</p>","null","fixation","","","","","","","","","","","","","","","","","","","","","","",""
"","","","","","html-slider-response","136","316674","0.0-21.0-0.8","841f6a97-c9d3-4c02-86ca-e315512d4768","1000","
                  <p style=""text-align: center;"">₪61
                                                <br>45%</p>
                  <p id=""wtp"" style=""text-align:center; margin-top: 0px; margin-bottom: 0px; font-size: 40px"";>&ensp;</p>","-","viewing","0","22","10A,11A","","","","","","","","","","","","","","","","","","","",""
"","","","","","html-slider-response","137","319376","0.0-21.0-1.8","841f6a97-c9d3-4c02-86ca-e315512d4768","2700","
                  <p style=""text-align: center;"">₪61
                                                <br>45%</p>
                  <p id=""wtp"" style=""text-align:center; margin-top: 0px; margin-bottom: 0px; font-size: 40px"";>מוכנים לשלם: <span id=""c_p_y""></span></p>","33","evaluation","43","22","10A,11A","45","61","33","","","","","","","","","","","","","","","","",""
"","","","","","html-keyboard-response","138","320633","0.0-21.0-2.8","841f6a97-c9d3-4c02-86ca-e315512d4768","null","<p style=""text-align: center;"">+</p>","null","fixation","","","","","","","","","","","","","","","","","","","","","","",""
"","","","","","html-slider-response","139","321647","0.0-21.0-0.9","841f6a97-c9d3-4c02-86ca-e315512d4768","1000","
                  <p style=""text-align: center;"">₪43
                                                <br>75%</p>
                  <p id=""wtp"" style=""text-align:center; margin-top: 0px; margin-bottom: 0px; font-size: 40px"";>&ensp;</p>","-","viewing","0","18","11B,19B,24A,26A","","","","","","","","","","","","","","","","","","","",""
"","","","","","html-slider-response","140","323088","0.0-21.0-1.9","841f6a97-c9d3-4c02-86ca-e315512d4768","1440","
                  <p style=""text-align: center;"">₪43
                                                <br>75%</p>
                  <p id=""wtp"" style=""text-align:center; margin-top: 0px; margin-bottom: 0px; font-size: 40px"";>מוכנים לשלם: <span id=""c_p_y""></span></p>","64","evaluation","59","18","11B,19B,24A,26A","75","43","64","","","","","","","","","","","","","","","","",""
"","","","","","html-keyboard-response","141","324272","0.0-21.0-2.9","841f6a97-c9d3-4c02-86ca-e315512d4768","null","<p style=""text-align: center;"">+</p>","null","fixation","","","","","","","","","","","","","","","","","","","","","","",""
"","","","","","html-slider-response","142","325287","0.0-21.0-0.10","841f6a97-c9d3-4c02-86ca-e315512d4768","1000","
                  <p style=""text-align: center;"">₪64
                                                <br>25%</p>
                  <p id=""wtp"" style=""text-align:center; margin-top: 0px; margin-bottom: 0px; font-size: 40px"";>&ensp;</p>","-","viewing","0","24","6A,21A","","","","","","","","","","","","","","","","","","","",""
"","","","","","html-slider-response","143","327592","0.0-21.0-1.10","841f6a97-c9d3-4c02-86ca-e315512d4768","2303","
                  <p style=""text-align: center;"">₪64
                                                <br>25%</p>
                  <p id=""wtp"" style=""text-align:center; margin-top: 0px; margin-bottom: 0px; font-size: 40px"";>מוכנים לשלם: <span id=""c_p_y""></span></p>","25","evaluation","66","24","6A,21A","25","64","25","","","","","","","","","","","","","","","","",""
"","","","","","html-keyboard-response","144","328243","0.0-21.0-2.10","841f6a97-c9d3-4c02-86ca-e315512d4768","null","<p style=""text-align: center;"">+</p>","null","fixation","","","","","","","","","","","","","","","","","","","","","","",""
"","","","","","html-slider-response","145","329253","0.0-21.0-0.11","841f6a97-c9d3-4c02-86ca-e315512d4768","1000","
                  <p style=""text-align: center;"">₪64
                                                <br>50%</p>
                  <p id=""wtp"" style=""text-align:center; margin-top: 0px; margin-bottom: 0px; font-size: 40px"";>&ensp;</p>","-","viewing","0","25","1B,3B,4A","","","","","","","","","","","","","","","","","","","",""
"","","","","","html-slider-response","146","331208","0.0-21.0-1.11","841f6a97-c9d3-4c02-86ca-e315512d4768","1954","
                  <p style=""text-align: center;"">₪64
                                                <br>50%</p>
                  <p id=""wtp"" style=""text-align:center; margin-top: 0px; margin-bottom: 0px; font-size: 40px"";>מוכנים לשלם: <span id=""c_p_y""></span></p>","48","evaluation","4","25","1B,3B,4A","50","64","48","","","","","","","","","","","","","","","","",""
"","","","","","html-keyboard-response","147","332098","0.0-21.0-2.11","841f6a97-c9d3-4c02-86ca-e315512d4768","null","<p style=""text-align: center;"">+</p>","null","fixation","","","","","","","","","","","","","","","","","","","","","","",""
"","","","","","html-slider-response","148","333106","0.0-21.0-0.12","841f6a97-c9d3-4c02-86ca-e315512d4768","1000","
                  <p style=""text-align: center;"">₪43
                                                <br>60%</p>
                  <p id=""wtp"" style=""text-align:center; margin-top: 0px; margin-bottom: 0px; font-size: 40px"";>&ensp;</p>","-","viewing","0","17","2A,7A,9A,15B","","","","","","","","","","","","","","","","","","","",""
"","","","","","html-slider-response","149","335104","0.0-21.0-1.12","841f6a97-c9d3-4c02-86ca-e315512d4768","1997","
                  <p style=""text-align: center;"">₪43
                                                <br>60%</p>
                  <p id=""wtp"" style=""text-align:center; margin-top: 0px; margin-bottom: 0px; font-size: 40px"";>מוכנים לשלם: <span id=""c_p_y""></span></p>","38","evaluation","5","17","2A,7A,9A,15B","60","43","38","","","","","","","","","","","","","","","","",""
"","","","","","html-keyboard-response","150","336329","0.0-21.0-2.12","841f6a97-c9d3-4c02-86ca-e315512d4768","null","<p style=""text-align: center;"">+</p>","null","fixation","","","","","","","","","","","","","","","","","","","","","","",""
"","","","","","html-slider-response","151","337345","0.0-21.0-0.13","841f6a97-c9d3-4c02-86ca-e315512d4768","1000","
                  <p style=""text-align: center;"">₪11
                                                <br>45%</p>
                  <p id=""wtp"" style=""text-align:center; margin-top: 0px; margin-bottom: 0px; font-size: 40px"";>&ensp;</p>","-","viewing","0","6","14B,21C,25C","","","","","","","","","","","","","","","","","","","",""
"","","","","","html-slider-response","152","338752","0.0-21.0-1.13","841f6a97-c9d3-4c02-86ca-e315512d4768","1406","
                  <p style=""text-align: center;"">₪11
                                                <br>45%</p>
                  <p id=""wtp"" style=""text-align:center; margin-top: 0px; margin-bottom: 0px; font-size: 40px"";>מוכנים לשלם: <span id=""c_p_y""></span></p>","21","evaluation","67","6","14B,21C,25C","45","11","21","","","","","","","","","","","","","","","","",""
"","","","","","html-keyboard-response","153","340186","0.0-21.0-2.13","841f6a97-c9d3-4c02-86ca-e315512d4768","null","<p style=""text-align: center;"">+</p>","null","fixation","","","","","","","","","","","","","","","","","","","","","","",""
"","","","","","html-slider-response","154","341192","0.0-21.0-0.14","841f6a97-c9d3-4c02-86ca-e315512d4768","1000","
                  <p style=""text-align: center;"">₪4
                                                <br>50%</p>
                  <p id=""wtp"" style=""text-align:center; margin-top: 0px; margin-bottom: 0px; font-size: 40px"";>&ensp;</p>","-","viewing","0","2","4C,17B","","","","","","","","","","","","","","","","","","","",""
"","","","","","html-slider-response","155","343103","0.0-21.0-1.14","841f6a97-c9d3-4c02-86ca-e315512d4768","1909","
                  <p style=""text-align: center;"">₪4
                                                <br>50%</p>
                  <p id=""wtp"" style=""text-align:center; margin-top: 0px; margin-bottom: 0px; font-size: 40px"";>מוכנים לשלם: <span id=""c_p_y""></span></p>","27","evaluation","31","2","4C,17B","50","4","27","","","","","","","","","","","","","","","","",""
"","","","","","html-keyboard-response","156","343634","0.0-21.0-2.14","841f6a97-c9d3-4c02-86ca-e315512d4768","null","<p style=""text-align: center;"">+</p>","null","fixation","","","","","","","","","","","","","","","","","","","","","","",""
"","","","","","html-slider-response","157","344636","0.0-21.0-0.15","841f6a97-c9d3-4c02-86ca-e315512d4768","1000","
                  <p style=""text-align: center;"">₪4
                                                <br>25%</p>
                  <p id=""wtp"" style=""text-align:center; margin-top: 0px; margin-bottom: 0px; font-size: 40px"";>&ensp;</p>","-","viewing","0","1","6C,29B,30C","","","","","","","","","","","","","","","","","","","",""
"","","","","","html-slider-response","158","346160","0.0-21.0-1.15","841f6a97-c9d3-4c02-86ca-e315512d4768","1522","
                  <p style=""text-align: center;"">₪4
                                                <br>25%</p>
                  <p id=""wtp"" style=""text-align:center; margin-top: 0px; margin-bottom: 0px; font-size: 40px"";>מוכנים לשלם: <span id=""c_p_y""></span></p>","10","evaluation","2","1","6C,29B,30C","25","4","10","","","","","","","","","","","","","","","","",""
"","","","","","html-keyboard-response","159","347171","0.0-21.0-2.15","841f6a97-c9d3-4c02-86ca-e315512d4768","null","<p style=""text-align: center;"">+</p>","null","fixation","","","","","","","","","","","","","","","","","","","","","","",""
"","","","","","html-slider-response","160","348174","0.0-21.0-0.16","841f6a97-c9d3-4c02-86ca-e315512d4768","1000","
                  <p style=""text-align: center;"">₪11
                                                <br>25%</p>
                  <p id=""wtp"" style=""text-align:center; margin-top: 0px; margin-bottom: 0px; font-size: 40px"";>&ensp;</p>","-","viewing","0","5","12A,27B,28B,30B","","","","","","","","","","","","","","","","","","","",""
"","","","","","html-slider-response","161","350360","0.0-21.0-1.16","841f6a97-c9d3-4c02-86ca-e315512d4768","2184","
                  <p style=""text-align: center;"">₪11
                                                <br>25%</p>
                  <p id=""wtp"" style=""text-align:center; margin-top: 0px; margin-bottom: 0px; font-size: 40px"";>מוכנים לשלם: <span id=""c_p_y""></span></p>","15","evaluation","74","5","12A,27B,28B,30B","25","11","15","","","","","","","","","","","","","","","","",""
"","","","","","html-keyboard-response","162","351032","0.0-21.0-2.16","841f6a97-c9d3-4c02-86ca-e315512d4768","null","<p style=""text-align: center;"">+</p>","null","fixation","","","","","","","","","","","","","","","","","","","","","","",""
"","","","","","html-slider-response","163","352042","0.0-21.0-0.17","841f6a97-c9d3-4c02-86ca-e315512d4768","1000","
                  <p style=""text-align: center;"">₪11
                                                <br>75%</p>
                  <p id=""wtp"" style=""text-align:center; margin-top: 0px; margin-bottom: 0px; font-size: 40px"";>&ensp;</p>","-","viewing","0","7","6B,18B,22C,24C,29A","","","","","","","","","","","","","","","","","","","",""
"","","","","","html-slider-response","164","354423","0.0-21.0-1.17","841f6a97-c9d3-4c02-86ca-e315512d4768","2381","
                  <p style=""text-align: center;"">₪11
                                                <br>75%</p>
                  <p id=""wtp"" style=""text-align:center; margin-top: 0px; margin-bottom: 0px; font-size: 40px"";>מוכנים לשלם: <span id=""c_p_y""></span></p>","60","evaluation","64","7","6B,18B,22C,24C,29A","75","11","60","","","","","","","","","","","","","","","","",""
"","","","","","html-keyboard-response","165","355909","0.0-21.0-2.17","841f6a97-c9d3-4c02-86ca-e315512d4768","null","<p style=""text-align: center;"">+</p>","null","fixation","","","","","","","","","","","","","","","","","","","","","","",""
"","","","","","html-slider-response","166","356915","0.0-21.0-0.18","841f6a97-c9d3-4c02-86ca-e315512d4768","1000","
                  <p style=""text-align: center;"">₪58
                                                <br>45%</p>
                  <p id=""wtp"" style=""text-align:center; margin-top: 0px; margin-bottom: 0px; font-size: 40px"";>&ensp;</p>","-","viewing","0","21","11C,18C,25A","","","","","","","","","","","","","","","","","","","",""
"","","","","","html-slider-response","167","358840","0.0-21.0-1.18","841f6a97-c9d3-4c02-86ca-e315512d4768","1924","
                  <p style=""text-align: center;"">₪58
                                                <br>45%</p>
                  <p id=""wtp"" style=""text-align:center; margin-top: 0px; margin-bottom: 0px; font-size: 40px"";>מוכנים לשלם: <span id=""c_p_y""></span></p>","30","evaluation","7","21","11C,18C,25A","45","58","30","","","","","","","","","","","","","","","","",""
"","","","","","html-keyboard-response","168","359382","0.0-21.0-2.18","841f6a97-c9d3-4c02-86ca-e315512d4768","null","<p style=""text-align: center;"">+</p>","null","fixation","","","","","","","","","","","","","","","","","","","","","","",""
"","","","","","html-slider-response","169","360386","0.0-21.0-0.19","841f6a97-c9d3-4c02-86ca-e315512d4768","1000","
                  <p style=""text-align: center;"">₪18
                                                <br>25%</p>
                  <p id=""wtp"" style=""text-align:center; margin-top: 0px; margin-bottom: 0px; font-size: 40px"";>&ensp;</p>","-","viewing","0","9","14A,23A","","","","","","","","","","","","","","","","","","","",""
"","","","","","html-slider-response","170","363224","0.0-21.0-1.19","841f6a97-c9d3-4c02-86ca-e315512d4768","2837","
                  <p style=""text-align: center;"">₪18
                                                <br>25%</p>
                  <p id=""wtp"" style=""text-align:center; margin-top: 0px; margin-bottom: 0px; font-size: 40px"";>מוכנים לשלם: <span id=""c_p_y""></span></p>","17","evaluation","80","9","14A,23A","25","18","17","","","","","","","","","","","","","","","","",""
"","","","","","html-keyboard-response","171","364708","0.0-21.0-2.19","841f6a97-c9d3-4c02-86ca-e315512d4768","null","<p style=""text-align: center;"">+</p>","null","fixation","","","","","","","","","","","","","","","","","","","","","","",""
"","","","","","html-slider-response","172","365723","0.0-21.0-0.20","841f6a97-c9d3-4c02-86ca-e315512d4768","1000","
                  <p style=""text-align: center;"">₪71
                                                <br>75%</p>
                  <p id=""wtp"" style=""text-align:center; margin-top: 0px; margin-bottom: 0px; font-size: 40px"";>&ensp;</p>","-","viewing","0","28","8B","","","","","","","","","","","","","","","","","","","",""
"","","","","","html-slider-response","173","369616","0.0-21.0-1.20","841f6a97-c9d3-4c02-86ca-e315512d4768","3892","
                  <p style=""text-align: center;"">₪71
                                                <br>75%</p>
                  <p id=""wtp"" style=""text-align:center; margin-top: 0px; margin-bottom: 0px; font-size: 40px"";>מוכנים לשלם: <span id=""c_p_y""></span></p>","65","evaluation","60","28","8B","75","71","65","","","","","","","","","","","","","","","","",""
"","","","","","html-keyboard-response","174","370642","0.0-21.0-2.20","841f6a97-c9d3-4c02-86ca-e315512d4768","null","<p style=""text-align: center;"">+</p>","null","fixation","","","","","","","","","","","","","","","","","","","","","","",""
"","","","","","html-slider-response","175","371656","0.0-21.0-0.21","841f6a97-c9d3-4c02-86ca-e315512d4768","1000","
                  <p style=""text-align: center;"">₪4
                                                <br>75%</p>
                  <p id=""wtp"" style=""text-align:center; margin-top: 0px; margin-bottom: 0px; font-size: 40px"";>&ensp;</p>","-","viewing","0","3","12B,20B,23B,27C,29C","","","","","","","","","","","","","","","","","","","",""
"","","","","","html-slider-response","176","374336","0.0-21.0-1.21","841f6a97-c9d3-4c02-86ca-e315512d4768","2679","
                  <p style=""text-align: center;"">₪4
                                                <br>75%</p>
                  <p id=""wtp"" style=""text-align:center; margin-top: 0px; margin-bottom: 0px; font-size: 40px"";>מוכנים לשלם: <span id=""c_p_y""></span></p>","6","evaluation","18","3","12B,20B,23B,27C,29C","75","4","7","","","","","","","","","","","","","","","","",""
"","","","","","html-keyboard-response","177","374950","0.0-21.0-2.21","841f6a97-c9d3-4c02-86ca-e315512d4768","null","<p style=""text-align: center;"">+</p>","null","fixation","","","","","","","","","","","","","","","","","","","","","","",""
"","","","","","html-slider-response","178","375952","0.0-21.0-0.22","841f6a97-c9d3-4c02-86ca-e315512d4768","1000","
                  <p style=""text-align: center;"">₪16
                                                <br>20%</p>
                  <p id=""wtp"" style=""text-align:center; margin-top: 0px; margin-bottom: 0px; font-size: 40px"";>&ensp;</p>","-","viewing","0","8","14C,17A,20C,27A","","","","","","","","","","","","","","","","","","","",""
"","","","","","html-slider-response","179","378888","0.0-21.0-1.22","841f6a97-c9d3-4c02-86ca-e315512d4768","2936","
                  <p style=""text-align: center;"">₪16
                                                <br>20%</p>
                  <p id=""wtp"" style=""text-align:center; margin-top: 0px; margin-bottom: 0px; font-size: 40px"";>מוכנים לשלם: <span id=""c_p_y""></span></p>","20","evaluation","63","8","14C,17A,20C,27A","20","16","20","","","","","","","","","","","","","","","","",""
"","","","","","html-keyboard-response","180","380170","0.0-21.0-2.22","841f6a97-c9d3-4c02-86ca-e315512d4768","null","<p style=""text-align: center;"">+</p>","null","fixation","","","","","","","","","","","","","","","","","","","","","","",""
"","","","","","html-slider-response","181","381172","0.0-21.0-0.23","841f6a97-c9d3-4c02-86ca-e315512d4768","1000","
                  <p style=""text-align: center;"">₪36
                                                <br>60%</p>
                  <p id=""wtp"" style=""text-align:center; margin-top: 0px; margin-bottom: 0px; font-size: 40px"";>&ensp;</p>","-","viewing","0","12","1C,7C,15C","","","","","","","","","","","","","","","","","","","",""
"","","","","","html-slider-response","182","383712","0.0-21.0-1.23","841f6a97-c9d3-4c02-86ca-e315512d4768","2538","
                  <p style=""text-align: center;"">₪36
                                                <br>60%</p>
                  <p id=""wtp"" style=""text-align:center; margin-top: 0px; margin-bottom: 0px; font-size: 40px"";>מוכנים לשלם: <span id=""c_p_y""></span></p>","30","evaluation","65","12","1C,7C,15C","60","36","30","","","","","","","","","","","","","","","","",""
"","","","","","html-keyboard-response","183","384726","0.0-21.0-2.23","841f6a97-c9d3-4c02-86ca-e315512d4768","null","<p style=""text-align: center;"">+</p>","null","fixation","","","","","","","","","","","","","","","","","","","","","","",""
"","","","","","html-slider-response","184","385738","0.0-21.0-0.24","841f6a97-c9d3-4c02-86ca-e315512d4768","1000","
                  <p style=""text-align: center;"">₪36
                                                <br>75%</p>
                  <p id=""wtp"" style=""text-align:center; margin-top: 0px; margin-bottom: 0px; font-size: 40px"";>&ensp;</p>","-","viewing","0","14","4B,5A,13B,16B","","","","","","","","","","","","","","","","","","","",""
"","","","","","html-slider-response","185","388152","0.0-21.0-1.24","841f6a97-c9d3-4c02-86ca-e315512d4768","2413","
                  <p style=""text-align: center;"">₪36
                                                <br>75%</p>
                  <p id=""wtp"" style=""text-align:center; margin-top: 0px; margin-bottom: 0px; font-size: 40px"";>מוכנים לשלם: <span id=""c_p_y""></span></p>","68","evaluation","27","14","4B,5A,13B,16B","75","36","68","","","","","","","","","","","","","","","","",""
"","","","","","html-keyboard-response","186","388791","0.0-21.0-2.24","841f6a97-c9d3-4c02-86ca-e315512d4768","null","<p style=""text-align: center;"">+</p>","null","fixation","","","","","","","","","","","","","","","","","","","","","","",""
"","","","","","html-slider-response","187","389801","0.0-21.0-0.25","841f6a97-c9d3-4c02-86ca-e315512d4768","1000","
                  <p style=""text-align: center;"">₪58
                                                <br>40%</p>
                  <p id=""wtp"" style=""text-align:center; margin-top: 0px; margin-bottom: 0px; font-size: 40px"";>&ensp;</p>","-","viewing","0","20","10C,13A,19C,21B","","","","","","","","","","","","","","","","","","","",""
"","","","","","html-slider-response","188","392448","0.0-21.0-1.25","841f6a97-c9d3-4c02-86ca-e315512d4768","2646","
                  <p style=""text-align: center;"">₪58
                                                <br>40%</p>
                  <p id=""wtp"" style=""text-align:center; margin-top: 0px; margin-bottom: 0px; font-size: 40px"";>מוכנים לשלם: <span id=""c_p_y""></span></p>","44","evaluation","80","20","10C,13A,19C,21B","40","58","44","","","","","","","","","","","","","","","","",""
"","","","","","html-keyboard-response","189","393827","0.0-21.0-2.25","841f6a97-c9d3-4c02-86ca-e315512d4768","null","<p style=""text-align: center;"">+</p>","null","fixation","","","","","","","","","","","","","","","","","","","","","","",""
"","","","","","html-slider-response","190","394836","0.0-21.0-0.26","841f6a97-c9d3-4c02-86ca-e315512d4768","1000","
                  <p style=""text-align: center;"">₪71
                                                <br>45%</p>
                  <p id=""wtp"" style=""text-align:center; margin-top: 0px; margin-bottom: 0px; font-size: 40px"";>&ensp;</p>","-","viewing","0","26","2B,16A","","","","","","","","","","","","","","","","","","","",""
"","","","","","html-slider-response","191","397464","0.0-21.0-1.26","841f6a97-c9d3-4c02-86ca-e315512d4768","2627","
                  <p style=""text-align: center;"">₪71
                                                <br>45%</p>
                  <p id=""wtp"" style=""text-align:center; margin-top: 0px; margin-bottom: 0px; font-size: 40px"";>מוכנים לשלם: <span id=""c_p_y""></span></p>","29","evaluation","5","26","2B,16A","45","71","29","","","","","","","","","","","","","","","","",""
"","","","","","html-keyboard-response","192","398210","0.0-21.0-2.26","841f6a97-c9d3-4c02-86ca-e315512d4768","null","<p style=""text-align: center;"">+</p>","null","fixation","","","","","","","","","","","","","","","","","","","","","","",""
"","","","","","html-slider-response","193","399220","0.0-21.0-0.27","841f6a97-c9d3-4c02-86ca-e315512d4768","1000","
                  <p style=""text-align: center;"">₪76
                                                <br>65%</p>
                  <p id=""wtp"" style=""text-align:center; margin-top: 0px; margin-bottom: 0px; font-size: 40px"";>&ensp;</p>","-","viewing","0","29","8C,19A,24B","","","","","","","","","","","","","","","","","","","",""
"","","","","","html-slider-response","194","400744","0.0-21.0-1.27","841f6a97-c9d3-4c02-86ca-e315512d4768","1523","
                  <p style=""text-align: center;"">₪76
                                                <br>65%</p>
                  <p id=""wtp"" style=""text-align:center; margin-top: 0px; margin-bottom: 0px; font-size: 40px"";>מוכנים לשלם: <span id=""c_p_y""></span></p>","48","evaluation","47","29","8C,19A,24B","65","76","48","","","","","","","","","","","","","","","","",""
"","","","","","html-keyboard-response","195","401420","0.0-21.0-2.27","841f6a97-c9d3-4c02-86ca-e315512d4768","null","<p style=""text-align: center;"">+</p>","null","fixation","","","","","","","","","","","","","","","","","","","","","","",""
"","","","","","html-slider-response","196","402427","0.0-21.0-0.28","841f6a97-c9d3-4c02-86ca-e315512d4768","1000","
                  <p style=""text-align: center;"">₪71
                                                <br>55%</p>
                  <p id=""wtp"" style=""text-align:center; margin-top: 0px; margin-bottom: 0px; font-size: 40px"";>&ensp;</p>","-","viewing","0","27","5B,18A","","","","","","","","","","","","","","","","","","","",""
"","","","","","html-slider-response","197","404496","0.0-21.0-1.28","841f6a97-c9d3-4c02-86ca-e315512d4768","2067","
                  <p style=""text-align: center;"">₪71
                                                <br>55%</p>
                  <p id=""wtp"" style=""text-align:center; margin-top: 0px; margin-bottom: 0px; font-size: 40px"";>מוכנים לשלם: <span id=""c_p_y""></span></p>","42","evaluation","14","27","5B,18A","55","71","42","","","","","","","","","","","","","","","","",""
"","","","","","html-keyboard-response","198","405607","0.0-21.0-2.28","841f6a97-c9d3-4c02-86ca-e315512d4768","null","<p style=""text-align: center;"">+</p>","null","fixation","","","","","","","","","","","","","","","","","","","","","","",""
"","","","","","html-slider-response","199","406613","0.0-21.0-0.29","841f6a97-c9d3-4c02-86ca-e315512d4768","1000","
                  <p style=""text-align: center;"">₪79
                                                <br>40%</p>
                  <p id=""wtp"" style=""text-align:center; margin-top: 0px; margin-bottom: 0px; font-size: 40px"";>&ensp;</p>","-","viewing","0","30","9B","","","","","","","","","","","","","","","","","","","",""
"","","","","","html-slider-response","200","408392","0.0-21.0-1.29","841f6a97-c9d3-4c02-86ca-e315512d4768","1777","
                  <p style=""text-align: center;"">₪79
                                                <br>40%</p>
                  <p id=""wtp"" style=""text-align:center; margin-top: 0px; margin-bottom: 0px; font-size: 40px"";>מוכנים לשלם: <span id=""c_p_y""></span></p>","30","evaluation","12","30","9B","40","79","30","","","","","","","","","","","","","","","","",""
"","","","","","html-keyboard-response","201","408916","0.0-21.0-2.29","841f6a97-c9d3-4c02-86ca-e315512d4768","null","<p style=""text-align: center;"">+</p>","null","fixation","","","","","","","","","","","","","","","","","","","","","","",""
"","","","","","html-slider-response","202","409931","0.0-21.0-0.30","841f6a97-c9d3-4c02-86ca-e315512d4768","1000","
                  <p style=""text-align: center;"">₪11
                                                <br>20%</p>
                  <p id=""wtp"" style=""text-align:center; margin-top: 0px; margin-bottom: 0px; font-size: 40px"";>&ensp;</p>","-","viewing","0","4","12C,17C,23C,28C","","","","","","","","","","","","","","","","","","","",""
"","","","","","html-slider-response","203","411432","0.0-21.0-1.30","841f6a97-c9d3-4c02-86ca-e315512d4768","1500","
                  <p style=""text-align: center;"">₪11
                                                <br>20%</p>
                  <p id=""wtp"" style=""text-align:center; margin-top: 0px; margin-bottom: 0px; font-size: 40px"";>מוכנים לשלם: <span id=""c_p_y""></span></p>","11","evaluation","10","4","12C,17C,23C,28C","20","11","11","","","","","","","","","","","","","","","","",""
"","","","","","html-keyboard-response","204","412828","0.0-21.0-2.30","841f6a97-c9d3-4c02-86ca-e315512d4768","null","<p style=""text-align: center;"">+</p>","null","fixation","","","","","","","","","","","","","","","","","","","","","","",""
"","","","","","html-keyboard-response","205","413838","0.0-22.0","841f6a97-c9d3-4c02-86ca-e315512d4768","null","<p style=""text-align: center;"">+</p>","null","fixation","","","","","","","","","","","","","","","","","","","","","","",""
"","","","","","html-keyboard-response","206","420607","0.0-23.0","841f6a97-c9d3-4c02-86ca-e315512d4768","null","<p>הפסקה.
          <br>לחצו כדי להמשיך.</p>","1","scan_wait","","","","","","","","","","","","","","","","","","","","","","",""
"","","","","","html-keyboard-response","207","421613","0.0-24.0","841f6a97-c9d3-4c02-86ca-e315512d4768","null","<p style=""text-align: center;"">+</p>","null","fixation","","","","","","","","","","","","","","","","","","","","","","",""
"","","","","","html-slider-response","208","422615","0.0-25.0-0.0","841f6a97-c9d3-4c02-86ca-e315512d4768","1000","
                  <p style=""text-align: center;"">₪43
                                                <br>60%</p>
                  <p id=""wtp"" style=""text-align:center; margin-top: 0px; margin-bottom: 0px; font-size: 40px"";>&ensp;</p>","-","viewing","0","17","2A,7A,9A,15B","","","","","","","","","","","","","","","","","","","",""
"","","","","","html-slider-response","209","424416","0.0-25.0-1.0","841f6a97-c9d3-4c02-86ca-e315512d4768","1800","
                  <p style=""text-align: center;"">₪43
                                                <br>60%</p>
                  <p id=""wtp"" style=""text-align:center; margin-top: 0px; margin-bottom: 0px; font-size: 40px"";>מוכנים לשלם: <span id=""c_p_y""></span></p>","46","evaluation","63","17","2A,7A,9A,15B","60","43","46","","","","","","","","","","","","","","","","",""
"","","","","","html-keyboard-response","210","424933","0.0-25.0-2.0","841f6a97-c9d3-4c02-86ca-e315512d4768","null","<p style=""text-align: center;"">+</p>","null","fixation","","","","","","","","","","","","","","","","","","","","","","",""
"","","","","","html-slider-response","211","425934","0.0-25.0-0.1","841f6a97-c9d3-4c02-86ca-e315512d4768","1000","
                  <p style=""text-align: center;"">₪71
                                                <br>45%</p>
                  <p id=""wtp"" style=""text-align:center; margin-top: 0px; margin-bottom: 0px; font-size: 40px"";>&ensp;</p>","-","viewing","0","26","2B,16A","","","","","","","","","","","","","","","","","","","",""
"","","","","","html-slider-response","212","428247","0.0-25.0-1.1","841f6a97-c9d3-4c02-86ca-e315512d4768","2313","
                  <p style=""text-align: center;"">₪71
                                                <br>45%</p>
                  <p id=""wtp"" style=""text-align:center; margin-top: 0px; margin-bottom: 0px; font-size: 40px"";>מוכנים לשלם: <span id=""c_p_y""></span></p>","48","evaluation","1","26","2B,16A","45","71","48","","","","","","","","","","","","","","","","",""
"","","","","","html-keyboard-response","213","429253","0.0-25.0-2.1","841f6a97-c9d3-4c02-86ca-e315512d4768","null","<p style=""text-align: center;"">+</p>","null","fixation","","","","","","","","","","","","","","","","","","","","","","",""
"","","","","","html-slider-response","214","430271","0.0-25.0-0.2","841f6a97-c9d3-4c02-86ca-e315512d4768","1000","
                  <p style=""text-align: center;"">₪71
                                                <br>75%</p>
                  <p id=""wtp"" style=""text-align:center; margin-top: 0px; margin-bottom: 0px; font-size: 40px"";>&ensp;</p>","-","viewing","0","28","8B","","","","","","","","","","","","","","","","","","","",""
"","","","","","html-slider-response","215","431839","0.0-25.0-1.2","841f6a97-c9d3-4c02-86ca-e315512d4768","1568","
                  <p style=""text-align: center;"">₪71
                                                <br>75%</p>
                  <p id=""wtp"" style=""text-align:center; margin-top: 0px; margin-bottom: 0px; font-size: 40px"";>מוכנים לשלם: <span id=""c_p_y""></span></p>","75","evaluation","61","28","8B","75","71","75","","","","","","","","","","","","","","","","",""
"","","","","","html-keyboard-response","216","432451","0.0-25.0-2.2","841f6a97-c9d3-4c02-86ca-e315512d4768","null","<p style=""text-align: center;"">+</p>","null","fixation","","","","","","","","","","","","","","","","","","","","","","",""
"","","","","","html-slider-response","217","433459","0.0-25.0-0.3","841f6a97-c9d3-4c02-86ca-e315512d4768","1000","
                  <p style=""text-align: center;"">₪36
                                                <br>30%</p>
                  <p id=""wtp"" style=""text-align:center; margin-top: 0px; margin-bottom: 0px; font-size: 40px"";>&ensp;</p>","-","viewing","0","11","3C,20A,22A","","","","","","","","","","","","","","","","","","","",""
"","","","","","html-slider-response","218","435575","0.0-25.0-1.3","841f6a97-c9d3-4c02-86ca-e315512d4768","2116","
                  <p style=""text-align: center;"">₪36
                                                <br>30%</p>
                  <p id=""wtp"" style=""text-align:center; margin-top: 0px; margin-bottom: 0px; font-size: 40px"";>מוכנים לשלם: <span id=""c_p_y""></span></p>","24","evaluation","50","11","3C,20A,22A","30","36","24","","","","","","","","","","","","","","","","",""
"","","","","","html-keyboard-response","219","436094","0.0-25.0-2.3","841f6a97-c9d3-4c02-86ca-e315512d4768","null","<p style=""text-align: center;"">+</p>","null","fixation","","","","","","","","","","","","","","","","","","","","","","",""
"","","","","","html-slider-response","220","437097","0.0-25.0-0.4","841f6a97-c9d3-4c02-86ca-e315512d4768","1000","
                  <p style=""text-align: center;"">₪4
                                                <br>25%</p>
                  <p id=""wtp"" style=""text-align:center; margin-top: 0px; margin-bottom: 0px; font-size: 40px"";>&ensp;</p>","-","viewing","0","1","6C,29B,30C","","","","","","","","","","","","","","","","","","","",""
"","","","","","html-slider-response","221","438031","0.0-25.0-1.4","841f6a97-c9d3-4c02-86ca-e315512d4768","934","
                  <p style=""text-align: center;"">₪4
                                                <br>25%</p>
                  <p id=""wtp"" style=""text-align:center; margin-top: 0px; margin-bottom: 0px; font-size: 40px"";>מוכנים לשלם: <span id=""c_p_y""></span></p>","10","evaluation","37","1","6C,29B,30C","25","4","11","","","","","","","","","","","","","","","","",""
"","","","","","html-keyboard-response","222","439372","0.0-25.0-2.4","841f6a97-c9d3-4c02-86ca-e315512d4768","null","<p style=""text-align: center;"">+</p>","null","fixation","","","","","","","","","","","","","","","","","","","","","","",""
"","","","","","html-slider-response","223","440388","0.0-25.0-0.5","841f6a97-c9d3-4c02-86ca-e315512d4768","1000","
                  <p style=""text-align: center;"">₪64
                                                <br>50%</p>
                  <p id=""wtp"" style=""text-align:center; margin-top: 0px; margin-bottom: 0px; font-size: 40px"";>&ensp;</p>","-","viewing","0","25","1B,3B,4A","","","","","","","","","","","","","","","","","","","",""
"","","","","","html-slider-response","224","442015","0.0-25.0-1.5","841f6a97-c9d3-4c02-86ca-e315512d4768","1626","
                  <p style=""text-align: center;"">₪64
                                                <br>50%</p>
                  <p id=""wtp"" style=""text-align:center; margin-top: 0px; margin-bottom: 0px; font-size: 40px"";>מוכנים לשלם: <span id=""c_p_y""></span></p>","39","evaluation","62","25","1B,3B,4A","50","64","39","","","","","","","","","","","","","","","","",""
"","","","","","html-keyboard-response","225","442737","0.0-25.0-2.5","841f6a97-c9d3-4c02-86ca-e315512d4768","null","<p style=""text-align: center;"">+</p>","null","fixation","","","","","","","","","","","","","","","","","","","","","","",""
"","","","","","html-slider-response","226","443744","0.0-25.0-0.6","841f6a97-c9d3-4c02-86ca-e315512d4768","1000","
                  <p style=""text-align: center;"">₪4
                                                <br>50%</p>
                  <p id=""wtp"" style=""text-align:center; margin-top: 0px; margin-bottom: 0px; font-size: 40px"";>&ensp;</p>","-","viewing","0","2","4C,17B","","","","","","","","","","","","","","","","","","","",""
"","","","","","html-slider-response","227","445639","0.0-25.0-1.6","841f6a97-c9d3-4c02-86ca-e315512d4768","1894","
                  <p style=""text-align: center;"">₪4
                                                <br>50%</p>
                  <p id=""wtp"" style=""text-align:center; margin-top: 0px; margin-bottom: 0px; font-size: 40px"";>מוכנים לשלם: <span id=""c_p_y""></span></p>","29","evaluation","67","2","4C,17B","50","4","29","","","","","","","","","","","","","","","","",""
"","","","","","html-keyboard-response","228","446935","0.0-25.0-2.6","841f6a97-c9d3-4c02-86ca-e315512d4768","null","<p style=""text-align: center;"">+</p>","null","fixation","","","","","","","","","","","","","","","","","","","","","","",""
"","","","","","html-slider-response","229","447939","0.0-25.0-0.7","841f6a97-c9d3-4c02-86ca-e315512d4768","1000","
                  <p style=""text-align: center;"">₪39
                                                <br>65%</p>
                  <p id=""wtp"" style=""text-align:center; margin-top: 0px; margin-bottom: 0px; font-size: 40px"";>&ensp;</p>","-","viewing","0","16","1A,15A,26C","","","","","","","","","","","","","","","","","","","",""
"","","","","","html-slider-response","230","448935","0.0-25.0-1.7","841f6a97-c9d3-4c02-86ca-e315512d4768","995","
                  <p style=""text-align: center;"">₪39
                                                <br>65%</p>
                  <p id=""wtp"" style=""text-align:center; margin-top: 0px; margin-bottom: 0px; font-size: 40px"";>מוכנים לשלם: <span id=""c_p_y""></span></p>","55","evaluation","76","16","1A,15A,26C","65","39","55","","","","","","","","","","","","","","","","",""
"","","","","","html-keyboard-response","231","450143","0.0-25.0-2.7","841f6a97-c9d3-4c02-86ca-e315512d4768","null","<p style=""text-align: center;"">+</p>","null","fixation","","","","","","","","","","","","","","","","","","","","","","",""
"","","","","","html-slider-response","232","451158","0.0-25.0-0.8","841f6a97-c9d3-4c02-86ca-e315512d4768","1000","
                  <p style=""text-align: center;"">₪71
                                                <br>55%</p>
                  <p id=""wtp"" style=""text-align:center; margin-top: 0px; margin-bottom: 0px; font-size: 40px"";>&ensp;</p>","-","viewing","0","27","5B,18A","","","","","","","","","","","","","","","","","","","",""
"","","","","","html-slider-response","233","452543","0.0-25.0-1.8","841f6a97-c9d3-4c02-86ca-e315512d4768","1385","
                  <p style=""text-align: center;"">₪71
                                                <br>55%</p>
                  <p id=""wtp"" style=""text-align:center; margin-top: 0px; margin-bottom: 0px; font-size: 40px"";>מוכנים לשלם: <span id=""c_p_y""></span></p>","44","evaluation","38","27","5B,18A","55","71","44","","","","","","","","","","","","","","","","",""
"","","","","","html-keyboard-response","234","453889","0.0-25.0-2.8","841f6a97-c9d3-4c02-86ca-e315512d4768","null","<p style=""text-align: center;"">+</p>","null","fixation","","","","","","","","","","","","","","","","","","","","","","",""
"","","","","","html-slider-response","235","454896","0.0-25.0-0.9","841f6a97-c9d3-4c02-86ca-e315512d4768","1000","
                  <p style=""text-align: center;"">₪76
                                                <br>65%</p>
                  <p id=""wtp"" style=""text-align:center; margin-top: 0px; margin-bottom: 0px; font-size: 40px"";>&ensp;</p>","-","viewing","0","29","8C,19A,24B","","","","","","","","","","","","","","","","","","","",""
"","","","","","html-slider-response","236","455903","0.0-25.0-1.9","841f6a97-c9d3-4c02-86ca-e315512d4768","1006","
                  <p style=""text-align: center;"">₪76
                                                <br>65%</p>
                  <p id=""wtp"" style=""text-align:center; margin-top: 0px; margin-bottom: 0px; font-size: 40px"";>מוכנים לשלם: <span id=""c_p_y""></span></p>","60","evaluation","1","29","8C,19A,24B","65","76","60","","","","","","","","","","","","","","","","",""
"","","","","","html-keyboard-response","237","456680","0.0-25.0-2.9","841f6a97-c9d3-4c02-86ca-e315512d4768","null","<p style=""text-align: center;"">+</p>","null","fixation","","","","","","","","","","","","","","","","","","","","","","",""
"","","","","","html-slider-response","238","457682","0.0-25.0-0.10","841f6a97-c9d3-4c02-86ca-e315512d4768","1000","
                  <p style=""text-align: center;"">₪61
                                                <br>55%</p>
                  <p id=""wtp"" style=""text-align:center; margin-top: 0px; margin-bottom: 0px; font-size: 40px"";>&ensp;</p>","-","viewing","0","23","7B,26B","","","","","","","","","","","","","","","","","","","",""
"","","","","","html-slider-response","239","459119","0.0-25.0-1.10","841f6a97-c9d3-4c02-86ca-e315512d4768","1436","
                  <p style=""text-align: center;"">₪61
                                                <br>55%</p>
                  <p id=""wtp"" style=""text-align:center; margin-top: 0px; margin-bottom: 0px; font-size: 40px"";>מוכנים לשלם: <span id=""c_p_y""></span></p>","46","evaluation","36","23","7B,26B","55","61","46","","","","","","","","","","","","","","","","",""
"","","","","","html-keyboard-response","240","459650","0.0-25.0-2.10","841f6a97-c9d3-4c02-86ca-e315512d4768","null","<p style=""text-align: center;"">+</p>","null","fixation","","","","","","","","","","","","","","","","","","","","","","",""
"","","","","","html-slider-response","241","460652","0.0-25.0-0.11","841f6a97-c9d3-4c02-86ca-e315512d4768","1000","
                  <p style=""text-align: center;"">₪36
                                                <br>70%</p>
                  <p id=""wtp"" style=""text-align:center; margin-top: 0px; margin-bottom: 0px; font-size: 40px"";>&ensp;</p>","-","viewing","0","13","3A,5C,10B","","","","","","","","","","","","","","","","","","","",""
"","","","","","html-slider-response","242","462231","0.0-25.0-1.11","841f6a97-c9d3-4c02-86ca-e315512d4768","1578","
                  <p style=""text-align: center;"">₪36
                                                <br>70%</p>
                  <p id=""wtp"" style=""text-align:center; margin-top: 0px; margin-bottom: 0px; font-size: 40px"";>מוכנים לשלם: <span id=""c_p_y""></span></p>","72","evaluation","32","13","3A,5C,10B","70","36","72","","","","","","","","","","","","","","","","",""
"","","","","","html-keyboard-response","243","462761","0.0-25.0-2.11","841f6a97-c9d3-4c02-86ca-e315512d4768","null","<p style=""text-align: center;"">+</p>","null","fixation","","","","","","","","","","","","","","","","","","","","","","",""
"","","","","","html-slider-response","244","463763","0.0-25.0-0.12","841f6a97-c9d3-4c02-86ca-e315512d4768","1000","
                  <p style=""text-align: center;"">₪4
                                                <br>75%</p>
                  <p id=""wtp"" style=""text-align:center; margin-top: 0px; margin-bottom: 0px; font-size: 40px"";>&ensp;</p>","-","viewing","0","3","12B,20B,23B,27C,29C","","","","","","","","","","","","","","","","","","","",""
"","","","","","html-slider-response","245","466023","0.0-25.0-1.12","841f6a97-c9d3-4c02-86ca-e315512d4768","2259","
                  <p style=""text-align: center;"">₪4
                                                <br>75%</p>
                  <p id=""wtp"" style=""text-align:center; margin-top: 0px; margin-bottom: 0px; font-size: 40px"";>מוכנים לשלם: <span id=""c_p_y""></span></p>","50","evaluation","4","3","12B,20B,23B,27C,29C","75","4","50","","","","","","","","","","","","","","","","",""
"","","","","","html-keyboard-response","246","467181","0.0-25.0-2.12","841f6a97-c9d3-4c02-86ca-e315512d4768","null","<p style=""text-align: center;"">+</p>","null","fixation","","","","","","","","","","","","","","","","","","","","","","",""
"","","","","","html-slider-response","247","468190","0.0-25.0-0.13","841f6a97-c9d3-4c02-86ca-e315512d4768","1000","
                  <p style=""text-align: center;"">₪18
                                                <br>50%</p>
                  <p id=""wtp"" style=""text-align:center; margin-top: 0px; margin-bottom: 0px; font-size: 40px"";>&ensp;</p>","-","viewing","0","10","2C,16C,22B,28A","","","","","","","","","","","","","","","","","","","",""
"","","","","","html-slider-response","248","469599","0.0-25.0-1.13","841f6a97-c9d3-4c02-86ca-e315512d4768","1409","
                  <p style=""text-align: center;"">₪18
                                                <br>50%</p>
                  <p id=""wtp"" style=""text-align:center; margin-top: 0px; margin-bottom: 0px; font-size: 40px"";>מוכנים לשלם: <span id=""c_p_y""></span></p>","8","evaluation","57","10","2C,16C,22B,28A","50","18","8","","","","","","","","","","","","","","","","",""
