"success","timeout","failed_images","failed_audio","failed_video","trial_type","trial_index","time_elapsed","internal_node_id","subject_id","rt","stimulus","response","part","slider_start","ID","set_ID","prob","amount","last_location","actual_choice","actual_EV","binary_id","trinary_id","catch","A_key","D_key","choice_prob","choice_amount","chosen_part","potential_prize_prob","potential_prize_amount","won_prize","total_prize","prize_cost","remaining_budget","accuracy"
"true","false","[]","[]","[]","preload","0","17","0.0-0.0","ded44fbb-aae9-4fec-bc39-d4ac87c2aaee","","","","","","","","","","","","","","","","","","","","","","","","","","",""
"","","","","","html-keyboard-response","1","906357","0.0-1.0","ded44fbb-aae9-4fec-bc39-d4ac87c2aaee","null","
          <h1>שלום וברוכים הבאים!</h1>
          <p>לפניכם ניסוי בקבלת החלטות עם שני חלקים.
          <br><br>לחצו על העכבר כדי להמשיך.</p>","0","example","","","","","","","","","","","","","","","","","","","","","","",""
"","","","","","html-keyboard-response","2","911444","0.0-2.0","ded44fbb-aae9-4fec-bc39-d4ac87c2aaee","null","
        <h1>חלק 1</h1>
        <p>בקרוב יוצגו בפניכם הגרלות.
        <br>עליכם לבחור את המחיר המירבי שתהיו מוכנים לשלם כדי להשתתף בהגרלה שתוצג.
        <br>יש לכם תקציב של ₪80 לכל הגרלה. 
        <br>נסו להעריך כל הגרלה בנפרד ולחשוב כמה היא שווה עבורכם, ₪80 זמינים לכל הגרלה בנפרד.
        <br><br>לחצו על העכבר כדי להמשיך.</p>","1","instructions","","","","","","","","","","","","","","","","","","","","","","",""
"","","","","","html-keyboard-response","3","913804","0.0-3.0","ded44fbb-aae9-4fec-bc39-d4ac87c2aaee","null","
        <p>בסוף הניסוי, המחשב יבחר את אחת ההגרלות ויקבע מחיר לכרטיס עבורה. 
        <br>במידה והמחיר שבחרתם נמוך מהמחיר שנבחר על ידי המחשב, לא תשתתפו בהגרלה ותשארו עם מלוא התקציב.
        <br>במידה והמחיר שבחרתם גבוה מהמחיר שנבחר על ידי המחשב, תשלמו את המחיר שנקבע ותשתתפו בהגרלה.
        <br><br>לחצו על העכבר כדי להמשיך.</p>","1","instructions","","","","","","","","","","","","","","","","","","","","","","",""
"","","","","","html-slider-response","4","922581","0.0-4.0","ded44fbb-aae9-4fec-bc39-d4ac87c2aaee","8666","
        <p style=""font-size: 42px;"">נתחיל עם דוגמא: 
        <br>ההגרלה מטה מציעה 65% סיכוי לזכות ב-₪40 
        <br>&emsp;&emsp;&emsp;&emsp;&emsp;&emsp;&emsp;&emsp;&ensp;35% סיכוי לזכות ב-₪0.
        <br><br>מה המחיר המירבי שתהיו מוכנים לשלם על כרטיס להגרלה זו בין 0 ל-₪80?
        <br>הזיזו את העכבר על פני המלבן ולחצו כדי לבצע בחירה.</p>
        
        <p style=""text-align: center;"">₪40<br>65%</p>

        <p id=""wtp"" style=""text-align:center; margin-top: 0px; margin-bottom: 0px; font-size: 40px"";>מוכנים לשלם: <span id=""c_p_y""></span></p>","16","example","46","","","","","","","","","","","","","","","","","","","","","",""
"","","","","","html-keyboard-response","5","929780","0.0-5.0","ded44fbb-aae9-4fec-bc39-d4ac87c2aaee","null","<p>יפה מאוד!
                <br> בחרתם שתהיו מוכנים לשלם ₪16 כדי להשתתף בהגרלה:
                <br><p style=""text-align: center;"">₪40<br>65%</p>
                <p>נשמע נכון?
                <br>נניח שהגרלה זו נבחרה בסוף הניסוי.
                <br>כעת המחשב יקבע מחיר עבורה באקראי.
                <br>לחצו על העכבר להמשך.</p>","1","example","","","","","","","","","","","","","","","","","","","","","","",""
"","","","","","html-keyboard-response","6","936764","0.0-6.0","ded44fbb-aae9-4fec-bc39-d4ac87c2aaee","null","<p>המחשב קבע מחיר: ₪46
                <br>ואתם בחרתם לשלם לכל היותר: ₪16
                <br><br>מכיוון שהמחיר שבחרתם נמוך מהמחיר שנקבע, לא תתשתתפו בהגרלה.
                <br>במקרה כזה, בסוף הניסוי תקבלו את כל התקציב ההתחלתי של ₪80.
                <br><br>לחצו על העכבר להמשך.</p>","1","example","","","","","","","","","","","","","","","","","","","","","","",""
"","","","","","html-slider-response","7","941284","0.0-7.0","ded44fbb-aae9-4fec-bc39-d4ac87c2aaee","4260","<p style=""font-size: 42px;"">הנה עוד דוגמא:
                <br>ההגרלה מטה מציעה 35% סיכוי לזכות ב-₪18 
                <br>&emsp;&emsp;&emsp;&emsp;&emsp;&emsp;&emsp;&emsp;&ensp;65% סיכוי לזכות ב-₪0.</p>
        
                <p style=""text-align: center;"">₪18<br>35%</p>
                <p id=""wtp"" style=""text-align:center; margin-top: 0px; margin-bottom: 0px; font-size: 40px"";>מוכנים לשלם: <span id=""c_p_y""></span></p>","3","example","18","","","","","","","","","","","","","","","","","","","","","",""
"","","","","","html-keyboard-response","8","943628","0.0-8.0","ded44fbb-aae9-4fec-bc39-d4ac87c2aaee","null","<p>הייתם מוכנים לשלם  ₪3 כדי להשתתף בהגרלה:
                <p style=""text-align: center;"">₪18<br>35%</p>
                <p>כעת נניח שהמחשב בחר את ההגרלה הזו בסוף הניסוי, וקבע עבורה מחיר.
                <br><br>לחצו על העכבר כדי להמשיך.</p>","1","instructions","","","","","","","","","","","","","","","","","","","","","","",""
"","","","","","html-keyboard-response","9","951316","0.0-9.0","ded44fbb-aae9-4fec-bc39-d4ac87c2aaee","null","<p>המחשב קבע מחיר להגרלה: ₪3
                <br>ואתם בחרתם לשלם לכל היותר: ₪3
                <br><br>כעת המחיר שנקבע זהה לזה שבחרתם, אז תשלמו את המחיר שקבע המחשב (₪3) ותשתתפו בהגרלה.
                <br>במקרה כזה, תסיימו את הניסוי עם תקציב של ₪77 ועם סיכוי לזכות ב-₪18 נוספים מההגרלה.
                <br>כלומר, תוכלו לקבל ₪77 אם לא תזכו בהגרלה, או ₪95 אם תזכו בהגרלה.
                <br><br>לחצו על העכבר להמשך.</p>","1","example","","","","","","","","","","","","","","","","","","","","","","",""
"","","","","","html-keyboard-response","10","957076","0.0-10.0","ded44fbb-aae9-4fec-bc39-d4ac87c2aaee","null","<p>במהלך הניסוי, קודם תראו את ההגרלה ורק לאחר מכן תוכלו לבחור.
                <p>כמו כן, יהיו לכם מספר שניות מוגבל להגיב.
                <p>בואו ננסה זאת עם ההגרלה הקודמת.
                <br>לחצו על העכבר כדי להמשיך.</p>","1","instructions","","","","","","","","","","","","","","","","","","","","","","",""
"","","","","","html-slider-response","11","958334","0.0-11.0","ded44fbb-aae9-4fec-bc39-d4ac87c2aaee","1000","
                    <p style=""text-align: center;"">₪18<br>35%</p>
                    <p id=""wtp"" style=""text-align:center; margin-top: 0px; margin-bottom: 0px; font-size: 40px"";>&ensp;</p>","39","instructions","0","","","","","","","","","","","","","","","","","","","","","",""
"","","","","","html-slider-response","12","960820","0.0-12.0","ded44fbb-aae9-4fec-bc39-d4ac87c2aaee","2230","
                    <p style=""text-align: center;"">₪18<br>35%</p>
                    <p id=""wtp"" style=""text-align:center; margin-top: 0px; margin-bottom: 0px; font-size: 40px"";>מוכנים לשלם: <span id=""c_p_y""></span></p>","3","instructions","64","","","","","","","","","","","","","","","","","","","","","",""
"","","","","","html-keyboard-response","13","962644","0.0-13.0","ded44fbb-aae9-4fec-bc39-d4ac87c2aaee","null","<p>יפה. הפעם בחרתם לשלם לכל היותר ₪3.
                <br><br>לחצו על העכבר כדי להמשיך.</p>","1","instructions","","","","","","","","","","","","","","","","","","","","","","",""
"","","","","","html-keyboard-response","14","967356","0.0-15.0","ded44fbb-aae9-4fec-bc39-d4ac87c2aaee","null","<p>כעת נתחיל את הניסוי.
                <br><br>אתם תראו הגרלות ותתבקשו לבחור כמה תהיו מוכנים לשלם כדי להשתתף בהן.
                <br>יש לכם תקציב של ₪80 עבור כל הגרלה.
                <br>בסוף הניסוי הגרלה אחת תבחר באקראי ותשוחק.
                <br><br>לחצו על העכבר כדי להתחיל את הניסוי.</p>","1","instructions","","","","","","","","","","","","","","","","","","","","","","",""
"","","","","","html-keyboard-response","15","968632","0.0-16.0","ded44fbb-aae9-4fec-bc39-d4ac87c2aaee","null","<p style=""text-align: center;"">+</p>","null","fixation","","","","","","","","","","","","","","","","","","","","","","",""
"","","","","","html-slider-response","16","969634","0.0-17.0-0.0","ded44fbb-aae9-4fec-bc39-d4ac87c2aaee","1000","
                  <p style=""text-align: center;"">₪18
                                                <br>50%</p>
                  <p id=""wtp"" style=""text-align:center; margin-top: 0px; margin-bottom: 0px; font-size: 40px"";>&ensp;</p>","-","viewing","0","10","2C,16C,22B,28A","","","","","","","","","","","","","","","","","","","",""
"","","","","","html-slider-response","17","972077","0.0-17.0-1.0","ded44fbb-aae9-4fec-bc39-d4ac87c2aaee","2442","
                  <p style=""text-align: center;"">₪18
                                                <br>50%</p>
                  <p id=""wtp"" style=""text-align:center; margin-top: 0px; margin-bottom: 0px; font-size: 40px"";>מוכנים לשלם: <span id=""c_p_y""></span></p>","7","evaluation","3","10","2C,16C,22B,28A","50","18","8","","","","","","","","","","","","","","","","",""
"","","","","","html-keyboard-response","18","972585","0.0-17.0-2.0","ded44fbb-aae9-4fec-bc39-d4ac87c2aaee","null","<p style=""text-align: center;"">+</p>","null","fixation","","","","","","","","","","","","","","","","","","","","","","",""
"","","","","","html-slider-response","19","973590","0.0-17.0-0.1","ded44fbb-aae9-4fec-bc39-d4ac87c2aaee","1000","
                  <p style=""text-align: center;"">₪58
                                                <br>40%</p>
                  <p id=""wtp"" style=""text-align:center; margin-top: 0px; margin-bottom: 0px; font-size: 40px"";>&ensp;</p>","-","viewing","0","20","10C,13A,19C,21B","","","","","","","","","","","","","","","","","","","",""
"","","","","","html-slider-response","20","976332","0.0-17.0-1.1","ded44fbb-aae9-4fec-bc39-d4ac87c2aaee","2741","
                  <p style=""text-align: center;"">₪58
                                                <br>40%</p>
                  <p id=""wtp"" style=""text-align:center; margin-top: 0px; margin-bottom: 0px; font-size: 40px"";>מוכנים לשלם: <span id=""c_p_y""></span></p>","6","evaluation","40","20","10C,13A,19C,21B","40","58","6","","","","","","","","","","","","","","","","",""
"","","","","","html-keyboard-response","21","977275","0.0-17.0-2.1","ded44fbb-aae9-4fec-bc39-d4ac87c2aaee","null","<p style=""text-align: center;"">+</p>","null","fixation","","","","","","","","","","","","","","","","","","","","","","",""
"","","","","","html-slider-response","22","978280","0.0-17.0-0.2","ded44fbb-aae9-4fec-bc39-d4ac87c2aaee","1000","
                  <p style=""text-align: center;"">₪18
                                                <br>25%</p>
                  <p id=""wtp"" style=""text-align:center; margin-top: 0px; margin-bottom: 0px; font-size: 40px"";>&ensp;</p>","-","viewing","0","9","14A,23A","","","","","","","","","","","","","","","","","","","",""
"","","","","","html-slider-response","23","981109","0.0-17.0-1.2","ded44fbb-aae9-4fec-bc39-d4ac87c2aaee","2828","
                  <p style=""text-align: center;"">₪18
                                                <br>25%</p>
                  <p id=""wtp"" style=""text-align:center; margin-top: 0px; margin-bottom: 0px; font-size: 40px"";>מוכנים לשלם: <span id=""c_p_y""></span></p>","1","evaluation","32","9","14A,23A","25","18","1","","","","","","","","","","","","","","","","",""
"","","","","","html-keyboard-response","24","982134","0.0-17.0-2.2","ded44fbb-aae9-4fec-bc39-d4ac87c2aaee","null","<p style=""text-align: center;"">+</p>","null","fixation","","","","","","","","","","","","","","","","","","","","","","",""
"","","","","","html-slider-response","25","983148","0.0-17.0-0.3","ded44fbb-aae9-4fec-bc39-d4ac87c2aaee","1000","
                  <p style=""text-align: center;"">₪61
                                                <br>55%</p>
                  <p id=""wtp"" style=""text-align:center; margin-top: 0px; margin-bottom: 0px; font-size: 40px"";>&ensp;</p>","-","viewing","0","23","7B,26B","","","","","","","","","","","","","","","","","","","",""
"","","","","","html-slider-response","26","985252","0.0-17.0-1.3","ded44fbb-aae9-4fec-bc39-d4ac87c2aaee","2103","
                  <p style=""text-align: center;"">₪61
                                                <br>55%</p>
                  <p id=""wtp"" style=""text-align:center; margin-top: 0px; margin-bottom: 0px; font-size: 40px"";>מוכנים לשלם: <span id=""c_p_y""></span></p>","26","evaluation","63","23","7B,26B","55","61","26","","","","","","","","","","","","","","","","",""
"","","","","","html-keyboard-response","27","986498","0.0-17.0-2.3","ded44fbb-aae9-4fec-bc39-d4ac87c2aaee","null","<p style=""text-align: center;"">+</p>","null","fixation","","","","","","","","","","","","","","","","","","","","","","",""
"","","","","","html-slider-response","28","987507","0.0-17.0-0.4","ded44fbb-aae9-4fec-bc39-d4ac87c2aaee","1000","
                  <p style=""text-align: center;"">₪71
                                                <br>55%</p>
                  <p id=""wtp"" style=""text-align:center; margin-top: 0px; margin-bottom: 0px; font-size: 40px"";>&ensp;</p>","-","viewing","0","27","5B,18A","","","","","","","","","","","","","","","","","","","",""
"","","","","","html-slider-response","29","991245","0.0-17.0-1.4","ded44fbb-aae9-4fec-bc39-d4ac87c2aaee","3737","
                  <p style=""text-align: center;"">₪71
                                                <br>55%</p>
                  <p id=""wtp"" style=""text-align:center; margin-top: 0px; margin-bottom: 0px; font-size: 40px"";>מוכנים לשלם: <span id=""c_p_y""></span></p>","24","evaluation","2","27","5B,18A","55","71","24","","","","","","","","","","","","","","","","",""
"","","","","","html-keyboard-response","30","992434","0.0-17.0-2.4","ded44fbb-aae9-4fec-bc39-d4ac87c2aaee","null","<p style=""text-align: center;"">+</p>","null","fixation","","","","","","","","","","","","","","","","","","","","","","",""
"","","","","","html-slider-response","31","993440","0.0-17.0-0.5","ded44fbb-aae9-4fec-bc39-d4ac87c2aaee","1000","
                  <p style=""text-align: center;"">₪11
                                                <br>45%</p>
                  <p id=""wtp"" style=""text-align:center; margin-top: 0px; margin-bottom: 0px; font-size: 40px"";>&ensp;</p>","-","viewing","0","6","14B,21C,25C","","","","","","","","","","","","","","","","","","","",""
"","","","","","html-slider-response","32","997189","0.0-17.0-1.5","ded44fbb-aae9-4fec-bc39-d4ac87c2aaee","3747","
                  <p style=""text-align: center;"">₪11
                                                <br>45%</p>
                  <p id=""wtp"" style=""text-align:center; margin-top: 0px; margin-bottom: 0px; font-size: 40px"";>מוכנים לשלם: <span id=""c_p_y""></span></p>","3","evaluation","62","6","14B,21C,25C","45","11","4","","","","","","","","","","","","","","","","",""
"","","","","","html-keyboard-response","33","997947","0.0-17.0-2.5","ded44fbb-aae9-4fec-bc39-d4ac87c2aaee","null","<p style=""text-align: center;"">+</p>","null","fixation","","","","","","","","","","","","","","","","","","","","","","",""
"","","","","","html-slider-response","34","998950","0.0-17.0-0.6","ded44fbb-aae9-4fec-bc39-d4ac87c2aaee","1000","
                  <p style=""text-align: center;"">₪4
                                                <br>75%</p>
                  <p id=""wtp"" style=""text-align:center; margin-top: 0px; margin-bottom: 0px; font-size: 40px"";>&ensp;</p>","-","viewing","0","3","12B,20B,23B,27C,29C","","","","","","","","","","","","","","","","","","","",""
"","","","","","html-slider-response","35","1000901","0.0-17.0-1.6","ded44fbb-aae9-4fec-bc39-d4ac87c2aaee","1949","
                  <p style=""text-align: center;"">₪4
                                                <br>75%</p>
                  <p id=""wtp"" style=""text-align:center; margin-top: 0px; margin-bottom: 0px; font-size: 40px"";>מוכנים לשלם: <span id=""c_p_y""></span></p>","3","evaluation","79","3","12B,20B,23B,27C,29C","75","4","4","","","","","","","","","","","","","","","","",""
"","","","","","html-keyboard-response","36","1001897","0.0-17.0-2.6","ded44fbb-aae9-4fec-bc39-d4ac87c2aaee","null","<p style=""text-align: center;"">+</p>","null","fixation","","","","","","","","","","","","","","","","","","","","","","",""
"","","","","","html-slider-response","37","1002905","0.0-17.0-0.7","ded44fbb-aae9-4fec-bc39-d4ac87c2aaee","1000","
                  <p style=""text-align: center;"">₪58
                                                <br>30%</p>
                  <p id=""wtp"" style=""text-align:center; margin-top: 0px; margin-bottom: 0px; font-size: 40px"";>&ensp;</p>","-","viewing","0","19","13C,30A","","","","","","","","","","","","","","","","","","","",""
"","","","","","html-slider-response","38","1005140","0.0-17.0-1.7","ded44fbb-aae9-4fec-bc39-d4ac87c2aaee","2234","
                  <p style=""text-align: center;"">₪58
                                                <br>30%</p>
                  <p id=""wtp"" style=""text-align:center; margin-top: 0px; margin-bottom: 0px; font-size: 40px"";>מוכנים לשלם: <span id=""c_p_y""></span></p>","3","evaluation","44","19","13C,30A","30","58","4","","","","","","","","","","","","","","","","",""
"","","","","","html-keyboard-response","39","1005655","0.0-17.0-2.7","ded44fbb-aae9-4fec-bc39-d4ac87c2aaee","null","<p style=""text-align: center;"">+</p>","null","fixation","","","","","","","","","","","","","","","","","","","","","","",""
"","","","","","html-slider-response","40","1006668","0.0-17.0-0.8","ded44fbb-aae9-4fec-bc39-d4ac87c2aaee","1000","
                  <p style=""text-align: center;"">₪36
                                                <br>30%</p>
                  <p id=""wtp"" style=""text-align:center; margin-top: 0px; margin-bottom: 0px; font-size: 40px"";>&ensp;</p>","-","viewing","0","11","3C,20A,22A","","","","","","","","","","","","","","","","","","","",""
"","","","","","html-slider-response","41","1010069","0.0-17.0-1.8","ded44fbb-aae9-4fec-bc39-d4ac87c2aaee","3400","
                  <p style=""text-align: center;"">₪36
                                                <br>30%</p>
                  <p id=""wtp"" style=""text-align:center; margin-top: 0px; margin-bottom: 0px; font-size: 40px"";>מוכנים לשלם: <span id=""c_p_y""></span></p>","4","evaluation","21","11","3C,20A,22A","30","36","4","","","","","","","","","","","","","","","","",""
"","","","","","html-keyboard-response","42","1011393","0.0-17.0-2.8","ded44fbb-aae9-4fec-bc39-d4ac87c2aaee","null","<p style=""text-align: center;"">+</p>","null","fixation","","","","","","","","","","","","","","","","","","","","","","",""
"","","","","","html-slider-response","43","1012409","0.0-17.0-0.9","ded44fbb-aae9-4fec-bc39-d4ac87c2aaee","1000","
                  <p style=""text-align: center;"">₪79
                                                <br>40%</p>
                  <p id=""wtp"" style=""text-align:center; margin-top: 0px; margin-bottom: 0px; font-size: 40px"";>&ensp;</p>","-","viewing","0","30","9B","","","","","","","","","","","","","","","","","","","",""
"","","","","","html-slider-response","44","1016417","0.0-17.0-1.9","ded44fbb-aae9-4fec-bc39-d4ac87c2aaee","null","
                  <p style=""text-align: center;"">₪79
                                                <br>40%</p>
                  <p id=""wtp"" style=""text-align:center; margin-top: 0px; margin-bottom: 0px; font-size: 40px"";>מוכנים לשלם: <span id=""c_p_y""></span></p>","null","evaluation","16","30","9B","40","79","10","","","","","","","","","","","","","","","","",""
"","","","","","html-keyboard-response","45","1017600","0.0-17.0-2.9","ded44fbb-aae9-4fec-bc39-d4ac87c2aaee","null","<p style=""text-align: center;"">+</p>","null","fixation","","","","","","","","","","","","","","","","","","","","","","",""
"","","","","","html-slider-response","46","1018602","0.0-17.0-0.10","ded44fbb-aae9-4fec-bc39-d4ac87c2aaee","1000","
                  <p style=""text-align: center;"">₪64
                                                <br>25%</p>
                  <p id=""wtp"" style=""text-align:center; margin-top: 0px; margin-bottom: 0px; font-size: 40px"";>&ensp;</p>","-","viewing","0","24","6A,21A","","","","","","","","","","","","","","","","","","","",""
"","","","","","html-slider-response","47","1019773","0.0-17.0-1.10","ded44fbb-aae9-4fec-bc39-d4ac87c2aaee","1169","
                  <p style=""text-align: center;"">₪64
                                                <br>25%</p>
                  <p id=""wtp"" style=""text-align:center; margin-top: 0px; margin-bottom: 0px; font-size: 40px"";>מוכנים לשלם: <span id=""c_p_y""></span></p>","4","evaluation","45","24","6A,21A","25","64","4","","","","","","","","","","","","","","","","",""
"","","","","","html-keyboard-response","48","1020837","0.0-17.0-2.10","ded44fbb-aae9-4fec-bc39-d4ac87c2aaee","null","<p style=""text-align: center;"">+</p>","null","fixation","","","","","","","","","","","","","","","","","","","","","","",""
"","","","","","html-slider-response","49","1021850","0.0-17.0-0.11","ded44fbb-aae9-4fec-bc39-d4ac87c2aaee","1000","
                  <p style=""text-align: center;"">₪16
                                                <br>20%</p>
                  <p id=""wtp"" style=""text-align:center; margin-top: 0px; margin-bottom: 0px; font-size: 40px"";>&ensp;</p>","-","viewing","0","8","14C,17A,20C,27A","","","","","","","","","","","","","","","","","","","",""
"","","","","","html-slider-response","50","1023068","0.0-17.0-1.11","ded44fbb-aae9-4fec-bc39-d4ac87c2aaee","1217","
                  <p style=""text-align: center;"">₪16
                                                <br>20%</p>
                  <p id=""wtp"" style=""text-align:center; margin-top: 0px; margin-bottom: 0px; font-size: 40px"";>מוכנים לשלם: <span id=""c_p_y""></span></p>","2","evaluation","5","8","14C,17A,20C,27A","20","16","3","","","","","","","","","","","","","","","","",""
"","","","","","html-keyboard-response","51","1024389","0.0-17.0-2.11","ded44fbb-aae9-4fec-bc39-d4ac87c2aaee","null","<p style=""text-align: center;"">+</p>","null","fixation","","","","","","","","","","","","","","","","","","","","","","",""
"","","","","","html-slider-response","52","1025394","0.0-17.0-0.12","ded44fbb-aae9-4fec-bc39-d4ac87c2aaee","1000","
                  <p style=""text-align: center;"">₪61
                                                <br>45%</p>
                  <p id=""wtp"" style=""text-align:center; margin-top: 0px; margin-bottom: 0px; font-size: 40px"";>&ensp;</p>","-","viewing","0","22","10A,11A","","","","","","","","","","","","","","","","","","","",""
"","","","","","html-slider-response","53","1027364","0.0-17.0-1.12","ded44fbb-aae9-4fec-bc39-d4ac87c2aaee","1969","
                  <p style=""text-align: center;"">₪61
                                                <br>45%</p>
                  <p id=""wtp"" style=""text-align:center; margin-top: 0px; margin-bottom: 0px; font-size: 40px"";>מוכנים לשלם: <span id=""c_p_y""></span></p>","17","evaluation","57","22","10A,11A","45","61","17","","","","","","","","","","","","","","","","",""
"","","","","","html-keyboard-response","54","1028571","0.0-17.0-2.12","ded44fbb-aae9-4fec-bc39-d4ac87c2aaee","null","<p style=""text-align: center;"">+</p>","null","fixation","","","","","","","","","","","","","","","","","","","","","","",""
"","","","","","html-slider-response","55","1029575","0.0-17.0-0.13","ded44fbb-aae9-4fec-bc39-d4ac87c2aaee","1000","
                  <p style=""text-align: center;"">₪71
                                                <br>75%</p>
                  <p id=""wtp"" style=""text-align:center; margin-top: 0px; margin-bottom: 0px; font-size: 40px"";>&ensp;</p>","-","viewing","0","28","8B","","","","","","","","","","","","","","","","","","","",""
"","","","","","html-slider-response","56","1030995","0.0-17.0-1.13","ded44fbb-aae9-4fec-bc39-d4ac87c2aaee","1420","
                  <p style=""text-align: center;"">₪71
                                                <br>75%</p>
                  <p id=""wtp"" style=""text-align:center; margin-top: 0px; margin-bottom: 0px; font-size: 40px"";>מוכנים לשלם: <span id=""c_p_y""></span></p>","27","evaluation","38","28","8B","75","71","27","","","","","","","","","","","","","","","","",""
"","","","","","html-keyboard-response","57","1031720","0.0-17.0-2.13","ded44fbb-aae9-4fec-bc39-d4ac87c2aaee","null","<p style=""text-align: center;"">+</p>","null","fixation","","","","","","","","","","","","","","","","","","","","","","",""
"","","","","","html-slider-response","58","1032734","0.0-17.0-0.14","ded44fbb-aae9-4fec-bc39-d4ac87c2aaee","1000","
                  <p style=""text-align: center;"">₪4
                                                <br>25%</p>
                  <p id=""wtp"" style=""text-align:center; margin-top: 0px; margin-bottom: 0px; font-size: 40px"";>&ensp;</p>","-","viewing","0","1","6C,29B,30C","","","","","","","","","","","","","","","","","","","",""
"","","","","","html-slider-response","59","1034339","0.0-17.0-1.14","ded44fbb-aae9-4fec-bc39-d4ac87c2aaee","1604","
                  <p style=""text-align: center;"">₪4
                                                <br>25%</p>
                  <p id=""wtp"" style=""text-align:center; margin-top: 0px; margin-bottom: 0px; font-size: 40px"";>מוכנים לשלם: <span id=""c_p_y""></span></p>","2","evaluation","25","1","6C,29B,30C","25","4","2","","","","","","","","","","","","","","","","",""
"","","","","","html-keyboard-response","60","1034928","0.0-17.0-2.14","ded44fbb-aae9-4fec-bc39-d4ac87c2aaee","null","<p style=""text-align: center;"">+</p>","null","fixation","","","","","","","","","","","","","","","","","","","","","","",""
"","","","","","html-slider-response","61","1035937","0.0-17.0-0.15","ded44fbb-aae9-4fec-bc39-d4ac87c2aaee","1000","
                  <p style=""text-align: center;"">₪4
                                                <br>50%</p>
                  <p id=""wtp"" style=""text-align:center; margin-top: 0px; margin-bottom: 0px; font-size: 40px"";>&ensp;</p>","-","viewing","0","2","4C,17B","","","","","","","","","","","","","","","","","","","",""
"","","","","","html-slider-response","62","1037676","0.0-17.0-1.15","ded44fbb-aae9-4fec-bc39-d4ac87c2aaee","1738","
                  <p style=""text-align: center;"">₪4
                                                <br>50%</p>
                  <p id=""wtp"" style=""text-align:center; margin-top: 0px; margin-bottom: 0px; font-size: 40px"";>מוכנים לשלם: <span id=""c_p_y""></span></p>","2","evaluation","73","2","4C,17B","50","4","3","","","","","","","","","","","","","","","","",""
"","","","","","html-keyboard-response","63","1038504","0.0-17.0-2.15","ded44fbb-aae9-4fec-bc39-d4ac87c2aaee","null","<p style=""text-align: center;"">+</p>","null","fixation","","","","","","","","","","","","","","","","","","","","","","",""
"","","","","","html-slider-response","64","1039517","0.0-17.0-0.16","ded44fbb-aae9-4fec-bc39-d4ac87c2aaee","1000","
                  <p style=""text-align: center;"">₪11
                                                <br>20%</p>
                  <p id=""wtp"" style=""text-align:center; margin-top: 0px; margin-bottom: 0px; font-size: 40px"";>&ensp;</p>","-","viewing","0","4","12C,17C,23C,28C","","","","","","","","","","","","","","","","","","","",""
"","","","","","html-slider-response","65","1041147","0.0-17.0-1.16","ded44fbb-aae9-4fec-bc39-d4ac87c2aaee","1629","
                  <p style=""text-align: center;"">₪11
                                                <br>20%</p>
                  <p id=""wtp"" style=""text-align:center; margin-top: 0px; margin-bottom: 0px; font-size: 40px"";>מוכנים לשלם: <span id=""c_p_y""></span></p>","4","evaluation","14","4","12C,17C,23C,28C","20","11","4","","","","","","","","","","","","","","","","",""
"","","","","","html-keyboard-response","66","1042052","0.0-17.0-2.16","ded44fbb-aae9-4fec-bc39-d4ac87c2aaee","null","<p style=""text-align: center;"">+</p>","null","fixation","","","","","","","","","","","","","","","","","","","","","","",""
"","","","","","html-slider-response","67","1043054","0.0-17.0-0.17","ded44fbb-aae9-4fec-bc39-d4ac87c2aaee","1000","
                  <p style=""text-align: center;"">₪79
                                                <br>65%</p>
                  <p id=""wtp"" style=""text-align:center; margin-top: 0px; margin-bottom: 0px; font-size: 40px"";>&ensp;</p>","-","viewing","0","31","8A","","","","","","","","","","","","","","","","","","","",""
"","","","","","html-slider-response","68","1045012","0.0-17.0-1.17","ded44fbb-aae9-4fec-bc39-d4ac87c2aaee","1957","
                  <p style=""text-align: center;"">₪79
                                                <br>65%</p>
                  <p id=""wtp"" style=""text-align:center; margin-top: 0px; margin-bottom: 0px; font-size: 40px"";>מוכנים לשלם: <span id=""c_p_y""></span></p>","33","evaluation","43","31","8A","65","79","33","","","","","","","","","","","","","","","","",""
"","","","","","html-keyboard-response","69","1045875","0.0-17.0-2.17","ded44fbb-aae9-4fec-bc39-d4ac87c2aaee","null","<p style=""text-align: center;"">+</p>","null","fixation","","","","","","","","","","","","","","","","","","","","","","",""
"","","","","","html-slider-response","70","1046889","0.0-17.0-0.18","ded44fbb-aae9-4fec-bc39-d4ac87c2aaee","1000","
                  <p style=""text-align: center;"">₪39
                                                <br>65%</p>
                  <p id=""wtp"" style=""text-align:center; margin-top: 0px; margin-bottom: 0px; font-size: 40px"";>&ensp;</p>","-","viewing","0","16","1A,15A,26C","","","","","","","","","","","","","","","","","","","",""
"","","","","","html-slider-response","71","1048332","0.0-17.0-1.18","ded44fbb-aae9-4fec-bc39-d4ac87c2aaee","1441","
                  <p style=""text-align: center;"">₪39
                                                <br>65%</p>
                  <p id=""wtp"" style=""text-align:center; margin-top: 0px; margin-bottom: 0px; font-size: 40px"";>מוכנים לשלם: <span id=""c_p_y""></span></p>","23","evaluation","53","16","1A,15A,26C","65","39","23","","","","","","","","","","","","","","","","",""
"","","","","","html-keyboard-response","72","1049648","0.0-17.0-2.18","ded44fbb-aae9-4fec-bc39-d4ac87c2aaee","null","<p style=""text-align: center;"">+</p>","null","fixation","","","","","","","","","","","","","","","","","","","","","","",""
"","","","","","html-slider-response","73","1050653","0.0-17.0-0.19","ded44fbb-aae9-4fec-bc39-d4ac87c2aaee","1000","
                  <p style=""text-align: center;"">₪36
                                                <br>60%</p>
                  <p id=""wtp"" style=""text-align:center; margin-top: 0px; margin-bottom: 0px; font-size: 40px"";>&ensp;</p>","-","viewing","0","12","1C,7C,15C","","","","","","","","","","","","","","","","","","","",""
"","","","","","html-slider-response","74","1051892","0.0-17.0-1.19","ded44fbb-aae9-4fec-bc39-d4ac87c2aaee","1238","
                  <p style=""text-align: center;"">₪36
                                                <br>60%</p>
                  <p id=""wtp"" style=""text-align:center; margin-top: 0px; margin-bottom: 0px; font-size: 40px"";>מוכנים לשלם: <span id=""c_p_y""></span></p>","20","evaluation","52","12","1C,7C,15C","60","36","20","","","","","","","","","","","","","","","","",""
"","","","","","html-keyboard-response","75","1052514","0.0-17.0-2.19","ded44fbb-aae9-4fec-bc39-d4ac87c2aaee","null","<p style=""text-align: center;"">+</p>","null","fixation","","","","","","","","","","","","","","","","","","","","","","",""
"","","","","","html-slider-response","76","1053517","0.0-17.0-0.20","ded44fbb-aae9-4fec-bc39-d4ac87c2aaee","1000","
                  <p style=""text-align: center;"">₪11
                                                <br>25%</p>
                  <p id=""wtp"" style=""text-align:center; margin-top: 0px; margin-bottom: 0px; font-size: 40px"";>&ensp;</p>","-","viewing","0","5","12A,27B,28B,30B","","","","","","","","","","","","","","","","","","","",""
"","","","","","html-slider-response","77","1055668","0.0-17.0-1.20","ded44fbb-aae9-4fec-bc39-d4ac87c2aaee","2149","
                  <p style=""text-align: center;"">₪11
                                                <br>25%</p>
                  <p id=""wtp"" style=""text-align:center; margin-top: 0px; margin-bottom: 0px; font-size: 40px"";>מוכנים לשלם: <span id=""c_p_y""></span></p>","3","evaluation","46","5","12A,27B,28B,30B","25","11","3","","","","","","","","","","","","","","","","",""
"","","","","","html-keyboard-response","78","1056363","0.0-17.0-2.20","ded44fbb-aae9-4fec-bc39-d4ac87c2aaee","null","<p style=""text-align: center;"">+</p>","null","fixation","","","","","","","","","","","","","","","","","","","","","","",""
"","","","","","html-slider-response","79","1057375","0.0-17.0-0.21","ded44fbb-aae9-4fec-bc39-d4ac87c2aaee","1000","
                  <p style=""text-align: center;"">₪36
                                                <br>70%</p>
                  <p id=""wtp"" style=""text-align:center; margin-top: 0px; margin-bottom: 0px; font-size: 40px"";>&ensp;</p>","-","viewing","0","13","3A,5C,10B","","","","","","","","","","","","","","","","","","","",""
"","","","","","html-slider-response","80","1059596","0.0-17.0-1.21","ded44fbb-aae9-4fec-bc39-d4ac87c2aaee","2220","
                  <p style=""text-align: center;"">₪36
                                                <br>70%</p>
                  <p id=""wtp"" style=""text-align:center; margin-top: 0px; margin-bottom: 0px; font-size: 40px"";>מוכנים לשלם: <span id=""c_p_y""></span></p>","5","evaluation","33","13","3A,5C,10B","70","36","5","","","","","","","","","","","","","","","","",""
"","","","","","html-keyboard-response","81","1060500","0.0-17.0-2.21","ded44fbb-aae9-4fec-bc39-d4ac87c2aaee","null","<p style=""text-align: center;"">+</p>","null","fixation","","","","","","","","","","","","","","","","","","","","","","",""
"","","","","","html-slider-response","82","1061506","0.0-17.0-0.22","ded44fbb-aae9-4fec-bc39-d4ac87c2aaee","1000","
                  <p style=""text-align: center;"">₪11
                                                <br>75%</p>
                  <p id=""wtp"" style=""text-align:center; margin-top: 0px; margin-bottom: 0px; font-size: 40px"";>&ensp;</p>","-","viewing","0","7","6B,18B,22C,24C,29A","","","","","","","","","","","","","","","","","","","",""
"","","","","","html-slider-response","83","1063772","0.0-17.0-1.22","ded44fbb-aae9-4fec-bc39-d4ac87c2aaee","2265","
                  <p style=""text-align: center;"">₪11
                                                <br>75%</p>
                  <p id=""wtp"" style=""text-align:center; margin-top: 0px; margin-bottom: 0px; font-size: 40px"";>מוכנים לשלם: <span id=""c_p_y""></span></p>","10","evaluation","48","7","6B,18B,22C,24C,29A","75","11","10","","","","","","","","","","","","","","","","",""
"","","","","","html-keyboard-response","84","1065049","0.0-17.0-2.22","ded44fbb-aae9-4fec-bc39-d4ac87c2aaee","null","<p style=""text-align: center;"">+</p>","null","fixation","","","","","","","","","","","","","","","","","","","","","","",""
"","","","","","html-slider-response","85","1066052","0.0-17.0-0.23","ded44fbb-aae9-4fec-bc39-d4ac87c2aaee","1000","
                  <p style=""text-align: center;"">₪43
                                                <br>75%</p>
                  <p id=""wtp"" style=""text-align:center; margin-top: 0px; margin-bottom: 0px; font-size: 40px"";>&ensp;</p>","-","viewing","0","18","11B,19B,24A,26A","","","","","","","","","","","","","","","","","","","",""
"","","","","","html-slider-response","86","1069284","0.0-17.0-1.23","ded44fbb-aae9-4fec-bc39-d4ac87c2aaee","3230","
                  <p style=""text-align: center;"">₪43
                                                <br>75%</p>
                  <p id=""wtp"" style=""text-align:center; margin-top: 0px; margin-bottom: 0px; font-size: 40px"";>מוכנים לשלם: <span id=""c_p_y""></span></p>","25","evaluation","3","18","11B,19B,24A,26A","75","43","25","","","","","","","","","","","","","","","","",""
"","","","","","html-keyboard-response","87","1070305","0.0-17.0-2.23","ded44fbb-aae9-4fec-bc39-d4ac87c2aaee","null","<p style=""text-align: center;"">+</p>","null","fixation","","","","","","","","","","","","","","","","","","","","","","",""
"","","","","","html-slider-response","88","1071307","0.0-17.0-0.24","ded44fbb-aae9-4fec-bc39-d4ac87c2aaee","1000","
                  <p style=""text-align: center;"">₪36
                                                <br>75%</p>
                  <p id=""wtp"" style=""text-align:center; margin-top: 0px; margin-bottom: 0px; font-size: 40px"";>&ensp;</p>","-","viewing","0","14","4B,5A,13B,16B","","","","","","","","","","","","","","","","","","","",""
"","","","","","html-slider-response","89","1073820","0.0-17.0-1.24","ded44fbb-aae9-4fec-bc39-d4ac87c2aaee","2511","
                  <p style=""text-align: center;"">₪36
                                                <br>75%</p>
                  <p id=""wtp"" style=""text-align:center; margin-top: 0px; margin-bottom: 0px; font-size: 40px"";>מוכנים לשלם: <span id=""c_p_y""></span></p>","26","evaluation","11","14","4B,5A,13B,16B","75","36","26","","","","","","","","","","","","","","","","",""
"","","","","","html-keyboard-response","90","1074634","0.0-17.0-2.24","ded44fbb-aae9-4fec-bc39-d4ac87c2aaee","null","<p style=""text-align: center;"">+</p>","null","fixation","","","","","","","","","","","","","","","","","","","","","","",""
"","","","","","html-slider-response","91","1075643","0.0-17.0-0.25","ded44fbb-aae9-4fec-bc39-d4ac87c2aaee","1000","
                  <p style=""text-align: center;"">₪58
                                                <br>45%</p>
                  <p id=""wtp"" style=""text-align:center; margin-top: 0px; margin-bottom: 0px; font-size: 40px"";>&ensp;</p>","-","viewing","0","21","11C,18C,25A","","","","","","","","","","","","","","","","","","","",""
"","","","","","html-slider-response","92","1077028","0.0-17.0-1.25","ded44fbb-aae9-4fec-bc39-d4ac87c2aaee","1383","
                  <p style=""text-align: center;"">₪58
                                                <br>45%</p>
                  <p id=""wtp"" style=""text-align:center; margin-top: 0px; margin-bottom: 0px; font-size: 40px"";>מוכנים לשלם: <span id=""c_p_y""></span></p>","24","evaluation","63","21","11C,18C,25A","45","58","24","","","","","","","","","","","","","","","","",""
"","","","","","html-keyboard-response","93","1077858","0.0-17.0-2.25","ded44fbb-aae9-4fec-bc39-d4ac87c2aaee","null","<p style=""text-align: center;"">+</p>","null","fixation","","","","","","","","","","","","","","","","","","","","","","",""
"","","","","","html-slider-response","94","1078864","0.0-17.0-0.26","ded44fbb-aae9-4fec-bc39-d4ac87c2aaee","1000","
                  <p style=""text-align: center;"">₪64
                                                <br>50%</p>
                  <p id=""wtp"" style=""text-align:center; margin-top: 0px; margin-bottom: 0px; font-size: 40px"";>&ensp;</p>","-","viewing","0","25","1B,3B,4A","","","","","","","","","","","","","","","","","","","",""
"","","","","","html-slider-response","95","1081412","0.0-17.0-1.26","ded44fbb-aae9-4fec-bc39-d4ac87c2aaee","2547","
                  <p style=""text-align: center;"">₪64
                                                <br>50%</p>
                  <p id=""wtp"" style=""text-align:center; margin-top: 0px; margin-bottom: 0px; font-size: 40px"";>מוכנים לשלם: <span id=""c_p_y""></span></p>","25","evaluation","27","25","1B,3B,4A","50","64","25","","","","","","","","","","","","","","","","",""
"","","","","","html-keyboard-response","96","1081996","0.0-17.0-2.26","ded44fbb-aae9-4fec-bc39-d4ac87c2aaee","null","<p style=""text-align: center;"">+</p>","null","fixation","","","","","","","","","","","","","","","","","","","","","","",""
"","","","","","html-slider-response","97","1083002","0.0-17.0-0.27","ded44fbb-aae9-4fec-bc39-d4ac87c2aaee","1000","
                  <p style=""text-align: center;"">₪43
                                                <br>60%</p>
                  <p id=""wtp"" style=""text-align:center; margin-top: 0px; margin-bottom: 0px; font-size: 40px"";>&ensp;</p>","-","viewing","0","17","2A,7A,9A,15B","","","","","","","","","","","","","","","","","","","",""
"","","","","","html-slider-response","98","1086381","0.0-17.0-1.27","ded44fbb-aae9-4fec-bc39-d4ac87c2aaee","3377","
                  <p style=""text-align: center;"">₪43
                                                <br>60%</p>
                  <p id=""wtp"" style=""text-align:center; margin-top: 0px; margin-bottom: 0px; font-size: 40px"";>מוכנים לשלם: <span id=""c_p_y""></span></p>","27","evaluation","55","17","2A,7A,9A,15B","60","43","27","","","","","","","","","","","","","","","","",""
"","","","","","html-keyboard-response","99","1087167","0.0-17.0-2.27","ded44fbb-aae9-4fec-bc39-d4ac87c2aaee","null","<p style=""text-align: center;"">+</p>","null","fixation","","","","","","","","","","","","","","","","","","","","","","",""
"","","","","","html-slider-response","100","1088169","0.0-17.0-0.28","ded44fbb-aae9-4fec-bc39-d4ac87c2aaee","1000","
                  <p style=""text-align: center;"">₪71
                                                <br>45%</p>
                  <p id=""wtp"" style=""text-align:center; margin-top: 0px; margin-bottom: 0px; font-size: 40px"";>&ensp;</p>","-","viewing","0","26","2B,16A","","","","","","","","","","","","","","","","","","","",""
"","","","","","html-slider-response","101","1090140","0.0-17.0-1.28","ded44fbb-aae9-4fec-bc39-d4ac87c2aaee","1970","
                  <p style=""text-align: center;"">₪71
                                                <br>45%</p>
                  <p id=""wtp"" style=""text-align:center; margin-top: 0px; margin-bottom: 0px; font-size: 40px"";>מוכנים לשלם: <span id=""c_p_y""></span></p>","30","evaluation","28","26","2B,16A","45","71","30","","","","","","","","","","","","","","","","",""
"","","","","","html-keyboard-response","102","1090691","0.0-17.0-2.28","ded44fbb-aae9-4fec-bc39-d4ac87c2aaee","null","<p style=""text-align: center;"">+</p>","null","fixation","","","","","","","","","","","","","","","","","","","","","","",""
"","","","","","html-slider-response","103","1091698","0.0-17.0-0.29","ded44fbb-aae9-4fec-bc39-d4ac87c2aaee","1000","
                  <p style=""text-align: center;"">₪39
                                                <br>60%</p>
                  <p id=""wtp"" style=""text-align:center; margin-top: 0px; margin-bottom: 0px; font-size: 40px"";>&ensp;</p>","-","viewing","0","15","9C,25B","","","","","","","","","","","","","","","","","","","",""
"","","","","","html-slider-response","104","1093388","0.0-17.0-1.29","ded44fbb-aae9-4fec-bc39-d4ac87c2aaee","1690","
                  <p style=""text-align: center;"">₪39
                                                <br>60%</p>
                  <p id=""wtp"" style=""text-align:center; margin-top: 0px; margin-bottom: 0px; font-size: 40px"";>מוכנים לשלם: <span id=""c_p_y""></span></p>","21","evaluation","52","15","9C,25B","60","39","21","","","","","","","","","","","","","","","","",""
"","","","","","html-keyboard-response","105","1094412","0.0-17.0-2.29","ded44fbb-aae9-4fec-bc39-d4ac87c2aaee","null","<p style=""text-align: center;"">+</p>","null","fixation","","","","","","","","","","","","","","","","","","","","","","",""
"","","","","","html-slider-response","106","1095415","0.0-17.0-0.30","ded44fbb-aae9-4fec-bc39-d4ac87c2aaee","1000","
                  <p style=""text-align: center;"">₪76
                                                <br>65%</p>
                  <p id=""wtp"" style=""text-align:center; margin-top: 0px; margin-bottom: 0px; font-size: 40px"";>&ensp;</p>","-","viewing","0","29","8C,19A,24B","","","","","","","","","","","","","","","","","","","",""
"","","","","","html-slider-response","107","1098317","0.0-17.0-1.30","ded44fbb-aae9-4fec-bc39-d4ac87c2aaee","2901","
                  <p style=""text-align: center;"">₪76
                                                <br>65%</p>
                  <p id=""wtp"" style=""text-align:center; margin-top: 0px; margin-bottom: 0px; font-size: 40px"";>מוכנים לשלם: <span id=""c_p_y""></span></p>","34","evaluation","52","29","8C,19A,24B","65","76","34","","","","","","","","","","","","","","","","",""
"","","","","","html-keyboard-response","108","1099413","0.0-17.0-2.30","ded44fbb-aae9-4fec-bc39-d4ac87c2aaee","null","<p style=""text-align: center;"">+</p>","null","fixation","","","","","","","","","","","","","","","","","","","","","","",""
"","","","","","html-keyboard-response","109","1100419","0.0-18.0","ded44fbb-aae9-4fec-bc39-d4ac87c2aaee","null","<p style=""text-align: center;"">+</p>","null","fixation","","","","","","","","","","","","","","","","","","","","","","",""
"","","","","","html-keyboard-response","110","1101996","0.0-19.0","ded44fbb-aae9-4fec-bc39-d4ac87c2aaee","null","<p>הפסקה.
          <br>לחצו כדי להמשיך.</p>","1","scan_wait","","","","","","","","","","","","","","","","","","","","","","",""
"","","","","","html-keyboard-response","111","1103005","0.0-20.0","ded44fbb-aae9-4fec-bc39-d4ac87c2aaee","null","<p style=""text-align: center;"">+</p>","null","fixation","","","","","","","","","","","","","","","","","","","","","","",""
"","","","","","html-slider-response","112","1104007","0.0-21.0-0.0","ded44fbb-aae9-4fec-bc39-d4ac87c2aaee","1000","
                  <p style=""text-align: center;"">₪4
                                                <br>75%</p>
                  <p id=""wtp"" style=""text-align:center; margin-top: 0px; margin-bottom: 0px; font-size: 40px"";>&ensp;</p>","-","viewing","0","3","12B,20B,23B,27C,29C","","","","","","","","","","","","","","","","","","","",""
"","","","","","html-slider-response","113","1106597","0.0-21.0-1.0","ded44fbb-aae9-4fec-bc39-d4ac87c2aaee","2589","
                  <p style=""text-align: center;"">₪4
                                                <br>75%</p>
                  <p id=""wtp"" style=""text-align:center; margin-top: 0px; margin-bottom: 0px; font-size: 40px"";>מוכנים לשלם: <span id=""c_p_y""></span></p>","6","evaluation","5","3","12B,20B,23B,27C,29C","75","4","6","","","","","","","","","","","","","","","","",""
"","","","","","html-keyboard-response","114","1107484","0.0-21.0-2.0","ded44fbb-aae9-4fec-bc39-d4ac87c2aaee","null","<p style=""text-align: center;"">+</p>","null","fixation","","","","","","","","","","","","","","","","","","","","","","",""
"","","","","","html-slider-response","115","1108494","0.0-21.0-0.1","ded44fbb-aae9-4fec-bc39-d4ac87c2aaee","1000","
                  <p style=""text-align: center;"">₪11
                                                <br>25%</p>
                  <p id=""wtp"" style=""text-align:center; margin-top: 0px; margin-bottom: 0px; font-size: 40px"";>&ensp;</p>","-","viewing","0","5","12A,27B,28B,30B","","","","","","","","","","","","","","","","","","","",""
"","","","","","html-slider-response","116","1110085","0.0-21.0-1.1","ded44fbb-aae9-4fec-bc39-d4ac87c2aaee","1590","
                  <p style=""text-align: center;"">₪11
                                                <br>25%</p>
                  <p id=""wtp"" style=""text-align:center; margin-top: 0px; margin-bottom: 0px; font-size: 40px"";>מוכנים לשלם: <span id=""c_p_y""></span></p>","4","evaluation","43","5","12A,27B,28B,30B","25","11","4","","","","","","","","","","","","","","","","",""
"","","","","","html-keyboard-response","117","1111315","0.0-21.0-2.1","ded44fbb-aae9-4fec-bc39-d4ac87c2aaee","null","<p style=""text-align: center;"">+</p>","null","fixation","","","","","","","","","","","","","","","","","","","","","","",""
"","","","","","html-slider-response","118","1112331","0.0-21.0-0.2","ded44fbb-aae9-4fec-bc39-d4ac87c2aaee","1000","
                  <p style=""text-align: center;"">₪71
                                                <br>55%</p>
                  <p id=""wtp"" style=""text-align:center; margin-top: 0px; margin-bottom: 0px; font-size: 40px"";>&ensp;</p>","-","viewing","0","27","5B,18A","","","","","","","","","","","","","","","","","","","",""
"","","","","","html-slider-response","119","1114540","0.0-21.0-1.2","ded44fbb-aae9-4fec-bc39-d4ac87c2aaee","2208","
                  <p style=""text-align: center;"">₪71
                                                <br>55%</p>
                  <p id=""wtp"" style=""text-align:center; margin-top: 0px; margin-bottom: 0px; font-size: 40px"";>מוכנים לשלם: <span id=""c_p_y""></span></p>","34","evaluation","59","27","5B,18A","55","71","34","","","","","","","","","","","","","","","","",""
"","","","","","html-keyboard-response","120","1116003","0.0-21.0-2.2","ded44fbb-aae9-4fec-bc39-d4ac87c2aaee","null","<p style=""text-align: center;"">+</p>","null","fixation","","","","","","","","","","","","","","","","","","","","","","",""
"","","","","","html-slider-response","121","1117006","0.0-21.0-0.3","ded44fbb-aae9-4fec-bc39-d4ac87c2aaee","1000","
                  <p style=""text-align: center;"">₪58
                                                <br>30%</p>
                  <p id=""wtp"" style=""text-align:center; margin-top: 0px; margin-bottom: 0px; font-size: 40px"";>&ensp;</p>","-","viewing","0","19","13C,30A","","","","","","","","","","","","","","","","","","","",""
"","","","","","html-slider-response","122","1118717","0.0-21.0-1.3","ded44fbb-aae9-4fec-bc39-d4ac87c2aaee","1709","
                  <p style=""text-align: center;"">₪58
                                                <br>30%</p>
                  <p id=""wtp"" style=""text-align:center; margin-top: 0px; margin-bottom: 0px; font-size: 40px"";>מוכנים לשלם: <span id=""c_p_y""></span></p>","19","evaluation","21","19","13C,30A","30","58","19","","","","","","","","","","","","","","","","",""
"","","","","","html-keyboard-response","123","1120218","0.0-21.0-2.3","ded44fbb-aae9-4fec-bc39-d4ac87c2aaee","null","<p style=""text-align: center;"">+</p>","null","fixation","","","","","","","","","","","","","","","","","","","","","","",""
"","","","","","html-slider-response","124","1121222","0.0-21.0-0.4","ded44fbb-aae9-4fec-bc39-d4ac87c2aaee","1000","
                  <p style=""text-align: center;"">₪11
                                                <br>75%</p>
                  <p id=""wtp"" style=""text-align:center; margin-top: 0px; margin-bottom: 0px; font-size: 40px"";>&ensp;</p>","-","viewing","0","7","6B,18B,22C,24C,29A","","","","","","","","","","","","","","","","","","","",""
"","","","","","html-slider-response","125","1122869","0.0-21.0-1.4","ded44fbb-aae9-4fec-bc39-d4ac87c2aaee","1646","
                  <p style=""text-align: center;"">₪11
                                                <br>75%</p>
                  <p id=""wtp"" style=""text-align:center; margin-top: 0px; margin-bottom: 0px; font-size: 40px"";>מוכנים לשלם: <span id=""c_p_y""></span></p>","6","evaluation","64","7","6B,18B,22C,24C,29A","75","11","6","","","","","","","","","","","","","","","","",""
"","","","","","html-keyboard-response","126","1124229","0.0-21.0-2.4","ded44fbb-aae9-4fec-bc39-d4ac87c2aaee","null","<p style=""text-align: center;"">+</p>","null","fixation","","","","","","","","","","","","","","","","","","","","","","",""
"","","","","","html-slider-response","127","1125245","0.0-21.0-0.5","ded44fbb-aae9-4fec-bc39-d4ac87c2aaee","1000","
                  <p style=""text-align: center;"">₪71
                                                <br>45%</p>
                  <p id=""wtp"" style=""text-align:center; margin-top: 0px; margin-bottom: 0px; font-size: 40px"";>&ensp;</p>","-","viewing","0","26","2B,16A","","","","","","","","","","","","","","","","","","","",""
"","","","","","html-slider-response","128","1126901","0.0-21.0-1.5","ded44fbb-aae9-4fec-bc39-d4ac87c2aaee","1654","
                  <p style=""text-align: center;"">₪71
                                                <br>45%</p>
                  <p id=""wtp"" style=""text-align:center; margin-top: 0px; margin-bottom: 0px; font-size: 40px"";>מוכנים לשלם: <span id=""c_p_y""></span></p>","28","evaluation","73","26","2B,16A","45","71","28","","","","","","","","","","","","","","","","",""
"","","","","","html-keyboard-response","129","1127820","0.0-21.0-2.5","ded44fbb-aae9-4fec-bc39-d4ac87c2aaee","null","<p style=""text-align: center;"">+</p>","null","fixation","","","","","","","","","","","","","","","","","","","","","","",""
"","","","","","html-slider-response","130","1128831","0.0-21.0-0.6","ded44fbb-aae9-4fec-bc39-d4ac87c2aaee","1000","
                  <p style=""text-align: center;"">₪43
                                                <br>60%</p>
                  <p id=""wtp"" style=""text-align:center; margin-top: 0px; margin-bottom: 0px; font-size: 40px"";>&ensp;</p>","-","viewing","0","17","2A,7A,9A,15B","","","","","","","","","","","","","","","","","","","",""
"","","","","","html-slider-response","131","1130556","0.0-21.0-1.6","ded44fbb-aae9-4fec-bc39-d4ac87c2aaee","1724","
                  <p style=""text-align: center;"">₪43
                                                <br>60%</p>
                  <p id=""wtp"" style=""text-align:center; margin-top: 0px; margin-bottom: 0px; font-size: 40px"";>מוכנים לשלם: <span id=""c_p_y""></span></p>","19","evaluation","35","17","2A,7A,9A,15B","60","43","19","","","","","","","","","","","","","","","","",""
"","","","","","html-keyboard-response","132","1131958","0.0-21.0-2.6","ded44fbb-aae9-4fec-bc39-d4ac87c2aaee","null","<p style=""text-align: center;"">+</p>","null","fixation","","","","","","","","","","","","","","","","","","","","","","",""
"","","","","","html-slider-response","133","1132960","0.0-21.0-0.7","ded44fbb-aae9-4fec-bc39-d4ac87c2aaee","1000","
                  <p style=""text-align: center;"">₪79
                                                <br>65%</p>
                  <p id=""wtp"" style=""text-align:center; margin-top: 0px; margin-bottom: 0px; font-size: 40px"";>&ensp;</p>","-","viewing","0","31","8A","","","","","","","","","","","","","","","","","","","",""
"","","","","","html-slider-response","134","1134564","0.0-21.0-1.7","ded44fbb-aae9-4fec-bc39-d4ac87c2aaee","1603","
                  <p style=""text-align: center;"">₪79
                                                <br>65%</p>
                  <p id=""wtp"" style=""text-align:center; margin-top: 0px; margin-bottom: 0px; font-size: 40px"";>מוכנים לשלם: <span id=""c_p_y""></span></p>","33","evaluation","2","31","8A","65","79","33","","","","","","","","","","","","","","","","",""
"","","","","","html-keyboard-response","135","1135743","0.0-21.0-2.7","ded44fbb-aae9-4fec-bc39-d4ac87c2aaee","null","<p style=""text-align: center;"">+</p>","null","fixation","","","","","","","","","","","","","","","","","","","","","","",""
"","","","","","html-slider-response","136","1136749","0.0-21.0-0.8","ded44fbb-aae9-4fec-bc39-d4ac87c2aaee","1000","
                  <p style=""text-align: center;"">₪18
                                                <br>25%</p>
                  <p id=""wtp"" style=""text-align:center; margin-top: 0px; margin-bottom: 0px; font-size: 40px"";>&ensp;</p>","-","viewing","0","9","14A,23A","","","","","","","","","","","","","","","","","","","",""
"","","","","","html-slider-response","137","1139452","0.0-21.0-1.8","ded44fbb-aae9-4fec-bc39-d4ac87c2aaee","2702","
                  <p style=""text-align: center;"">₪18
                                                <br>25%</p>
                  <p id=""wtp"" style=""text-align:center; margin-top: 0px; margin-bottom: 0px; font-size: 40px"";>מוכנים לשלם: <span id=""c_p_y""></span></p>","9","evaluation","70","9","14A,23A","25","18","9","","","","","","","","","","","","","","","","",""
"","","","","","html-keyboard-response","138","1140365","0.0-21.0-2.8","ded44fbb-aae9-4fec-bc39-d4ac87c2aaee","null","<p style=""text-align: center;"">+</p>","null","fixation","","","","","","","","","","","","","","","","","","","","","","",""
"","","","","","html-slider-response","139","1141377","0.0-21.0-0.9","ded44fbb-aae9-4fec-bc39-d4ac87c2aaee","1000","
                  <p style=""text-align: center;"">₪39
                                                <br>65%</p>
                  <p id=""wtp"" style=""text-align:center; margin-top: 0px; margin-bottom: 0px; font-size: 40px"";>&ensp;</p>","-","viewing","0","16","1A,15A,26C","","","","","","","","","","","","","","","","","","","",""
"","","","","","html-slider-response","140","1144181","0.0-21.0-1.9","ded44fbb-aae9-4fec-bc39-d4ac87c2aaee","2802","
                  <p style=""text-align: center;"">₪39
                                                <br>65%</p>
                  <p id=""wtp"" style=""text-align:center; margin-top: 0px; margin-bottom: 0px; font-size: 40px"";>מוכנים לשלם: <span id=""c_p_y""></span></p>","21","evaluation","77","16","1A,15A,26C","65","39","21","","","","","","","","","","","","","","","","",""
"","","","","","html-keyboard-response","141","1145120","0.0-21.0-2.9","ded44fbb-aae9-4fec-bc39-d4ac87c2aaee","null","<p style=""text-align: center;"">+</p>","null","fixation","","","","","","","","","","","","","","","","","","","","","","",""
"","","","","","html-slider-response","142","1146136","0.0-21.0-0.10","ded44fbb-aae9-4fec-bc39-d4ac87c2aaee","1000","
                  <p style=""text-align: center;"">₪11
                                                <br>20%</p>
                  <p id=""wtp"" style=""text-align:center; margin-top: 0px; margin-bottom: 0px; font-size: 40px"";>&ensp;</p>","-","viewing","0","4","12C,17C,23C,28C","","","","","","","","","","","","","","","","","","","",""
"","","","","","html-slider-response","143","1148701","0.0-21.0-1.10","ded44fbb-aae9-4fec-bc39-d4ac87c2aaee","2563","
                  <p style=""text-align: center;"">₪11
                                                <br>20%</p>
                  <p id=""wtp"" style=""text-align:center; margin-top: 0px; margin-bottom: 0px; font-size: 40px"";>מוכנים לשלם: <span id=""c_p_y""></span></p>","6","evaluation","40","4","12C,17C,23C,28C","20","11","6","","","","","","","","","","","","","","","","",""
"","","","","","html-keyboard-response","144","1149365","0.0-21.0-2.10","ded44fbb-aae9-4fec-bc39-d4ac87c2aaee","null","<p style=""text-align: center;"">+</p>","null","fixation","","","","","","","","","","","","","","","","","","","","","","",""
"","","","","","html-slider-response","145","1150382","0.0-21.0-0.11","ded44fbb-aae9-4fec-bc39-d4ac87c2aaee","1000","
                  <p style=""text-align: center;"">₪79
                                                <br>40%</p>
                  <p id=""wtp"" style=""text-align:center; margin-top: 0px; margin-bottom: 0px; font-size: 40px"";>&ensp;</p>","-","viewing","0","30","9B","","","","","","","","","","","","","","","","","","","",""
"","","","","","html-slider-response","146","1152837","0.0-21.0-1.11","ded44fbb-aae9-4fec-bc39-d4ac87c2aaee","2454","
                  <p style=""text-align: center;"">₪79
                                                <br>40%</p>
                  <p id=""wtp"" style=""text-align:center; margin-top: 0px; margin-bottom: 0px; font-size: 40px"";>מוכנים לשלם: <span id=""c_p_y""></span></p>","15","evaluation","37","30","9B","40","79","15","","","","","","","","","","","","","","","","",""
"","","","","","html-keyboard-response","147","1154137","0.0-21.0-2.11","ded44fbb-aae9-4fec-bc39-d4ac87c2aaee","null","<p style=""text-align: center;"">+</p>","null","fixation","","","","","","","","","","","","","","","","","","","","","","",""
"","","","","","html-slider-response","148","1155152","0.0-21.0-0.12","ded44fbb-aae9-4fec-bc39-d4ac87c2aaee","1000","
                  <p style=""text-align: center;"">₪71
                                                <br>75%</p>
                  <p id=""wtp"" style=""text-align:center; margin-top: 0px; margin-bottom: 0px; font-size: 40px"";>&ensp;</p>","-","viewing","0","28","8B","","","","","","","","","","","","","","","","","","","",""
"","","","","","html-slider-response","149","1157109","0.0-21.0-1.12","ded44fbb-aae9-4fec-bc39-d4ac87c2aaee","1955","
                  <p style=""text-align: center;"">₪71
                                                <br>75%</p>
                  <p id=""wtp"" style=""text-align:center; margin-top: 0px; margin-bottom: 0px; font-size: 40px"";>מוכנים לשלם: <span id=""c_p_y""></span></p>","39","evaluation","65","28","8B","75","71","39","","","","","","","","","","","","","","","","",""
"","","","","","html-keyboard-response","150","1158033","0.0-21.0-2.12","ded44fbb-aae9-4fec-bc39-d4ac87c2aaee","null","<p style=""text-align: center;"">+</p>","null","fixation","","","","","","","","","","","","","","","","","","","","","","",""
"","","","","","html-slider-response","151","1159041","0.0-21.0-0.13","ded44fbb-aae9-4fec-bc39-d4ac87c2aaee","1000","
                  <p style=""text-align: center;"">₪11
                                                <br>45%</p>
                  <p id=""wtp"" style=""text-align:center; margin-top: 0px; margin-bottom: 0px; font-size: 40px"";>&ensp;</p>","-","viewing","0","6","14B,21C,25C","","","","","","","","","","","","","","","","","","","",""
"","","","","","html-slider-response","152","1160629","0.0-21.0-1.13","ded44fbb-aae9-4fec-bc39-d4ac87c2aaee","1587","
                  <p style=""text-align: center;"">₪11
                                                <br>45%</p>
                  <p id=""wtp"" style=""text-align:center; margin-top: 0px; margin-bottom: 0px; font-size: 40px"";>מוכנים לשלם: <span id=""c_p_y""></span></p>","3","evaluation","13","6","14B,21C,25C","45","11","4","","","","","","","","","","","","","","","","",""
"","","","","","html-keyboard-response","153","1161694","0.0-21.0-2.13","ded44fbb-aae9-4fec-bc39-d4ac87c2aaee","null","<p style=""text-align: center;"">+</p>","null","fixation","","","","","","","","","","","","","","","","","","","","","","",""
"","","","","","html-slider-response","154","1162700","0.0-21.0-0.14","ded44fbb-aae9-4fec-bc39-d4ac87c2aaee","1000","
                  <p style=""text-align: center;"">₪4
                                                <br>50%</p>
                  <p id=""wtp"" style=""text-align:center; margin-top: 0px; margin-bottom: 0px; font-size: 40px"";>&ensp;</p>","-","viewing","0","2","4C,17B","","","","","","","","","","","","","","","","","","","",""
"","","","","","html-slider-response","155","1164901","0.0-21.0-1.14","ded44fbb-aae9-4fec-bc39-d4ac87c2aaee","2199","
                  <p style=""text-align: center;"">₪4
                                                <br>50%</p>
                  <p id=""wtp"" style=""text-align:center; margin-top: 0px; margin-bottom: 0px; font-size: 40px"";>מוכנים לשלם: <span id=""c_p_y""></span></p>","1","evaluation","0","2","4C,17B","50","4","1","","","","","","","","","","","","","","","","",""
"","","","","","html-keyboard-response","156","1166186","0.0-21.0-2.14","ded44fbb-aae9-4fec-bc39-d4ac87c2aaee","null","<p style=""text-align: center;"">+</p>","null","fixation","","","","","","","","","","","","","","","","","","","","","","",""
"","","","","","html-slider-response","157","1167189","0.0-21.0-0.15","ded44fbb-aae9-4fec-bc39-d4ac87c2aaee","1000","
                  <p style=""text-align: center;"">₪36
                                                <br>30%</p>
                  <p id=""wtp"" style=""text-align:center; margin-top: 0px; margin-bottom: 0px; font-size: 40px"";>&ensp;</p>","-","viewing","0","11","3C,20A,22A","","","","","","","","","","","","","","","","","","","",""
"","","","","","html-slider-response","158","1168485","0.0-21.0-1.15","ded44fbb-aae9-4fec-bc39-d4ac87c2aaee","1294","
                  <p style=""text-align: center;"">₪36
                                                <br>30%</p>
                  <p id=""wtp"" style=""text-align:center; margin-top: 0px; margin-bottom: 0px; font-size: 40px"";>מוכנים לשלם: <span id=""c_p_y""></span></p>","7","evaluation","65","11","3C,20A,22A","30","36","7","","","","","","","","","","","","","","","","",""
"","","","","","html-keyboard-response","159","1169147","0.0-21.0-2.15","ded44fbb-aae9-4fec-bc39-d4ac87c2aaee","null","<p style=""text-align: center;"">+</p>","null","fixation","","","","","","","","","","","","","","","","","","","","","","",""
"","","","","","html-slider-response","160","1170162","0.0-21.0-0.16","ded44fbb-aae9-4fec-bc39-d4ac87c2aaee","1000","
                  <p style=""text-align: center;"">₪36
                                                <br>70%</p>
                  <p id=""wtp"" style=""text-align:center; margin-top: 0px; margin-bottom: 0px; font-size: 40px"";>&ensp;</p>","-","viewing","0","13","3A,5C,10B","","","","","","","","","","","","","","","","","","","",""
"","","","","","html-slider-response","161","1171701","0.0-21.0-1.16","ded44fbb-aae9-4fec-bc39-d4ac87c2aaee","1538","
                  <p style=""text-align: center;"">₪36
                                                <br>70%</p>
                  <p id=""wtp"" style=""text-align:center; margin-top: 0px; margin-bottom: 0px; font-size: 40px"";>מוכנים לשלם: <span id=""c_p_y""></span></p>","17","evaluation","5","13","3A,5C,10B","70","36","17","","","","","","","","","","","","","","","","",""
"","","","","","html-keyboard-response","162","1172818","0.0-21.0-2.16","ded44fbb-aae9-4fec-bc39-d4ac87c2aaee","null","<p style=""text-align: center;"">+</p>","null","fixation","","","","","","","","","","","","","","","","","","","","","","",""
"","","","","","html-slider-response","163","1173825","0.0-21.0-0.17","ded44fbb-aae9-4fec-bc39-d4ac87c2aaee","1000","
                  <p style=""text-align: center;"">₪18
                                                <br>50%</p>
                  <p id=""wtp"" style=""text-align:center; margin-top: 0px; margin-bottom: 0px; font-size: 40px"";>&ensp;</p>","-","viewing","0","10","2C,16C,22B,28A","","","","","","","","","","","","","","","","","","","",""
"","","","","","html-slider-response","164","1176637","0.0-21.0-1.17","ded44fbb-aae9-4fec-bc39-d4ac87c2aaee","2810","
                  <p style=""text-align: center;"">₪18
                                                <br>50%</p>
                  <p id=""wtp"" style=""text-align:center; margin-top: 0px; margin-bottom: 0px; font-size: 40px"";>מוכנים לשלם: <span id=""c_p_y""></span></p>","5","evaluation","20","10","2C,16C,22B,28A","50","18","6","","","","","","","","","","","","","","","","",""
"","","","","","html-keyboard-response","165","1177595","0.0-21.0-2.17","ded44fbb-aae9-4fec-bc39-d4ac87c2aaee","null","<p style=""text-align: center;"">+</p>","null","fixation","","","","","","","","","","","","","","","","","","","","","","",""
"","","","","","html-slider-response","166","1178609","0.0-21.0-0.18","ded44fbb-aae9-4fec-bc39-d4ac87c2aaee","1000","
                  <p style=""text-align: center;"">₪16
                                                <br>20%</p>
                  <p id=""wtp"" style=""text-align:center; margin-top: 0px; margin-bottom: 0px; font-size: 40px"";>&ensp;</p>","-","viewing","0","8","14C,17A,20C,27A","","","","","","","","","","","","","","","","","","","",""
"","","","","","html-slider-response","167","1181301","0.0-21.0-1.18","ded44fbb-aae9-4fec-bc39-d4ac87c2aaee","2690","
                  <p style=""text-align: center;"">₪16
                                                <br>20%</p>
                  <p id=""wtp"" style=""text-align:center; margin-top: 0px; margin-bottom: 0px; font-size: 40px"";>מוכנים לשלם: <span id=""c_p_y""></span></p>","4","evaluation","39","8","14C,17A,20C,27A","20","16","5","","","","","","","","","","","","","","","","",""
"","","","","","html-keyboard-response","168","1182100","0.0-21.0-2.18","ded44fbb-aae9-4fec-bc39-d4ac87c2aaee","null","<p style=""text-align: center;"">+</p>","null","fixation","","","","","","","","","","","","","","","","","","","","","","",""
"","","","","","html-slider-response","169","1183107","0.0-21.0-0.19","ded44fbb-aae9-4fec-bc39-d4ac87c2aaee","1000","
                  <p style=""text-align: center;"">₪43
                                                <br>75%</p>
                  <p id=""wtp"" style=""text-align:center; margin-top: 0px; margin-bottom: 0px; font-size: 40px"";>&ensp;</p>","-","viewing","0","18","11B,19B,24A,26A","","","","","","","","","","","","","","","","","","","",""
"","","","","","html-slider-response","170","1184445","0.0-21.0-1.19","ded44fbb-aae9-4fec-bc39-d4ac87c2aaee","1337","
                  <p style=""text-align: center;"">₪43
                                                <br>75%</p>
                  <p id=""wtp"" style=""text-align:center; margin-top: 0px; margin-bottom: 0px; font-size: 40px"";>מוכנים לשלם: <span id=""c_p_y""></span></p>","22","evaluation","36","18","11B,19B,24A,26A","75","43","22","","","","","","","","","","","","","","","","",""
"","","","","","html-keyboard-response","171","1185142","0.0-21.0-2.19","ded44fbb-aae9-4fec-bc39-d4ac87c2aaee","null","<p style=""text-align: center;"">+</p>","null","fixation","","","","","","","","","","","","","","","","","","","","","","",""
"","","","","","html-slider-response","172","1186154","0.0-21.0-0.20","ded44fbb-aae9-4fec-bc39-d4ac87c2aaee","1000","
                  <p style=""text-align: center;"">₪36
                                                <br>75%</p>
                  <p id=""wtp"" style=""text-align:center; margin-top: 0px; margin-bottom: 0px; font-size: 40px"";>&ensp;</p>","-","viewing","0","14","4B,5A,13B,16B","","","","","","","","","","","","","","","","","","","",""
"","","","","","html-slider-response","173","1186965","0.0-21.0-1.20","ded44fbb-aae9-4fec-bc39-d4ac87c2aaee","810","
                  <p style=""text-align: center;"">₪36
                                                <br>75%</p>
                  <p id=""wtp"" style=""text-align:center; margin-top: 0px; margin-bottom: 0px; font-size: 40px"";>מוכנים לשלם: <span id=""c_p_y""></span></p>","20","evaluation","15","14","4B,5A,13B,16B","75","36","20","","","","","","","","","","","","","","","","",""
"","","","","","html-keyboard-response","174","1187670","0.0-21.0-2.20","ded44fbb-aae9-4fec-bc39-d4ac87c2aaee","null","<p style=""text-align: center;"">+</p>","null","fixation","","","","","","","","","","","","","","","","","","","","","","",""
"","","","","","html-slider-response","175","1188675","0.0-21.0-0.21","ded44fbb-aae9-4fec-bc39-d4ac87c2aaee","1000","
                  <p style=""text-align: center;"">₪39
                                                <br>60%</p>
                  <p id=""wtp"" style=""text-align:center; margin-top: 0px; margin-bottom: 0px; font-size: 40px"";>&ensp;</p>","-","viewing","0","15","9C,25B","","","","","","","","","","","","","","","","","","","",""
"","","","","","html-slider-response","176","1190212","0.0-21.0-1.21","ded44fbb-aae9-4fec-bc39-d4ac87c2aaee","1536","
                  <p style=""text-align: center;"">₪39
                                                <br>60%</p>
                  <p id=""wtp"" style=""text-align:center; margin-top: 0px; margin-bottom: 0px; font-size: 40px"";>מוכנים לשלם: <span id=""c_p_y""></span></p>","14","evaluation","14","15","9C,25B","60","39","14","","","","","","","","","","","","","","","","",""
"","","","","","html-keyboard-response","177","1191242","0.0-21.0-2.21","ded44fbb-aae9-4fec-bc39-d4ac87c2aaee","null","<p style=""text-align: center;"">+</p>","null","fixation","","","","","","","","","","","","","","","","","","","","","","",""
"","","","","","html-slider-response","178","1192243","0.0-21.0-0.22","ded44fbb-aae9-4fec-bc39-d4ac87c2aaee","1000","
                  <p style=""text-align: center;"">₪58
                                                <br>40%</p>
                  <p id=""wtp"" style=""text-align:center; margin-top: 0px; margin-bottom: 0px; font-size: 40px"";>&ensp;</p>","-","viewing","0","20","10C,13A,19C,21B","","","","","","","","","","","","","","","","","","","",""
"","","","","","html-slider-response","179","1195029","0.0-21.0-1.22","ded44fbb-aae9-4fec-bc39-d4ac87c2aaee","2785","
                  <p style=""text-align: center;"">₪58
                                                <br>40%</p>
                  <p id=""wtp"" style=""text-align:center; margin-top: 0px; margin-bottom: 0px; font-size: 40px"";>מוכנים לשלם: <span id=""c_p_y""></span></p>","20","evaluation","14","20","10C,13A,19C,21B","40","58","20","","","","","","","","","","","","","","","","",""
"","","","","","html-keyboard-response","180","1196425","0.0-21.0-2.22","ded44fbb-aae9-4fec-bc39-d4ac87c2aaee","null","<p style=""text-align: center;"">+</p>","null","fixation","","","","","","","","","","","","","","","","","","","","","","",""
"","","","","","html-slider-response","181","1197429","0.0-21.0-0.23","ded44fbb-aae9-4fec-bc39-d4ac87c2aaee","1000","
                  <p style=""text-align: center;"">₪58
                                                <br>45%</p>
                  <p id=""wtp"" style=""text-align:center; margin-top: 0px; margin-bottom: 0px; font-size: 40px"";>&ensp;</p>","-","viewing","0","21","11C,18C,25A","","","","","","","","","","","","","","","","","","","",""
"","","","","","html-slider-response","182","1198541","0.0-21.0-1.23","ded44fbb-aae9-4fec-bc39-d4ac87c2aaee","1110","
                  <p style=""text-align: center;"">₪58
                                                <br>45%</p>
                  <p id=""wtp"" style=""text-align:center; margin-top: 0px; margin-bottom: 0px; font-size: 40px"";>מוכנים לשלם: <span id=""c_p_y""></span></p>","19","evaluation","58","21","11C,18C,25A","45","58","19","","","","","","","","","","","","","","","","",""
"","","","","","html-keyboard-response","183","1199458","0.0-21.0-2.23","ded44fbb-aae9-4fec-bc39-d4ac87c2aaee","null","<p style=""text-align: center;"">+</p>","null","fixation","","","","","","","","","","","","","","","","","","","","","","",""
"","","","","","html-slider-response","184","1200469","0.0-21.0-0.24","ded44fbb-aae9-4fec-bc39-d4ac87c2aaee","1000","
                  <p style=""text-align: center;"">₪64
                                                <br>25%</p>
                  <p id=""wtp"" style=""text-align:center; margin-top: 0px; margin-bottom: 0px; font-size: 40px"";>&ensp;</p>","-","viewing","0","24","6A,21A","","","","","","","","","","","","","","","","","","","",""
"","","","","","html-slider-response","185","1201564","0.0-21.0-1.24","ded44fbb-aae9-4fec-bc39-d4ac87c2aaee","1094","
                  <p style=""text-align: center;"">₪64
                                                <br>25%</p>
                  <p id=""wtp"" style=""text-align:center; margin-top: 0px; margin-bottom: 0px; font-size: 40px"";>מוכנים לשלם: <span id=""c_p_y""></span></p>","7","evaluation","64","24","6A,21A","25","64","7","","","","","","","","","","","","","","","","",""
"","","","","","html-keyboard-response","186","1202939","0.0-21.0-2.24","ded44fbb-aae9-4fec-bc39-d4ac87c2aaee","null","<p style=""text-align: center;"">+</p>","null","fixation","","","","","","","","","","","","","","","","","","","","","","",""
"","","","","","html-slider-response","187","1203941","0.0-21.0-0.25","ded44fbb-aae9-4fec-bc39-d4ac87c2aaee","1000","
                  <p style=""text-align: center;"">₪64
                                                <br>50%</p>
                  <p id=""wtp"" style=""text-align:center; margin-top: 0px; margin-bottom: 0px; font-size: 40px"";>&ensp;</p>","-","viewing","0","25","1B,3B,4A","","","","","","","","","","","","","","","","","","","",""
"","","","","","html-slider-response","188","1205605","0.0-21.0-1.25","ded44fbb-aae9-4fec-bc39-d4ac87c2aaee","1663","
                  <p style=""text-align: center;"">₪64
                                                <br>50%</p>
                  <p id=""wtp"" style=""text-align:center; margin-top: 0px; margin-bottom: 0px; font-size: 40px"";>מוכנים לשלם: <span id=""c_p_y""></span></p>","26","evaluation","9","25","1B,3B,4A","50","64","26","","","","","","","","","","","","","","","","",""
"","","","","","html-keyboard-response","189","1206314","0.0-21.0-2.25","ded44fbb-aae9-4fec-bc39-d4ac87c2aaee","null","<p style=""text-align: center;"">+</p>","null","fixation","","","","","","","","","","","","","","","","","","","","","","",""
"","","","","","html-slider-response","190","1207325","0.0-21.0-0.26","ded44fbb-aae9-4fec-bc39-d4ac87c2aaee","1000","
                  <p style=""text-align: center;"">₪36
                                                <br>60%</p>
                  <p id=""wtp"" style=""text-align:center; margin-top: 0px; margin-bottom: 0px; font-size: 40px"";>&ensp;</p>","-","viewing","0","12","1C,7C,15C","","","","","","","","","","","","","","","","","","","",""
"","","","","","html-slider-response","191","1209293","0.0-21.0-1.26","ded44fbb-aae9-4fec-bc39-d4ac87c2aaee","1967","
                  <p style=""text-align: center;"">₪36
                                                <br>60%</p>
                  <p id=""wtp"" style=""text-align:center; margin-top: 0px; margin-bottom: 0px; font-size: 40px"";>מוכנים לשלם: <span id=""c_p_y""></span></p>","19","evaluation","0","12","1C,7C,15C","60","36","20","","","","","","","","","","","","","","","","",""
"","","","","","html-keyboard-response","192","1210125","0.0-21.0-2.26","ded44fbb-aae9-4fec-bc39-d4ac87c2aaee","null","<p style=""text-align: center;"">+</p>","null","fixation","","","","","","","","","","","","","","","","","","","","","","",""
"","","","","","html-slider-response","193","1211132","0.0-21.0-0.27","ded44fbb-aae9-4fec-bc39-d4ac87c2aaee","1000","
                  <p style=""text-align: center;"">₪4
                                                <br>25%</p>
                  <p id=""wtp"" style=""text-align:center; margin-top: 0px; margin-bottom: 0px; font-size: 40px"";>&ensp;</p>","-","viewing","0","1","6C,29B,30C","","","","","","","","","","","","","","","","","","","",""
"","","","","","html-slider-response","194","1212572","0.0-21.0-1.27","ded44fbb-aae9-4fec-bc39-d4ac87c2aaee","1439","
                  <p style=""text-align: center;"">₪4
                                                <br>25%</p>
                  <p id=""wtp"" style=""text-align:center; margin-top: 0px; margin-bottom: 0px; font-size: 40px"";>מוכנים לשלם: <span id=""c_p_y""></span></p>","4","evaluation","43","1","6C,29B,30C","25","4","4","","","","","","","","","","","","","","","","",""
"","","","","","html-keyboard-response","195","1213954","0.0-21.0-2.27","ded44fbb-aae9-4fec-bc39-d4ac87c2aaee","null","<p style=""text-align: center;"">+</p>","null","fixation","","","","","","","","","","","","","","","","","","","","","","",""
"","","","","","html-slider-response","196","1214960","0.0-21.0-0.28","ded44fbb-aae9-4fec-bc39-d4ac87c2aaee","1000","
                  <p style=""text-align: center;"">₪76
                                                <br>65%</p>
                  <p id=""wtp"" style=""text-align:center; margin-top: 0px; margin-bottom: 0px; font-size: 40px"";>&ensp;</p>","-","viewing","0","29","8C,19A,24B","","","","","","","","","","","","","","","","","","","",""
"","","","","","html-slider-response","197","1218052","0.0-21.0-1.28","ded44fbb-aae9-4fec-bc39-d4ac87c2aaee","3091","
                  <p style=""text-align: center;"">₪76
                                                <br>65%</p>
                  <p id=""wtp"" style=""text-align:center; margin-top: 0px; margin-bottom: 0px; font-size: 40px"";>מוכנים לשלם: <span id=""c_p_y""></span></p>","34","evaluation","54","29","8C,19A,24B","65","76","34","","","","","","","","","","","","","","","","",""
"","","","","","html-keyboard-response","198","1219024","0.0-21.0-2.28","ded44fbb-aae9-4fec-bc39-d4ac87c2aaee","null","<p style=""text-align: center;"">+</p>","null","fixation","","","","","","","","","","","","","","","","","","","","","","",""
"","","","","","html-slider-response","199","1220038","0.0-21.0-0.29","ded44fbb-aae9-4fec-bc39-d4ac87c2aaee","1000","
                  <p style=""text-align: center;"">₪61
                                                <br>55%</p>
                  <p id=""wtp"" style=""text-align:center; margin-top: 0px; margin-bottom: 0px; font-size: 40px"";>&ensp;</p>","-","viewing","0","23","7B,26B","","","","","","","","","","","","","","","","","","","",""
"","","","","","html-slider-response","200","1221988","0.0-21.0-1.29","ded44fbb-aae9-4fec-bc39-d4ac87c2aaee","1949","
                  <p style=""text-align: center;"">₪61
                                                <br>55%</p>
                  <p id=""wtp"" style=""text-align:center; margin-top: 0px; margin-bottom: 0px; font-size: 40px"";>מוכנים לשלם: <span id=""c_p_y""></span></p>","25","evaluation","64","23","7B,26B","55","61","25","","","","","","","","","","","","","","","","",""
"","","","","","html-keyboard-response","201","1223212","0.0-21.0-2.29","ded44fbb-aae9-4fec-bc39-d4ac87c2aaee","null","<p style=""text-align: center;"">+</p>","null","fixation","","","","","","","","","","","","","","","","","","","","","","",""
"","","","","","html-slider-response","202","1224227","0.0-21.0-0.30","ded44fbb-aae9-4fec-bc39-d4ac87c2aaee","1000","
                  <p style=""text-align: center;"">₪61
                                                <br>45%</p>
                  <p id=""wtp"" style=""text-align:center; margin-top: 0px; margin-bottom: 0px; font-size: 40px"";>&ensp;</p>","-","viewing","0","22","10A,11A","","","","","","","","","","","","","","","","","","","",""
"","","","","","html-slider-response","203","1225613","0.0-21.0-1.30","ded44fbb-aae9-4fec-bc39-d4ac87c2aaee","1385","
                  <p style=""text-align: center;"">₪61
                                                <br>45%</p>
                  <p id=""wtp"" style=""text-align:center; margin-top: 0px; margin-bottom: 0px; font-size: 40px"";>מוכנים לשלם: <span id=""c_p_y""></span></p>","19","evaluation","73","22","10A,11A","45","61","19","","","","","","","","","","","","","","","","",""
"","","","","","html-keyboard-response","204","1227017","0.0-21.0-2.30","ded44fbb-aae9-4fec-bc39-d4ac87c2aaee","null","<p style=""text-align: center;"">+</p>","null","fixation","","","","","","","","","","","","","","","","","","","","","","",""
"","","","","","html-keyboard-response","205","1228029","0.0-22.0","ded44fbb-aae9-4fec-bc39-d4ac87c2aaee","null","<p style=""text-align: center;"">+</p>","null","fixation","","","","","","","","","","","","","","","","","","","","","","",""
"","","","","","html-keyboard-response","206","1229148","0.0-23.0","ded44fbb-aae9-4fec-bc39-d4ac87c2aaee","null","<p>הפסקה.
          <br>לחצו כדי להמשיך.</p>","1","scan_wait","","","","","","","","","","","","","","","","","","","","","","",""
"","","","","","html-keyboard-response","207","1230150","0.0-24.0","ded44fbb-aae9-4fec-bc39-d4ac87c2aaee","null","<p style=""text-align: center;"">+</p>","null","fixation","","","","","","","","","","","","","","","","","","","","","","",""
"","","","","","html-slider-response","208","1231167","0.0-25.0-0.0","ded44fbb-aae9-4fec-bc39-d4ac87c2aaee","1000","
                  <p style=""text-align: center;"">₪71
                                                <br>75%</p>
                  <p id=""wtp"" style=""text-align:center; margin-top: 0px; margin-bottom: 0px; font-size: 40px"";>&ensp;</p>","-","viewing","0","28","8B","","","","","","","","","","","","","","","","","","","",""
"","","","","","html-slider-response","209","1232324","0.0-25.0-1.0","ded44fbb-aae9-4fec-bc39-d4ac87c2aaee","1157","
                  <p style=""text-align: center;"">₪71
                                                <br>75%</p>
                  <p id=""wtp"" style=""text-align:center; margin-top: 0px; margin-bottom: 0px; font-size: 40px"";>מוכנים לשלם: <span id=""c_p_y""></span></p>","39","evaluation","55","28","8B","75","71","39","","","","","","","","","","","","","","","","",""
"","","","","","html-keyboard-response","210","1232851","0.0-25.0-2.0","ded44fbb-aae9-4fec-bc39-d4ac87c2aaee","null","<p style=""text-align: center;"">+</p>","null","fixation","","","","","","","","","","","","","","","","","","","","","","",""
"","","","","","html-slider-response","211","1233853","0.0-25.0-0.1","ded44fbb-aae9-4fec-bc39-d4ac87c2aaee","1000","
                  <p style=""text-align: center;"">₪11
                                                <br>25%</p>
                  <p id=""wtp"" style=""text-align:center; margin-top: 0px; margin-bottom: 0px; font-size: 40px"";>&ensp;</p>","-","viewing","0","5","12A,27B,28B,30B","","","","","","","","","","","","","","","","","","","",""
"","","","","","html-slider-response","212","1235180","0.0-25.0-1.1","ded44fbb-aae9-4fec-bc39-d4ac87c2aaee","1326","
                  <p style=""text-align: center;"">₪11
                                                <br>25%</p>
                  <p id=""wtp"" style=""text-align:center; margin-top: 0px; margin-bottom: 0px; font-size: 40px"";>מוכנים לשלם: <span id=""c_p_y""></span></p>","4","evaluation","60","5","12A,27B,28B,30B","25","11","4","","","","","","","","","","","","","","","","",""
"","","","","","html-keyboard-response","213","1236510","0.0-25.0-2.1","ded44fbb-aae9-4fec-bc39-d4ac87c2aaee","null","<p style=""text-align: center;"">+</p>","null","fixation","","","","","","","","","","","","","","","","","","","","","","",""
"","","","","","html-slider-response","214","1237517","0.0-25.0-0.2","ded44fbb-aae9-4fec-bc39-d4ac87c2aaee","1000","
                  <p style=""text-align: center;"">₪4
                                                <br>75%</p>
                  <p id=""wtp"" style=""text-align:center; margin-top: 0px; margin-bottom: 0px; font-size: 40px"";>&ensp;</p>","-","viewing","0","3","12B,20B,23B,27C,29C","","","","","","","","","","","","","","","","","","","",""
"","","","","","html-slider-response","215","1238420","0.0-25.0-1.2","ded44fbb-aae9-4fec-bc39-d4ac87c2aaee","902","
                  <p style=""text-align: center;"">₪4
                                                <br>75%</p>
                  <p id=""wtp"" style=""text-align:center; margin-top: 0px; margin-bottom: 0px; font-size: 40px"";>מוכנים לשלם: <span id=""c_p_y""></span></p>","4","evaluation","62","3","12B,20B,23B,27C,29C","75","4","4","","","","","","","","","","","","","","","","",""
"","","","","","html-keyboard-response","216","1239895","0.0-25.0-2.2","ded44fbb-aae9-4fec-bc39-d4ac87c2aaee","null","<p style=""text-align: center;"">+</p>","null","fixation","","","","","","","","","","","","","","","","","","","","","","",""
"","","","","","html-slider-response","217","1240897","0.0-25.0-0.3","ded44fbb-aae9-4fec-bc39-d4ac87c2aaee","1000","
                  <p style=""text-align: center;"">₪58
                                                <br>45%</p>
                  <p id=""wtp"" style=""text-align:center; margin-top: 0px; margin-bottom: 0px; font-size: 40px"";>&ensp;</p>","-","viewing","0","21","11C,18C,25A","","","","","","","","","","","","","","","","","","","",""
"","","","","","html-slider-response","218","1243348","0.0-25.0-1.3","ded44fbb-aae9-4fec-bc39-d4ac87c2aaee","2450","
                  <p style=""text-align: center;"">₪58
                                                <br>45%</p>
                  <p id=""wtp"" style=""text-align:center; margin-top: 0px; margin-bottom: 0px; font-size: 40px"";>מוכנים לשלם: <span id=""c_p_y""></span></p>","16","evaluation","49","21","11C,18C,25A","45","58","16","","","","","","","","","","","","","","","","",""
"","","","","","html-keyboard-response","219","1244363","0.0-25.0-2.3","ded44fbb-aae9-4fec-bc39-d4ac87c2aaee","null","<p style=""text-align: center;"">+</p>","null","fixation","","","","","","","","","","","","","","","","","","","","","","",""
"","","","","","html-slider-response","220","1245380","0.0-25.0-0.4","ded44fbb-aae9-4fec-bc39-d4ac87c2aaee","1000","
                  <p style=""text-align: center;"">₪79
                                                <br>40%</p>
                  <p id=""wtp"" style=""text-align:center; margin-top: 0px; margin-bottom: 0px; font-size: 40px"";>&ensp;</p>","-","viewing","0","30","9B","","","","","","","","","","","","","","","","","","","",""
"","","","","","html-slider-response","221","1249268","0.0-25.0-1.4","ded44fbb-aae9-4fec-bc39-d4ac87c2aaee","3887","
                  <p style=""text-align: center;"">₪79
                                                <br>40%</p>
                  <p id=""wtp"" style=""text-align:center; margin-top: 0px; margin-bottom: 0px; font-size: 40px"";>מוכנים לשלם: <span id=""c_p_y""></span></p>","25","evaluation","9","30","9B","40","79","25","","","","","","","","","","","","","","","","",""
"","","","","","html-keyboard-response","222","1250348","0.0-25.0-2.4","ded44fbb-aae9-4fec-bc39-d4ac87c2aaee","null","<p style=""text-align: center;"">+</p>","null","fixation","","","","","","","","","","","","","","","","","","","","","","",""
"","","","","","html-slider-response","223","1251357","0.0-25.0-0.5","ded44fbb-aae9-4fec-bc39-d4ac87c2aaee","1000","
                  <p style=""text-align: center;"">₪58
                                                <br>40%</p>
                  <p id=""wtp"" style=""text-align:center; margin-top: 0px; margin-bottom: 0px; font-size: 40px"";>&ensp;</p>","-","viewing","0","20","10C,13A,19C,21B","","","","","","","","","","","","","","","","","","","",""
"","","","","","html-slider-response","224","1253372","0.0-25.0-1.5","ded44fbb-aae9-4fec-bc39-d4ac87c2aaee","2014","
                  <p style=""text-align: center;"">₪58
                                                <br>40%</p>
                  <p id=""wtp"" style=""text-align:center; margin-top: 0px; margin-bottom: 0px; font-size: 40px"";>מוכנים לשלם: <span id=""c_p_y""></span></p>","22","evaluation","2","20","10C,13A,19C,21B","40","58","22","","","","","","","","","","","","","","","","",""
"","","","","","html-keyboard-response","225","1253906","0.0-25.0-2.5","ded44fbb-aae9-4fec-bc39-d4ac87c2aaee","null","<p style=""text-align: center;"">+</p>","null","fixation","","","","","","","","","","","","","","","","","","","","","","",""
"","","","","","html-slider-response","226","1254923","0.0-25.0-0.6","ded44fbb-aae9-4fec-bc39-d4ac87c2aaee","1000","
                  <p style=""text-align: center;"">₪4
                                                <br>25%</p>
                  <p id=""wtp"" style=""text-align:center; margin-top: 0px; margin-bottom: 0px; font-size: 40px"";>&ensp;</p>","-","viewing","0","1","6C,29B,30C","","","","","","","","","","","","","","","","","","","",""
"","","","","","html-slider-response","227","1257124","0.0-25.0-1.6","ded44fbb-aae9-4fec-bc39-d4ac87c2aaee","2200","
                  <p style=""text-align: center;"">₪4
                                                <br>25%</p>
                  <p id=""wtp"" style=""text-align:center; margin-top: 0px; margin-bottom: 0px; font-size: 40px"";>מוכנים לשלם: <span id=""c_p_y""></span></p>","2","evaluation","30","1","6C,29B,30C","25","4","2","","","","","","","","","","","","","","","","",""
"","","","","","html-keyboard-response","228","1257691","0.0-25.0-2.6","ded44fbb-aae9-4fec-bc39-d4ac87c2aaee","null","<p style=""text-align: center;"">+</p>","null","fixation","","","","","","","","","","","","","","","","","","","","","","",""
"","","","","","html-slider-response","229","1258696","0.0-25.0-0.7","ded44fbb-aae9-4fec-bc39-d4ac87c2aaee","1000","
                  <p style=""text-align: center;"">₪36
                                                <br>30%</p>
                  <p id=""wtp"" style=""text-align:center; margin-top: 0px; margin-bottom: 0px; font-size: 40px"";>&ensp;</p>","-","viewing","0","11","3C,20A,22A","","","","","","","","","","","","","","","","","","","",""
"","","","","","html-slider-response","230","1260268","0.0-25.0-1.7","ded44fbb-aae9-4fec-bc39-d4ac87c2aaee","1572","
                  <p style=""text-align: center;"">₪36
                                                <br>30%</p>
                  <p id=""wtp"" style=""text-align:center; margin-top: 0px; margin-bottom: 0px; font-size: 40px"";>מוכנים לשלם: <span id=""c_p_y""></span></p>","10","evaluation","30","11","3C,20A,22A","30","36","10","","","","","","","","","","","","","","","","",""
"","","","","","html-keyboard-response","231","1261219","0.0-25.0-2.7","ded44fbb-aae9-4fec-bc39-d4ac87c2aaee","null","<p style=""text-align: center;"">+</p>","null","fixation","","","","","","","","","","","","","","","","","","","","","","",""
"","","","","","html-slider-response","232","1262222","0.0-25.0-0.8","ded44fbb-aae9-4fec-bc39-d4ac87c2aaee","1000","
                  <p style=""text-align: center;"">₪64
                                                <br>25%</p>
                  <p id=""wtp"" style=""text-align:center; margin-top: 0px; margin-bottom: 0px; font-size: 40px"";>&ensp;</p>","-","viewing","0","24","6A,21A","","","","","","","","","","","","","","","","","","","",""
"","","","","","html-slider-response","233","1264269","0.0-25.0-1.8","ded44fbb-aae9-4fec-bc39-d4ac87c2aaee","2046","
                  <p style=""text-align: center;"">₪64
                                                <br>25%</p>
                  <p id=""wtp"" style=""text-align:center; margin-top: 0px; margin-bottom: 0px; font-size: 40px"";>מוכנים לשלם: <span id=""c_p_y""></span></p>","9","evaluation","76","24","6A,21A","25","64","10","","","","","","","","","","","","","","","","",""
"","","","","","html-keyboard-response","234","1265362","0.0-25.0-2.8","ded44fbb-aae9-4fec-bc39-d4ac87c2aaee","null","<p style=""text-align: center;"">+</p>","null","fixation","","","","","","","","","","","","","","","","","","","","","","",""
"","","","","","html-slider-response","235","1266365","0.0-25.0-0.9","ded44fbb-aae9-4fec-bc39-d4ac87c2aaee","1000","
                  <p style=""text-align: center;"">₪71
                                                <br>55%</p>
                  <p id=""wtp"" style=""text-align:center; margin-top: 0px; margin-bottom: 0px; font-size: 40px"";>&ensp;</p>","-","viewing","0","27","5B,18A","","","","","","","","","","","","","","","","","","","",""
"","","","","","html-slider-response","236","1269212","0.0-25.0-1.9","ded44fbb-aae9-4fec-bc39-d4ac87c2aaee","2846","
                  <p style=""text-align: center;"">₪71
                                                <br>55%</p>
                  <p id=""wtp"" style=""text-align:center; margin-top: 0px; margin-bottom: 0px; font-size: 40px"";>מוכנים לשלם: <span id=""c_p_y""></span></p>","32","evaluation","75","27","5B,18A","55","71","32","","","","","","","","","","","","","","","","",""
"","","","","","html-keyboard-response","237","1270408","0.0-25.0-2.9","ded44fbb-aae9-4fec-bc39-d4ac87c2aaee","null","<p style=""text-align: center;"">+</p>","null","fixation","","","","","","","","","","","","","","","","","","","","","","",""
"","","","","","html-slider-response","238","1271413","0.0-25.0-0.10","ded44fbb-aae9-4fec-bc39-d4ac87c2aaee","1000","
                  <p style=""text-align: center;"">₪11
                                                <br>45%</p>
                  <p id=""wtp"" style=""text-align:center; margin-top: 0px; margin-bottom: 0px; font-size: 40px"";>&ensp;</p>","-","viewing","0","6","14B,21C,25C","","","","","","","","","","","","","","","","","","","",""
"","","","","","html-slider-response","239","1274404","0.0-25.0-1.10","ded44fbb-aae9-4fec-bc39-d4ac87c2aaee","2990","
                  <p style=""text-align: center;"">₪11
                                                <br>45%</p>
                  <p id=""wtp"" style=""text-align:center; margin-top: 0px; margin-bottom: 0px; font-size: 40px"";>מוכנים לשלם: <span id=""c_p_y""></span></p>","6","evaluation","44","6","14B,21C,25C","45","11","7","","","","","","","","","","","","","","","","",""
"","","","","","html-keyboard-response","240","1275837","0.0-25.0-2.10","ded44fbb-aae9-4fec-bc39-d4ac87c2aaee","null","<p style=""text-align: center;"">+</p>","null","fixation","","","","","","","","","","","","","","","","","","","","","","",""
"","","","","","html-slider-response","241","1276849","0.0-25.0-0.11","ded44fbb-aae9-4fec-bc39-d4ac87c2aaee","1000","
                  <p style=""text-align: center;"">₪4
                                                <br>50%</p>
                  <p id=""wtp"" style=""text-align:center; margin-top: 0px; margin-bottom: 0px; font-size: 40px"";>&ensp;</p>","-","viewing","0","2","4C,17B","","","","","","","","","","","","","","","","","","","",""
"","","","","","html-slider-response","242","1278668","0.0-25.0-1.11","ded44fbb-aae9-4fec-bc39-d4ac87c2aaee","1818","
                  <p style=""text-align: center;"">₪4
                                                <br>50%</p>
                  <p id=""wtp"" style=""text-align:center; margin-top: 0px; margin-bottom: 0px; font-size: 40px"";>מוכנים לשלם: <span id=""c_p_y""></span></p>","3","evaluation","69","2","4C,17B","50","4","4","","","","","","","","","","","","","","","","",""
"","","","","","html-keyboard-response","243","1279572","0.0-25.0-2.11","ded44fbb-aae9-4fec-bc39-d4ac87c2aaee","null","<p style=""text-align: center;"">+</p>","null","fixation","","","","","","","","","","","","","","","","","","","","","","",""
"","","","","","html-slider-response","244","1280583","0.0-25.0-0.12","ded44fbb-aae9-4fec-bc39-d4ac87c2aaee","1000","
                  <p style=""text-align: center;"">₪36
                                                <br>75%</p>
                  <p id=""wtp"" style=""text-align:center; margin-top: 0px; margin-bottom: 0px; font-size: 40px"";>&ensp;</p>","-","viewing","0","14","4B,5A,13B,16B","","","","","","","","","","","","","","","","","","","",""
"","","","","","html-slider-response","245","1283820","0.0-25.0-1.12","ded44fbb-aae9-4fec-bc39-d4ac87c2aaee","3236","
                  <p style=""text-align: center;"">₪36
                                                <br>75%</p>
                  <p id=""wtp"" style=""text-align:center; margin-top: 0px; margin-bottom: 0px; font-size: 40px"";>מוכנים לשלם: <span id=""c_p_y""></span></p>","14","evaluation","67","14","4B,5A,13B,16B","75","36","14","","","","","","","","","","","","","","","","",""
"","","","","","html-keyboard-response","246","1284837","0.0-25.0-2.12","ded44fbb-aae9-4fec-bc39-d4ac87c2aaee","null","<p style=""text-align: center;"">+</p>","null","fixation","","","","","","","","","","","","","","","","","","","","","","",""
"","","","","","html-slider-response","247","1285852","0.0-25.0-0.13","ded44fbb-aae9-4fec-bc39-d4ac87c2aaee","1000","
                  <p style=""text-align: center;"">₪39
                                                <br>65%</p>
                  <p id=""wtp"" style=""text-align:center; margin-top: 0px; margin-bottom: 0px; font-size: 40px"";>&ensp;</p>","-","viewing","0","16","1A,15A,26C","","","","","","","","","","","","","","","","","","","",""
"","","","","","html-slider-response","248","1288956","0.0-25.0-1.13","ded44fbb-aae9-4fec-bc39-d4ac87c2aaee","3103","
                  <p style=""text-align: center;"">₪39
                                                <br>65%</p>
                  <p id=""wtp"" style=""text-align:center; margin-top: 0px; margin-bottom: 0px; font-size: 40px"";>מוכנים לשלם: <span id=""c_p_y""></span></p>","37","evaluation","71","16","1A,15A,26C","65","39","37","","","","","","","","","","","","","","","","",""
