"success","timeout","failed_images","failed_audio","failed_video","trial_type","trial_index","time_elapsed","internal_node_id","subject_id","rt","stimulus","response","part","slider_start","ID","set_ID","prob","amount","last_location","actual_choice","actual_EV","binary_id","trinary_id","catch","direction","A_key","S_key","D_key","choice_prob","choice_amount","won_prize","potential_prize_amount","potential_prize_prob","total_prize","accuracy"
"true","false","[]","[]","[]","preload","0","16","0.0-0.0","68a31890-b93c-41a2-96ee-e4992eedaa7d","","","","","","","","","","","","","","","","","","","","","","","","","",""
"","","","","","html-keyboard-response","1","12692","0.0-1.0","68a31890-b93c-41a2-96ee-e4992eedaa7d","null","
          <h1>שלום וברוכים הבאים!</h1>
          <p>לפניכם ניסוי בקבלת החלטות עם שני חלקים.
          <br><br>לחצו על העכבר כדי להמשיך.</p>","0","example","","","","","","","","","","","","","","","","","","","","","",""
"","","","","","html-keyboard-response","2","18300","0.0-2.0","68a31890-b93c-41a2-96ee-e4992eedaa7d","null","
        <h1>חלק 1</h1>
        <p>בקרוב יוצגו בפניכם הגרלות.
        <br>עליכם לבחור את המחיר המירבי שתהיו מוכנים לשלם כדי להשתתף בהגרלה שתוצג.
        <br>יש לכם תקציב של ₪80 לכל הגרלה. 
        <br>נסו להעריך כל הגרלה בנפרד ולחשוב כמה היא שווה עבורכם, ₪80 זמינים לכל הגרלה בנפרד.
        <br><br>לחצו על העכבר כדי להמשיך.</p>","1","instructions","","","","","","","","","","","","","","","","","","","","","",""
"","","","","","html-keyboard-response","3","23236","0.0-3.0","68a31890-b93c-41a2-96ee-e4992eedaa7d","null","
        <p>בסוף הניסוי, המחשב יבחר את אחת ההגרלות ויקבע מחיר לכרטיס עבורה. 
        <br>במידה והמחיר שבחרתם נמוך מהמחיר שנבחר על ידי המחשב, לא תשתתפו בהגרלה ותשארו עם מלוא התקציב.
        <br>במידה והמחיר שבחרתם גבוה מהמחיר שנבחר על ידי המחשב, תשלמו את המחיר שנקבע ותשתתפו בהגרלה.
        <br><br>לחצו על העכבר כדי להמשיך.</p>","1","instructions","","","","","","","","","","","","","","","","","","","","","",""
"","","","","","html-slider-response","4","41748","0.0-4.0","68a31890-b93c-41a2-96ee-e4992eedaa7d","18410","
        <p style=""font-size: 42px;"">נתחיל עם דוגמא: 
        <br>ההגרלה מטה מציעה 65% סיכוי לזכות ב-₪40 
        <br>&emsp;&emsp;&emsp;&emsp;&emsp;&emsp;&emsp;&emsp;&ensp;35% סיכוי לזכות ב-₪0.
        <br><br>מה המחיר המירבי שתהיו מוכנים לשלם על כרטיס להגרלה זו בין 0 ל-₪80?
        <br>הזיזו את העכבר על פני המלבן ולחצו כדי לבצע בחירה.</p>
        
        <p style=""text-align: center;"">₪40<br>65%</p>

        <p id=""wtp"" style=""text-align:center; margin-top: 0px; margin-bottom: 0px; font-size: 40px"";>מוכנים לשלם: <span id=""c_p_y""></span></p>","20","example","0","","","","","","","","","","","","","","","","","","","","",""
"","","","","","html-keyboard-response","5","48004","0.0-5.0","68a31890-b93c-41a2-96ee-e4992eedaa7d","null","<p>יפה מאוד!
                <br> בחרתם שתהיו מוכנים לשלם ₪20 כדי להשתתף בהגרלה:
                <br><p style=""text-align: center;"">₪40<br>65%</p>
                <p>נשמע נכון?
                <br>נניח שהגרלה זו נבחרה בסוף הניסוי.
                <br>כעת המחשב יקבע מחיר עבורה באקראי.
                <br>לחצו על העכבר להמשך.</p>","1","example","","","","","","","","","","","","","","","","","","","","","",""
"","","","","","html-keyboard-response","6","54844","0.0-6.0","68a31890-b93c-41a2-96ee-e4992eedaa7d","null","<p>המחשב קבע מחיר: ₪25
                <br>ואתם בחרתם לשלם לכל היותר: ₪20
                <br><br>מכיוון שהמחיר שבחרתם נמוך מהמחיר שנקבע, לא תתשתתפו בהגרלה.
                <br>במקרה כזה, בסוף הניסוי תקבלו את כל התקציב ההתחלתי של ₪80.
                <br><br>לחצו על העכבר להמשך.</p>","1","example","","","","","","","","","","","","","","","","","","","","","",""
"","","","","","html-slider-response","7","64197","0.0-7.0","68a31890-b93c-41a2-96ee-e4992eedaa7d","9094","<p style=""font-size: 42px;"">הנה עוד דוגמא:
                <br>ההגרלה מטה מציעה 35% סיכוי לזכות ב-₪18 
                <br>&emsp;&emsp;&emsp;&emsp;&emsp;&emsp;&emsp;&emsp;&ensp;65% סיכוי לזכות ב-₪0.</p>
        
                <p style=""text-align: center;"">₪18<br>35%</p>
                <p id=""wtp"" style=""text-align:center; margin-top: 0px; margin-bottom: 0px; font-size: 40px"";>מוכנים לשלם: <span id=""c_p_y""></span></p>","0","example","67","","","","","","","","","","","","","","","","","","","","",""
"","","","","","html-keyboard-response","8","67756","0.0-8.0","68a31890-b93c-41a2-96ee-e4992eedaa7d","null","<p>הייתם מוכנים לשלם  ₪0 כדי להשתתף בהגרלה:
                <p style=""text-align: center;"">₪18<br>35%</p>
                <p>כעת נניח שהמחשב בחר את ההגרלה הזו בסוף הניסוי, וקבע עבורה מחיר.
                <br><br>לחצו על העכבר כדי להמשיך.</p>","1","instructions","","","","","","","","","","","","","","","","","","","","","",""
"","","","","","html-keyboard-response","9","77245","0.0-9.0","68a31890-b93c-41a2-96ee-e4992eedaa7d","null","<p>המחשב קבע מחיר להגרלה: ₪0
                <br>ואתם בחרתם לשלם לכל היותר: ₪0
                <br><br>כעת המחיר שנקבע זהה לזה שבחרתם, אז תשלמו את המחיר שקבע המחשב (₪0) ותשתתפו בהגרלה.
                <br>במקרה כזה, תסיימו את הניסוי עם תקציב של ₪80 ועם סיכוי לזכות ב-₪18 נוספים מההגרלה.
                <br>כלומר, תוכלו לקבל ₪80 אם לא תזכו בהגרלה, או ₪98 אם תזכו בהגרלה.
                <br><br>לחצו על העכבר להמשך.</p>","1","example","","","","","","","","","","","","","","","","","","","","","",""
"","","","","","html-keyboard-response","10","83045","0.0-10.0","68a31890-b93c-41a2-96ee-e4992eedaa7d","null","<p>במהלך הניסוי, קודם תראו את ההגרלה ורק לאחר מכן תוכלו לבחור.
                <p>כמו כן, יהיו לכם מספר שניות מוגבל להגיב.
                <p>בואו ננסה זאת עם ההגרלה הקודמת.
                <br>לחצו על העכבר כדי להמשיך.</p>","1","instructions","","","","","","","","","","","","","","","","","","","","","",""
"","","","","","html-slider-response","11","84303","0.0-11.0","68a31890-b93c-41a2-96ee-e4992eedaa7d","1000","
                    <p style=""text-align: center;"">₪18<br>35%</p>
                    <p id=""wtp"" style=""text-align:center; margin-top: 0px; margin-bottom: 0px; font-size: 40px"";>&ensp;</p>","41","instructions","0","","","","","","","","","","","","","","","","","","","","",""
"","","","","","html-slider-response","12","86789","0.0-12.0","68a31890-b93c-41a2-96ee-e4992eedaa7d","2221","
                    <p style=""text-align: center;"">₪18<br>35%</p>
                    <p id=""wtp"" style=""text-align:center; margin-top: 0px; margin-bottom: 0px; font-size: 40px"";>מוכנים לשלם: <span id=""c_p_y""></span></p>","0","instructions","12","","","","","","","","","","","","","","","","","","","","",""
"","","","","","html-keyboard-response","13","91277","0.0-13.0","68a31890-b93c-41a2-96ee-e4992eedaa7d","null","<p>יפה. הפעם בחרתם לשלם לכל היותר ₪0.
                <br><br>לחצו על העכבר כדי להמשיך.</p>","1","instructions","","","","","","","","","","","","","","","","","","","","","",""
"","","","","","html-keyboard-response","14","99925","0.0-15.0","68a31890-b93c-41a2-96ee-e4992eedaa7d","null","<p>כעת נתחיל את הניסוי.
                <br><br>אתם תראו הגרלות ותתבקשו לבחור כמה תהיו מוכנים לשלם כדי להשתתף בהן.
                <br>יש לכם תקציב של ₪80 עבור כל הגרלה.
                <br>בסוף הניסוי הגרלה אחת תבחר באקראי ותשוחק.
                <br><br>לחצו על העכבר כדי להתחיל את הניסוי.</p>","1","instructions","","","","","","","","","","","","","","","","","","","","","",""
"","","","","","html-keyboard-response","15","101191","0.0-16.0","68a31890-b93c-41a2-96ee-e4992eedaa7d","null","<p style=""text-align: center;"">+</p>","null","fixation","","","","","","","","","","","","","","","","","","","","","",""
"","","","","","html-slider-response","16","102200","0.0-17.0-0.0","68a31890-b93c-41a2-96ee-e4992eedaa7d","1000","
                  <p style=""text-align: center;"">₪36
                                                <br>75%</p>
                  <p id=""wtp"" style=""text-align:center; margin-top: 0px; margin-bottom: 0px; font-size: 40px"";>&ensp;</p>","-","viewing","0","14","4B,5A,13B,16B","","","","","","","","","","","","","","","","","","",""
"","","","","","html-slider-response","17","105669","0.0-17.0-1.0","68a31890-b93c-41a2-96ee-e4992eedaa7d","3467","
                  <p style=""text-align: center;"">₪36
                                                <br>75%</p>
                  <p id=""wtp"" style=""text-align:center; margin-top: 0px; margin-bottom: 0px; font-size: 40px"";>מוכנים לשלם: <span id=""c_p_y""></span></p>","20","evaluation","56","14","4B,5A,13B,16B","75","36","20","","","","","","","","","","","","","","","",""
"","","","","","html-keyboard-response","18","106834","0.0-17.0-2.0","68a31890-b93c-41a2-96ee-e4992eedaa7d","null","<p style=""text-align: center;"">+</p>","null","fixation","","","","","","","","","","","","","","","","","","","","","",""
"","","","","","html-slider-response","19","107836","0.0-17.0-0.1","68a31890-b93c-41a2-96ee-e4992eedaa7d","1000","
                  <p style=""text-align: center;"">₪79
                                                <br>40%</p>
                  <p id=""wtp"" style=""text-align:center; margin-top: 0px; margin-bottom: 0px; font-size: 40px"";>&ensp;</p>","-","viewing","0","30","9B","","","","","","","","","","","","","","","","","","",""
"","","","","","html-slider-response","20","110717","0.0-17.0-1.1","68a31890-b93c-41a2-96ee-e4992eedaa7d","2880","
                  <p style=""text-align: center;"">₪79
                                                <br>40%</p>
                  <p id=""wtp"" style=""text-align:center; margin-top: 0px; margin-bottom: 0px; font-size: 40px"";>מוכנים לשלם: <span id=""c_p_y""></span></p>","40","evaluation","6","30","9B","40","79","40","","","","","","","","","","","","","","","",""
"","","","","","html-keyboard-response","21","111636","0.0-17.0-2.1","68a31890-b93c-41a2-96ee-e4992eedaa7d","null","<p style=""text-align: center;"">+</p>","null","fixation","","","","","","","","","","","","","","","","","","","","","",""
"","","","","","html-slider-response","22","112650","0.0-17.0-0.2","68a31890-b93c-41a2-96ee-e4992eedaa7d","1000","
                  <p style=""text-align: center;"">₪4
                                                <br>25%</p>
                  <p id=""wtp"" style=""text-align:center; margin-top: 0px; margin-bottom: 0px; font-size: 40px"";>&ensp;</p>","-","viewing","0","1","6C,29B,30C","","","","","","","","","","","","","","","","","","",""
"","","","","","html-slider-response","23","114333","0.0-17.0-1.2","68a31890-b93c-41a2-96ee-e4992eedaa7d","1681","
                  <p style=""text-align: center;"">₪4
                                                <br>25%</p>
                  <p id=""wtp"" style=""text-align:center; margin-top: 0px; margin-bottom: 0px; font-size: 40px"";>מוכנים לשלם: <span id=""c_p_y""></span></p>","0","evaluation","12","1","6C,29B,30C","25","4","0","","","","","","","","","","","","","","","",""
"","","","","","html-keyboard-response","24","115716","0.0-17.0-2.2","68a31890-b93c-41a2-96ee-e4992eedaa7d","null","<p style=""text-align: center;"">+</p>","null","fixation","","","","","","","","","","","","","","","","","","","","","",""
"","","","","","html-slider-response","25","116721","0.0-17.0-0.3","68a31890-b93c-41a2-96ee-e4992eedaa7d","1000","
                  <p style=""text-align: center;"">₪71
                                                <br>45%</p>
                  <p id=""wtp"" style=""text-align:center; margin-top: 0px; margin-bottom: 0px; font-size: 40px"";>&ensp;</p>","-","viewing","0","26","2B,16A","","","","","","","","","","","","","","","","","","",""
"","","","","","html-slider-response","26","118749","0.0-17.0-1.3","68a31890-b93c-41a2-96ee-e4992eedaa7d","2026","
                  <p style=""text-align: center;"">₪71
                                                <br>45%</p>
                  <p id=""wtp"" style=""text-align:center; margin-top: 0px; margin-bottom: 0px; font-size: 40px"";>מוכנים לשלם: <span id=""c_p_y""></span></p>","40","evaluation","42","26","2B,16A","45","71","40","","","","","","","","","","","","","","","",""
"","","","","","html-keyboard-response","27","120138","0.0-17.0-2.3","68a31890-b93c-41a2-96ee-e4992eedaa7d","null","<p style=""text-align: center;"">+</p>","null","fixation","","","","","","","","","","","","","","","","","","","","","",""
"","","","","","html-slider-response","28","121155","0.0-17.0-0.4","68a31890-b93c-41a2-96ee-e4992eedaa7d","1000","
                  <p style=""text-align: center;"">₪18
                                                <br>25%</p>
                  <p id=""wtp"" style=""text-align:center; margin-top: 0px; margin-bottom: 0px; font-size: 40px"";>&ensp;</p>","-","viewing","0","9","14A,23A","","","","","","","","","","","","","","","","","","",""
"","","","","","html-slider-response","29","122556","0.0-17.0-1.4","68a31890-b93c-41a2-96ee-e4992eedaa7d","1400","
                  <p style=""text-align: center;"">₪18
                                                <br>25%</p>
                  <p id=""wtp"" style=""text-align:center; margin-top: 0px; margin-bottom: 0px; font-size: 40px"";>מוכנים לשלם: <span id=""c_p_y""></span></p>","0","evaluation","0","9","14A,23A","25","18","0","","","","","","","","","","","","","","","",""
"","","","","","html-keyboard-response","30","124039","0.0-17.0-2.4","68a31890-b93c-41a2-96ee-e4992eedaa7d","null","<p style=""text-align: center;"">+</p>","null","fixation","","","","","","","","","","","","","","","","","","","","","",""
"","","","","","html-slider-response","31","125042","0.0-17.0-0.5","68a31890-b93c-41a2-96ee-e4992eedaa7d","1000","
                  <p style=""text-align: center;"">₪18
                                                <br>50%</p>
                  <p id=""wtp"" style=""text-align:center; margin-top: 0px; margin-bottom: 0px; font-size: 40px"";>&ensp;</p>","-","viewing","0","10","2C,16C,22B,28A","","","","","","","","","","","","","","","","","","",""
"","","","","","html-slider-response","32","127029","0.0-17.0-1.5","68a31890-b93c-41a2-96ee-e4992eedaa7d","1986","
                  <p style=""text-align: center;"">₪18
                                                <br>50%</p>
                  <p id=""wtp"" style=""text-align:center; margin-top: 0px; margin-bottom: 0px; font-size: 40px"";>מוכנים לשלם: <span id=""c_p_y""></span></p>","0","evaluation","24","10","2C,16C,22B,28A","50","18","0","","","","","","","","","","","","","","","",""
"","","","","","html-keyboard-response","33","127978","0.0-17.0-2.5","68a31890-b93c-41a2-96ee-e4992eedaa7d","null","<p style=""text-align: center;"">+</p>","null","fixation","","","","","","","","","","","","","","","","","","","","","",""
"","","","","","html-slider-response","34","128986","0.0-17.0-0.6","68a31890-b93c-41a2-96ee-e4992eedaa7d","1000","
                  <p style=""text-align: center;"">₪36
                                                <br>70%</p>
                  <p id=""wtp"" style=""text-align:center; margin-top: 0px; margin-bottom: 0px; font-size: 40px"";>&ensp;</p>","-","viewing","0","13","3A,5C,10B","","","","","","","","","","","","","","","","","","",""
"","","","","","html-slider-response","35","131109","0.0-17.0-1.6","68a31890-b93c-41a2-96ee-e4992eedaa7d","2121","
                  <p style=""text-align: center;"">₪36
                                                <br>70%</p>
                  <p id=""wtp"" style=""text-align:center; margin-top: 0px; margin-bottom: 0px; font-size: 40px"";>מוכנים לשלם: <span id=""c_p_y""></span></p>","19","evaluation","13","13","3A,5C,10B","70","36","20","","","","","","","","","","","","","","","",""
"","","","","","html-keyboard-response","36","131787","0.0-17.0-2.6","68a31890-b93c-41a2-96ee-e4992eedaa7d","null","<p style=""text-align: center;"">+</p>","null","fixation","","","","","","","","","","","","","","","","","","","","","",""
"","","","","","html-slider-response","37","132804","0.0-17.0-0.7","68a31890-b93c-41a2-96ee-e4992eedaa7d","1000","
                  <p style=""text-align: center;"">₪76
                                                <br>65%</p>
                  <p id=""wtp"" style=""text-align:center; margin-top: 0px; margin-bottom: 0px; font-size: 40px"";>&ensp;</p>","-","viewing","0","29","8C,19A,24B","","","","","","","","","","","","","","","","","","",""
"","","","","","html-slider-response","38","135669","0.0-17.0-1.7","68a31890-b93c-41a2-96ee-e4992eedaa7d","2863","
                  <p style=""text-align: center;"">₪76
                                                <br>65%</p>
                  <p id=""wtp"" style=""text-align:center; margin-top: 0px; margin-bottom: 0px; font-size: 40px"";>מוכנים לשלם: <span id=""c_p_y""></span></p>","46","evaluation","59","29","8C,19A,24B","65","76","46","","","","","","","","","","","","","","","",""
"","","","","","html-keyboard-response","39","136896","0.0-17.0-2.7","68a31890-b93c-41a2-96ee-e4992eedaa7d","null","<p style=""text-align: center;"">+</p>","null","fixation","","","","","","","","","","","","","","","","","","","","","",""
"","","","","","html-slider-response","40","137900","0.0-17.0-0.8","68a31890-b93c-41a2-96ee-e4992eedaa7d","1000","
                  <p style=""text-align: center;"">₪16
                                                <br>20%</p>
                  <p id=""wtp"" style=""text-align:center; margin-top: 0px; margin-bottom: 0px; font-size: 40px"";>&ensp;</p>","-","viewing","0","8","14C,17A,20C,27A","","","","","","","","","","","","","","","","","","",""
"","","","","","html-slider-response","41","138885","0.0-17.0-1.8","68a31890-b93c-41a2-96ee-e4992eedaa7d","984","
                  <p style=""text-align: center;"">₪16
                                                <br>20%</p>
                  <p id=""wtp"" style=""text-align:center; margin-top: 0px; margin-bottom: 0px; font-size: 40px"";>מוכנים לשלם: <span id=""c_p_y""></span></p>","0","evaluation","23","8","14C,17A,20C,27A","20","16","0","","","","","","","","","","","","","","","",""
"","","","","","html-keyboard-response","42","140071","0.0-17.0-2.8","68a31890-b93c-41a2-96ee-e4992eedaa7d","null","<p style=""text-align: center;"">+</p>","null","fixation","","","","","","","","","","","","","","","","","","","","","",""
"","","","","","html-slider-response","43","141089","0.0-17.0-0.9","68a31890-b93c-41a2-96ee-e4992eedaa7d","1000","
                  <p style=""text-align: center;"">₪36
                                                <br>60%</p>
                  <p id=""wtp"" style=""text-align:center; margin-top: 0px; margin-bottom: 0px; font-size: 40px"";>&ensp;</p>","-","viewing","0","12","1C,7C,15C","","","","","","","","","","","","","","","","","","",""
"","","","","","html-slider-response","44","143845","0.0-17.0-1.9","68a31890-b93c-41a2-96ee-e4992eedaa7d","2755","
                  <p style=""text-align: center;"">₪36
                                                <br>60%</p>
                  <p id=""wtp"" style=""text-align:center; margin-top: 0px; margin-bottom: 0px; font-size: 40px"";>מוכנים לשלם: <span id=""c_p_y""></span></p>","13","evaluation","45","12","1C,7C,15C","60","36","13","","","","","","","","","","","","","","","",""
"","","","","","html-keyboard-response","45","145245","0.0-17.0-2.9","68a31890-b93c-41a2-96ee-e4992eedaa7d","null","<p style=""text-align: center;"">+</p>","null","fixation","","","","","","","","","","","","","","","","","","","","","",""
"","","","","","html-slider-response","46","146247","0.0-17.0-0.10","68a31890-b93c-41a2-96ee-e4992eedaa7d","1000","
                  <p style=""text-align: center;"">₪11
                                                <br>75%</p>
                  <p id=""wtp"" style=""text-align:center; margin-top: 0px; margin-bottom: 0px; font-size: 40px"";>&ensp;</p>","-","viewing","0","7","6B,18B,22C,24C,29A","","","","","","","","","","","","","","","","","","",""
"","","","","","html-slider-response","47","149229","0.0-17.0-1.10","68a31890-b93c-41a2-96ee-e4992eedaa7d","2981","
                  <p style=""text-align: center;"">₪11
                                                <br>75%</p>
                  <p id=""wtp"" style=""text-align:center; margin-top: 0px; margin-bottom: 0px; font-size: 40px"";>מוכנים לשלם: <span id=""c_p_y""></span></p>","1","evaluation","47","7","6B,18B,22C,24C,29A","75","11","1","","","","","","","","","","","","","","","",""
"","","","","","html-keyboard-response","48","150515","0.0-17.0-2.10","68a31890-b93c-41a2-96ee-e4992eedaa7d","null","<p style=""text-align: center;"">+</p>","null","fixation","","","","","","","","","","","","","","","","","","","","","",""
"","","","","","html-slider-response","49","151526","0.0-17.0-0.11","68a31890-b93c-41a2-96ee-e4992eedaa7d","1000","
                  <p style=""text-align: center;"">₪61
                                                <br>45%</p>
                  <p id=""wtp"" style=""text-align:center; margin-top: 0px; margin-bottom: 0px; font-size: 40px"";>&ensp;</p>","-","viewing","0","22","10A,11A","","","","","","","","","","","","","","","","","","",""
"","","","","","html-slider-response","50","154373","0.0-17.0-1.11","68a31890-b93c-41a2-96ee-e4992eedaa7d","2846","
                  <p style=""text-align: center;"">₪61
                                                <br>45%</p>
                  <p id=""wtp"" style=""text-align:center; margin-top: 0px; margin-bottom: 0px; font-size: 40px"";>מוכנים לשלם: <span id=""c_p_y""></span></p>","20","evaluation","10","22","10A,11A","45","61","20","","","","","","","","","","","","","","","",""
"","","","","","html-keyboard-response","51","155628","0.0-17.0-2.11","68a31890-b93c-41a2-96ee-e4992eedaa7d","null","<p style=""text-align: center;"">+</p>","null","fixation","","","","","","","","","","","","","","","","","","","","","",""
"","","","","","html-slider-response","52","156640","0.0-17.0-0.12","68a31890-b93c-41a2-96ee-e4992eedaa7d","1000","
                  <p style=""text-align: center;"">₪61
                                                <br>55%</p>
                  <p id=""wtp"" style=""text-align:center; margin-top: 0px; margin-bottom: 0px; font-size: 40px"";>&ensp;</p>","-","viewing","0","23","7B,26B","","","","","","","","","","","","","","","","","","",""
"","","","","","html-slider-response","53","160642","0.0-17.0-1.12","68a31890-b93c-41a2-96ee-e4992eedaa7d","null","
                  <p style=""text-align: center;"">₪61
                                                <br>55%</p>
                  <p id=""wtp"" style=""text-align:center; margin-top: 0px; margin-bottom: 0px; font-size: 40px"";>מוכנים לשלם: <span id=""c_p_y""></span></p>","null","evaluation","36","23","7B,26B","55","61","33","","","","","","","","","","","","","","","",""
"","","","","","html-keyboard-response","54","161509","0.0-17.0-2.12","68a31890-b93c-41a2-96ee-e4992eedaa7d","null","<p style=""text-align: center;"">+</p>","null","fixation","","","","","","","","","","","","","","","","","","","","","",""
"","","","","","html-slider-response","55","162523","0.0-17.0-0.13","68a31890-b93c-41a2-96ee-e4992eedaa7d","1000","
                  <p style=""text-align: center;"">₪11
                                                <br>20%</p>
                  <p id=""wtp"" style=""text-align:center; margin-top: 0px; margin-bottom: 0px; font-size: 40px"";>&ensp;</p>","-","viewing","0","4","12C,17C,23C,28C","","","","","","","","","","","","","","","","","","",""
"","","","","","html-slider-response","56","163205","0.0-17.0-1.13","68a31890-b93c-41a2-96ee-e4992eedaa7d","680","
                  <p style=""text-align: center;"">₪11
                                                <br>20%</p>
                  <p id=""wtp"" style=""text-align:center; margin-top: 0px; margin-bottom: 0px; font-size: 40px"";>מוכנים לשלם: <span id=""c_p_y""></span></p>","0","evaluation","78","4","12C,17C,23C,28C","20","11","0","","","","","","","","","","","","","","","",""
"","","","","","html-keyboard-response","57","164704","0.0-17.0-2.13","68a31890-b93c-41a2-96ee-e4992eedaa7d","null","<p style=""text-align: center;"">+</p>","null","fixation","","","","","","","","","","","","","","","","","","","","","",""
"","","","","","html-slider-response","58","165711","0.0-17.0-0.14","68a31890-b93c-41a2-96ee-e4992eedaa7d","1000","
                  <p style=""text-align: center;"">₪4
                                                <br>50%</p>
                  <p id=""wtp"" style=""text-align:center; margin-top: 0px; margin-bottom: 0px; font-size: 40px"";>&ensp;</p>","-","viewing","0","2","4C,17B","","","","","","","","","","","","","","","","","","",""
"","","","","","html-slider-response","59","166445","0.0-17.0-1.14","68a31890-b93c-41a2-96ee-e4992eedaa7d","733","
                  <p style=""text-align: center;"">₪4
                                                <br>50%</p>
                  <p id=""wtp"" style=""text-align:center; margin-top: 0px; margin-bottom: 0px; font-size: 40px"";>מוכנים לשלם: <span id=""c_p_y""></span></p>","0","evaluation","78","2","4C,17B","50","4","0","","","","","","","","","","","","","","","",""
"","","","","","html-keyboard-response","60","167797","0.0-17.0-2.14","68a31890-b93c-41a2-96ee-e4992eedaa7d","null","<p style=""text-align: center;"">+</p>","null","fixation","","","","","","","","","","","","","","","","","","","","","",""
"","","","","","html-slider-response","61","168800","0.0-17.0-0.15","68a31890-b93c-41a2-96ee-e4992eedaa7d","1000","
                  <p style=""text-align: center;"">₪43
                                                <br>75%</p>
                  <p id=""wtp"" style=""text-align:center; margin-top: 0px; margin-bottom: 0px; font-size: 40px"";>&ensp;</p>","-","viewing","0","18","11B,19B,24A,26A","","","","","","","","","","","","","","","","","","",""
"","","","","","html-slider-response","62","171397","0.0-17.0-1.15","68a31890-b93c-41a2-96ee-e4992eedaa7d","2596","
                  <p style=""text-align: center;"">₪43
                                                <br>75%</p>
                  <p id=""wtp"" style=""text-align:center; margin-top: 0px; margin-bottom: 0px; font-size: 40px"";>מוכנים לשלם: <span id=""c_p_y""></span></p>","24","evaluation","79","18","11B,19B,24A,26A","75","43","24","","","","","","","","","","","","","","","",""
"","","","","","html-keyboard-response","63","171956","0.0-17.0-2.15","68a31890-b93c-41a2-96ee-e4992eedaa7d","null","<p style=""text-align: center;"">+</p>","null","fixation","","","","","","","","","","","","","","","","","","","","","",""
"","","","","","html-slider-response","64","172961","0.0-17.0-0.16","68a31890-b93c-41a2-96ee-e4992eedaa7d","1000","
                  <p style=""text-align: center;"">₪4
                                                <br>75%</p>
                  <p id=""wtp"" style=""text-align:center; margin-top: 0px; margin-bottom: 0px; font-size: 40px"";>&ensp;</p>","-","viewing","0","3","12B,20B,23B,27C,29C","","","","","","","","","","","","","","","","","","",""
"","","","","","html-slider-response","65","174205","0.0-17.0-1.16","68a31890-b93c-41a2-96ee-e4992eedaa7d","1243","
                  <p style=""text-align: center;"">₪4
                                                <br>75%</p>
                  <p id=""wtp"" style=""text-align:center; margin-top: 0px; margin-bottom: 0px; font-size: 40px"";>מוכנים לשלם: <span id=""c_p_y""></span></p>","0","evaluation","59","3","12B,20B,23B,27C,29C","75","4","1","","","","","","","","","","","","","","","",""
"","","","","","html-keyboard-response","66","175676","0.0-17.0-2.16","68a31890-b93c-41a2-96ee-e4992eedaa7d","null","<p style=""text-align: center;"">+</p>","null","fixation","","","","","","","","","","","","","","","","","","","","","",""
"","","","","","html-slider-response","67","176684","0.0-17.0-0.17","68a31890-b93c-41a2-96ee-e4992eedaa7d","1000","
                  <p style=""text-align: center;"">₪71
                                                <br>75%</p>
                  <p id=""wtp"" style=""text-align:center; margin-top: 0px; margin-bottom: 0px; font-size: 40px"";>&ensp;</p>","-","viewing","0","28","8B","","","","","","","","","","","","","","","","","","",""
"","","","","","html-slider-response","68","180085","0.0-17.0-1.17","68a31890-b93c-41a2-96ee-e4992eedaa7d","3400","
                  <p style=""text-align: center;"">₪71
                                                <br>75%</p>
                  <p id=""wtp"" style=""text-align:center; margin-top: 0px; margin-bottom: 0px; font-size: 40px"";>מוכנים לשלם: <span id=""c_p_y""></span></p>","50","evaluation","56","28","8B","75","71","50","","","","","","","","","","","","","","","",""
"","","","","","html-keyboard-response","69","180960","0.0-17.0-2.17","68a31890-b93c-41a2-96ee-e4992eedaa7d","null","<p style=""text-align: center;"">+</p>","null","fixation","","","","","","","","","","","","","","","","","","","","","",""
"","","","","","html-slider-response","70","181962","0.0-17.0-0.18","68a31890-b93c-41a2-96ee-e4992eedaa7d","1000","
                  <p style=""text-align: center;"">₪79
                                                <br>65%</p>
                  <p id=""wtp"" style=""text-align:center; margin-top: 0px; margin-bottom: 0px; font-size: 40px"";>&ensp;</p>","-","viewing","0","31","8A","","","","","","","","","","","","","","","","","","",""
"","","","","","html-slider-response","71","183933","0.0-17.0-1.18","68a31890-b93c-41a2-96ee-e4992eedaa7d","1969","
                  <p style=""text-align: center;"">₪79
                                                <br>65%</p>
                  <p id=""wtp"" style=""text-align:center; margin-top: 0px; margin-bottom: 0px; font-size: 40px"";>מוכנים לשלם: <span id=""c_p_y""></span></p>","35","evaluation","3","31","8A","65","79","35","","","","","","","","","","","","","","","",""
"","","","","","html-keyboard-response","72","185179","0.0-17.0-2.18","68a31890-b93c-41a2-96ee-e4992eedaa7d","null","<p style=""text-align: center;"">+</p>","null","fixation","","","","","","","","","","","","","","","","","","","","","",""
"","","","","","html-slider-response","73","186191","0.0-17.0-0.19","68a31890-b93c-41a2-96ee-e4992eedaa7d","1000","
                  <p style=""text-align: center;"">₪11
                                                <br>25%</p>
                  <p id=""wtp"" style=""text-align:center; margin-top: 0px; margin-bottom: 0px; font-size: 40px"";>&ensp;</p>","-","viewing","0","5","12A,27B,28B,30B","","","","","","","","","","","","","","","","","","",""
"","","","","","html-slider-response","74","188069","0.0-17.0-1.19","68a31890-b93c-41a2-96ee-e4992eedaa7d","1876","
                  <p style=""text-align: center;"">₪11
                                                <br>25%</p>
                  <p id=""wtp"" style=""text-align:center; margin-top: 0px; margin-bottom: 0px; font-size: 40px"";>מוכנים לשלם: <span id=""c_p_y""></span></p>","1","evaluation","15","5","12A,27B,28B,30B","25","11","1","","","","","","","","","","","","","","","",""
"","","","","","html-keyboard-response","75","189498","0.0-17.0-2.19","68a31890-b93c-41a2-96ee-e4992eedaa7d","null","<p style=""text-align: center;"">+</p>","null","fixation","","","","","","","","","","","","","","","","","","","","","",""
"","","","","","html-slider-response","76","190503","0.0-17.0-0.20","68a31890-b93c-41a2-96ee-e4992eedaa7d","1000","
                  <p style=""text-align: center;"">₪64
                                                <br>25%</p>
                  <p id=""wtp"" style=""text-align:center; margin-top: 0px; margin-bottom: 0px; font-size: 40px"";>&ensp;</p>","-","viewing","0","24","6A,21A","","","","","","","","","","","","","","","","","","",""
"","","","","","html-slider-response","77","193325","0.0-17.0-1.20","68a31890-b93c-41a2-96ee-e4992eedaa7d","2821","
                  <p style=""text-align: center;"">₪64
                                                <br>25%</p>
                  <p id=""wtp"" style=""text-align:center; margin-top: 0px; margin-bottom: 0px; font-size: 40px"";>מוכנים לשלם: <span id=""c_p_y""></span></p>","10","evaluation","52","24","6A,21A","25","64","10","","","","","","","","","","","","","","","",""
"","","","","","html-keyboard-response","78","194318","0.0-17.0-2.20","68a31890-b93c-41a2-96ee-e4992eedaa7d","null","<p style=""text-align: center;"">+</p>","null","fixation","","","","","","","","","","","","","","","","","","","","","",""
"","","","","","html-slider-response","79","195326","0.0-17.0-0.21","68a31890-b93c-41a2-96ee-e4992eedaa7d","1000","
                  <p style=""text-align: center;"">₪71
                                                <br>55%</p>
                  <p id=""wtp"" style=""text-align:center; margin-top: 0px; margin-bottom: 0px; font-size: 40px"";>&ensp;</p>","-","viewing","0","27","5B,18A","","","","","","","","","","","","","","","","","","",""
"","","","","","html-slider-response","80","197637","0.0-17.0-1.21","68a31890-b93c-41a2-96ee-e4992eedaa7d","2310","
                  <p style=""text-align: center;"">₪71
                                                <br>55%</p>
                  <p id=""wtp"" style=""text-align:center; margin-top: 0px; margin-bottom: 0px; font-size: 40px"";>מוכנים לשלם: <span id=""c_p_y""></span></p>","26","evaluation","1","27","5B,18A","55","71","26","","","","","","","","","","","","","","","",""
"","","","","","html-keyboard-response","81","199048","0.0-17.0-2.21","68a31890-b93c-41a2-96ee-e4992eedaa7d","null","<p style=""text-align: center;"">+</p>","null","fixation","","","","","","","","","","","","","","","","","","","","","",""
"","","","","","html-slider-response","82","200050","0.0-17.0-0.22","68a31890-b93c-41a2-96ee-e4992eedaa7d","1000","
                  <p style=""text-align: center;"">₪36
                                                <br>30%</p>
                  <p id=""wtp"" style=""text-align:center; margin-top: 0px; margin-bottom: 0px; font-size: 40px"";>&ensp;</p>","-","viewing","0","11","3C,20A,22A","","","","","","","","","","","","","","","","","","",""
"","","","","","html-slider-response","83","202477","0.0-17.0-1.22","68a31890-b93c-41a2-96ee-e4992eedaa7d","2426","
                  <p style=""text-align: center;"">₪36
                                                <br>30%</p>
                  <p id=""wtp"" style=""text-align:center; margin-top: 0px; margin-bottom: 0px; font-size: 40px"";>מוכנים לשלם: <span id=""c_p_y""></span></p>","5","evaluation","72","11","3C,20A,22A","30","36","5","","","","","","","","","","","","","","","",""
"","","","","","html-keyboard-response","84","203182","0.0-17.0-2.22","68a31890-b93c-41a2-96ee-e4992eedaa7d","null","<p style=""text-align: center;"">+</p>","null","fixation","","","","","","","","","","","","","","","","","","","","","",""
"","","","","","html-slider-response","85","204184","0.0-17.0-0.23","68a31890-b93c-41a2-96ee-e4992eedaa7d","1000","
                  <p style=""text-align: center;"">₪58
                                                <br>30%</p>
                  <p id=""wtp"" style=""text-align:center; margin-top: 0px; margin-bottom: 0px; font-size: 40px"";>&ensp;</p>","-","viewing","0","19","13C,30A","","","","","","","","","","","","","","","","","","",""
"","","","","","html-slider-response","86","206597","0.0-17.0-1.23","68a31890-b93c-41a2-96ee-e4992eedaa7d","2411","
                  <p style=""text-align: center;"">₪58
                                                <br>30%</p>
                  <p id=""wtp"" style=""text-align:center; margin-top: 0px; margin-bottom: 0px; font-size: 40px"";>מוכנים לשלם: <span id=""c_p_y""></span></p>","4","evaluation","2","19","13C,30A","30","58","5","","","","","","","","","","","","","","","",""
"","","","","","html-keyboard-response","87","207712","0.0-17.0-2.23","68a31890-b93c-41a2-96ee-e4992eedaa7d","null","<p style=""text-align: center;"">+</p>","null","fixation","","","","","","","","","","","","","","","","","","","","","",""
"","","","","","html-slider-response","88","208715","0.0-17.0-0.24","68a31890-b93c-41a2-96ee-e4992eedaa7d","1000","
                  <p style=""text-align: center;"">₪43
                                                <br>60%</p>
                  <p id=""wtp"" style=""text-align:center; margin-top: 0px; margin-bottom: 0px; font-size: 40px"";>&ensp;</p>","-","viewing","0","17","2A,7A,9A,15B","","","","","","","","","","","","","","","","","","",""
"","","","","","html-slider-response","89","210925","0.0-17.0-1.24","68a31890-b93c-41a2-96ee-e4992eedaa7d","2209","
                  <p style=""text-align: center;"">₪43
                                                <br>60%</p>
                  <p id=""wtp"" style=""text-align:center; margin-top: 0px; margin-bottom: 0px; font-size: 40px"";>מוכנים לשלם: <span id=""c_p_y""></span></p>","20","evaluation","13","17","2A,7A,9A,15B","60","43","20","","","","","","","","","","","","","","","",""
"","","","","","html-keyboard-response","90","211737","0.0-17.0-2.24","68a31890-b93c-41a2-96ee-e4992eedaa7d","null","<p style=""text-align: center;"">+</p>","null","fixation","","","","","","","","","","","","","","","","","","","","","",""
"","","","","","html-slider-response","91","212746","0.0-17.0-0.25","68a31890-b93c-41a2-96ee-e4992eedaa7d","1000","
                  <p style=""text-align: center;"">₪58
                                                <br>45%</p>
                  <p id=""wtp"" style=""text-align:center; margin-top: 0px; margin-bottom: 0px; font-size: 40px"";>&ensp;</p>","-","viewing","0","21","11C,18C,25A","","","","","","","","","","","","","","","","","","",""
"","","","","","html-slider-response","92","215229","0.0-17.0-1.25","68a31890-b93c-41a2-96ee-e4992eedaa7d","2482","
                  <p style=""text-align: center;"">₪58
                                                <br>45%</p>
                  <p id=""wtp"" style=""text-align:center; margin-top: 0px; margin-bottom: 0px; font-size: 40px"";>מוכנים לשלם: <span id=""c_p_y""></span></p>","15","evaluation","56","21","11C,18C,25A","45","58","15","","","","","","","","","","","","","","","",""
"","","","","","html-keyboard-response","93","216158","0.0-17.0-2.25","68a31890-b93c-41a2-96ee-e4992eedaa7d","null","<p style=""text-align: center;"">+</p>","null","fixation","","","","","","","","","","","","","","","","","","","","","",""
"","","","","","html-slider-response","94","217160","0.0-17.0-0.26","68a31890-b93c-41a2-96ee-e4992eedaa7d","1000","
                  <p style=""text-align: center;"">₪58
                                                <br>40%</p>
                  <p id=""wtp"" style=""text-align:center; margin-top: 0px; margin-bottom: 0px; font-size: 40px"";>&ensp;</p>","-","viewing","0","20","10C,13A,19C,21B","","","","","","","","","","","","","","","","","","",""
"","","","","","html-slider-response","95","218813","0.0-17.0-1.26","68a31890-b93c-41a2-96ee-e4992eedaa7d","1652","
                  <p style=""text-align: center;"">₪58
                                                <br>40%</p>
                  <p id=""wtp"" style=""text-align:center; margin-top: 0px; margin-bottom: 0px; font-size: 40px"";>מוכנים לשלם: <span id=""c_p_y""></span></p>","14","evaluation","18","20","10C,13A,19C,21B","40","58","15","","","","","","","","","","","","","","","",""
"","","","","","html-keyboard-response","96","219392","0.0-17.0-2.26","68a31890-b93c-41a2-96ee-e4992eedaa7d","null","<p style=""text-align: center;"">+</p>","null","fixation","","","","","","","","","","","","","","","","","","","","","",""
"","","","","","html-slider-response","97","220400","0.0-17.0-0.27","68a31890-b93c-41a2-96ee-e4992eedaa7d","1000","
                  <p style=""text-align: center;"">₪64
                                                <br>50%</p>
                  <p id=""wtp"" style=""text-align:center; margin-top: 0px; margin-bottom: 0px; font-size: 40px"";>&ensp;</p>","-","viewing","0","25","1B,3B,4A","","","","","","","","","","","","","","","","","","",""
"","","","","","html-slider-response","98","222397","0.0-17.0-1.27","68a31890-b93c-41a2-96ee-e4992eedaa7d","1996","
                  <p style=""text-align: center;"">₪64
                                                <br>50%</p>
                  <p id=""wtp"" style=""text-align:center; margin-top: 0px; margin-bottom: 0px; font-size: 40px"";>מוכנים לשלם: <span id=""c_p_y""></span></p>","19","evaluation","47","25","1B,3B,4A","50","64","20","","","","","","","","","","","","","","","",""
"","","","","","html-keyboard-response","99","223828","0.0-17.0-2.27","68a31890-b93c-41a2-96ee-e4992eedaa7d","null","<p style=""text-align: center;"">+</p>","null","fixation","","","","","","","","","","","","","","","","","","","","","",""
"","","","","","html-slider-response","100","224843","0.0-17.0-0.28","68a31890-b93c-41a2-96ee-e4992eedaa7d","1000","
                  <p style=""text-align: center;"">₪39
                                                <br>65%</p>
                  <p id=""wtp"" style=""text-align:center; margin-top: 0px; margin-bottom: 0px; font-size: 40px"";>&ensp;</p>","-","viewing","0","16","1A,15A,26C","","","","","","","","","","","","","","","","","","",""
"","","","","","html-slider-response","101","227405","0.0-17.0-1.28","68a31890-b93c-41a2-96ee-e4992eedaa7d","2561","
                  <p style=""text-align: center;"">₪39
                                                <br>65%</p>
                  <p id=""wtp"" style=""text-align:center; margin-top: 0px; margin-bottom: 0px; font-size: 40px"";>מוכנים לשלם: <span id=""c_p_y""></span></p>","9","evaluation","30","16","1A,15A,26C","65","39","10","","","","","","","","","","","","","","","",""
"","","","","","html-keyboard-response","102","228183","0.0-17.0-2.28","68a31890-b93c-41a2-96ee-e4992eedaa7d","null","<p style=""text-align: center;"">+</p>","null","fixation","","","","","","","","","","","","","","","","","","","","","",""
"","","","","","html-slider-response","103","229193","0.0-17.0-0.29","68a31890-b93c-41a2-96ee-e4992eedaa7d","1000","
                  <p style=""text-align: center;"">₪39
                                                <br>60%</p>
                  <p id=""wtp"" style=""text-align:center; margin-top: 0px; margin-bottom: 0px; font-size: 40px"";>&ensp;</p>","-","viewing","0","15","9C,25B","","","","","","","","","","","","","","","","","","",""
"","","","","","html-slider-response","104","232629","0.0-17.0-1.29","68a31890-b93c-41a2-96ee-e4992eedaa7d","3435","
                  <p style=""text-align: center;"">₪39
                                                <br>60%</p>
                  <p id=""wtp"" style=""text-align:center; margin-top: 0px; margin-bottom: 0px; font-size: 40px"";>מוכנים לשלם: <span id=""c_p_y""></span></p>","10","evaluation","78","15","9C,25B","60","39","10","","","","","","","","","","","","","","","",""
"","","","","","html-keyboard-response","105","233513","0.0-17.0-2.29","68a31890-b93c-41a2-96ee-e4992eedaa7d","null","<p style=""text-align: center;"">+</p>","null","fixation","","","","","","","","","","","","","","","","","","","","","",""
"","","","","","html-slider-response","106","234526","0.0-17.0-0.30","68a31890-b93c-41a2-96ee-e4992eedaa7d","1000","
                  <p style=""text-align: center;"">₪11
                                                <br>45%</p>
                  <p id=""wtp"" style=""text-align:center; margin-top: 0px; margin-bottom: 0px; font-size: 40px"";>&ensp;</p>","-","viewing","0","6","14B,21C,25C","","","","","","","","","","","","","","","","","","",""
"","","","","","html-slider-response","107","237669","0.0-17.0-1.30","68a31890-b93c-41a2-96ee-e4992eedaa7d","3142","
                  <p style=""text-align: center;"">₪11
                                                <br>45%</p>
                  <p id=""wtp"" style=""text-align:center; margin-top: 0px; margin-bottom: 0px; font-size: 40px"";>מוכנים לשלם: <span id=""c_p_y""></span></p>","0","evaluation","73","6","14B,21C,25C","45","11","1","","","","","","","","","","","","","","","",""
"","","","","","html-keyboard-response","108","238364","0.0-17.0-2.30","68a31890-b93c-41a2-96ee-e4992eedaa7d","null","<p style=""text-align: center;"">+</p>","null","fixation","","","","","","","","","","","","","","","","","","","","","",""
"","","","","","html-keyboard-response","109","239366","0.0-18.0","68a31890-b93c-41a2-96ee-e4992eedaa7d","null","<p style=""text-align: center;"">+</p>","null","fixation","","","","","","","","","","","","","","","","","","","","","",""
"","","","","","html-keyboard-response","110","241101","0.0-19.0","68a31890-b93c-41a2-96ee-e4992eedaa7d","null","<p>הפסקה.
          <br>לחצו כדי להמשיך.</p>","1","scan_wait","","","","","","","","","","","","","","","","","","","","","",""
"","","","","","html-keyboard-response","111","242101","0.0-20.0","68a31890-b93c-41a2-96ee-e4992eedaa7d","null","<p style=""text-align: center;"">+</p>","null","fixation","","","","","","","","","","","","","","","","","","","","","",""
"","","","","","html-slider-response","112","243117","0.0-21.0-0.0","68a31890-b93c-41a2-96ee-e4992eedaa7d","1000","
                  <p style=""text-align: center;"">₪71
                                                <br>45%</p>
                  <p id=""wtp"" style=""text-align:center; margin-top: 0px; margin-bottom: 0px; font-size: 40px"";>&ensp;</p>","-","viewing","0","26","2B,16A","","","","","","","","","","","","","","","","","","",""
"","","","","","html-slider-response","113","244997","0.0-21.0-1.0","68a31890-b93c-41a2-96ee-e4992eedaa7d","1878","
                  <p style=""text-align: center;"">₪71
                                                <br>45%</p>
                  <p id=""wtp"" style=""text-align:center; margin-top: 0px; margin-bottom: 0px; font-size: 40px"";>מוכנים לשלם: <span id=""c_p_y""></span></p>","30","evaluation","75","26","2B,16A","45","71","30","","","","","","","","","","","","","","","",""
"","","","","","html-keyboard-response","114","246276","0.0-21.0-2.0","68a31890-b93c-41a2-96ee-e4992eedaa7d","null","<p style=""text-align: center;"">+</p>","null","fixation","","","","","","","","","","","","","","","","","","","","","",""
"","","","","","html-slider-response","115","247277","0.0-21.0-0.1","68a31890-b93c-41a2-96ee-e4992eedaa7d","1000","
                  <p style=""text-align: center;"">₪11
                                                <br>25%</p>
                  <p id=""wtp"" style=""text-align:center; margin-top: 0px; margin-bottom: 0px; font-size: 40px"";>&ensp;</p>","-","viewing","0","5","12A,27B,28B,30B","","","","","","","","","","","","","","","","","","",""
"","","","","","html-slider-response","116","248949","0.0-21.0-1.1","68a31890-b93c-41a2-96ee-e4992eedaa7d","1671","
                  <p style=""text-align: center;"">₪11
                                                <br>25%</p>
                  <p id=""wtp"" style=""text-align:center; margin-top: 0px; margin-bottom: 0px; font-size: 40px"";>מוכנים לשלם: <span id=""c_p_y""></span></p>","0","evaluation","41","5","12A,27B,28B,30B","25","11","0","","","","","","","","","","","","","","","",""
"","","","","","html-keyboard-response","117","249523","0.0-21.0-2.1","68a31890-b93c-41a2-96ee-e4992eedaa7d","null","<p style=""text-align: center;"">+</p>","null","fixation","","","","","","","","","","","","","","","","","","","","","",""
"","","","","","html-slider-response","118","250526","0.0-21.0-0.2","68a31890-b93c-41a2-96ee-e4992eedaa7d","1000","
                  <p style=""text-align: center;"">₪36
                                                <br>70%</p>
                  <p id=""wtp"" style=""text-align:center; margin-top: 0px; margin-bottom: 0px; font-size: 40px"";>&ensp;</p>","-","viewing","0","13","3A,5C,10B","","","","","","","","","","","","","","","","","","",""
"","","","","","html-slider-response","119","252557","0.0-21.0-1.2","68a31890-b93c-41a2-96ee-e4992eedaa7d","2030","
                  <p style=""text-align: center;"">₪36
                                                <br>70%</p>
                  <p id=""wtp"" style=""text-align:center; margin-top: 0px; margin-bottom: 0px; font-size: 40px"";>מוכנים לשלם: <span id=""c_p_y""></span></p>","8","evaluation","62","13","3A,5C,10B","70","36","8","","","","","","","","","","","","","","","",""
"","","","","","html-keyboard-response","120","253918","0.0-21.0-2.2","68a31890-b93c-41a2-96ee-e4992eedaa7d","null","<p style=""text-align: center;"">+</p>","null","fixation","","","","","","","","","","","","","","","","","","","","","",""
"","","","","","html-slider-response","121","254920","0.0-21.0-0.3","68a31890-b93c-41a2-96ee-e4992eedaa7d","1000","
                  <p style=""text-align: center;"">₪39
                                                <br>60%</p>
                  <p id=""wtp"" style=""text-align:center; margin-top: 0px; margin-bottom: 0px; font-size: 40px"";>&ensp;</p>","-","viewing","0","15","9C,25B","","","","","","","","","","","","","","","","","","",""
"","","","","","html-slider-response","122","257277","0.0-21.0-1.3","68a31890-b93c-41a2-96ee-e4992eedaa7d","2355","
                  <p style=""text-align: center;"">₪39
                                                <br>60%</p>
                  <p id=""wtp"" style=""text-align:center; margin-top: 0px; margin-bottom: 0px; font-size: 40px"";>מוכנים לשלם: <span id=""c_p_y""></span></p>","10","evaluation","40","15","9C,25B","60","39","10","","","","","","","","","","","","","","","",""
"","","","","","html-keyboard-response","123","258477","0.0-21.0-2.3","68a31890-b93c-41a2-96ee-e4992eedaa7d","null","<p style=""text-align: center;"">+</p>","null","fixation","","","","","","","","","","","","","","","","","","","","","",""
"","","","","","html-slider-response","124","259491","0.0-21.0-0.4","68a31890-b93c-41a2-96ee-e4992eedaa7d","1000","
                  <p style=""text-align: center;"">₪58
                                                <br>40%</p>
                  <p id=""wtp"" style=""text-align:center; margin-top: 0px; margin-bottom: 0px; font-size: 40px"";>&ensp;</p>","-","viewing","0","20","10C,13A,19C,21B","","","","","","","","","","","","","","","","","","",""
"","","","","","html-slider-response","125","261909","0.0-21.0-1.4","68a31890-b93c-41a2-96ee-e4992eedaa7d","2417","
                  <p style=""text-align: center;"">₪58
                                                <br>40%</p>
                  <p id=""wtp"" style=""text-align:center; margin-top: 0px; margin-bottom: 0px; font-size: 40px"";>מוכנים לשלם: <span id=""c_p_y""></span></p>","10","evaluation","41","20","10C,13A,19C,21B","40","58","10","","","","","","","","","","","","","","","",""
"","","","","","html-keyboard-response","126","263050","0.0-21.0-2.4","68a31890-b93c-41a2-96ee-e4992eedaa7d","null","<p style=""text-align: center;"">+</p>","null","fixation","","","","","","","","","","","","","","","","","","","","","",""
"","","","","","html-slider-response","127","264061","0.0-21.0-0.5","68a31890-b93c-41a2-96ee-e4992eedaa7d","1000","
                  <p style=""text-align: center;"">₪58
                                                <br>45%</p>
                  <p id=""wtp"" style=""text-align:center; margin-top: 0px; margin-bottom: 0px; font-size: 40px"";>&ensp;</p>","-","viewing","0","21","11C,18C,25A","","","","","","","","","","","","","","","","","","",""
"","","","","","html-slider-response","128","267397","0.0-21.0-1.5","68a31890-b93c-41a2-96ee-e4992eedaa7d","3335","
                  <p style=""text-align: center;"">₪58
                                                <br>45%</p>
                  <p id=""wtp"" style=""text-align:center; margin-top: 0px; margin-bottom: 0px; font-size: 40px"";>מוכנים לשלם: <span id=""c_p_y""></span></p>","12","evaluation","48","21","11C,18C,25A","45","58","13","","","","","","","","","","","","","","","",""
"","","","","","html-keyboard-response","129","268242","0.0-21.0-2.5","68a31890-b93c-41a2-96ee-e4992eedaa7d","null","<p style=""text-align: center;"">+</p>","null","fixation","","","","","","","","","","","","","","","","","","","","","",""
"","","","","","html-slider-response","130","269244","0.0-21.0-0.6","68a31890-b93c-41a2-96ee-e4992eedaa7d","1000","
                  <p style=""text-align: center;"">₪71
                                                <br>55%</p>
                  <p id=""wtp"" style=""text-align:center; margin-top: 0px; margin-bottom: 0px; font-size: 40px"";>&ensp;</p>","-","viewing","0","27","5B,18A","","","","","","","","","","","","","","","","","","",""
"","","","","","html-slider-response","131","271341","0.0-21.0-1.6","68a31890-b93c-41a2-96ee-e4992eedaa7d","2096","
                  <p style=""text-align: center;"">₪71
                                                <br>55%</p>
                  <p id=""wtp"" style=""text-align:center; margin-top: 0px; margin-bottom: 0px; font-size: 40px"";>מוכנים לשלם: <span id=""c_p_y""></span></p>","34","evaluation","41","27","5B,18A","55","71","34","","","","","","","","","","","","","","","",""
"","","","","","html-keyboard-response","132","272001","0.0-21.0-2.6","68a31890-b93c-41a2-96ee-e4992eedaa7d","null","<p style=""text-align: center;"">+</p>","null","fixation","","","","","","","","","","","","","","","","","","","","","",""
"","","","","","html-slider-response","133","273004","0.0-21.0-0.7","68a31890-b93c-41a2-96ee-e4992eedaa7d","1000","
                  <p style=""text-align: center;"">₪18
                                                <br>25%</p>
                  <p id=""wtp"" style=""text-align:center; margin-top: 0px; margin-bottom: 0px; font-size: 40px"";>&ensp;</p>","-","viewing","0","9","14A,23A","","","","","","","","","","","","","","","","","","",""
"","","","","","html-slider-response","134","274789","0.0-21.0-1.7","68a31890-b93c-41a2-96ee-e4992eedaa7d","1784","
                  <p style=""text-align: center;"">₪18
                                                <br>25%</p>
                  <p id=""wtp"" style=""text-align:center; margin-top: 0px; margin-bottom: 0px; font-size: 40px"";>מוכנים לשלם: <span id=""c_p_y""></span></p>","0","evaluation","49","9","14A,23A","25","18","0","","","","","","","","","","","","","","","",""
"","","","","","html-keyboard-response","135","275495","0.0-21.0-2.7","68a31890-b93c-41a2-96ee-e4992eedaa7d","null","<p style=""text-align: center;"">+</p>","null","fixation","","","","","","","","","","","","","","","","","","","","","",""
"","","","","","html-slider-response","136","276504","0.0-21.0-0.8","68a31890-b93c-41a2-96ee-e4992eedaa7d","1000","
                  <p style=""text-align: center;"">₪61
                                                <br>45%</p>
                  <p id=""wtp"" style=""text-align:center; margin-top: 0px; margin-bottom: 0px; font-size: 40px"";>&ensp;</p>","-","viewing","0","22","10A,11A","","","","","","","","","","","","","","","","","","",""
"","","","","","html-slider-response","137","279413","0.0-21.0-1.8","68a31890-b93c-41a2-96ee-e4992eedaa7d","2908","
                  <p style=""text-align: center;"">₪61
                                                <br>45%</p>
                  <p id=""wtp"" style=""text-align:center; margin-top: 0px; margin-bottom: 0px; font-size: 40px"";>מוכנים לשלם: <span id=""c_p_y""></span></p>","25","evaluation","41","22","10A,11A","45","61","25","","","","","","","","","","","","","","","",""
"","","","","","html-keyboard-response","138","280634","0.0-21.0-2.8","68a31890-b93c-41a2-96ee-e4992eedaa7d","null","<p style=""text-align: center;"">+</p>","null","fixation","","","","","","","","","","","","","","","","","","","","","",""
"","","","","","html-slider-response","139","281636","0.0-21.0-0.9","68a31890-b93c-41a2-96ee-e4992eedaa7d","1000","
                  <p style=""text-align: center;"">₪43
                                                <br>75%</p>
                  <p id=""wtp"" style=""text-align:center; margin-top: 0px; margin-bottom: 0px; font-size: 40px"";>&ensp;</p>","-","viewing","0","18","11B,19B,24A,26A","","","","","","","","","","","","","","","","","","",""
"","","","","","html-slider-response","140","284685","0.0-21.0-1.9","68a31890-b93c-41a2-96ee-e4992eedaa7d","3048","
                  <p style=""text-align: center;"">₪43
                                                <br>75%</p>
                  <p id=""wtp"" style=""text-align:center; margin-top: 0px; margin-bottom: 0px; font-size: 40px"";>מוכנים לשלם: <span id=""c_p_y""></span></p>","30","evaluation","52","18","11B,19B,24A,26A","75","43","30","","","","","","","","","","","","","","","",""
"","","","","","html-keyboard-response","141","286035","0.0-21.0-2.9","68a31890-b93c-41a2-96ee-e4992eedaa7d","null","<p style=""text-align: center;"">+</p>","null","fixation","","","","","","","","","","","","","","","","","","","","","",""
"","","","","","html-slider-response","142","287045","0.0-21.0-0.10","68a31890-b93c-41a2-96ee-e4992eedaa7d","1000","
                  <p style=""text-align: center;"">₪4
                                                <br>75%</p>
                  <p id=""wtp"" style=""text-align:center; margin-top: 0px; margin-bottom: 0px; font-size: 40px"";>&ensp;</p>","-","viewing","0","3","12B,20B,23B,27C,29C","","","","","","","","","","","","","","","","","","",""
"","","","","","html-slider-response","143","288445","0.0-21.0-1.10","68a31890-b93c-41a2-96ee-e4992eedaa7d","1399","
                  <p style=""text-align: center;"">₪4
                                                <br>75%</p>
                  <p id=""wtp"" style=""text-align:center; margin-top: 0px; margin-bottom: 0px; font-size: 40px"";>מוכנים לשלם: <span id=""c_p_y""></span></p>","0","evaluation","13","3","12B,20B,23B,27C,29C","75","4","1","","","","","","","","","","","","","","","",""
"","","","","","html-keyboard-response","144","289049","0.0-21.0-2.10","68a31890-b93c-41a2-96ee-e4992eedaa7d","null","<p style=""text-align: center;"">+</p>","null","fixation","","","","","","","","","","","","","","","","","","","","","",""
"","","","","","html-slider-response","145","290051","0.0-21.0-0.11","68a31890-b93c-41a2-96ee-e4992eedaa7d","1000","
                  <p style=""text-align: center;"">₪39
                                                <br>65%</p>
                  <p id=""wtp"" style=""text-align:center; margin-top: 0px; margin-bottom: 0px; font-size: 40px"";>&ensp;</p>","-","viewing","0","16","1A,15A,26C","","","","","","","","","","","","","","","","","","",""
"","","","","","html-slider-response","146","293685","0.0-21.0-1.11","68a31890-b93c-41a2-96ee-e4992eedaa7d","3633","
                  <p style=""text-align: center;"">₪39
                                                <br>65%</p>
                  <p id=""wtp"" style=""text-align:center; margin-top: 0px; margin-bottom: 0px; font-size: 40px"";>מוכנים לשלם: <span id=""c_p_y""></span></p>","10","evaluation","36","16","1A,15A,26C","65","39","10","","","","","","","","","","","","","","","",""
"","","","","","html-keyboard-response","147","294391","0.0-21.0-2.11","68a31890-b93c-41a2-96ee-e4992eedaa7d","null","<p style=""text-align: center;"">+</p>","null","fixation","","","","","","","","","","","","","","","","","","","","","",""
"","","","","","html-slider-response","148","295402","0.0-21.0-0.12","68a31890-b93c-41a2-96ee-e4992eedaa7d","1000","
                  <p style=""text-align: center;"">₪36
                                                <br>75%</p>
                  <p id=""wtp"" style=""text-align:center; margin-top: 0px; margin-bottom: 0px; font-size: 40px"";>&ensp;</p>","-","viewing","0","14","4B,5A,13B,16B","","","","","","","","","","","","","","","","","","",""
"","","","","","html-slider-response","149","298365","0.0-21.0-1.12","68a31890-b93c-41a2-96ee-e4992eedaa7d","2962","
                  <p style=""text-align: center;"">₪36
                                                <br>75%</p>
                  <p id=""wtp"" style=""text-align:center; margin-top: 0px; margin-bottom: 0px; font-size: 40px"";>מוכנים לשלם: <span id=""c_p_y""></span></p>","10","evaluation","11","14","4B,5A,13B,16B","75","36","10","","","","","","","","","","","","","","","",""
"","","","","","html-keyboard-response","150","299438","0.0-21.0-2.12","68a31890-b93c-41a2-96ee-e4992eedaa7d","null","<p style=""text-align: center;"">+</p>","null","fixation","","","","","","","","","","","","","","","","","","","","","",""
"","","","","","html-slider-response","151","300440","0.0-21.0-0.13","68a31890-b93c-41a2-96ee-e4992eedaa7d","1000","
                  <p style=""text-align: center;"">₪79
                                                <br>40%</p>
                  <p id=""wtp"" style=""text-align:center; margin-top: 0px; margin-bottom: 0px; font-size: 40px"";>&ensp;</p>","-","viewing","0","30","9B","","","","","","","","","","","","","","","","","","",""
"","","","","","html-slider-response","152","303733","0.0-21.0-1.13","68a31890-b93c-41a2-96ee-e4992eedaa7d","3292","
                  <p style=""text-align: center;"">₪79
                                                <br>40%</p>
                  <p id=""wtp"" style=""text-align:center; margin-top: 0px; margin-bottom: 0px; font-size: 40px"";>מוכנים לשלם: <span id=""c_p_y""></span></p>","20","evaluation","8","30","9B","40","79","20","","","","","","","","","","","","","","","",""
"","","","","","html-keyboard-response","153","305043","0.0-21.0-2.13","68a31890-b93c-41a2-96ee-e4992eedaa7d","null","<p style=""text-align: center;"">+</p>","null","fixation","","","","","","","","","","","","","","","","","","","","","",""
"","","","","","html-slider-response","154","306045","0.0-21.0-0.14","68a31890-b93c-41a2-96ee-e4992eedaa7d","1000","
                  <p style=""text-align: center;"">₪16
                                                <br>20%</p>
                  <p id=""wtp"" style=""text-align:center; margin-top: 0px; margin-bottom: 0px; font-size: 40px"";>&ensp;</p>","-","viewing","0","8","14C,17A,20C,27A","","","","","","","","","","","","","","","","","","",""
"","","","","","html-slider-response","155","307893","0.0-21.0-1.14","68a31890-b93c-41a2-96ee-e4992eedaa7d","1847","
                  <p style=""text-align: center;"">₪16
                                                <br>20%</p>
                  <p id=""wtp"" style=""text-align:center; margin-top: 0px; margin-bottom: 0px; font-size: 40px"";>מוכנים לשלם: <span id=""c_p_y""></span></p>","0","evaluation","19","8","14C,17A,20C,27A","20","16","1","","","","","","","","","","","","","","","",""
"","","","","","html-keyboard-response","156","308505","0.0-21.0-2.14","68a31890-b93c-41a2-96ee-e4992eedaa7d","null","<p style=""text-align: center;"">+</p>","null","fixation","","","","","","","","","","","","","","","","","","","","","",""
"","","","","","html-slider-response","157","309518","0.0-21.0-0.15","68a31890-b93c-41a2-96ee-e4992eedaa7d","1000","
                  <p style=""text-align: center;"">₪11
                                                <br>75%</p>
                  <p id=""wtp"" style=""text-align:center; margin-top: 0px; margin-bottom: 0px; font-size: 40px"";>&ensp;</p>","-","viewing","0","7","6B,18B,22C,24C,29A","","","","","","","","","","","","","","","","","","",""
"","","","","","html-slider-response","158","310829","0.0-21.0-1.15","68a31890-b93c-41a2-96ee-e4992eedaa7d","1310","
                  <p style=""text-align: center;"">₪11
                                                <br>75%</p>
                  <p id=""wtp"" style=""text-align:center; margin-top: 0px; margin-bottom: 0px; font-size: 40px"";>מוכנים לשלם: <span id=""c_p_y""></span></p>","0","evaluation","29","7","6B,18B,22C,24C,29A","75","11","1","","","","","","","","","","","","","","","",""
"","","","","","html-keyboard-response","159","311456","0.0-21.0-2.15","68a31890-b93c-41a2-96ee-e4992eedaa7d","null","<p style=""text-align: center;"">+</p>","null","fixation","","","","","","","","","","","","","","","","","","","","","",""
"","","","","","html-slider-response","160","312463","0.0-21.0-0.16","68a31890-b93c-41a2-96ee-e4992eedaa7d","1000","
                  <p style=""text-align: center;"">₪71
                                                <br>75%</p>
                  <p id=""wtp"" style=""text-align:center; margin-top: 0px; margin-bottom: 0px; font-size: 40px"";>&ensp;</p>","-","viewing","0","28","8B","","","","","","","","","","","","","","","","","","",""
"","","","","","html-slider-response","161","315469","0.0-21.0-1.16","68a31890-b93c-41a2-96ee-e4992eedaa7d","3005","
                  <p style=""text-align: center;"">₪71
                                                <br>75%</p>
                  <p id=""wtp"" style=""text-align:center; margin-top: 0px; margin-bottom: 0px; font-size: 40px"";>מוכנים לשלם: <span id=""c_p_y""></span></p>","31","evaluation","46","28","8B","75","71","31","","","","","","","","","","","","","","","",""
"","","","","","html-keyboard-response","162","316977","0.0-21.0-2.16","68a31890-b93c-41a2-96ee-e4992eedaa7d","null","<p style=""text-align: center;"">+</p>","null","fixation","","","","","","","","","","","","","","","","","","","","","",""
"","","","","","html-slider-response","163","317992","0.0-21.0-0.17","68a31890-b93c-41a2-96ee-e4992eedaa7d","1000","
                  <p style=""text-align: center;"">₪58
                                                <br>30%</p>
                  <p id=""wtp"" style=""text-align:center; margin-top: 0px; margin-bottom: 0px; font-size: 40px"";>&ensp;</p>","-","viewing","0","19","13C,30A","","","","","","","","","","","","","","","","","","",""
"","","","","","html-slider-response","164","321573","0.0-21.0-1.17","68a31890-b93c-41a2-96ee-e4992eedaa7d","3580","
                  <p style=""text-align: center;"">₪58
                                                <br>30%</p>
                  <p id=""wtp"" style=""text-align:center; margin-top: 0px; margin-bottom: 0px; font-size: 40px"";>מוכנים לשלם: <span id=""c_p_y""></span></p>","16","evaluation","18","19","13C,30A","30","58","16","","","","","","","","","","","","","","","",""
"","","","","","html-keyboard-response","165","322994","0.0-21.0-2.17","68a31890-b93c-41a2-96ee-e4992eedaa7d","null","<p style=""text-align: center;"">+</p>","null","fixation","","","","","","","","","","","","","","","","","","","","","",""
"","","","","","html-slider-response","166","323996","0.0-21.0-0.18","68a31890-b93c-41a2-96ee-e4992eedaa7d","1000","
                  <p style=""text-align: center;"">₪11
                                                <br>20%</p>
                  <p id=""wtp"" style=""text-align:center; margin-top: 0px; margin-bottom: 0px; font-size: 40px"";>&ensp;</p>","-","viewing","0","4","12C,17C,23C,28C","","","","","","","","","","","","","","","","","","",""
"","","","","","html-slider-response","167","325957","0.0-21.0-1.18","68a31890-b93c-41a2-96ee-e4992eedaa7d","1961","
                  <p style=""text-align: center;"">₪11
                                                <br>20%</p>
                  <p id=""wtp"" style=""text-align:center; margin-top: 0px; margin-bottom: 0px; font-size: 40px"";>מוכנים לשלם: <span id=""c_p_y""></span></p>","0","evaluation","71","4","12C,17C,23C,28C","20","11","0","","","","","","","","","","","","","","","",""
"","","","","","html-keyboard-response","168","326715","0.0-21.0-2.18","68a31890-b93c-41a2-96ee-e4992eedaa7d","null","<p style=""text-align: center;"">+</p>","null","fixation","","","","","","","","","","","","","","","","","","","","","",""
"","","","","","html-slider-response","169","327718","0.0-21.0-0.19","68a31890-b93c-41a2-96ee-e4992eedaa7d","1000","
                  <p style=""text-align: center;"">₪36
                                                <br>60%</p>
                  <p id=""wtp"" style=""text-align:center; margin-top: 0px; margin-bottom: 0px; font-size: 40px"";>&ensp;</p>","-","viewing","0","12","1C,7C,15C","","","","","","","","","","","","","","","","","","",""
"","","","","","html-slider-response","170","329749","0.0-21.0-1.19","68a31890-b93c-41a2-96ee-e4992eedaa7d","2030","
                  <p style=""text-align: center;"">₪36
                                                <br>60%</p>
                  <p id=""wtp"" style=""text-align:center; margin-top: 0px; margin-bottom: 0px; font-size: 40px"";>מוכנים לשלם: <span id=""c_p_y""></span></p>","15","evaluation","55","12","1C,7C,15C","60","36","15","","","","","","","","","","","","","","","",""
"","","","","","html-keyboard-response","171","330592","0.0-21.0-2.19","68a31890-b93c-41a2-96ee-e4992eedaa7d","null","<p style=""text-align: center;"">+</p>","null","fixation","","","","","","","","","","","","","","","","","","","","","",""
"","","","","","html-slider-response","172","331595","0.0-21.0-0.20","68a31890-b93c-41a2-96ee-e4992eedaa7d","1000","
                  <p style=""text-align: center;"">₪18
                                                <br>50%</p>
                  <p id=""wtp"" style=""text-align:center; margin-top: 0px; margin-bottom: 0px; font-size: 40px"";>&ensp;</p>","-","viewing","0","10","2C,16C,22B,28A","","","","","","","","","","","","","","","","","","",""
"","","","","","html-slider-response","173","333149","0.0-21.0-1.20","68a31890-b93c-41a2-96ee-e4992eedaa7d","1553","
                  <p style=""text-align: center;"">₪18
                                                <br>50%</p>
                  <p id=""wtp"" style=""text-align:center; margin-top: 0px; margin-bottom: 0px; font-size: 40px"";>מוכנים לשלם: <span id=""c_p_y""></span></p>","5","evaluation","61","10","2C,16C,22B,28A","50","18","6","","","","","","","","","","","","","","","",""
"","","","","","html-keyboard-response","174","334223","0.0-21.0-2.20","68a31890-b93c-41a2-96ee-e4992eedaa7d","null","<p style=""text-align: center;"">+</p>","null","fixation","","","","","","","","","","","","","","","","","","","","","",""
"","","","","","html-slider-response","175","335226","0.0-21.0-0.21","68a31890-b93c-41a2-96ee-e4992eedaa7d","1000","
                  <p style=""text-align: center;"">₪4
                                                <br>25%</p>
                  <p id=""wtp"" style=""text-align:center; margin-top: 0px; margin-bottom: 0px; font-size: 40px"";>&ensp;</p>","-","viewing","0","1","6C,29B,30C","","","","","","","","","","","","","","","","","","",""
"","","","","","html-slider-response","176","337229","0.0-21.0-1.21","68a31890-b93c-41a2-96ee-e4992eedaa7d","2003","
                  <p style=""text-align: center;"">₪4
                                                <br>25%</p>
                  <p id=""wtp"" style=""text-align:center; margin-top: 0px; margin-bottom: 0px; font-size: 40px"";>מוכנים לשלם: <span id=""c_p_y""></span></p>","0","evaluation","2","1","6C,29B,30C","25","4","0","","","","","","","","","","","","","","","",""
"","","","","","html-keyboard-response","177","338277","0.0-21.0-2.21","68a31890-b93c-41a2-96ee-e4992eedaa7d","null","<p style=""text-align: center;"">+</p>","null","fixation","","","","","","","","","","","","","","","","","","","","","",""
"","","","","","html-slider-response","178","339280","0.0-21.0-0.22","68a31890-b93c-41a2-96ee-e4992eedaa7d","1000","
                  <p style=""text-align: center;"">₪79
                                                <br>65%</p>
                  <p id=""wtp"" style=""text-align:center; margin-top: 0px; margin-bottom: 0px; font-size: 40px"";>&ensp;</p>","-","viewing","0","31","8A","","","","","","","","","","","","","","","","","","",""
"","","","","","html-slider-response","179","342509","0.0-21.0-1.22","68a31890-b93c-41a2-96ee-e4992eedaa7d","3228","
                  <p style=""text-align: center;"">₪79
                                                <br>65%</p>
                  <p id=""wtp"" style=""text-align:center; margin-top: 0px; margin-bottom: 0px; font-size: 40px"";>מוכנים לשלם: <span id=""c_p_y""></span></p>","30","evaluation","11","31","8A","65","79","30","","","","","","","","","","","","","","","",""
"","","","","","html-keyboard-response","180","343203","0.0-21.0-2.22","68a31890-b93c-41a2-96ee-e4992eedaa7d","null","<p style=""text-align: center;"">+</p>","null","fixation","","","","","","","","","","","","","","","","","","","","","",""
"","","","","","html-slider-response","181","344207","0.0-21.0-0.23","68a31890-b93c-41a2-96ee-e4992eedaa7d","1000","
                  <p style=""text-align: center;"">₪64
                                                <br>50%</p>
                  <p id=""wtp"" style=""text-align:center; margin-top: 0px; margin-bottom: 0px; font-size: 40px"";>&ensp;</p>","-","viewing","0","25","1B,3B,4A","","","","","","","","","","","","","","","","","","",""
"","","","","","html-slider-response","182","346573","0.0-21.0-1.23","68a31890-b93c-41a2-96ee-e4992eedaa7d","2366","
                  <p style=""text-align: center;"">₪64
                                                <br>50%</p>
                  <p id=""wtp"" style=""text-align:center; margin-top: 0px; margin-bottom: 0px; font-size: 40px"";>מוכנים לשלם: <span id=""c_p_y""></span></p>","30","evaluation","25","25","1B,3B,4A","50","64","30","","","","","","","","","","","","","","","",""
"","","","","","html-keyboard-response","183","347619","0.0-21.0-2.23","68a31890-b93c-41a2-96ee-e4992eedaa7d","null","<p style=""text-align: center;"">+</p>","null","fixation","","","","","","","","","","","","","","","","","","","","","",""
"","","","","","html-slider-response","184","348620","0.0-21.0-0.24","68a31890-b93c-41a2-96ee-e4992eedaa7d","1000","
                  <p style=""text-align: center;"">₪61
                                                <br>55%</p>
                  <p id=""wtp"" style=""text-align:center; margin-top: 0px; margin-bottom: 0px; font-size: 40px"";>&ensp;</p>","-","viewing","0","23","7B,26B","","","","","","","","","","","","","","","","","","",""
"","","","","","html-slider-response","185","350509","0.0-21.0-1.24","68a31890-b93c-41a2-96ee-e4992eedaa7d","1888","
                  <p style=""text-align: center;"">₪61
                                                <br>55%</p>
                  <p id=""wtp"" style=""text-align:center; margin-top: 0px; margin-bottom: 0px; font-size: 40px"";>מוכנים לשלם: <span id=""c_p_y""></span></p>","20","evaluation","69","23","7B,26B","55","61","20","","","","","","","","","","","","","","","",""
"","","","","","html-keyboard-response","186","351358","0.0-21.0-2.24","68a31890-b93c-41a2-96ee-e4992eedaa7d","null","<p style=""text-align: center;"">+</p>","null","fixation","","","","","","","","","","","","","","","","","","","","","",""
"","","","","","html-slider-response","187","352361","0.0-21.0-0.25","68a31890-b93c-41a2-96ee-e4992eedaa7d","1000","
                  <p style=""text-align: center;"">₪36
                                                <br>30%</p>
                  <p id=""wtp"" style=""text-align:center; margin-top: 0px; margin-bottom: 0px; font-size: 40px"";>&ensp;</p>","-","viewing","0","11","3C,20A,22A","","","","","","","","","","","","","","","","","","",""
"","","","","","html-slider-response","188","354357","0.0-21.0-1.25","68a31890-b93c-41a2-96ee-e4992eedaa7d","1995","
                  <p style=""text-align: center;"">₪36
                                                <br>30%</p>
                  <p id=""wtp"" style=""text-align:center; margin-top: 0px; margin-bottom: 0px; font-size: 40px"";>מוכנים לשלם: <span id=""c_p_y""></span></p>","5","evaluation","15","11","3C,20A,22A","30","36","5","","","","","","","","","","","","","","","",""
"","","","","","html-keyboard-response","189","355167","0.0-21.0-2.25","68a31890-b93c-41a2-96ee-e4992eedaa7d","null","<p style=""text-align: center;"">+</p>","null","fixation","","","","","","","","","","","","","","","","","","","","","",""
"","","","","","html-slider-response","190","356169","0.0-21.0-0.26","68a31890-b93c-41a2-96ee-e4992eedaa7d","1000","
                  <p style=""text-align: center;"">₪11
                                                <br>45%</p>
                  <p id=""wtp"" style=""text-align:center; margin-top: 0px; margin-bottom: 0px; font-size: 40px"";>&ensp;</p>","-","viewing","0","6","14B,21C,25C","","","","","","","","","","","","","","","","","","",""
"","","","","","html-slider-response","191","357341","0.0-21.0-1.26","68a31890-b93c-41a2-96ee-e4992eedaa7d","1171","
                  <p style=""text-align: center;"">₪11
                                                <br>45%</p>
                  <p id=""wtp"" style=""text-align:center; margin-top: 0px; margin-bottom: 0px; font-size: 40px"";>מוכנים לשלם: <span id=""c_p_y""></span></p>","0","evaluation","13","6","14B,21C,25C","45","11","0","","","","","","","","","","","","","","","",""
"","","","","","html-keyboard-response","192","358008","0.0-21.0-2.26","68a31890-b93c-41a2-96ee-e4992eedaa7d","null","<p style=""text-align: center;"">+</p>","null","fixation","","","","","","","","","","","","","","","","","","","","","",""
"","","","","","html-slider-response","193","359011","0.0-21.0-0.27","68a31890-b93c-41a2-96ee-e4992eedaa7d","1000","
                  <p style=""text-align: center;"">₪64
                                                <br>25%</p>
                  <p id=""wtp"" style=""text-align:center; margin-top: 0px; margin-bottom: 0px; font-size: 40px"";>&ensp;</p>","-","viewing","0","24","6A,21A","","","","","","","","","","","","","","","","","","",""
"","","","","","html-slider-response","194","361068","0.0-21.0-1.27","68a31890-b93c-41a2-96ee-e4992eedaa7d","2058","
                  <p style=""text-align: center;"">₪64
                                                <br>25%</p>
                  <p id=""wtp"" style=""text-align:center; margin-top: 0px; margin-bottom: 0px; font-size: 40px"";>מוכנים לשלם: <span id=""c_p_y""></span></p>","5","evaluation","78","24","6A,21A","25","64","5","","","","","","","","","","","","","","","",""
"","","","","","html-keyboard-response","195","362010","0.0-21.0-2.27","68a31890-b93c-41a2-96ee-e4992eedaa7d","null","<p style=""text-align: center;"">+</p>","null","fixation","","","","","","","","","","","","","","","","","","","","","",""
"","","","","","html-slider-response","196","363024","0.0-21.0-0.28","68a31890-b93c-41a2-96ee-e4992eedaa7d","1000","
                  <p style=""text-align: center;"">₪43
                                                <br>60%</p>
                  <p id=""wtp"" style=""text-align:center; margin-top: 0px; margin-bottom: 0px; font-size: 40px"";>&ensp;</p>","-","viewing","0","17","2A,7A,9A,15B","","","","","","","","","","","","","","","","","","",""
"","","","","","html-slider-response","197","365980","0.0-21.0-1.28","68a31890-b93c-41a2-96ee-e4992eedaa7d","2956","
                  <p style=""text-align: center;"">₪43
                                                <br>60%</p>
                  <p id=""wtp"" style=""text-align:center; margin-top: 0px; margin-bottom: 0px; font-size: 40px"";>מוכנים לשלם: <span id=""c_p_y""></span></p>","10","evaluation","46","17","2A,7A,9A,15B","60","43","10","","","","","","","","","","","","","","","",""
"","","","","","html-keyboard-response","198","367467","0.0-21.0-2.28","68a31890-b93c-41a2-96ee-e4992eedaa7d","null","<p style=""text-align: center;"">+</p>","null","fixation","","","","","","","","","","","","","","","","","","","","","",""
"","","","","","html-slider-response","199","368478","0.0-21.0-0.29","68a31890-b93c-41a2-96ee-e4992eedaa7d","1000","
                  <p style=""text-align: center;"">₪4
                                                <br>50%</p>
                  <p id=""wtp"" style=""text-align:center; margin-top: 0px; margin-bottom: 0px; font-size: 40px"";>&ensp;</p>","-","viewing","0","2","4C,17B","","","","","","","","","","","","","","","","","","",""
"","","","","","html-slider-response","200","369644","0.0-21.0-1.29","68a31890-b93c-41a2-96ee-e4992eedaa7d","1165","
                  <p style=""text-align: center;"">₪4
                                                <br>50%</p>
                  <p id=""wtp"" style=""text-align:center; margin-top: 0px; margin-bottom: 0px; font-size: 40px"";>מוכנים לשלם: <span id=""c_p_y""></span></p>","0","evaluation","60","2","4C,17B","50","4","0","","","","","","","","","","","","","","","",""
"","","","","","html-keyboard-response","201","371118","0.0-21.0-2.29","68a31890-b93c-41a2-96ee-e4992eedaa7d","null","<p style=""text-align: center;"">+</p>","null","fixation","","","","","","","","","","","","","","","","","","","","","",""
"","","","","","html-slider-response","202","372121","0.0-21.0-0.30","68a31890-b93c-41a2-96ee-e4992eedaa7d","1000","
                  <p style=""text-align: center;"">₪76
                                                <br>65%</p>
                  <p id=""wtp"" style=""text-align:center; margin-top: 0px; margin-bottom: 0px; font-size: 40px"";>&ensp;</p>","-","viewing","0","29","8C,19A,24B","","","","","","","","","","","","","","","","","","",""
"","","","","","html-slider-response","203","374004","0.0-21.0-1.30","68a31890-b93c-41a2-96ee-e4992eedaa7d","1882","
                  <p style=""text-align: center;"">₪76
                                                <br>65%</p>
                  <p id=""wtp"" style=""text-align:center; margin-top: 0px; margin-bottom: 0px; font-size: 40px"";>מוכנים לשלם: <span id=""c_p_y""></span></p>","30","evaluation","75","29","8C,19A,24B","65","76","30","","","","","","","","","","","","","","","",""
"","","","","","html-keyboard-response","204","374558","0.0-21.0-2.30","68a31890-b93c-41a2-96ee-e4992eedaa7d","null","<p style=""text-align: center;"">+</p>","null","fixation","","","","","","","","","","","","","","","","","","","","","",""
"","","","","","html-keyboard-response","205","375559","0.0-22.0","68a31890-b93c-41a2-96ee-e4992eedaa7d","null","<p style=""text-align: center;"">+</p>","null","fixation","","","","","","","","","","","","","","","","","","","","","",""
"","","","","","html-keyboard-response","206","376732","0.0-23.0","68a31890-b93c-41a2-96ee-e4992eedaa7d","null","<p>הפסקה.
          <br>לחצו כדי להמשיך.</p>","1","scan_wait","","","","","","","","","","","","","","","","","","","","","",""
"","","","","","html-keyboard-response","207","377746","0.0-24.0","68a31890-b93c-41a2-96ee-e4992eedaa7d","null","<p style=""text-align: center;"">+</p>","null","fixation","","","","","","","","","","","","","","","","","","","","","",""
"","","","","","html-slider-response","208","378755","0.0-25.0-0.0","68a31890-b93c-41a2-96ee-e4992eedaa7d","1000","
                  <p style=""text-align: center;"">₪39
                                                <br>65%</p>
                  <p id=""wtp"" style=""text-align:center; margin-top: 0px; margin-bottom: 0px; font-size: 40px"";>&ensp;</p>","-","viewing","0","16","1A,15A,26C","","","","","","","","","","","","","","","","","","",""
"","","","","","html-slider-response","209","381693","0.0-25.0-1.0","68a31890-b93c-41a2-96ee-e4992eedaa7d","2936","
                  <p style=""text-align: center;"">₪39
                                                <br>65%</p>
                  <p id=""wtp"" style=""text-align:center; margin-top: 0px; margin-bottom: 0px; font-size: 40px"";>מוכנים לשלם: <span id=""c_p_y""></span></p>","19","evaluation","53","16","1A,15A,26C","65","39","19","","","","","","","","","","","","","","","",""
"","","","","","html-keyboard-response","210","382492","0.0-25.0-2.0","68a31890-b93c-41a2-96ee-e4992eedaa7d","null","<p style=""text-align: center;"">+</p>","null","fixation","","","","","","","","","","","","","","","","","","","","","",""
"","","","","","html-slider-response","211","383502","0.0-25.0-0.1","68a31890-b93c-41a2-96ee-e4992eedaa7d","1000","
                  <p style=""text-align: center;"">₪43
                                                <br>75%</p>
                  <p id=""wtp"" style=""text-align:center; margin-top: 0px; margin-bottom: 0px; font-size: 40px"";>&ensp;</p>","-","viewing","0","18","11B,19B,24A,26A","","","","","","","","","","","","","","","","","","",""
"","","","","","html-slider-response","212","385157","0.0-25.0-1.1","68a31890-b93c-41a2-96ee-e4992eedaa7d","1653","
                  <p style=""text-align: center;"">₪43
                                                <br>75%</p>
                  <p id=""wtp"" style=""text-align:center; margin-top: 0px; margin-bottom: 0px; font-size: 40px"";>מוכנים לשלם: <span id=""c_p_y""></span></p>","20","evaluation","10","18","11B,19B,24A,26A","75","43","20","","","","","","","","","","","","","","","",""
"","","","","","html-keyboard-response","213","385670","0.0-25.0-2.1","68a31890-b93c-41a2-96ee-e4992eedaa7d","null","<p style=""text-align: center;"">+</p>","null","fixation","","","","","","","","","","","","","","","","","","","","","",""
"","","","","","html-slider-response","214","386672","0.0-25.0-0.2","68a31890-b93c-41a2-96ee-e4992eedaa7d","1000","
                  <p style=""text-align: center;"">₪58
                                                <br>40%</p>
                  <p id=""wtp"" style=""text-align:center; margin-top: 0px; margin-bottom: 0px; font-size: 40px"";>&ensp;</p>","-","viewing","0","20","10C,13A,19C,21B","","","","","","","","","","","","","","","","","","",""
"","","","","","html-slider-response","215","389244","0.0-25.0-1.2","68a31890-b93c-41a2-96ee-e4992eedaa7d","2571","
                  <p style=""text-align: center;"">₪58
                                                <br>40%</p>
                  <p id=""wtp"" style=""text-align:center; margin-top: 0px; margin-bottom: 0px; font-size: 40px"";>מוכנים לשלם: <span id=""c_p_y""></span></p>","13","evaluation","68","20","10C,13A,19C,21B","40","58","13","","","","","","","","","","","","","","","",""
"","","","","","html-keyboard-response","216","390734","0.0-25.0-2.2","68a31890-b93c-41a2-96ee-e4992eedaa7d","null","<p style=""text-align: center;"">+</p>","null","fixation","","","","","","","","","","","","","","","","","","","","","",""
"","","","","","html-slider-response","217","391749","0.0-25.0-0.3","68a31890-b93c-41a2-96ee-e4992eedaa7d","1000","
                  <p style=""text-align: center;"">₪43
                                                <br>60%</p>
                  <p id=""wtp"" style=""text-align:center; margin-top: 0px; margin-bottom: 0px; font-size: 40px"";>&ensp;</p>","-","viewing","0","17","2A,7A,9A,15B","","","","","","","","","","","","","","","","","","",""
"","","","","","html-slider-response","218","395245","0.0-25.0-1.3","68a31890-b93c-41a2-96ee-e4992eedaa7d","3494","
                  <p style=""text-align: center;"">₪43
                                                <br>60%</p>
                  <p id=""wtp"" style=""text-align:center; margin-top: 0px; margin-bottom: 0px; font-size: 40px"";>מוכנים לשלם: <span id=""c_p_y""></span></p>","16","evaluation","36","17","2A,7A,9A,15B","60","43","16","","","","","","","","","","","","","","","",""
"","","","","","html-keyboard-response","219","395936","0.0-25.0-2.3","68a31890-b93c-41a2-96ee-e4992eedaa7d","null","<p style=""text-align: center;"">+</p>","null","fixation","","","","","","","","","","","","","","","","","","","","","",""
"","","","","","html-slider-response","220","396945","0.0-25.0-0.4","68a31890-b93c-41a2-96ee-e4992eedaa7d","1000","
                  <p style=""text-align: center;"">₪11
                                                <br>20%</p>
                  <p id=""wtp"" style=""text-align:center; margin-top: 0px; margin-bottom: 0px; font-size: 40px"";>&ensp;</p>","-","viewing","0","4","12C,17C,23C,28C","","","","","","","","","","","","","","","","","","",""
"","","","","","html-slider-response","221","397636","0.0-25.0-1.4","68a31890-b93c-41a2-96ee-e4992eedaa7d","690","
                  <p style=""text-align: center;"">₪11
                                                <br>20%</p>
                  <p id=""wtp"" style=""text-align:center; margin-top: 0px; margin-bottom: 0px; font-size: 40px"";>מוכנים לשלם: <span id=""c_p_y""></span></p>","0","evaluation","20","4","12C,17C,23C,28C","20","11","0","","","","","","","","","","","","","","","",""
"","","","","","html-keyboard-response","222","398640","0.0-25.0-2.4","68a31890-b93c-41a2-96ee-e4992eedaa7d","null","<p style=""text-align: center;"">+</p>","null","fixation","","","","","","","","","","","","","","","","","","","","","",""
"","","","","","html-slider-response","223","399642","0.0-25.0-0.5","68a31890-b93c-41a2-96ee-e4992eedaa7d","1000","
                  <p style=""text-align: center;"">₪71
                                                <br>75%</p>
                  <p id=""wtp"" style=""text-align:center; margin-top: 0px; margin-bottom: 0px; font-size: 40px"";>&ensp;</p>","-","viewing","0","28","8B","","","","","","","","","","","","","","","","","","",""
"","","","","","html-slider-response","224","402709","0.0-25.0-1.5","68a31890-b93c-41a2-96ee-e4992eedaa7d","3065","
                  <p style=""text-align: center;"">₪71
                                                <br>75%</p>
                  <p id=""wtp"" style=""text-align:center; margin-top: 0px; margin-bottom: 0px; font-size: 40px"";>מוכנים לשלם: <span id=""c_p_y""></span></p>","40","evaluation","50","28","8B","75","71","40","","","","","","","","","","","","","","","",""
"","","","","","html-keyboard-response","225","403315","0.0-25.0-2.5","68a31890-b93c-41a2-96ee-e4992eedaa7d","null","<p style=""text-align: center;"">+</p>","null","fixation","","","","","","","","","","","","","","","","","","","","","",""
"","","","","","html-slider-response","226","404318","0.0-25.0-0.6","68a31890-b93c-41a2-96ee-e4992eedaa7d","1000","
                  <p style=""text-align: center;"">₪64
                                                <br>25%</p>
                  <p id=""wtp"" style=""text-align:center; margin-top: 0px; margin-bottom: 0px; font-size: 40px"";>&ensp;</p>","-","viewing","0","24","6A,21A","","","","","","","","","","","","","","","","","","",""
"","","","","","html-slider-response","227","408300","0.0-25.0-1.6","68a31890-b93c-41a2-96ee-e4992eedaa7d","3981","
                  <p style=""text-align: center;"">₪64
                                                <br>25%</p>
                  <p id=""wtp"" style=""text-align:center; margin-top: 0px; margin-bottom: 0px; font-size: 40px"";>מוכנים לשלם: <span id=""c_p_y""></span></p>","2","evaluation","21","24","6A,21A","25","64","3","","","","","","","","","","","","","","","",""
"","","","","","html-keyboard-response","228","408849","0.0-25.0-2.6","68a31890-b93c-41a2-96ee-e4992eedaa7d","null","<p style=""text-align: center;"">+</p>","null","fixation","","","","","","","","","","","","","","","","","","","","","",""
"","","","","","html-slider-response","229","409854","0.0-25.0-0.7","68a31890-b93c-41a2-96ee-e4992eedaa7d","1000","
                  <p style=""text-align: center;"">₪11
                                                <br>45%</p>
                  <p id=""wtp"" style=""text-align:center; margin-top: 0px; margin-bottom: 0px; font-size: 40px"";>&ensp;</p>","-","viewing","0","6","14B,21C,25C","","","","","","","","","","","","","","","","","","",""
"","","","","","html-slider-response","230","411732","0.0-25.0-1.7","68a31890-b93c-41a2-96ee-e4992eedaa7d","1877","
                  <p style=""text-align: center;"">₪11
                                                <br>45%</p>
                  <p id=""wtp"" style=""text-align:center; margin-top: 0px; margin-bottom: 0px; font-size: 40px"";>מוכנים לשלם: <span id=""c_p_y""></span></p>","0","evaluation","66","6","14B,21C,25C","45","11","1","","","","","","","","","","","","","","","",""
"","","","","","html-keyboard-response","231","412996","0.0-25.0-2.7","68a31890-b93c-41a2-96ee-e4992eedaa7d","null","<p style=""text-align: center;"">+</p>","null","fixation","","","","","","","","","","","","","","","","","","","","","",""
"","","","","","html-slider-response","232","414003","0.0-25.0-0.8","68a31890-b93c-41a2-96ee-e4992eedaa7d","1000","
                  <p style=""text-align: center;"">₪4
                                                <br>75%</p>
                  <p id=""wtp"" style=""text-align:center; margin-top: 0px; margin-bottom: 0px; font-size: 40px"";>&ensp;</p>","-","viewing","0","3","12B,20B,23B,27C,29C","","","","","","","","","","","","","","","","","","",""
"","","","","","html-slider-response","233","415565","0.0-25.0-1.8","68a31890-b93c-41a2-96ee-e4992eedaa7d","1561","
                  <p style=""text-align: center;"">₪4
                                                <br>75%</p>
                  <p id=""wtp"" style=""text-align:center; margin-top: 0px; margin-bottom: 0px; font-size: 40px"";>מוכנים לשלם: <span id=""c_p_y""></span></p>","0","evaluation","59","3","12B,20B,23B,27C,29C","75","4","1","","","","","","","","","","","","","","","",""
"","","","","","html-keyboard-response","234","416400","0.0-25.0-2.8","68a31890-b93c-41a2-96ee-e4992eedaa7d","null","<p style=""text-align: center;"">+</p>","null","fixation","","","","","","","","","","","","","","","","","","","","","",""
"","","","","","html-slider-response","235","417416","0.0-25.0-0.9","68a31890-b93c-41a2-96ee-e4992eedaa7d","1000","
                  <p style=""text-align: center;"">₪64
                                                <br>50%</p>
                  <p id=""wtp"" style=""text-align:center; margin-top: 0px; margin-bottom: 0px; font-size: 40px"";>&ensp;</p>","-","viewing","0","25","1B,3B,4A","","","","","","","","","","","","","","","","","","",""
"","","","","","html-slider-response","236","421101","0.0-25.0-1.9","68a31890-b93c-41a2-96ee-e4992eedaa7d","3684","
                  <p style=""text-align: center;"">₪64
                                                <br>50%</p>
                  <p id=""wtp"" style=""text-align:center; margin-top: 0px; margin-bottom: 0px; font-size: 40px"";>מוכנים לשלם: <span id=""c_p_y""></span></p>","12","evaluation","20","25","1B,3B,4A","50","64","12","","","","","","","","","","","","","","","",""
"","","","","","html-keyboard-response","237","422278","0.0-25.0-2.9","68a31890-b93c-41a2-96ee-e4992eedaa7d","null","<p style=""text-align: center;"">+</p>","null","fixation","","","","","","","","","","","","","","","","","","","","","",""
"","","","","","html-slider-response","238","423279","0.0-25.0-0.10","68a31890-b93c-41a2-96ee-e4992eedaa7d","1000","
                  <p style=""text-align: center;"">₪61
                                                <br>45%</p>
                  <p id=""wtp"" style=""text-align:center; margin-top: 0px; margin-bottom: 0px; font-size: 40px"";>&ensp;</p>","-","viewing","0","22","10A,11A","","","","","","","","","","","","","","","","","","",""
"","","","","","html-slider-response","239","424948","0.0-25.0-1.10","68a31890-b93c-41a2-96ee-e4992eedaa7d","1668","
                  <p style=""text-align: center;"">₪61
                                                <br>45%</p>
                  <p id=""wtp"" style=""text-align:center; margin-top: 0px; margin-bottom: 0px; font-size: 40px"";>מוכנים לשלם: <span id=""c_p_y""></span></p>","13","evaluation","40","22","10A,11A","45","61","14","","","","","","","","","","","","","","","",""
"","","","","","html-keyboard-response","240","426352","0.0-25.0-2.10","68a31890-b93c-41a2-96ee-e4992eedaa7d","null","<p style=""text-align: center;"">+</p>","null","fixation","","","","","","","","","","","","","","","","","","","","","",""
"","","","","","html-slider-response","241","427367","0.0-25.0-0.11","68a31890-b93c-41a2-96ee-e4992eedaa7d","1000","
                  <p style=""text-align: center;"">₪36
                                                <br>75%</p>
                  <p id=""wtp"" style=""text-align:center; margin-top: 0px; margin-bottom: 0px; font-size: 40px"";>&ensp;</p>","-","viewing","0","14","4B,5A,13B,16B","","","","","","","","","","","","","","","","","","",""
"","","","","","html-slider-response","242","429693","0.0-25.0-1.11","68a31890-b93c-41a2-96ee-e4992eedaa7d","2324","
                  <p style=""text-align: center;"">₪36
                                                <br>75%</p>
                  <p id=""wtp"" style=""text-align:center; margin-top: 0px; margin-bottom: 0px; font-size: 40px"";>מוכנים לשלם: <span id=""c_p_y""></span></p>","10","evaluation","59","14","4B,5A,13B,16B","75","36","10","","","","","","","","","","","","","","","",""
"","","","","","html-keyboard-response","243","431107","0.0-25.0-2.11","68a31890-b93c-41a2-96ee-e4992eedaa7d","null","<p style=""text-align: center;"">+</p>","null","fixation","","","","","","","","","","","","","","","","","","","","","",""
"","","","","","html-slider-response","244","432116","0.0-25.0-0.12","68a31890-b93c-41a2-96ee-e4992eedaa7d","1000","
                  <p style=""text-align: center;"">₪58
                                                <br>30%</p>
                  <p id=""wtp"" style=""text-align:center; margin-top: 0px; margin-bottom: 0px; font-size: 40px"";>&ensp;</p>","-","viewing","0","19","13C,30A","","","","","","","","","","","","","","","","","","",""
"","","","","","html-slider-response","245","435484","0.0-25.0-1.12","68a31890-b93c-41a2-96ee-e4992eedaa7d","3367","
                  <p style=""text-align: center;"">₪58
                                                <br>30%</p>
                  <p id=""wtp"" style=""text-align:center; margin-top: 0px; margin-bottom: 0px; font-size: 40px"";>מוכנים לשלם: <span id=""c_p_y""></span></p>","4","evaluation","16","19","13C,30A","30","58","4","","","","","","","","","","","","","","","",""
"","","","","","html-keyboard-response","246","435996","0.0-25.0-2.12","68a31890-b93c-41a2-96ee-e4992eedaa7d","null","<p style=""text-align: center;"">+</p>","null","fixation","","","","","","","","","","","","","","","","","","","","","",""
"","","","","","html-slider-response","247","437011","0.0-25.0-0.13","68a31890-b93c-41a2-96ee-e4992eedaa7d","1000","
                  <p style=""text-align: center;"">₪58
                                                <br>45%</p>
                  <p id=""wtp"" style=""text-align:center; margin-top: 0px; margin-bottom: 0px; font-size: 40px"";>&ensp;</p>","-","viewing","0","21","11C,18C,25A","","","","","","","","","","","","","","","","","","",""
"","","","","","html-slider-response","248","438981","0.0-25.0-1.13","68a31890-b93c-41a2-96ee-e4992eedaa7d","1968","
                  <p style=""text-align: center;"">₪58
                                                <br>45%</p>
                  <p id=""wtp"" style=""text-align:center; margin-top: 0px; margin-bottom: 0px; font-size: 40px"";>מוכנים לשלם: <span id=""c_p_y""></span></p>","9","evaluation","44","21","11C,18C,25A","45","58","10","","","","","","","","","","","","","","","",""
"","","","","","html-keyboard-response","249","439605","0.0-25.0-2.13","68a31890-b93c-41a2-96ee-e4992eedaa7d","null","<p style=""text-align: center;"">+</p>","null","fixation","","","","","","","","","","","","","","","","","","","","","",""
"","","","","","html-slider-response","250","440607","0.0-25.0-0.14","68a31890-b93c-41a2-96ee-e4992eedaa7d","1000","
                  <p style=""text-align: center;"">₪18
                                                <br>50%</p>
                  <p id=""wtp"" style=""text-align:center; margin-top: 0px; margin-bottom: 0px; font-size: 40px"";>&ensp;</p>","-","viewing","0","10","2C,16C,22B,28A","","","","","","","","","","","","","","","","","","",""
