"success","timeout","failed_images","failed_audio","failed_video","trial_type","trial_index","time_elapsed","internal_node_id","subject_id","rt","stimulus","response","part","slider_start","ID","set_ID","prob","amount","last_location","actual_choice","actual_EV","binary_id","trinary_id","catch","A_key","D_key","choice_prob","choice_amount","potential_prize_prob","potential_prize_amount","won_prize","total_prize","remaining_budget","accuracy"
"true","false","[]","[]","[]","preload","0","12","0.0-0.0","9c08acd5-0655-4b76-899a-4b1b87c87648","","","","","","","","","","","","","","","","","","","","","","","","",""
"","","","","","html-keyboard-response","1","8257","0.0-1.0","9c08acd5-0655-4b76-899a-4b1b87c87648","null","
          <h1>שלום וברוכים הבאים!</h1>
          <p>לפניכם ניסוי בקבלת החלטות עם שני חלקים.
          <br><br>לחצו על העכבר כדי להמשיך.</p>","0","example","","","","","","","","","","","","","","","","","","","","",""
"","","","","","html-keyboard-response","2","24865","0.0-2.0","9c08acd5-0655-4b76-899a-4b1b87c87648","null","
        <h1>חלק 1</h1>
        <p>בקרוב יוצגו בפניכם הגרלות.
        <br>עליכם לבחור את המחיר המירבי שתהיו מוכנים לשלם כדי להשתתף בהגרלה שתוצג.
        <br>יש לכם תקציב של ₪80 לכל הגרלה. 
        <br>נסו להעריך כל הגרלה בנפרד ולחשוב כמה היא שווה עבורכם, ₪80 זמינים לכל הגרלה בנפרד.
        <br><br>לחצו על העכבר כדי להמשיך.</p>","1","instructions","","","","","","","","","","","","","","","","","","","","",""
"","","","","","html-keyboard-response","3","65137","0.0-3.0","9c08acd5-0655-4b76-899a-4b1b87c87648","null","
        <p>בסוף הניסוי, המחשב יבחר את אחת ההגרלות ויקבע מחיר לכרטיס עבורה. 
        <br>במידה והמחיר שבחרתם נמוך מהמחיר שנבחר על ידי המחשב, לא תשתתפו בהגרלה ותשארו עם מלוא התקציב.
        <br>במידה והמחיר שבחרתם גבוה מהמחיר שנבחר על ידי המחשב, תשלמו את המחיר שנקבע ותשתתפו בהגרלה.
        <br><br>לחצו על העכבר כדי להמשיך.</p>","1","instructions","","","","","","","","","","","","","","","","","","","","",""
"","","","","","html-slider-response","4","90177","0.0-4.0","9c08acd5-0655-4b76-899a-4b1b87c87648","24923","
        <p style=""font-size: 42px;"">נתחיל עם דוגמא: 
        <br>ההגרלה מטה מציעה 65% סיכוי לזכות ב-₪40 
        <br>&emsp;&emsp;&emsp;&emsp;&emsp;&emsp;&emsp;&emsp;&ensp;35% סיכוי לזכות ב-₪0.
        <br><br>מה המחיר המירבי שתהיו מוכנים לשלם על כרטיס להגרלה זו בין 0 ל-₪80?
        <br>הזיזו את העכבר על פני המלבן ולחצו כדי לבצע בחירה.</p>
        
        <p style=""text-align: center;"">₪40<br>65%</p>

        <p id=""wtp"" style=""text-align:center; margin-top: 0px; margin-bottom: 0px; font-size: 40px"";>מוכנים לשלם: <span id=""c_p_y""></span></p>","50","example","71","","","","","","","","","","","","","","","","","","","",""
"","","","","","html-keyboard-response","5","109697","0.0-5.0","9c08acd5-0655-4b76-899a-4b1b87c87648","null","<p>יפה מאוד!
                <br> בחרתם שתהיו מוכנים לשלם ₪50 כדי להשתתף בהגרלה:
                <br><p style=""text-align: center;"">₪40<br>65%</p>
                <p>נשמע נכון?
                <br>נניח שהגרלה זו נבחרה בסוף הניסוי.
                <br>כעת המחשב יקבע מחיר עבורה באקראי.
                <br>לחצו על העכבר להמשך.</p>","1","example","","","","","","","","","","","","","","","","","","","","",""
"","","","","","html-keyboard-response","6","122409","0.0-6.0","9c08acd5-0655-4b76-899a-4b1b87c87648","null","<p>המחשב קבע מחיר: ₪54
                <br>ואתם בחרתם לשלם לכל היותר: ₪50
                <br><br>מכיוון שהמחיר שבחרתם נמוך מהמחיר שנקבע, לא תתשתתפו בהגרלה.
                <br>במקרה כזה, בסוף הניסוי תקבלו את כל התקציב ההתחלתי של ₪80.
                <br><br>לחצו על העכבר להמשך.</p>","1","example","","","","","","","","","","","","","","","","","","","","",""
"","","","","","html-slider-response","7","141113","0.0-7.0","9c08acd5-0655-4b76-899a-4b1b87c87648","18450","<p style=""font-size: 42px;"">הנה עוד דוגמא:
                <br>ההגרלה מטה מציעה 35% סיכוי לזכות ב-₪18 
                <br>&emsp;&emsp;&emsp;&emsp;&emsp;&emsp;&emsp;&emsp;&ensp;65% סיכוי לזכות ב-₪0.</p>
        
                <p style=""text-align: center;"">₪18<br>35%</p>
                <p id=""wtp"" style=""text-align:center; margin-top: 0px; margin-bottom: 0px; font-size: 40px"";>מוכנים לשלם: <span id=""c_p_y""></span></p>","5","example","13","","","","","","","","","","","","","","","","","","","",""
"","","","","","html-keyboard-response","8","146417","0.0-8.0","9c08acd5-0655-4b76-899a-4b1b87c87648","null","<p>הייתם מוכנים לשלם  ₪5 כדי להשתתף בהגרלה:
                <p style=""text-align: center;"">₪18<br>35%</p>
                <p>כעת נניח שהמחשב בחר את ההגרלה הזו בסוף הניסוי, וקבע עבורה מחיר.
                <br><br>לחצו על העכבר כדי להמשיך.</p>","1","instructions","","","","","","","","","","","","","","","","","","","","",""
"","","","","","html-keyboard-response","9","164769","0.0-9.0","9c08acd5-0655-4b76-899a-4b1b87c87648","null","<p>המחשב קבע מחיר להגרלה: ₪0<br>ואתם בחרתם לשלם לכל היותר: ₪5
                <br><br>כעת המחיר שנקבע נמוך מזה שבחרתם, אז תשלמו את המחיר שקבע המחשב (₪0) ותשתתפו בהגרלה.
                <br>במקרה כזה, תסיימו את הניסוי עם תקציב של ₪80 ועם סיכוי לזכות ב-₪18 נוספים מההגרלה.
                <br>כלומר, תוכלו לקבל ₪80 אם לא תזכו בהגרלה, או ₪98 אם תזכו בהגרלה.
                <br><br>לחצו על העכבר להמשך.</p>","1","example","","","","","","","","","","","","","","","","","","","","",""
"","","","","","html-keyboard-response","10","175465","0.0-10.0","9c08acd5-0655-4b76-899a-4b1b87c87648","null","<p>במהלך הניסוי, קודם תראו את ההגרלה ורק לאחר מכן תוכלו לבחור.
                <p>כמו כן, יהיו לכם מספר שניות מוגבל להגיב.
                <p>בואו ננסה זאת עם ההגרלה הקודמת.
                <br>לחצו על העכבר כדי להמשיך.</p>","1","instructions","","","","","","","","","","","","","","","","","","","","",""
"","","","","","html-slider-response","11","176746","0.0-11.0","9c08acd5-0655-4b76-899a-4b1b87c87648","1000","
                    <p style=""text-align: center;"">₪18<br>35%</p>
                    <p id=""wtp"" style=""text-align:center; margin-top: 0px; margin-bottom: 0px; font-size: 40px"";>&ensp;</p>","67","instructions","0","","","","","","","","","","","","","","","","","","","",""
"","","","","","html-slider-response","12","181020","0.0-12.0","9c08acd5-0655-4b76-899a-4b1b87c87648","null","
                    <p style=""text-align: center;"">₪18<br>35%</p>
                    <p id=""wtp"" style=""text-align:center; margin-top: 0px; margin-bottom: 0px; font-size: 40px"";>מוכנים לשלם: <span id=""c_p_y""></span></p>","null","instructions","2","","","","","","","","","","","","","","","","","","","",""
"","","","","","html-keyboard-response","13","184713","0.0-13.0","9c08acd5-0655-4b76-899a-4b1b87c87648","null","<p>לא הגבתם בזמן המוקצב לתגובה. 
                <br>נסו להגיב מהר יותר בפעם הבאה.
                <br><br>לחצו על העכבר כדי להמשיך.</p>","1","instructions","","","","","","","","","","","","","","","","","","","","",""
"","","","","","html-slider-response","14","187577","0.0-14.0-0.0","9c08acd5-0655-4b76-899a-4b1b87c87648","2599","
                    <p style=""text-align: center;"">₪40<br>65%</p>
                    <p id=""wtp"" style=""text-align:center; margin-top: 0px; margin-bottom: 0px; font-size: 40px"";>מוכנים לשלם: <span id=""c_p_y""></span></p>","36","instructions","40","","","","","","","","","","","","","","","","","","","",""
"","","","","","html-keyboard-response","15","189081","0.0-14.0-1.0","9c08acd5-0655-4b76-899a-4b1b87c87648","null","<p>יפה. הפעם בחרתם לשלם לכל היותר ₪36.
                <br><br>לחצו על העכבר כדי להמשיך.</p>","1","instructions","","","","","","","","","","","","","","","","","","","","",""
"","","","","","html-keyboard-response","16","196617","0.0-15.0","9c08acd5-0655-4b76-899a-4b1b87c87648","null","<p>כעת נתחיל את הניסוי.
                <br><br>אתם תראו הגרלות ותתבקשו לבחור כמה תהיו מוכנים לשלם כדי להשתתף בהן.
                <br>יש לכם תקציב של ₪80 עבור כל הגרלה.
                <br>בסוף הניסוי הגרלה אחת תבחר באקראי ותשוחק.
                <br><br>לחצו על העכבר כדי להתחיל את הניסוי.</p>","1","instructions","","","","","","","","","","","","","","","","","","","","",""
"","","","","","html-keyboard-response","17","197879","0.0-16.0","9c08acd5-0655-4b76-899a-4b1b87c87648","null","<p style=""text-align: center;"">+</p>","null","fixation","","","","","","","","","","","","","","","","","","","","",""
"","","","","","html-slider-response","18","198882","0.0-17.0-0.0","9c08acd5-0655-4b76-899a-4b1b87c87648","1000","
                  <p style=""text-align: center;"">₪36
                                                <br>70%</p>
                  <p id=""wtp"" style=""text-align:center; margin-top: 0px; margin-bottom: 0px; font-size: 40px"";>&ensp;</p>","-","viewing","0","13","3A,5C,10B","","","","","","","","","","","","","","","","","",""
"","","","","","html-slider-response","19","200601","0.0-17.0-1.0","9c08acd5-0655-4b76-899a-4b1b87c87648","1719","
                  <p style=""text-align: center;"">₪36
                                                <br>70%</p>
                  <p id=""wtp"" style=""text-align:center; margin-top: 0px; margin-bottom: 0px; font-size: 40px"";>מוכנים לשלם: <span id=""c_p_y""></span></p>","28","evaluation","66","13","3A,5C,10B","70","36","28","","","","","","","","","","","","","","",""
"","","","","","html-keyboard-response","20","202065","0.0-17.0-2.0","9c08acd5-0655-4b76-899a-4b1b87c87648","null","<p style=""text-align: center;"">+</p>","null","fixation","","","","","","","","","","","","","","","","","","","","",""
"","","","","","html-slider-response","21","203070","0.0-17.0-0.1","9c08acd5-0655-4b76-899a-4b1b87c87648","1000","
                  <p style=""text-align: center;"">₪4
                                                <br>50%</p>
                  <p id=""wtp"" style=""text-align:center; margin-top: 0px; margin-bottom: 0px; font-size: 40px"";>&ensp;</p>","-","viewing","0","2","4C,17B","","","","","","","","","","","","","","","","","",""
"","","","","","html-slider-response","22","207075","0.0-17.0-1.1","9c08acd5-0655-4b76-899a-4b1b87c87648","null","
                  <p style=""text-align: center;"">₪4
                                                <br>50%</p>
                  <p id=""wtp"" style=""text-align:center; margin-top: 0px; margin-bottom: 0px; font-size: 40px"";>מוכנים לשלם: <span id=""c_p_y""></span></p>","null","evaluation","64","2","4C,17B","50","4","11","","","","","","","","","","","","","","",""
"","","","","","html-keyboard-response","23","208420","0.0-17.0-2.1","9c08acd5-0655-4b76-899a-4b1b87c87648","null","<p style=""text-align: center;"">+</p>","null","fixation","","","","","","","","","","","","","","","","","","","","",""
"","","","","","html-slider-response","24","209423","0.0-17.0-0.2","9c08acd5-0655-4b76-899a-4b1b87c87648","1000","
                  <p style=""text-align: center;"">₪43
                                                <br>75%</p>
                  <p id=""wtp"" style=""text-align:center; margin-top: 0px; margin-bottom: 0px; font-size: 40px"";>&ensp;</p>","-","viewing","0","18","11B,19B,24A,26A","","","","","","","","","","","","","","","","","",""
"","","","","","html-slider-response","25","211665","0.0-17.0-1.2","9c08acd5-0655-4b76-899a-4b1b87c87648","2240","
                  <p style=""text-align: center;"">₪43
                                                <br>75%</p>
                  <p id=""wtp"" style=""text-align:center; margin-top: 0px; margin-bottom: 0px; font-size: 40px"";>מוכנים לשלם: <span id=""c_p_y""></span></p>","64","evaluation","0","18","11B,19B,24A,26A","75","43","63","","","","","","","","","","","","","","",""
"","","","","","html-keyboard-response","26","212505","0.0-17.0-2.2","9c08acd5-0655-4b76-899a-4b1b87c87648","null","<p style=""text-align: center;"">+</p>","null","fixation","","","","","","","","","","","","","","","","","","","","",""
"","","","","","html-slider-response","27","213521","0.0-17.0-0.3","9c08acd5-0655-4b76-899a-4b1b87c87648","1000","
                  <p style=""text-align: center;"">₪11
                                                <br>25%</p>
                  <p id=""wtp"" style=""text-align:center; margin-top: 0px; margin-bottom: 0px; font-size: 40px"";>&ensp;</p>","-","viewing","0","5","12A,27B,28B,30B","","","","","","","","","","","","","","","","","",""
"","","","","","html-slider-response","28","216289","0.0-17.0-1.3","9c08acd5-0655-4b76-899a-4b1b87c87648","2767","
                  <p style=""text-align: center;"">₪11
                                                <br>25%</p>
                  <p id=""wtp"" style=""text-align:center; margin-top: 0px; margin-bottom: 0px; font-size: 40px"";>מוכנים לשלם: <span id=""c_p_y""></span></p>","30","evaluation","80","5","12A,27B,28B,30B","25","11","31","","","","","","","","","","","","","","",""
"","","","","","html-keyboard-response","29","217165","0.0-17.0-2.3","9c08acd5-0655-4b76-899a-4b1b87c87648","null","<p style=""text-align: center;"">+</p>","null","fixation","","","","","","","","","","","","","","","","","","","","",""
"","","","","","html-slider-response","30","218167","0.0-17.0-0.4","9c08acd5-0655-4b76-899a-4b1b87c87648","1000","
                  <p style=""text-align: center;"">₪79
                                                <br>65%</p>
                  <p id=""wtp"" style=""text-align:center; margin-top: 0px; margin-bottom: 0px; font-size: 40px"";>&ensp;</p>","-","viewing","0","31","8A","","","","","","","","","","","","","","","","","",""
"","","","","","html-slider-response","31","220185","0.0-17.0-1.4","9c08acd5-0655-4b76-899a-4b1b87c87648","2017","
                  <p style=""text-align: center;"">₪79
                                                <br>65%</p>
                  <p id=""wtp"" style=""text-align:center; margin-top: 0px; margin-bottom: 0px; font-size: 40px"";>מוכנים לשלם: <span id=""c_p_y""></span></p>","77","evaluation","17","31","8A","65","79","77","","","","","","","","","","","","","","",""
"","","","","","html-keyboard-response","32","221099","0.0-17.0-2.4","9c08acd5-0655-4b76-899a-4b1b87c87648","null","<p style=""text-align: center;"">+</p>","null","fixation","","","","","","","","","","","","","","","","","","","","",""
"","","","","","html-slider-response","33","222101","0.0-17.0-0.5","9c08acd5-0655-4b76-899a-4b1b87c87648","1000","
                  <p style=""text-align: center;"">₪18
                                                <br>50%</p>
                  <p id=""wtp"" style=""text-align:center; margin-top: 0px; margin-bottom: 0px; font-size: 40px"";>&ensp;</p>","-","viewing","0","10","2C,16C,22B,28A","","","","","","","","","","","","","","","","","",""
"","","","","","html-slider-response","34","226017","0.0-17.0-1.5","9c08acd5-0655-4b76-899a-4b1b87c87648","3915","
                  <p style=""text-align: center;"">₪18
                                                <br>50%</p>
                  <p id=""wtp"" style=""text-align:center; margin-top: 0px; margin-bottom: 0px; font-size: 40px"";>מוכנים לשלם: <span id=""c_p_y""></span></p>","41","evaluation","35","10","2C,16C,22B,28A","50","18","41","","","","","","","","","","","","","","",""
"","","","","","html-keyboard-response","35","227138","0.0-17.0-2.5","9c08acd5-0655-4b76-899a-4b1b87c87648","null","<p style=""text-align: center;"">+</p>","null","fixation","","","","","","","","","","","","","","","","","","","","",""
"","","","","","html-slider-response","36","228143","0.0-17.0-0.6","9c08acd5-0655-4b76-899a-4b1b87c87648","1000","
                  <p style=""text-align: center;"">₪16
                                                <br>20%</p>
                  <p id=""wtp"" style=""text-align:center; margin-top: 0px; margin-bottom: 0px; font-size: 40px"";>&ensp;</p>","-","viewing","0","8","14C,17A,20C,27A","","","","","","","","","","","","","","","","","",""
"","","","","","html-slider-response","37","229977","0.0-17.0-1.6","9c08acd5-0655-4b76-899a-4b1b87c87648","1833","
                  <p style=""text-align: center;"">₪16
                                                <br>20%</p>
                  <p id=""wtp"" style=""text-align:center; margin-top: 0px; margin-bottom: 0px; font-size: 40px"";>מוכנים לשלם: <span id=""c_p_y""></span></p>","11","evaluation","59","8","14C,17A,20C,27A","20","16","11","","","","","","","","","","","","","","",""
"","","","","","html-keyboard-response","38","230524","0.0-17.0-2.6","9c08acd5-0655-4b76-899a-4b1b87c87648","null","<p style=""text-align: center;"">+</p>","null","fixation","","","","","","","","","","","","","","","","","","","","",""
"","","","","","html-slider-response","39","231539","0.0-17.0-0.7","9c08acd5-0655-4b76-899a-4b1b87c87648","1000","
                  <p style=""text-align: center;"">₪11
                                                <br>75%</p>
                  <p id=""wtp"" style=""text-align:center; margin-top: 0px; margin-bottom: 0px; font-size: 40px"";>&ensp;</p>","-","viewing","0","7","6B,18B,22C,24C,29A","","","","","","","","","","","","","","","","","",""
"","","","","","html-slider-response","40","234673","0.0-17.0-1.7","9c08acd5-0655-4b76-899a-4b1b87c87648","3133","
                  <p style=""text-align: center;"">₪11
                                                <br>75%</p>
                  <p id=""wtp"" style=""text-align:center; margin-top: 0px; margin-bottom: 0px; font-size: 40px"";>מוכנים לשלם: <span id=""c_p_y""></span></p>","31","evaluation","13","7","6B,18B,22C,24C,29A","75","11","31","","","","","","","","","","","","","","",""
"","","","","","html-keyboard-response","41","235725","0.0-17.0-2.7","9c08acd5-0655-4b76-899a-4b1b87c87648","null","<p style=""text-align: center;"">+</p>","null","fixation","","","","","","","","","","","","","","","","","","","","",""
"","","","","","html-slider-response","42","236740","0.0-17.0-0.8","9c08acd5-0655-4b76-899a-4b1b87c87648","1000","
                  <p style=""text-align: center;"">₪64
                                                <br>50%</p>
                  <p id=""wtp"" style=""text-align:center; margin-top: 0px; margin-bottom: 0px; font-size: 40px"";>&ensp;</p>","-","viewing","0","25","1B,3B,4A","","","","","","","","","","","","","","","","","",""
"","","","","","html-slider-response","43","239465","0.0-17.0-1.8","9c08acd5-0655-4b76-899a-4b1b87c87648","2724","
                  <p style=""text-align: center;"">₪64
                                                <br>50%</p>
                  <p id=""wtp"" style=""text-align:center; margin-top: 0px; margin-bottom: 0px; font-size: 40px"";>מוכנים לשלם: <span id=""c_p_y""></span></p>","59","evaluation","31","25","1B,3B,4A","50","64","59","","","","","","","","","","","","","","",""
"","","","","","html-keyboard-response","44","240515","0.0-17.0-2.8","9c08acd5-0655-4b76-899a-4b1b87c87648","null","<p style=""text-align: center;"">+</p>","null","fixation","","","","","","","","","","","","","","","","","","","","",""
"","","","","","html-slider-response","45","241526","0.0-17.0-0.9","9c08acd5-0655-4b76-899a-4b1b87c87648","1000","
                  <p style=""text-align: center;"">₪36
                                                <br>60%</p>
                  <p id=""wtp"" style=""text-align:center; margin-top: 0px; margin-bottom: 0px; font-size: 40px"";>&ensp;</p>","-","viewing","0","12","1C,7C,15C","","","","","","","","","","","","","","","","","",""
"","","","","","html-slider-response","46","245041","0.0-17.0-1.9","9c08acd5-0655-4b76-899a-4b1b87c87648","3514","
                  <p style=""text-align: center;"">₪36
                                                <br>60%</p>
                  <p id=""wtp"" style=""text-align:center; margin-top: 0px; margin-bottom: 0px; font-size: 40px"";>מוכנים לשלם: <span id=""c_p_y""></span></p>","39","evaluation","39","12","1C,7C,15C","60","36","39","","","","","","","","","","","","","","",""
"","","","","","html-keyboard-response","47","246432","0.0-17.0-2.9","9c08acd5-0655-4b76-899a-4b1b87c87648","null","<p style=""text-align: center;"">+</p>","null","fixation","","","","","","","","","","","","","","","","","","","","",""
"","","","","","html-slider-response","48","247434","0.0-17.0-0.10","9c08acd5-0655-4b76-899a-4b1b87c87648","1000","
                  <p style=""text-align: center;"">₪58
                                                <br>30%</p>
                  <p id=""wtp"" style=""text-align:center; margin-top: 0px; margin-bottom: 0px; font-size: 40px"";>&ensp;</p>","-","viewing","0","19","13C,30A","","","","","","","","","","","","","","","","","",""
"","","","","","html-slider-response","49","251442","0.0-17.0-1.10","9c08acd5-0655-4b76-899a-4b1b87c87648","null","
                  <p style=""text-align: center;"">₪58
                                                <br>30%</p>
                  <p id=""wtp"" style=""text-align:center; margin-top: 0px; margin-bottom: 0px; font-size: 40px"";>מוכנים לשלם: <span id=""c_p_y""></span></p>","null","evaluation","66","19","13C,30A","30","58","44","","","","","","","","","","","","","","",""
"","","","","","html-keyboard-response","50","252158","0.0-17.0-2.10","9c08acd5-0655-4b76-899a-4b1b87c87648","null","<p style=""text-align: center;"">+</p>","null","fixation","","","","","","","","","","","","","","","","","","","","",""
"","","","","","html-slider-response","51","253161","0.0-17.0-0.11","9c08acd5-0655-4b76-899a-4b1b87c87648","1000","
                  <p style=""text-align: center;"">₪36
                                                <br>30%</p>
                  <p id=""wtp"" style=""text-align:center; margin-top: 0px; margin-bottom: 0px; font-size: 40px"";>&ensp;</p>","-","viewing","0","11","3C,20A,22A","","","","","","","","","","","","","","","","","",""
"","","","","","html-slider-response","52","255161","0.0-17.0-1.11","9c08acd5-0655-4b76-899a-4b1b87c87648","1999","
                  <p style=""text-align: center;"">₪36
                                                <br>30%</p>
                  <p id=""wtp"" style=""text-align:center; margin-top: 0px; margin-bottom: 0px; font-size: 40px"";>מוכנים לשלם: <span id=""c_p_y""></span></p>","26","evaluation","23","11","3C,20A,22A","30","36","26","","","","","","","","","","","","","","",""
"","","","","","html-keyboard-response","53","255838","0.0-17.0-2.11","9c08acd5-0655-4b76-899a-4b1b87c87648","null","<p style=""text-align: center;"">+</p>","null","fixation","","","","","","","","","","","","","","","","","","","","",""
"","","","","","html-slider-response","54","256841","0.0-17.0-0.12","9c08acd5-0655-4b76-899a-4b1b87c87648","1000","
                  <p style=""text-align: center;"">₪61
                                                <br>55%</p>
                  <p id=""wtp"" style=""text-align:center; margin-top: 0px; margin-bottom: 0px; font-size: 40px"";>&ensp;</p>","-","viewing","0","23","7B,26B","","","","","","","","","","","","","","","","","",""
"","","","","","html-slider-response","55","258985","0.0-17.0-1.12","9c08acd5-0655-4b76-899a-4b1b87c87648","2144","
                  <p style=""text-align: center;"">₪61
                                                <br>55%</p>
                  <p id=""wtp"" style=""text-align:center; margin-top: 0px; margin-bottom: 0px; font-size: 40px"";>מוכנים לשלם: <span id=""c_p_y""></span></p>","59","evaluation","10","23","7B,26B","55","61","58","","","","","","","","","","","","","","",""
"","","","","","html-keyboard-response","56","260317","0.0-17.0-2.12","9c08acd5-0655-4b76-899a-4b1b87c87648","null","<p style=""text-align: center;"">+</p>","null","fixation","","","","","","","","","","","","","","","","","","","","",""
"","","","","","html-slider-response","57","261320","0.0-17.0-0.13","9c08acd5-0655-4b76-899a-4b1b87c87648","1000","
                  <p style=""text-align: center;"">₪43
                                                <br>60%</p>
                  <p id=""wtp"" style=""text-align:center; margin-top: 0px; margin-bottom: 0px; font-size: 40px"";>&ensp;</p>","-","viewing","0","17","2A,7A,9A,15B","","","","","","","","","","","","","","","","","",""
"","","","","","html-slider-response","58","263730","0.0-17.0-1.13","9c08acd5-0655-4b76-899a-4b1b87c87648","2408","
                  <p style=""text-align: center;"">₪43
                                                <br>60%</p>
                  <p id=""wtp"" style=""text-align:center; margin-top: 0px; margin-bottom: 0px; font-size: 40px"";>מוכנים לשלם: <span id=""c_p_y""></span></p>","49","evaluation","3","17","2A,7A,9A,15B","60","43","49","","","","","","","","","","","","","","",""
"","","","","","html-keyboard-response","59","264699","0.0-17.0-2.13","9c08acd5-0655-4b76-899a-4b1b87c87648","null","<p style=""text-align: center;"">+</p>","null","fixation","","","","","","","","","","","","","","","","","","","","",""
"","","","","","html-slider-response","60","265701","0.0-17.0-0.14","9c08acd5-0655-4b76-899a-4b1b87c87648","1000","
                  <p style=""text-align: center;"">₪64
                                                <br>25%</p>
                  <p id=""wtp"" style=""text-align:center; margin-top: 0px; margin-bottom: 0px; font-size: 40px"";>&ensp;</p>","-","viewing","0","24","6A,21A","","","","","","","","","","","","","","","","","",""
"","","","","","html-slider-response","61","267945","0.0-17.0-1.14","9c08acd5-0655-4b76-899a-4b1b87c87648","2243","
                  <p style=""text-align: center;"">₪64
                                                <br>25%</p>
                  <p id=""wtp"" style=""text-align:center; margin-top: 0px; margin-bottom: 0px; font-size: 40px"";>מוכנים לשלם: <span id=""c_p_y""></span></p>","54","evaluation","38","24","6A,21A","25","64","54","","","","","","","","","","","","","","",""
"","","","","","html-keyboard-response","62","269376","0.0-17.0-2.14","9c08acd5-0655-4b76-899a-4b1b87c87648","null","<p style=""text-align: center;"">+</p>","null","fixation","","","","","","","","","","","","","","","","","","","","",""
"","","","","","html-slider-response","63","270378","0.0-17.0-0.15","9c08acd5-0655-4b76-899a-4b1b87c87648","1000","
                  <p style=""text-align: center;"">₪58
                                                <br>40%</p>
                  <p id=""wtp"" style=""text-align:center; margin-top: 0px; margin-bottom: 0px; font-size: 40px"";>&ensp;</p>","-","viewing","0","20","10C,13A,19C,21B","","","","","","","","","","","","","","","","","",""
"","","","","","html-slider-response","64","272298","0.0-17.0-1.15","9c08acd5-0655-4b76-899a-4b1b87c87648","1918","
                  <p style=""text-align: center;"">₪58
                                                <br>40%</p>
                  <p id=""wtp"" style=""text-align:center; margin-top: 0px; margin-bottom: 0px; font-size: 40px"";>מוכנים לשלם: <span id=""c_p_y""></span></p>","29","evaluation","61","20","10C,13A,19C,21B","40","58","29","","","","","","","","","","","","","","",""
"","","","","","html-keyboard-response","65","273329","0.0-17.0-2.15","9c08acd5-0655-4b76-899a-4b1b87c87648","null","<p style=""text-align: center;"">+</p>","null","fixation","","","","","","","","","","","","","","","","","","","","",""
"","","","","","html-slider-response","66","274334","0.0-17.0-0.16","9c08acd5-0655-4b76-899a-4b1b87c87648","1000","
                  <p style=""text-align: center;"">₪4
                                                <br>25%</p>
                  <p id=""wtp"" style=""text-align:center; margin-top: 0px; margin-bottom: 0px; font-size: 40px"";>&ensp;</p>","-","viewing","0","1","6C,29B,30C","","","","","","","","","","","","","","","","","",""
"","","","","","html-slider-response","67","275074","0.0-17.0-1.16","9c08acd5-0655-4b76-899a-4b1b87c87648","738","
                  <p style=""text-align: center;"">₪4
                                                <br>25%</p>
                  <p id=""wtp"" style=""text-align:center; margin-top: 0px; margin-bottom: 0px; font-size: 40px"";>מוכנים לשלם: <span id=""c_p_y""></span></p>","6","evaluation","58","1","6C,29B,30C","25","4","7","","","","","","","","","","","","","","",""
"","","","","","html-keyboard-response","68","276119","0.0-17.0-2.16","9c08acd5-0655-4b76-899a-4b1b87c87648","null","<p style=""text-align: center;"">+</p>","null","fixation","","","","","","","","","","","","","","","","","","","","",""
"","","","","","html-slider-response","69","277121","0.0-17.0-0.17","9c08acd5-0655-4b76-899a-4b1b87c87648","1000","
                  <p style=""text-align: center;"">₪39
                                                <br>60%</p>
                  <p id=""wtp"" style=""text-align:center; margin-top: 0px; margin-bottom: 0px; font-size: 40px"";>&ensp;</p>","-","viewing","0","15","9C,25B","","","","","","","","","","","","","","","","","",""
"","","","","","html-slider-response","70","278433","0.0-17.0-1.17","9c08acd5-0655-4b76-899a-4b1b87c87648","1311","
                  <p style=""text-align: center;"">₪39
                                                <br>60%</p>
                  <p id=""wtp"" style=""text-align:center; margin-top: 0px; margin-bottom: 0px; font-size: 40px"";>מוכנים לשלם: <span id=""c_p_y""></span></p>","55","evaluation","53","15","9C,25B","60","39","54","","","","","","","","","","","","","","",""
"","","","","","html-keyboard-response","71","279825","0.0-17.0-2.17","9c08acd5-0655-4b76-899a-4b1b87c87648","null","<p style=""text-align: center;"">+</p>","null","fixation","","","","","","","","","","","","","","","","","","","","",""
"","","","","","html-slider-response","72","280834","0.0-17.0-0.18","9c08acd5-0655-4b76-899a-4b1b87c87648","1000","
                  <p style=""text-align: center;"">₪79
                                                <br>40%</p>
                  <p id=""wtp"" style=""text-align:center; margin-top: 0px; margin-bottom: 0px; font-size: 40px"";>&ensp;</p>","-","viewing","0","30","9B","","","","","","","","","","","","","","","","","",""
"","","","","","html-slider-response","73","282713","0.0-17.0-1.18","9c08acd5-0655-4b76-899a-4b1b87c87648","1878","
                  <p style=""text-align: center;"">₪79
                                                <br>40%</p>
                  <p id=""wtp"" style=""text-align:center; margin-top: 0px; margin-bottom: 0px; font-size: 40px"";>מוכנים לשלם: <span id=""c_p_y""></span></p>","44","evaluation","23","30","9B","40","79","43","","","","","","","","","","","","","","",""
"","","","","","html-keyboard-response","74","283227","0.0-17.0-2.18","9c08acd5-0655-4b76-899a-4b1b87c87648","null","<p style=""text-align: center;"">+</p>","null","fixation","","","","","","","","","","","","","","","","","","","","",""
"","","","","","html-slider-response","75","284239","0.0-17.0-0.19","9c08acd5-0655-4b76-899a-4b1b87c87648","1000","
                  <p style=""text-align: center;"">₪71
                                                <br>55%</p>
                  <p id=""wtp"" style=""text-align:center; margin-top: 0px; margin-bottom: 0px; font-size: 40px"";>&ensp;</p>","-","viewing","0","27","5B,18A","","","","","","","","","","","","","","","","","",""
"","","","","","html-slider-response","76","285681","0.0-17.0-1.19","9c08acd5-0655-4b76-899a-4b1b87c87648","1441","
                  <p style=""text-align: center;"">₪71
                                                <br>55%</p>
                  <p id=""wtp"" style=""text-align:center; margin-top: 0px; margin-bottom: 0px; font-size: 40px"";>מוכנים לשלם: <span id=""c_p_y""></span></p>","79","evaluation","70","27","5B,18A","55","71","78","","","","","","","","","","","","","","",""
"","","","","","html-keyboard-response","77","287014","0.0-17.0-2.19","9c08acd5-0655-4b76-899a-4b1b87c87648","null","<p style=""text-align: center;"">+</p>","null","fixation","","","","","","","","","","","","","","","","","","","","",""
"","","","","","html-slider-response","78","288025","0.0-17.0-0.20","9c08acd5-0655-4b76-899a-4b1b87c87648","1000","
                  <p style=""text-align: center;"">₪71
                                                <br>45%</p>
                  <p id=""wtp"" style=""text-align:center; margin-top: 0px; margin-bottom: 0px; font-size: 40px"";>&ensp;</p>","-","viewing","0","26","2B,16A","","","","","","","","","","","","","","","","","",""
"","","","","","html-slider-response","79","289178","0.0-17.0-1.20","9c08acd5-0655-4b76-899a-4b1b87c87648","1151","
                  <p style=""text-align: center;"">₪71
                                                <br>45%</p>
                  <p id=""wtp"" style=""text-align:center; margin-top: 0px; margin-bottom: 0px; font-size: 40px"";>מוכנים לשלם: <span id=""c_p_y""></span></p>","57","evaluation","22","26","2B,16A","45","71","57","","","","","","","","","","","","","","",""
"","","","","","html-keyboard-response","80","290380","0.0-17.0-2.20","9c08acd5-0655-4b76-899a-4b1b87c87648","null","<p style=""text-align: center;"">+</p>","null","fixation","","","","","","","","","","","","","","","","","","","","",""
"","","","","","html-slider-response","81","291382","0.0-17.0-0.21","9c08acd5-0655-4b76-899a-4b1b87c87648","1000","
                  <p style=""text-align: center;"">₪58
                                                <br>45%</p>
                  <p id=""wtp"" style=""text-align:center; margin-top: 0px; margin-bottom: 0px; font-size: 40px"";>&ensp;</p>","-","viewing","0","21","11C,18C,25A","","","","","","","","","","","","","","","","","",""
"","","","","","html-slider-response","82","292649","0.0-17.0-1.21","9c08acd5-0655-4b76-899a-4b1b87c87648","1266","
                  <p style=""text-align: center;"">₪58
                                                <br>45%</p>
                  <p id=""wtp"" style=""text-align:center; margin-top: 0px; margin-bottom: 0px; font-size: 40px"";>מוכנים לשלם: <span id=""c_p_y""></span></p>","63","evaluation","50","21","11C,18C,25A","45","58","62","","","","","","","","","","","","","","",""
"","","","","","html-keyboard-response","83","293567","0.0-17.0-2.21","9c08acd5-0655-4b76-899a-4b1b87c87648","null","<p style=""text-align: center;"">+</p>","null","fixation","","","","","","","","","","","","","","","","","","","","",""
"","","","","","html-slider-response","84","294569","0.0-17.0-0.22","9c08acd5-0655-4b76-899a-4b1b87c87648","1000","
                  <p style=""text-align: center;"">₪39
                                                <br>65%</p>
                  <p id=""wtp"" style=""text-align:center; margin-top: 0px; margin-bottom: 0px; font-size: 40px"";>&ensp;</p>","-","viewing","0","16","1A,15A,26C","","","","","","","","","","","","","","","","","",""
"","","","","","html-slider-response","85","295849","0.0-17.0-1.22","9c08acd5-0655-4b76-899a-4b1b87c87648","1279","
                  <p style=""text-align: center;"">₪39
                                                <br>65%</p>
                  <p id=""wtp"" style=""text-align:center; margin-top: 0px; margin-bottom: 0px; font-size: 40px"";>מוכנים לשלם: <span id=""c_p_y""></span></p>","36","evaluation","66","16","1A,15A,26C","65","39","36","","","","","","","","","","","","","","",""
"","","","","","html-keyboard-response","86","296937","0.0-17.0-2.22","9c08acd5-0655-4b76-899a-4b1b87c87648","null","<p style=""text-align: center;"">+</p>","null","fixation","","","","","","","","","","","","","","","","","","","","",""
"","","","","","html-slider-response","87","297954","0.0-17.0-0.23","9c08acd5-0655-4b76-899a-4b1b87c87648","1000","
                  <p style=""text-align: center;"">₪11
                                                <br>45%</p>
                  <p id=""wtp"" style=""text-align:center; margin-top: 0px; margin-bottom: 0px; font-size: 40px"";>&ensp;</p>","-","viewing","0","6","14B,21C,25C","","","","","","","","","","","","","","","","","",""
"","","","","","html-slider-response","88","299297","0.0-17.0-1.23","9c08acd5-0655-4b76-899a-4b1b87c87648","1342","
                  <p style=""text-align: center;"">₪11
                                                <br>45%</p>
                  <p id=""wtp"" style=""text-align:center; margin-top: 0px; margin-bottom: 0px; font-size: 40px"";>מוכנים לשלם: <span id=""c_p_y""></span></p>","0","evaluation","68","6","14B,21C,25C","45","11","0","","","","","","","","","","","","","","",""
"","","","","","html-keyboard-response","89","300615","0.0-17.0-2.23","9c08acd5-0655-4b76-899a-4b1b87c87648","null","<p style=""text-align: center;"">+</p>","null","fixation","","","","","","","","","","","","","","","","","","","","",""
"","","","","","html-slider-response","90","301617","0.0-17.0-0.24","9c08acd5-0655-4b76-899a-4b1b87c87648","1000","
                  <p style=""text-align: center;"">₪36
                                                <br>75%</p>
                  <p id=""wtp"" style=""text-align:center; margin-top: 0px; margin-bottom: 0px; font-size: 40px"";>&ensp;</p>","-","viewing","0","14","4B,5A,13B,16B","","","","","","","","","","","","","","","","","",""
"","","","","","html-slider-response","91","302674","0.0-17.0-1.24","9c08acd5-0655-4b76-899a-4b1b87c87648","1055","
                  <p style=""text-align: center;"">₪36
                                                <br>75%</p>
                  <p id=""wtp"" style=""text-align:center; margin-top: 0px; margin-bottom: 0px; font-size: 40px"";>מוכנים לשלם: <span id=""c_p_y""></span></p>","38","evaluation","43","14","4B,5A,13B,16B","75","36","38","","","","","","","","","","","","","","",""
"","","","","","html-keyboard-response","92","303874","0.0-17.0-2.24","9c08acd5-0655-4b76-899a-4b1b87c87648","null","<p style=""text-align: center;"">+</p>","null","fixation","","","","","","","","","","","","","","","","","","","","",""
"","","","","","html-slider-response","93","304876","0.0-17.0-0.25","9c08acd5-0655-4b76-899a-4b1b87c87648","1000","
                  <p style=""text-align: center;"">₪61
                                                <br>45%</p>
                  <p id=""wtp"" style=""text-align:center; margin-top: 0px; margin-bottom: 0px; font-size: 40px"";>&ensp;</p>","-","viewing","0","22","10A,11A","","","","","","","","","","","","","","","","","",""
"","","","","","html-slider-response","94","306113","0.0-17.0-1.25","9c08acd5-0655-4b76-899a-4b1b87c87648","1236","
                  <p style=""text-align: center;"">₪61
                                                <br>45%</p>
                  <p id=""wtp"" style=""text-align:center; margin-top: 0px; margin-bottom: 0px; font-size: 40px"";>מוכנים לשלם: <span id=""c_p_y""></span></p>","58","evaluation","18","22","10A,11A","45","61","58","","","","","","","","","","","","","","",""
"","","","","","html-keyboard-response","95","306759","0.0-17.0-2.25","9c08acd5-0655-4b76-899a-4b1b87c87648","null","<p style=""text-align: center;"">+</p>","null","fixation","","","","","","","","","","","","","","","","","","","","",""
"","","","","","html-slider-response","96","307760","0.0-17.0-0.26","9c08acd5-0655-4b76-899a-4b1b87c87648","1000","
                  <p style=""text-align: center;"">₪76
                                                <br>65%</p>
                  <p id=""wtp"" style=""text-align:center; margin-top: 0px; margin-bottom: 0px; font-size: 40px"";>&ensp;</p>","-","viewing","0","29","8C,19A,24B","","","","","","","","","","","","","","","","","",""
"","","","","","html-slider-response","97","308841","0.0-17.0-1.26","9c08acd5-0655-4b76-899a-4b1b87c87648","1079","
                  <p style=""text-align: center;"">₪76
                                                <br>65%</p>
                  <p id=""wtp"" style=""text-align:center; margin-top: 0px; margin-bottom: 0px; font-size: 40px"";>מוכנים לשלם: <span id=""c_p_y""></span></p>","80","evaluation","79","29","8C,19A,24B","65","76","80","","","","","","","","","","","","","","",""
"","","","","","html-keyboard-response","98","309740","0.0-17.0-2.26","9c08acd5-0655-4b76-899a-4b1b87c87648","null","<p style=""text-align: center;"">+</p>","null","fixation","","","","","","","","","","","","","","","","","","","","",""
"","","","","","html-slider-response","99","310743","0.0-17.0-0.27","9c08acd5-0655-4b76-899a-4b1b87c87648","1000","
                  <p style=""text-align: center;"">₪71
                                                <br>75%</p>
                  <p id=""wtp"" style=""text-align:center; margin-top: 0px; margin-bottom: 0px; font-size: 40px"";>&ensp;</p>","-","viewing","0","28","8B","","","","","","","","","","","","","","","","","",""
"","","","","","html-slider-response","100","312553","0.0-17.0-1.27","9c08acd5-0655-4b76-899a-4b1b87c87648","1810","
                  <p style=""text-align: center;"">₪71
                                                <br>75%</p>
                  <p id=""wtp"" style=""text-align:center; margin-top: 0px; margin-bottom: 0px; font-size: 40px"";>מוכנים לשלם: <span id=""c_p_y""></span></p>","77","evaluation","17","28","8B","75","71","76","","","","","","","","","","","","","","",""
"","","","","","html-keyboard-response","101","313063","0.0-17.0-2.27","9c08acd5-0655-4b76-899a-4b1b87c87648","null","<p style=""text-align: center;"">+</p>","null","fixation","","","","","","","","","","","","","","","","","","","","",""
"","","","","","html-slider-response","102","314065","0.0-17.0-0.28","9c08acd5-0655-4b76-899a-4b1b87c87648","1000","
                  <p style=""text-align: center;"">₪4
                                                <br>75%</p>
                  <p id=""wtp"" style=""text-align:center; margin-top: 0px; margin-bottom: 0px; font-size: 40px"";>&ensp;</p>","-","viewing","0","3","12B,20B,23B,27C,29C","","","","","","","","","","","","","","","","","",""
"","","","","","html-slider-response","103","315089","0.0-17.0-1.28","9c08acd5-0655-4b76-899a-4b1b87c87648","1023","
                  <p style=""text-align: center;"">₪4
                                                <br>75%</p>
                  <p id=""wtp"" style=""text-align:center; margin-top: 0px; margin-bottom: 0px; font-size: 40px"";>מוכנים לשלם: <span id=""c_p_y""></span></p>","0","evaluation","63","3","12B,20B,23B,27C,29C","75","4","1","","","","","","","","","","","","","","",""
"","","","","","html-keyboard-response","104","316100","0.0-17.0-2.28","9c08acd5-0655-4b76-899a-4b1b87c87648","null","<p style=""text-align: center;"">+</p>","null","fixation","","","","","","","","","","","","","","","","","","","","",""
"","","","","","html-slider-response","105","317103","0.0-17.0-0.29","9c08acd5-0655-4b76-899a-4b1b87c87648","1000","
                  <p style=""text-align: center;"">₪18
                                                <br>25%</p>
                  <p id=""wtp"" style=""text-align:center; margin-top: 0px; margin-bottom: 0px; font-size: 40px"";>&ensp;</p>","-","viewing","0","9","14A,23A","","","","","","","","","","","","","","","","","",""
"","","","","","html-slider-response","106","319073","0.0-17.0-1.29","9c08acd5-0655-4b76-899a-4b1b87c87648","1970","
                  <p style=""text-align: center;"">₪18
                                                <br>25%</p>
                  <p id=""wtp"" style=""text-align:center; margin-top: 0px; margin-bottom: 0px; font-size: 40px"";>מוכנים לשלם: <span id=""c_p_y""></span></p>","38","evaluation","73","9","14A,23A","25","18","38","","","","","","","","","","","","","","",""
"","","","","","html-keyboard-response","107","320300","0.0-17.0-2.29","9c08acd5-0655-4b76-899a-4b1b87c87648","null","<p style=""text-align: center;"">+</p>","null","fixation","","","","","","","","","","","","","","","","","","","","",""
"","","","","","html-slider-response","108","321302","0.0-17.0-0.30","9c08acd5-0655-4b76-899a-4b1b87c87648","1000","
                  <p style=""text-align: center;"">₪11
                                                <br>20%</p>
                  <p id=""wtp"" style=""text-align:center; margin-top: 0px; margin-bottom: 0px; font-size: 40px"";>&ensp;</p>","-","viewing","0","4","12C,17C,23C,28C","","","","","","","","","","","","","","","","","",""
"","","","","","html-slider-response","109","322393","0.0-17.0-1.30","9c08acd5-0655-4b76-899a-4b1b87c87648","1090","
                  <p style=""text-align: center;"">₪11
                                                <br>20%</p>
                  <p id=""wtp"" style=""text-align:center; margin-top: 0px; margin-bottom: 0px; font-size: 40px"";>מוכנים לשלם: <span id=""c_p_y""></span></p>","24","evaluation","18","4","12C,17C,23C,28C","20","11","25","","","","","","","","","","","","","","",""
"","","","","","html-keyboard-response","110","322972","0.0-17.0-2.30","9c08acd5-0655-4b76-899a-4b1b87c87648","null","<p style=""text-align: center;"">+</p>","null","fixation","","","","","","","","","","","","","","","","","","","","",""
"","","","","","html-keyboard-response","111","323980","0.0-18.0","9c08acd5-0655-4b76-899a-4b1b87c87648","null","<p style=""text-align: center;"">+</p>","null","fixation","","","","","","","","","","","","","","","","","","","","",""
"","","","","","html-keyboard-response","112","326449","0.0-19.0","9c08acd5-0655-4b76-899a-4b1b87c87648","null","<p>הפסקה.
          <br>לחצו כדי להמשיך.</p>","1","scan_wait","","","","","","","","","","","","","","","","","","","","",""
"","","","","","html-keyboard-response","113","327465","0.0-20.0","9c08acd5-0655-4b76-899a-4b1b87c87648","null","<p style=""text-align: center;"">+</p>","null","fixation","","","","","","","","","","","","","","","","","","","","",""
"","","","","","html-slider-response","114","328474","0.0-21.0-0.0","9c08acd5-0655-4b76-899a-4b1b87c87648","1000","
                  <p style=""text-align: center;"">₪43
                                                <br>75%</p>
                  <p id=""wtp"" style=""text-align:center; margin-top: 0px; margin-bottom: 0px; font-size: 40px"";>&ensp;</p>","-","viewing","0","18","11B,19B,24A,26A","","","","","","","","","","","","","","","","","",""
"","","","","","html-slider-response","115","330553","0.0-21.0-1.0","9c08acd5-0655-4b76-899a-4b1b87c87648","2078","
                  <p style=""text-align: center;"">₪43
                                                <br>75%</p>
                  <p id=""wtp"" style=""text-align:center; margin-top: 0px; margin-bottom: 0px; font-size: 40px"";>מוכנים לשלם: <span id=""c_p_y""></span></p>","50","evaluation","6","18","11B,19B,24A,26A","75","43","50","","","","","","","","","","","","","","",""
"","","","","","html-keyboard-response","116","332052","0.0-21.0-2.0","9c08acd5-0655-4b76-899a-4b1b87c87648","null","<p style=""text-align: center;"">+</p>","null","fixation","","","","","","","","","","","","","","","","","","","","",""
"","","","","","html-slider-response","117","333054","0.0-21.0-0.1","9c08acd5-0655-4b76-899a-4b1b87c87648","1000","
                  <p style=""text-align: center;"">₪79
                                                <br>65%</p>
                  <p id=""wtp"" style=""text-align:center; margin-top: 0px; margin-bottom: 0px; font-size: 40px"";>&ensp;</p>","-","viewing","0","31","8A","","","","","","","","","","","","","","","","","",""
"","","","","","html-slider-response","118","334553","0.0-21.0-1.1","9c08acd5-0655-4b76-899a-4b1b87c87648","1499","
                  <p style=""text-align: center;"">₪79
                                                <br>65%</p>
                  <p id=""wtp"" style=""text-align:center; margin-top: 0px; margin-bottom: 0px; font-size: 40px"";>מוכנים לשלם: <span id=""c_p_y""></span></p>","80","evaluation","36","31","8A","65","79","80","","","","","","","","","","","","","","",""
"","","","","","html-keyboard-response","119","336007","0.0-21.0-2.1","9c08acd5-0655-4b76-899a-4b1b87c87648","null","<p style=""text-align: center;"">+</p>","null","fixation","","","","","","","","","","","","","","","","","","","","",""
"","","","","","html-slider-response","120","337008","0.0-21.0-0.2","9c08acd5-0655-4b76-899a-4b1b87c87648","1000","
                  <p style=""text-align: center;"">₪58
                                                <br>30%</p>
                  <p id=""wtp"" style=""text-align:center; margin-top: 0px; margin-bottom: 0px; font-size: 40px"";>&ensp;</p>","-","viewing","0","19","13C,30A","","","","","","","","","","","","","","","","","",""
"","","","","","html-slider-response","121","338778","0.0-21.0-1.2","9c08acd5-0655-4b76-899a-4b1b87c87648","1768","
                  <p style=""text-align: center;"">₪58
                                                <br>30%</p>
                  <p id=""wtp"" style=""text-align:center; margin-top: 0px; margin-bottom: 0px; font-size: 40px"";>מוכנים לשלם: <span id=""c_p_y""></span></p>","56","evaluation","51","19","13C,30A","30","58","56","","","","","","","","","","","","","","",""
"","","","","","html-keyboard-response","122","340106","0.0-21.0-2.2","9c08acd5-0655-4b76-899a-4b1b87c87648","null","<p style=""text-align: center;"">+</p>","null","fixation","","","","","","","","","","","","","","","","","","","","",""
"","","","","","html-slider-response","123","341110","0.0-21.0-0.3","9c08acd5-0655-4b76-899a-4b1b87c87648","1000","
                  <p style=""text-align: center;"">₪58
                                                <br>40%</p>
                  <p id=""wtp"" style=""text-align:center; margin-top: 0px; margin-bottom: 0px; font-size: 40px"";>&ensp;</p>","-","viewing","0","20","10C,13A,19C,21B","","","","","","","","","","","","","","","","","",""
"","","","","","html-slider-response","124","342858","0.0-21.0-1.3","9c08acd5-0655-4b76-899a-4b1b87c87648","1747","
                  <p style=""text-align: center;"">₪58
                                                <br>40%</p>
                  <p id=""wtp"" style=""text-align:center; margin-top: 0px; margin-bottom: 0px; font-size: 40px"";>מוכנים לשלם: <span id=""c_p_y""></span></p>","51","evaluation","20","20","10C,13A,19C,21B","40","58","51","","","","","","","","","","","","","","",""
"","","","","","html-keyboard-response","125","343422","0.0-21.0-2.3","9c08acd5-0655-4b76-899a-4b1b87c87648","null","<p style=""text-align: center;"">+</p>","null","fixation","","","","","","","","","","","","","","","","","","","","",""
"","","","","","html-slider-response","126","344439","0.0-21.0-0.4","9c08acd5-0655-4b76-899a-4b1b87c87648","1000","
                  <p style=""text-align: center;"">₪76
                                                <br>65%</p>
                  <p id=""wtp"" style=""text-align:center; margin-top: 0px; margin-bottom: 0px; font-size: 40px"";>&ensp;</p>","-","viewing","0","29","8C,19A,24B","","","","","","","","","","","","","","","","","",""
"","","","","","html-slider-response","127","346073","0.0-21.0-1.4","9c08acd5-0655-4b76-899a-4b1b87c87648","1633","
                  <p style=""text-align: center;"">₪76
                                                <br>65%</p>
                  <p id=""wtp"" style=""text-align:center; margin-top: 0px; margin-bottom: 0px; font-size: 40px"";>מוכנים לשלם: <span id=""c_p_y""></span></p>","76","evaluation","66","29","8C,19A,24B","65","76","76","","","","","","","","","","","","","","",""
"","","","","","html-keyboard-response","128","346805","0.0-21.0-2.4","9c08acd5-0655-4b76-899a-4b1b87c87648","null","<p style=""text-align: center;"">+</p>","null","fixation","","","","","","","","","","","","","","","","","","","","",""
"","","","","","html-slider-response","129","347806","0.0-21.0-0.5","9c08acd5-0655-4b76-899a-4b1b87c87648","1000","
                  <p style=""text-align: center;"">₪61
                                                <br>55%</p>
                  <p id=""wtp"" style=""text-align:center; margin-top: 0px; margin-bottom: 0px; font-size: 40px"";>&ensp;</p>","-","viewing","0","23","7B,26B","","","","","","","","","","","","","","","","","",""
"","","","","","html-slider-response","130","349690","0.0-21.0-1.5","9c08acd5-0655-4b76-899a-4b1b87c87648","1881","
                  <p style=""text-align: center;"">₪61
                                                <br>55%</p>
                  <p id=""wtp"" style=""text-align:center; margin-top: 0px; margin-bottom: 0px; font-size: 40px"";>מוכנים לשלם: <span id=""c_p_y""></span></p>","59","evaluation","43","23","7B,26B","55","61","59","","","","","","","","","","","","","","",""
"","","","","","html-keyboard-response","131","350704","0.0-21.0-2.5","9c08acd5-0655-4b76-899a-4b1b87c87648","null","<p style=""text-align: center;"">+</p>","null","fixation","","","","","","","","","","","","","","","","","","","","",""
"","","","","","html-slider-response","132","351711","0.0-21.0-0.6","9c08acd5-0655-4b76-899a-4b1b87c87648","1000","
                  <p style=""text-align: center;"">₪61
                                                <br>45%</p>
                  <p id=""wtp"" style=""text-align:center; margin-top: 0px; margin-bottom: 0px; font-size: 40px"";>&ensp;</p>","-","viewing","0","22","10A,11A","","","","","","","","","","","","","","","","","",""
"","","","","","html-slider-response","133","353265","0.0-21.0-1.6","9c08acd5-0655-4b76-899a-4b1b87c87648","1553","
                  <p style=""text-align: center;"">₪61
                                                <br>45%</p>
                  <p id=""wtp"" style=""text-align:center; margin-top: 0px; margin-bottom: 0px; font-size: 40px"";>מוכנים לשלם: <span id=""c_p_y""></span></p>","41","evaluation","23","22","10A,11A","45","61","41","","","","","","","","","","","","","","",""
"","","","","","html-keyboard-response","134","354592","0.0-21.0-2.6","9c08acd5-0655-4b76-899a-4b1b87c87648","null","<p style=""text-align: center;"">+</p>","null","fixation","","","","","","","","","","","","","","","","","","","","",""
"","","","","","html-slider-response","135","355599","0.0-21.0-0.7","9c08acd5-0655-4b76-899a-4b1b87c87648","1000","
                  <p style=""text-align: center;"">₪43
                                                <br>60%</p>
                  <p id=""wtp"" style=""text-align:center; margin-top: 0px; margin-bottom: 0px; font-size: 40px"";>&ensp;</p>","-","viewing","0","17","2A,7A,9A,15B","","","","","","","","","","","","","","","","","",""
"","","","","","html-slider-response","136","357177","0.0-21.0-1.7","9c08acd5-0655-4b76-899a-4b1b87c87648","1577","
                  <p style=""text-align: center;"">₪43
                                                <br>60%</p>
                  <p id=""wtp"" style=""text-align:center; margin-top: 0px; margin-bottom: 0px; font-size: 40px"";>מוכנים לשלם: <span id=""c_p_y""></span></p>","67","evaluation","43","17","2A,7A,9A,15B","60","43","67","","","","","","","","","","","","","","",""
"","","","","","html-keyboard-response","137","358575","0.0-21.0-2.7","9c08acd5-0655-4b76-899a-4b1b87c87648","null","<p style=""text-align: center;"">+</p>","null","fixation","","","","","","","","","","","","","","","","","","","","",""
"","","","","","html-slider-response","138","359577","0.0-21.0-0.8","9c08acd5-0655-4b76-899a-4b1b87c87648","1000","
                  <p style=""text-align: center;"">₪36
                                                <br>30%</p>
                  <p id=""wtp"" style=""text-align:center; margin-top: 0px; margin-bottom: 0px; font-size: 40px"";>&ensp;</p>","-","viewing","0","11","3C,20A,22A","","","","","","","","","","","","","","","","","",""
"","","","","","html-slider-response","139","361209","0.0-21.0-1.8","9c08acd5-0655-4b76-899a-4b1b87c87648","1630","
                  <p style=""text-align: center;"">₪36
                                                <br>30%</p>
                  <p id=""wtp"" style=""text-align:center; margin-top: 0px; margin-bottom: 0px; font-size: 40px"";>מוכנים לשלם: <span id=""c_p_y""></span></p>","30","evaluation","55","11","3C,20A,22A","30","36","31","","","","","","","","","","","","","","",""
"","","","","","html-keyboard-response","140","362119","0.0-21.0-2.8","9c08acd5-0655-4b76-899a-4b1b87c87648","null","<p style=""text-align: center;"">+</p>","null","fixation","","","","","","","","","","","","","","","","","","","","",""
"","","","","","html-slider-response","141","363121","0.0-21.0-0.9","9c08acd5-0655-4b76-899a-4b1b87c87648","1000","
                  <p style=""text-align: center;"">₪11
                                                <br>75%</p>
                  <p id=""wtp"" style=""text-align:center; margin-top: 0px; margin-bottom: 0px; font-size: 40px"";>&ensp;</p>","-","viewing","0","7","6B,18B,22C,24C,29A","","","","","","","","","","","","","","","","","",""
"","","","","","html-slider-response","142","365225","0.0-21.0-1.9","9c08acd5-0655-4b76-899a-4b1b87c87648","2103","
                  <p style=""text-align: center;"">₪11
                                                <br>75%</p>
                  <p id=""wtp"" style=""text-align:center; margin-top: 0px; margin-bottom: 0px; font-size: 40px"";>מוכנים לשלם: <span id=""c_p_y""></span></p>","29","evaluation","59","7","6B,18B,22C,24C,29A","75","11","29","","","","","","","","","","","","","","",""
"","","","","","html-keyboard-response","143","366443","0.0-21.0-2.9","9c08acd5-0655-4b76-899a-4b1b87c87648","null","<p style=""text-align: center;"">+</p>","null","fixation","","","","","","","","","","","","","","","","","","","","",""
"","","","","","html-slider-response","144","367444","0.0-21.0-0.10","9c08acd5-0655-4b76-899a-4b1b87c87648","1000","
                  <p style=""text-align: center;"">₪16
                                                <br>20%</p>
                  <p id=""wtp"" style=""text-align:center; margin-top: 0px; margin-bottom: 0px; font-size: 40px"";>&ensp;</p>","-","viewing","0","8","14C,17A,20C,27A","","","","","","","","","","","","","","","","","",""
"","","","","","html-slider-response","145","369137","0.0-21.0-1.10","9c08acd5-0655-4b76-899a-4b1b87c87648","1692","
                  <p style=""text-align: center;"">₪16
                                                <br>20%</p>
                  <p id=""wtp"" style=""text-align:center; margin-top: 0px; margin-bottom: 0px; font-size: 40px"";>מוכנים לשלם: <span id=""c_p_y""></span></p>","7","evaluation","13","8","14C,17A,20C,27A","20","16","8","","","","","","","","","","","","","","",""
"","","","","","html-keyboard-response","146","370233","0.0-21.0-2.10","9c08acd5-0655-4b76-899a-4b1b87c87648","null","<p style=""text-align: center;"">+</p>","null","fixation","","","","","","","","","","","","","","","","","","","","",""
"","","","","","html-slider-response","147","371236","0.0-21.0-0.11","9c08acd5-0655-4b76-899a-4b1b87c87648","1000","
                  <p style=""text-align: center;"">₪58
                                                <br>45%</p>
                  <p id=""wtp"" style=""text-align:center; margin-top: 0px; margin-bottom: 0px; font-size: 40px"";>&ensp;</p>","-","viewing","0","21","11C,18C,25A","","","","","","","","","","","","","","","","","",""
"","","","","","html-slider-response","148","372825","0.0-21.0-1.11","9c08acd5-0655-4b76-899a-4b1b87c87648","1588","
                  <p style=""text-align: center;"">₪58
                                                <br>45%</p>
                  <p id=""wtp"" style=""text-align:center; margin-top: 0px; margin-bottom: 0px; font-size: 40px"";>מוכנים לשלם: <span id=""c_p_y""></span></p>","38","evaluation","48","21","11C,18C,25A","45","58","38","","","","","","","","","","","","","","",""
"","","","","","html-keyboard-response","149","374020","0.0-21.0-2.11","9c08acd5-0655-4b76-899a-4b1b87c87648","null","<p style=""text-align: center;"">+</p>","null","fixation","","","","","","","","","","","","","","","","","","","","",""
"","","","","","html-slider-response","150","375030","0.0-21.0-0.12","9c08acd5-0655-4b76-899a-4b1b87c87648","1000","
                  <p style=""text-align: center;"">₪4
                                                <br>50%</p>
                  <p id=""wtp"" style=""text-align:center; margin-top: 0px; margin-bottom: 0px; font-size: 40px"";>&ensp;</p>","-","viewing","0","2","4C,17B","","","","","","","","","","","","","","","","","",""
"","","","","","html-slider-response","151","376513","0.0-21.0-1.12","9c08acd5-0655-4b76-899a-4b1b87c87648","1482","
                  <p style=""text-align: center;"">₪4
                                                <br>50%</p>
                  <p id=""wtp"" style=""text-align:center; margin-top: 0px; margin-bottom: 0px; font-size: 40px"";>מוכנים לשלם: <span id=""c_p_y""></span></p>","11","evaluation","77","2","4C,17B","50","4","11","","","","","","","","","","","","","","",""
"","","","","","html-keyboard-response","152","377096","0.0-21.0-2.12","9c08acd5-0655-4b76-899a-4b1b87c87648","null","<p style=""text-align: center;"">+</p>","null","fixation","","","","","","","","","","","","","","","","","","","","",""
"","","","","","html-slider-response","153","378104","0.0-21.0-0.13","9c08acd5-0655-4b76-899a-4b1b87c87648","1000","
                  <p style=""text-align: center;"">₪71
                                                <br>75%</p>
                  <p id=""wtp"" style=""text-align:center; margin-top: 0px; margin-bottom: 0px; font-size: 40px"";>&ensp;</p>","-","viewing","0","28","8B","","","","","","","","","","","","","","","","","",""
"","","","","","html-slider-response","154","379185","0.0-21.0-1.13","9c08acd5-0655-4b76-899a-4b1b87c87648","1080","
                  <p style=""text-align: center;"">₪71
                                                <br>75%</p>
                  <p id=""wtp"" style=""text-align:center; margin-top: 0px; margin-bottom: 0px; font-size: 40px"";>מוכנים לשלם: <span id=""c_p_y""></span></p>","80","evaluation","9","28","8B","75","71","80","","","","","","","","","","","","","","",""
"","","","","","html-keyboard-response","155","380296","0.0-21.0-2.13","9c08acd5-0655-4b76-899a-4b1b87c87648","null","<p style=""text-align: center;"">+</p>","null","fixation","","","","","","","","","","","","","","","","","","","","",""
"","","","","","html-slider-response","156","381298","0.0-21.0-0.14","9c08acd5-0655-4b76-899a-4b1b87c87648","1000","
                  <p style=""text-align: center;"">₪71
                                                <br>55%</p>
                  <p id=""wtp"" style=""text-align:center; margin-top: 0px; margin-bottom: 0px; font-size: 40px"";>&ensp;</p>","-","viewing","0","27","5B,18A","","","","","","","","","","","","","","","","","",""
"","","","","","html-slider-response","157","383105","0.0-21.0-1.14","9c08acd5-0655-4b76-899a-4b1b87c87648","1806","
                  <p style=""text-align: center;"">₪71
                                                <br>55%</p>
                  <p id=""wtp"" style=""text-align:center; margin-top: 0px; margin-bottom: 0px; font-size: 40px"";>מוכנים לשלם: <span id=""c_p_y""></span></p>","63","evaluation","79","27","5B,18A","55","71","62","","","","","","","","","","","","","","",""
"","","","","","html-keyboard-response","158","383873","0.0-21.0-2.14","9c08acd5-0655-4b76-899a-4b1b87c87648","null","<p style=""text-align: center;"">+</p>","null","fixation","","","","","","","","","","","","","","","","","","","","",""
"","","","","","html-slider-response","159","384886","0.0-21.0-0.15","9c08acd5-0655-4b76-899a-4b1b87c87648","1000","
                  <p style=""text-align: center;"">₪71
                                                <br>45%</p>
                  <p id=""wtp"" style=""text-align:center; margin-top: 0px; margin-bottom: 0px; font-size: 40px"";>&ensp;</p>","-","viewing","0","26","2B,16A","","","","","","","","","","","","","","","","","",""
"","","","","","html-slider-response","160","387193","0.0-21.0-1.15","9c08acd5-0655-4b76-899a-4b1b87c87648","2306","
                  <p style=""text-align: center;"">₪71
                                                <br>45%</p>
                  <p id=""wtp"" style=""text-align:center; margin-top: 0px; margin-bottom: 0px; font-size: 40px"";>מוכנים לשלם: <span id=""c_p_y""></span></p>","53","evaluation","58","26","2B,16A","45","71","53","","","","","","","","","","","","","","",""
"","","","","","html-keyboard-response","161","388307","0.0-21.0-2.15","9c08acd5-0655-4b76-899a-4b1b87c87648","null","<p style=""text-align: center;"">+</p>","null","fixation","","","","","","","","","","","","","","","","","","","","",""
"","","","","","html-slider-response","162","389310","0.0-21.0-0.16","9c08acd5-0655-4b76-899a-4b1b87c87648","1000","
                  <p style=""text-align: center;"">₪11
                                                <br>25%</p>
                  <p id=""wtp"" style=""text-align:center; margin-top: 0px; margin-bottom: 0px; font-size: 40px"";>&ensp;</p>","-","viewing","0","5","12A,27B,28B,30B","","","","","","","","","","","","","","","","","",""
"","","","","","html-slider-response","163","390321","0.0-21.0-1.16","9c08acd5-0655-4b76-899a-4b1b87c87648","1009","
                  <p style=""text-align: center;"">₪11
                                                <br>25%</p>
                  <p id=""wtp"" style=""text-align:center; margin-top: 0px; margin-bottom: 0px; font-size: 40px"";>מוכנים לשלם: <span id=""c_p_y""></span></p>","13","evaluation","52","5","12A,27B,28B,30B","25","11","14","","","","","","","","","","","","","","",""
"","","","","","html-keyboard-response","164","390843","0.0-21.0-2.16","9c08acd5-0655-4b76-899a-4b1b87c87648","null","<p style=""text-align: center;"">+</p>","null","fixation","","","","","","","","","","","","","","","","","","","","",""
"","","","","","html-slider-response","165","391844","0.0-21.0-0.17","9c08acd5-0655-4b76-899a-4b1b87c87648","1000","
                  <p style=""text-align: center;"">₪79
                                                <br>40%</p>
                  <p id=""wtp"" style=""text-align:center; margin-top: 0px; margin-bottom: 0px; font-size: 40px"";>&ensp;</p>","-","viewing","0","30","9B","","","","","","","","","","","","","","","","","",""
"","","","","","html-slider-response","166","393385","0.0-21.0-1.17","9c08acd5-0655-4b76-899a-4b1b87c87648","1540","
                  <p style=""text-align: center;"">₪79
                                                <br>40%</p>
                  <p id=""wtp"" style=""text-align:center; margin-top: 0px; margin-bottom: 0px; font-size: 40px"";>מוכנים לשלם: <span id=""c_p_y""></span></p>","64","evaluation","11","30","9B","40","79","63","","","","","","","","","","","","","","",""
"","","","","","html-keyboard-response","167","394640","0.0-21.0-2.17","9c08acd5-0655-4b76-899a-4b1b87c87648","null","<p style=""text-align: center;"">+</p>","null","fixation","","","","","","","","","","","","","","","","","","","","",""
"","","","","","html-slider-response","168","395643","0.0-21.0-0.18","9c08acd5-0655-4b76-899a-4b1b87c87648","1000","
                  <p style=""text-align: center;"">₪36
                                                <br>75%</p>
                  <p id=""wtp"" style=""text-align:center; margin-top: 0px; margin-bottom: 0px; font-size: 40px"";>&ensp;</p>","-","viewing","0","14","4B,5A,13B,16B","","","","","","","","","","","","","","","","","",""
"","","","","","html-slider-response","169","396665","0.0-21.0-1.18","9c08acd5-0655-4b76-899a-4b1b87c87648","1021","
                  <p style=""text-align: center;"">₪36
                                                <br>75%</p>
                  <p id=""wtp"" style=""text-align:center; margin-top: 0px; margin-bottom: 0px; font-size: 40px"";>מוכנים לשלם: <span id=""c_p_y""></span></p>","51","evaluation","50","14","4B,5A,13B,16B","75","36","50","","","","","","","","","","","","","","",""
"","","","","","html-keyboard-response","170","397886","0.0-21.0-2.18","9c08acd5-0655-4b76-899a-4b1b87c87648","null","<p style=""text-align: center;"">+</p>","null","fixation","","","","","","","","","","","","","","","","","","","","",""
"","","","","","html-slider-response","171","398900","0.0-21.0-0.19","9c08acd5-0655-4b76-899a-4b1b87c87648","1000","
                  <p style=""text-align: center;"">₪39
                                                <br>65%</p>
                  <p id=""wtp"" style=""text-align:center; margin-top: 0px; margin-bottom: 0px; font-size: 40px"";>&ensp;</p>","-","viewing","0","16","1A,15A,26C","","","","","","","","","","","","","","","","","",""
"","","","","","html-slider-response","172","399873","0.0-21.0-1.19","9c08acd5-0655-4b76-899a-4b1b87c87648","971","
                  <p style=""text-align: center;"">₪39
                                                <br>65%</p>
                  <p id=""wtp"" style=""text-align:center; margin-top: 0px; margin-bottom: 0px; font-size: 40px"";>מוכנים לשלם: <span id=""c_p_y""></span></p>","34","evaluation","46","16","1A,15A,26C","65","39","34","","","","","","","","","","","","","","",""
"","","","","","html-keyboard-response","173","401212","0.0-21.0-2.19","9c08acd5-0655-4b76-899a-4b1b87c87648","null","<p style=""text-align: center;"">+</p>","null","fixation","","","","","","","","","","","","","","","","","","","","",""
"","","","","","html-slider-response","174","402214","0.0-21.0-0.20","9c08acd5-0655-4b76-899a-4b1b87c87648","1000","
                  <p style=""text-align: center;"">₪11
                                                <br>45%</p>
                  <p id=""wtp"" style=""text-align:center; margin-top: 0px; margin-bottom: 0px; font-size: 40px"";>&ensp;</p>","-","viewing","0","6","14B,21C,25C","","","","","","","","","","","","","","","","","",""
"","","","","","html-slider-response","175","403897","0.0-21.0-1.20","9c08acd5-0655-4b76-899a-4b1b87c87648","1681","
                  <p style=""text-align: center;"">₪11
                                                <br>45%</p>
                  <p id=""wtp"" style=""text-align:center; margin-top: 0px; margin-bottom: 0px; font-size: 40px"";>מוכנים לשלם: <span id=""c_p_y""></span></p>","13","evaluation","29","6","14B,21C,25C","45","11","13","","","","","","","","","","","","","","",""
"","","","","","html-keyboard-response","176","405081","0.0-21.0-2.20","9c08acd5-0655-4b76-899a-4b1b87c87648","null","<p style=""text-align: center;"">+</p>","null","fixation","","","","","","","","","","","","","","","","","","","","",""
"","","","","","html-slider-response","177","406091","0.0-21.0-0.21","9c08acd5-0655-4b76-899a-4b1b87c87648","1000","
                  <p style=""text-align: center;"">₪18
                                                <br>50%</p>
                  <p id=""wtp"" style=""text-align:center; margin-top: 0px; margin-bottom: 0px; font-size: 40px"";>&ensp;</p>","-","viewing","0","10","2C,16C,22B,28A","","","","","","","","","","","","","","","","","",""
"","","","","","html-slider-response","178","406857","0.0-21.0-1.21","9c08acd5-0655-4b76-899a-4b1b87c87648","765","
                  <p style=""text-align: center;"">₪18
                                                <br>50%</p>
                  <p id=""wtp"" style=""text-align:center; margin-top: 0px; margin-bottom: 0px; font-size: 40px"";>מוכנים לשלם: <span id=""c_p_y""></span></p>","31","evaluation","36","10","2C,16C,22B,28A","50","18","31","","","","","","","","","","","","","","",""
"","","","","","html-keyboard-response","179","407848","0.0-21.0-2.21","9c08acd5-0655-4b76-899a-4b1b87c87648","null","<p style=""text-align: center;"">+</p>","null","fixation","","","","","","","","","","","","","","","","","","","","",""
"","","","","","html-slider-response","180","408851","0.0-21.0-0.22","9c08acd5-0655-4b76-899a-4b1b87c87648","1000","
                  <p style=""text-align: center;"">₪64
                                                <br>25%</p>
                  <p id=""wtp"" style=""text-align:center; margin-top: 0px; margin-bottom: 0px; font-size: 40px"";>&ensp;</p>","-","viewing","0","24","6A,21A","","","","","","","","","","","","","","","","","",""
"","","","","","html-slider-response","181","409849","0.0-21.0-1.22","9c08acd5-0655-4b76-899a-4b1b87c87648","996","
                  <p style=""text-align: center;"">₪64
                                                <br>25%</p>
                  <p id=""wtp"" style=""text-align:center; margin-top: 0px; margin-bottom: 0px; font-size: 40px"";>מוכנים לשלם: <span id=""c_p_y""></span></p>","53","evaluation","63","24","6A,21A","25","64","52","","","","","","","","","","","","","","",""
"","","","","","html-keyboard-response","182","411227","0.0-21.0-2.22","9c08acd5-0655-4b76-899a-4b1b87c87648","null","<p style=""text-align: center;"">+</p>","null","fixation","","","","","","","","","","","","","","","","","","","","",""
"","","","","","html-slider-response","183","412229","0.0-21.0-0.23","9c08acd5-0655-4b76-899a-4b1b87c87648","1000","
                  <p style=""text-align: center;"">₪4
                                                <br>75%</p>
                  <p id=""wtp"" style=""text-align:center; margin-top: 0px; margin-bottom: 0px; font-size: 40px"";>&ensp;</p>","-","viewing","0","3","12B,20B,23B,27C,29C","","","","","","","","","","","","","","","","","",""
"","","","","","html-slider-response","184","413177","0.0-21.0-1.23","9c08acd5-0655-4b76-899a-4b1b87c87648","947","
                  <p style=""text-align: center;"">₪4
                                                <br>75%</p>
                  <p id=""wtp"" style=""text-align:center; margin-top: 0px; margin-bottom: 0px; font-size: 40px"";>מוכנים לשלם: <span id=""c_p_y""></span></p>","6","evaluation","14","3","12B,20B,23B,27C,29C","75","4","7","","","","","","","","","","","","","","",""
"","","","","","html-keyboard-response","185","413852","0.0-21.0-2.23","9c08acd5-0655-4b76-899a-4b1b87c87648","null","<p style=""text-align: center;"">+</p>","null","fixation","","","","","","","","","","","","","","","","","","","","",""
"","","","","","html-slider-response","186","414862","0.0-21.0-0.24","9c08acd5-0655-4b76-899a-4b1b87c87648","1000","
                  <p style=""text-align: center;"">₪39
                                                <br>60%</p>
                  <p id=""wtp"" style=""text-align:center; margin-top: 0px; margin-bottom: 0px; font-size: 40px"";>&ensp;</p>","-","viewing","0","15","9C,25B","","","","","","","","","","","","","","","","","",""
"","","","","","html-slider-response","187","415897","0.0-21.0-1.24","9c08acd5-0655-4b76-899a-4b1b87c87648","1034","
                  <p style=""text-align: center;"">₪39
                                                <br>60%</p>
                  <p id=""wtp"" style=""text-align:center; margin-top: 0px; margin-bottom: 0px; font-size: 40px"";>מוכנים לשלם: <span id=""c_p_y""></span></p>","48","evaluation","80","15","9C,25B","60","39","48","","","","","","","","","","","","","","",""
"","","","","","html-keyboard-response","188","416426","0.0-21.0-2.24","9c08acd5-0655-4b76-899a-4b1b87c87648","null","<p style=""text-align: center;"">+</p>","null","fixation","","","","","","","","","","","","","","","","","","","","",""
"","","","","","html-slider-response","189","417428","0.0-21.0-0.25","9c08acd5-0655-4b76-899a-4b1b87c87648","1000","
                  <p style=""text-align: center;"">₪36
                                                <br>70%</p>
                  <p id=""wtp"" style=""text-align:center; margin-top: 0px; margin-bottom: 0px; font-size: 40px"";>&ensp;</p>","-","viewing","0","13","3A,5C,10B","","","","","","","","","","","","","","","","","",""
"","","","","","html-slider-response","190","418945","0.0-21.0-1.25","9c08acd5-0655-4b76-899a-4b1b87c87648","1516","
                  <p style=""text-align: center;"">₪36
                                                <br>70%</p>
                  <p id=""wtp"" style=""text-align:center; margin-top: 0px; margin-bottom: 0px; font-size: 40px"";>מוכנים לשלם: <span id=""c_p_y""></span></p>","52","evaluation","2","13","3A,5C,10B","70","36","51","","","","","","","","","","","","","","",""
"","","","","","html-keyboard-response","191","420178","0.0-21.0-2.25","9c08acd5-0655-4b76-899a-4b1b87c87648","null","<p style=""text-align: center;"">+</p>","null","fixation","","","","","","","","","","","","","","","","","","","","",""
"","","","","","html-slider-response","192","421183","0.0-21.0-0.26","9c08acd5-0655-4b76-899a-4b1b87c87648","1000","
                  <p style=""text-align: center;"">₪64
                                                <br>50%</p>
                  <p id=""wtp"" style=""text-align:center; margin-top: 0px; margin-bottom: 0px; font-size: 40px"";>&ensp;</p>","-","viewing","0","25","1B,3B,4A","","","","","","","","","","","","","","","","","",""
"","","","","","html-slider-response","193","422241","0.0-21.0-1.26","9c08acd5-0655-4b76-899a-4b1b87c87648","1058","
                  <p style=""text-align: center;"">₪64
                                                <br>50%</p>
                  <p id=""wtp"" style=""text-align:center; margin-top: 0px; margin-bottom: 0px; font-size: 40px"";>מוכנים לשלם: <span id=""c_p_y""></span></p>","49","evaluation","46","25","1B,3B,4A","50","64","49","","","","","","","","","","","","","","",""
"","","","","","html-keyboard-response","194","423407","0.0-21.0-2.26","9c08acd5-0655-4b76-899a-4b1b87c87648","null","<p style=""text-align: center;"">+</p>","null","fixation","","","","","","","","","","","","","","","","","","","","",""
"","","","","","html-slider-response","195","424410","0.0-21.0-0.27","9c08acd5-0655-4b76-899a-4b1b87c87648","1000","
                  <p style=""text-align: center;"">₪36
                                                <br>60%</p>
                  <p id=""wtp"" style=""text-align:center; margin-top: 0px; margin-bottom: 0px; font-size: 40px"";>&ensp;</p>","-","viewing","0","12","1C,7C,15C","","","","","","","","","","","","","","","","","",""
"","","","","","html-slider-response","196","424977","0.0-21.0-1.27","9c08acd5-0655-4b76-899a-4b1b87c87648","565","
                  <p style=""text-align: center;"">₪36
                                                <br>60%</p>
                  <p id=""wtp"" style=""text-align:center; margin-top: 0px; margin-bottom: 0px; font-size: 40px"";>מוכנים לשלם: <span id=""c_p_y""></span></p>","51","evaluation","59","12","1C,7C,15C","60","36","51","","","","","","","","","","","","","","",""
"","","","","","html-keyboard-response","197","425933","0.0-21.0-2.27","9c08acd5-0655-4b76-899a-4b1b87c87648","null","<p style=""text-align: center;"">+</p>","null","fixation","","","","","","","","","","","","","","","","","","","","",""
"","","","","","html-slider-response","198","426936","0.0-21.0-0.28","9c08acd5-0655-4b76-899a-4b1b87c87648","1000","
                  <p style=""text-align: center;"">₪18
                                                <br>25%</p>
                  <p id=""wtp"" style=""text-align:center; margin-top: 0px; margin-bottom: 0px; font-size: 40px"";>&ensp;</p>","-","viewing","0","9","14A,23A","","","","","","","","","","","","","","","","","",""
"","","","","","html-slider-response","199","427817","0.0-21.0-1.28","9c08acd5-0655-4b76-899a-4b1b87c87648","880","
                  <p style=""text-align: center;"">₪18
                                                <br>25%</p>
                  <p id=""wtp"" style=""text-align:center; margin-top: 0px; margin-bottom: 0px; font-size: 40px"";>מוכנים לשלם: <span id=""c_p_y""></span></p>","30","evaluation","21","9","14A,23A","25","18","30","","","","","","","","","","","","","","",""
"","","","","","html-keyboard-response","200","428974","0.0-21.0-2.28","9c08acd5-0655-4b76-899a-4b1b87c87648","null","<p style=""text-align: center;"">+</p>","null","fixation","","","","","","","","","","","","","","","","","","","","",""
"","","","","","html-slider-response","201","429977","0.0-21.0-0.29","9c08acd5-0655-4b76-899a-4b1b87c87648","1000","
                  <p style=""text-align: center;"">₪4
                                                <br>25%</p>
                  <p id=""wtp"" style=""text-align:center; margin-top: 0px; margin-bottom: 0px; font-size: 40px"";>&ensp;</p>","-","viewing","0","1","6C,29B,30C","","","","","","","","","","","","","","","","","",""
"","","","","","html-slider-response","202","430585","0.0-21.0-1.29","9c08acd5-0655-4b76-899a-4b1b87c87648","607","
                  <p style=""text-align: center;"">₪4
                                                <br>25%</p>
                  <p id=""wtp"" style=""text-align:center; margin-top: 0px; margin-bottom: 0px; font-size: 40px"";>מוכנים לשלם: <span id=""c_p_y""></span></p>","6","evaluation","74","1","6C,29B,30C","25","4","7","","","","","","","","","","","","","","",""
"","","","","","html-keyboard-response","203","431444","0.0-21.0-2.29","9c08acd5-0655-4b76-899a-4b1b87c87648","null","<p style=""text-align: center;"">+</p>","null","fixation","","","","","","","","","","","","","","","","","","","","",""
"","","","","","html-slider-response","204","432446","0.0-21.0-0.30","9c08acd5-0655-4b76-899a-4b1b87c87648","1000","
                  <p style=""text-align: center;"">₪11
                                                <br>20%</p>
                  <p id=""wtp"" style=""text-align:center; margin-top: 0px; margin-bottom: 0px; font-size: 40px"";>&ensp;</p>","-","viewing","0","4","12C,17C,23C,28C","","","","","","","","","","","","","","","","","",""
"","","","","","html-slider-response","205","433017","0.0-21.0-1.30","9c08acd5-0655-4b76-899a-4b1b87c87648","569","
                  <p style=""text-align: center;"">₪11
                                                <br>20%</p>
                  <p id=""wtp"" style=""text-align:center; margin-top: 0px; margin-bottom: 0px; font-size: 40px"";>מוכנים לשלם: <span id=""c_p_y""></span></p>","4","evaluation","22","4","12C,17C,23C,28C","20","11","5","","","","","","","","","","","","","","",""
"","","","","","html-keyboard-response","206","433924","0.0-21.0-2.30","9c08acd5-0655-4b76-899a-4b1b87c87648","null","<p style=""text-align: center;"">+</p>","null","fixation","","","","","","","","","","","","","","","","","","","","",""
"","","","","","html-keyboard-response","207","434928","0.0-22.0","9c08acd5-0655-4b76-899a-4b1b87c87648","null","<p style=""text-align: center;"">+</p>","null","fixation","","","","","","","","","","","","","","","","","","","","",""
"","","","","","html-keyboard-response","208","437361","0.0-23.0","9c08acd5-0655-4b76-899a-4b1b87c87648","null","<p>הפסקה.
          <br>לחצו כדי להמשיך.</p>","1","scan_wait","","","","","","","","","","","","","","","","","","","","",""
"","","","","","html-keyboard-response","209","438362","0.0-24.0","9c08acd5-0655-4b76-899a-4b1b87c87648","null","<p style=""text-align: center;"">+</p>","null","fixation","","","","","","","","","","","","","","","","","","","","",""
"","","","","","html-slider-response","210","439375","0.0-25.0-0.0","9c08acd5-0655-4b76-899a-4b1b87c87648","1000","
                  <p style=""text-align: center;"">₪64
                                                <br>50%</p>
                  <p id=""wtp"" style=""text-align:center; margin-top: 0px; margin-bottom: 0px; font-size: 40px"";>&ensp;</p>","-","viewing","0","25","1B,3B,4A","","","","","","","","","","","","","","","","","",""
"","","","","","html-slider-response","211","440241","0.0-25.0-1.0","9c08acd5-0655-4b76-899a-4b1b87c87648","865","
                  <p style=""text-align: center;"">₪64
                                                <br>50%</p>
                  <p id=""wtp"" style=""text-align:center; margin-top: 0px; margin-bottom: 0px; font-size: 40px"";>מוכנים לשלם: <span id=""c_p_y""></span></p>","68","evaluation","45","25","1B,3B,4A","50","64","68","","","","","","","","","","","","","","",""
"","","","","","html-keyboard-response","212","441248","0.0-25.0-2.0","9c08acd5-0655-4b76-899a-4b1b87c87648","null","<p style=""text-align: center;"">+</p>","null","fixation","","","","","","","","","","","","","","","","","","","","",""
"","","","","","html-slider-response","213","442250","0.0-25.0-0.1","9c08acd5-0655-4b76-899a-4b1b87c87648","1000","
                  <p style=""text-align: center;"">₪58
                                                <br>40%</p>
                  <p id=""wtp"" style=""text-align:center; margin-top: 0px; margin-bottom: 0px; font-size: 40px"";>&ensp;</p>","-","viewing","0","20","10C,13A,19C,21B","","","","","","","","","","","","","","","","","",""
"","","","","","html-slider-response","214","442825","0.0-25.0-1.1","9c08acd5-0655-4b76-899a-4b1b87c87648","574","
                  <p style=""text-align: center;"">₪58
                                                <br>40%</p>
                  <p id=""wtp"" style=""text-align:center; margin-top: 0px; margin-bottom: 0px; font-size: 40px"";>מוכנים לשלם: <span id=""c_p_y""></span></p>","48","evaluation","29","20","10C,13A,19C,21B","40","58","48","","","","","","","","","","","","","","",""
"","","","","","html-keyboard-response","215","443428","0.0-25.0-2.1","9c08acd5-0655-4b76-899a-4b1b87c87648","null","<p style=""text-align: center;"">+</p>","null","fixation","","","","","","","","","","","","","","","","","","","","",""
"","","","","","html-slider-response","216","444445","0.0-25.0-0.2","9c08acd5-0655-4b76-899a-4b1b87c87648","1000","
                  <p style=""text-align: center;"">₪11
                                                <br>45%</p>
                  <p id=""wtp"" style=""text-align:center; margin-top: 0px; margin-bottom: 0px; font-size: 40px"";>&ensp;</p>","-","viewing","0","6","14B,21C,25C","","","","","","","","","","","","","","","","","",""
"","","","","","html-slider-response","217","445625","0.0-25.0-1.2","9c08acd5-0655-4b76-899a-4b1b87c87648","1179","
                  <p style=""text-align: center;"">₪11
                                                <br>45%</p>
                  <p id=""wtp"" style=""text-align:center; margin-top: 0px; margin-bottom: 0px; font-size: 40px"";>מוכנים לשלם: <span id=""c_p_y""></span></p>","13","evaluation","72","6","14B,21C,25C","45","11","13","","","","","","","","","","","","","","",""
"","","","","","html-keyboard-response","218","446347","0.0-25.0-2.2","9c08acd5-0655-4b76-899a-4b1b87c87648","null","<p style=""text-align: center;"">+</p>","null","fixation","","","","","","","","","","","","","","","","","","","","",""
"","","","","","html-slider-response","219","447349","0.0-25.0-0.3","9c08acd5-0655-4b76-899a-4b1b87c87648","1000","
                  <p style=""text-align: center;"">₪58
                                                <br>30%</p>
                  <p id=""wtp"" style=""text-align:center; margin-top: 0px; margin-bottom: 0px; font-size: 40px"";>&ensp;</p>","-","viewing","0","19","13C,30A","","","","","","","","","","","","","","","","","",""
"","","","","","html-slider-response","220","448329","0.0-25.0-1.3","9c08acd5-0655-4b76-899a-4b1b87c87648","979","
                  <p style=""text-align: center;"">₪58
                                                <br>30%</p>
                  <p id=""wtp"" style=""text-align:center; margin-top: 0px; margin-bottom: 0px; font-size: 40px"";>מוכנים לשלם: <span id=""c_p_y""></span></p>","21","evaluation","47","19","13C,30A","30","58","21","","","","","","","","","","","","","","",""
"","","","","","html-keyboard-response","221","448893","0.0-25.0-2.3","9c08acd5-0655-4b76-899a-4b1b87c87648","null","<p style=""text-align: center;"">+</p>","null","fixation","","","","","","","","","","","","","","","","","","","","",""
"","","","","","html-slider-response","222","449895","0.0-25.0-0.4","9c08acd5-0655-4b76-899a-4b1b87c87648","1000","
                  <p style=""text-align: center;"">₪36
                                                <br>60%</p>
                  <p id=""wtp"" style=""text-align:center; margin-top: 0px; margin-bottom: 0px; font-size: 40px"";>&ensp;</p>","-","viewing","0","12","1C,7C,15C","","","","","","","","","","","","","","","","","",""
"","","","","","html-slider-response","223","450617","0.0-25.0-1.4","9c08acd5-0655-4b76-899a-4b1b87c87648","721","
                  <p style=""text-align: center;"">₪36
                                                <br>60%</p>
                  <p id=""wtp"" style=""text-align:center; margin-top: 0px; margin-bottom: 0px; font-size: 40px"";>מוכנים לשלם: <span id=""c_p_y""></span></p>","22","evaluation","27","12","1C,7C,15C","60","36","23","","","","","","","","","","","","","","",""
"","","","","","html-keyboard-response","224","451315","0.0-25.0-2.4","9c08acd5-0655-4b76-899a-4b1b87c87648","null","<p style=""text-align: center;"">+</p>","null","fixation","","","","","","","","","","","","","","","","","","","","",""
"","","","","","html-slider-response","225","452317","0.0-25.0-0.5","9c08acd5-0655-4b76-899a-4b1b87c87648","1000","
                  <p style=""text-align: center;"">₪4
                                                <br>25%</p>
                  <p id=""wtp"" style=""text-align:center; margin-top: 0px; margin-bottom: 0px; font-size: 40px"";>&ensp;</p>","-","viewing","0","1","6C,29B,30C","","","","","","","","","","","","","","","","","",""
"","","","","","html-slider-response","226","453241","0.0-25.0-1.5","9c08acd5-0655-4b76-899a-4b1b87c87648","922","
                  <p style=""text-align: center;"">₪4
                                                <br>25%</p>
                  <p id=""wtp"" style=""text-align:center; margin-top: 0px; margin-bottom: 0px; font-size: 40px"";>מוכנים לשלם: <span id=""c_p_y""></span></p>","2","evaluation","37","1","6C,29B,30C","25","4","3","","","","","","","","","","","","","","",""
"","","","","","html-keyboard-response","227","454359","0.0-25.0-2.5","9c08acd5-0655-4b76-899a-4b1b87c87648","null","<p style=""text-align: center;"">+</p>","null","fixation","","","","","","","","","","","","","","","","","","","","",""
"","","","","","html-slider-response","228","455360","0.0-25.0-0.6","9c08acd5-0655-4b76-899a-4b1b87c87648","1000","
                  <p style=""text-align: center;"">₪16
                                                <br>20%</p>
                  <p id=""wtp"" style=""text-align:center; margin-top: 0px; margin-bottom: 0px; font-size: 40px"";>&ensp;</p>","-","viewing","0","8","14C,17A,20C,27A","","","","","","","","","","","","","","","","","",""
"","","","","","html-slider-response","229","456049","0.0-25.0-1.6","9c08acd5-0655-4b76-899a-4b1b87c87648","688","
                  <p style=""text-align: center;"">₪16
                                                <br>20%</p>
                  <p id=""wtp"" style=""text-align:center; margin-top: 0px; margin-bottom: 0px; font-size: 40px"";>מוכנים לשלם: <span id=""c_p_y""></span></p>","40","evaluation","59","8","14C,17A,20C,27A","20","16","40","","","","","","","","","","","","","","",""
"","","","","","html-keyboard-response","230","456831","0.0-25.0-2.6","9c08acd5-0655-4b76-899a-4b1b87c87648","null","<p style=""text-align: center;"">+</p>","null","fixation","","","","","","","","","","","","","","","","","","","","",""
"","","","","","html-slider-response","231","457833","0.0-25.0-0.7","9c08acd5-0655-4b76-899a-4b1b87c87648","1000","
                  <p style=""text-align: center;"">₪39
                                                <br>65%</p>
                  <p id=""wtp"" style=""text-align:center; margin-top: 0px; margin-bottom: 0px; font-size: 40px"";>&ensp;</p>","-","viewing","0","16","1A,15A,26C","","","","","","","","","","","","","","","","","",""
"","","","","","html-slider-response","232","458745","0.0-25.0-1.7","9c08acd5-0655-4b76-899a-4b1b87c87648","911","
                  <p style=""text-align: center;"">₪39
                                                <br>65%</p>
                  <p id=""wtp"" style=""text-align:center; margin-top: 0px; margin-bottom: 0px; font-size: 40px"";>מוכנים לשלם: <span id=""c_p_y""></span></p>","26","evaluation","7","16","1A,15A,26C","65","39","26","","","","","","","","","","","","","","",""
"","","","","","html-keyboard-response","233","460087","0.0-25.0-2.7","9c08acd5-0655-4b76-899a-4b1b87c87648","null","<p style=""text-align: center;"">+</p>","null","fixation","","","","","","","","","","","","","","","","","","","","",""
"","","","","","html-slider-response","234","461099","0.0-25.0-0.8","9c08acd5-0655-4b76-899a-4b1b87c87648","1000","
                  <p style=""text-align: center;"">₪11
                                                <br>20%</p>
                  <p id=""wtp"" style=""text-align:center; margin-top: 0px; margin-bottom: 0px; font-size: 40px"";>&ensp;</p>","-","viewing","0","4","12C,17C,23C,28C","","","","","","","","","","","","","","","","","",""
"","","","","","html-slider-response","235","461705","0.0-25.0-1.8","9c08acd5-0655-4b76-899a-4b1b87c87648","604","
                  <p style=""text-align: center;"">₪11
                                                <br>20%</p>
                  <p id=""wtp"" style=""text-align:center; margin-top: 0px; margin-bottom: 0px; font-size: 40px"";>מוכנים לשלם: <span id=""c_p_y""></span></p>","50","evaluation","10","4","12C,17C,23C,28C","20","11","50","","","","","","","","","","","","","","",""
"","","","","","html-keyboard-response","236","462506","0.0-25.0-2.8","9c08acd5-0655-4b76-899a-4b1b87c87648","null","<p style=""text-align: center;"">+</p>","null","fixation","","","","","","","","","","","","","","","","","","","","",""
"","","","","","html-slider-response","237","463522","0.0-25.0-0.9","9c08acd5-0655-4b76-899a-4b1b87c87648","1000","
                  <p style=""text-align: center;"">₪43
                                                <br>60%</p>
                  <p id=""wtp"" style=""text-align:center; margin-top: 0px; margin-bottom: 0px; font-size: 40px"";>&ensp;</p>","-","viewing","0","17","2A,7A,9A,15B","","","","","","","","","","","","","","","","","",""
"","","","","","html-slider-response","238","464617","0.0-25.0-1.9","9c08acd5-0655-4b76-899a-4b1b87c87648","1094","
                  <p style=""text-align: center;"">₪43
                                                <br>60%</p>
                  <p id=""wtp"" style=""text-align:center; margin-top: 0px; margin-bottom: 0px; font-size: 40px"";>מוכנים לשלם: <span id=""c_p_y""></span></p>","57","evaluation","10","17","2A,7A,9A,15B","60","43","57","","","","","","","","","","","","","","",""
"","","","","","html-keyboard-response","239","465480","0.0-25.0-2.9","9c08acd5-0655-4b76-899a-4b1b87c87648","null","<p style=""text-align: center;"">+</p>","null","fixation","","","","","","","","","","","","","","","","","","","","",""
"","","","","","html-slider-response","240","466495","0.0-25.0-0.10","9c08acd5-0655-4b76-899a-4b1b87c87648","1000","
                  <p style=""text-align: center;"">₪79
                                                <br>40%</p>
                  <p id=""wtp"" style=""text-align:center; margin-top: 0px; margin-bottom: 0px; font-size: 40px"";>&ensp;</p>","-","viewing","0","30","9B","","","","","","","","","","","","","","","","","",""
"","","","","","html-slider-response","241","467681","0.0-25.0-1.10","9c08acd5-0655-4b76-899a-4b1b87c87648","1184","
                  <p style=""text-align: center;"">₪79
                                                <br>40%</p>
                  <p id=""wtp"" style=""text-align:center; margin-top: 0px; margin-bottom: 0px; font-size: 40px"";>מוכנים לשלם: <span id=""c_p_y""></span></p>","51","evaluation","43","30","9B","40","79","51","","","","","","","","","","","","","","",""
"","","","","","html-keyboard-response","242","468824","0.0-25.0-2.10","9c08acd5-0655-4b76-899a-4b1b87c87648","null","<p style=""text-align: center;"">+</p>","null","fixation","","","","","","","","","","","","","","","","","","","","",""
"","","","","","html-slider-response","243","469826","0.0-25.0-0.11","9c08acd5-0655-4b76-899a-4b1b87c87648","1000","
                  <p style=""text-align: center;"">₪18
                                                <br>25%</p>
                  <p id=""wtp"" style=""text-align:center; margin-top: 0px; margin-bottom: 0px; font-size: 40px"";>&ensp;</p>","-","viewing","0","9","14A,23A","","","","","","","","","","","","","","","","","",""
"","","","","","html-slider-response","244","470817","0.0-25.0-1.11","9c08acd5-0655-4b76-899a-4b1b87c87648","991","
                  <p style=""text-align: center;"">₪18
                                                <br>25%</p>
                  <p id=""wtp"" style=""text-align:center; margin-top: 0px; margin-bottom: 0px; font-size: 40px"";>מוכנים לשלם: <span id=""c_p_y""></span></p>","12","evaluation","46","9","14A,23A","25","18","12","","","","","","","","","","","","","","",""
"","","","","","html-keyboard-response","245","472185","0.0-25.0-2.11","9c08acd5-0655-4b76-899a-4b1b87c87648","null","<p style=""text-align: center;"">+</p>","null","fixation","","","","","","","","","","","","","","","","","","","","",""
"","","","","","html-slider-response","246","473195","0.0-25.0-0.12","9c08acd5-0655-4b76-899a-4b1b87c87648","1000","
                  <p style=""text-align: center;"">₪36
                                                <br>70%</p>
                  <p id=""wtp"" style=""text-align:center; margin-top: 0px; margin-bottom: 0px; font-size: 40px"";>&ensp;</p>","-","viewing","0","13","3A,5C,10B","","","","","","","","","","","","","","","","","",""
"","","","","","html-slider-response","247","473953","0.0-25.0-1.12","9c08acd5-0655-4b76-899a-4b1b87c87648","757","
                  <p style=""text-align: center;"">₪36
                                                <br>70%</p>
                  <p id=""wtp"" style=""text-align:center; margin-top: 0px; margin-bottom: 0px; font-size: 40px"";>מוכנים לשלם: <span id=""c_p_y""></span></p>","44","evaluation","36","13","3A,5C,10B","70","36","44","","","","","","","","","","","","","","",""
"","","","","","html-keyboard-response","248","474926","0.0-25.0-2.12","9c08acd5-0655-4b76-899a-4b1b87c87648","null","<p style=""text-align: center;"">+</p>","null","fixation","","","","","","","","","","","","","","","","","","","","",""
"","","","","","html-slider-response","249","475936","0.0-25.0-0.13","9c08acd5-0655-4b76-899a-4b1b87c87648","1000","
                  <p style=""text-align: center;"">₪79
                                                <br>65%</p>
                  <p id=""wtp"" style=""text-align:center; margin-top: 0px; margin-bottom: 0px; font-size: 40px"";>&ensp;</p>","-","viewing","0","31","8A","","","","","","","","","","","","","","","","","",""
"","","","","","html-slider-response","250","477161","0.0-25.0-1.13","9c08acd5-0655-4b76-899a-4b1b87c87648","1224","
                  <p style=""text-align: center;"">₪79
                                                <br>65%</p>
                  <p id=""wtp"" style=""text-align:center; margin-top: 0px; margin-bottom: 0px; font-size: 40px"";>מוכנים לשלם: <span id=""c_p_y""></span></p>","69","evaluation","17","31","8A","65","79","69","","","","","","","","","","","","","","",""
"","","","","","html-keyboard-response","251","477705","0.0-25.0-2.13","9c08acd5-0655-4b76-899a-4b1b87c87648","null","<p style=""text-align: center;"">+</p>","null","fixation","","","","","","","","","","","","","","","","","","","","",""
"","","","","","html-slider-response","252","478712","0.0-25.0-0.14","9c08acd5-0655-4b76-899a-4b1b87c87648","1000","
                  <p style=""text-align: center;"">₪4
                                                <br>75%</p>
                  <p id=""wtp"" style=""text-align:center; margin-top: 0px; margin-bottom: 0px; font-size: 40px"";>&ensp;</p>","-","viewing","0","3","12B,20B,23B,27C,29C","","","","","","","","","","","","","","","","","",""
