"success","timeout","failed_images","failed_audio","failed_video","trial_type","trial_index","time_elapsed","internal_node_id","subject_id","rt","stimulus","response","part","slider_start","ID","set_ID","prob","amount","last_location","actual_choice","actual_EV","binary_id","trinary_id","catch","A_key","D_key","choice_prob","choice_amount","chosen_part","won_prize","potential_prize_amount","potential_prize_prob","total_prize","accuracy"
"true","false","[]","[]","[]","preload","0","23","0.0-0.0","23e4e6c8-96b3-4791-b8dc-05b9530d7211","","","","","","","","","","","","","","","","","","","","","","","","",""
"","","","","","html-keyboard-response","1","119726","0.0-1.0","23e4e6c8-96b3-4791-b8dc-05b9530d7211","null","
          <h1>שלום וברוכים הבאים!</h1>
          <p>לפניכם ניסוי בקבלת החלטות עם שני חלקים.
          <br><br>לחצו על העכבר כדי להמשיך.</p>","0","example","","","","","","","","","","","","","","","","","","","","",""
"","","","","","html-keyboard-response","2","167638","0.0-2.0","23e4e6c8-96b3-4791-b8dc-05b9530d7211","null","
        <h1>חלק 1</h1>
        <p>בקרוב יוצגו בפניכם הגרלות.
        <br>עליכם לבחור את המחיר המירבי שתהיו מוכנים לשלם כדי להשתתף בהגרלה שתוצג.
        <br>יש לכם תקציב של ₪80 לכל הגרלה. 
        <br>נסו להעריך כל הגרלה בנפרד ולחשוב כמה היא שווה עבורכם, ₪80 זמינים לכל הגרלה בנפרד.
        <br><br>לחצו על העכבר כדי להמשיך.</p>","1","instructions","","","","","","","","","","","","","","","","","","","","",""
"","","","","","html-keyboard-response","3","168214","0.0-3.0","23e4e6c8-96b3-4791-b8dc-05b9530d7211","null","
        <p>בסוף הניסוי, המחשב יבחר את אחת ההגרלות ויקבע מחיר לכרטיס עבורה. 
        <br>במידה והמחיר שבחרתם נמוך מהמחיר שנבחר על ידי המחשב, לא תשתתפו בהגרלה ותשארו עם מלוא התקציב.
        <br>במידה והמחיר שבחרתם גבוה מהמחיר שנבחר על ידי המחשב, תשלמו את המחיר שנקבע ותשתתפו בהגרלה.
        <br><br>לחצו על העכבר כדי להמשיך.</p>","1","instructions","","","","","","","","","","","","","","","","","","","","",""
"","","","","","html-slider-response","4","676413","0.0-4.0","23e4e6c8-96b3-4791-b8dc-05b9530d7211","508098","
        <p style=""font-size: 42px;"">נתחיל עם דוגמא: 
        <br>ההגרלה מטה מציעה 65% סיכוי לזכות ב-₪40 
        <br>&emsp;&emsp;&emsp;&emsp;&emsp;&emsp;&emsp;&emsp;&ensp;35% סיכוי לזכות ב-₪0.
        <br><br>מה המחיר המירבי שתהיו מוכנים לשלם על כרטיס להגרלה זו בין 0 ל-₪80?
        <br>הזיזו את העכבר על פני המלבן ולחצו כדי לבצע בחירה.</p>
        
        <p style=""text-align: center;"">₪40<br>65%</p>

        <p id=""wtp"" style=""text-align:center; margin-top: 0px; margin-bottom: 0px; font-size: 40px"";>מוכנים לשלם: <span id=""c_p_y""></span></p>","31","example","62","","","","","","","","","","","","","","","","","","","",""
"","","","","","html-keyboard-response","5","679037","0.0-5.0","23e4e6c8-96b3-4791-b8dc-05b9530d7211","null","<p>יפה מאוד!
                <br> בחרתם שתהיו מוכנים לשלם ₪31 כדי להשתתף בהגרלה:
                <br><p style=""text-align: center;"">₪40<br>65%</p>
                <p>נשמע נכון?
                <br>נניח שהגרלה זו נבחרה בסוף הניסוי.
                <br>כעת המחשב יקבע מחיר עבורה באקראי.
                <br>לחצו על העכבר להמשך.</p>","1","example","","","","","","","","","","","","","","","","","","","","",""
"","","","","","html-keyboard-response","6","683413","0.0-6.0","23e4e6c8-96b3-4791-b8dc-05b9530d7211","null","<p>המחשב קבע מחיר: ₪32
                <br>ואתם בחרתם לשלם לכל היותר: ₪31
                <br><br>מכיוון שהמחיר שבחרתם נמוך מהמחיר שנקבע, לא תתשתתפו בהגרלה.
                <br>במקרה כזה, בסוף הניסוי תקבלו את כל התקציב ההתחלתי של ₪80.
                <br><br>לחצו על העכבר להמשך.</p>","1","example","","","","","","","","","","","","","","","","","","","","",""
"","","","","","html-slider-response","7","717557","0.0-7.0","23e4e6c8-96b3-4791-b8dc-05b9530d7211","33890","<p style=""font-size: 42px;"">הנה עוד דוגמא:
                <br>ההגרלה מטה מציעה 35% סיכוי לזכות ב-₪18 
                <br>&emsp;&emsp;&emsp;&emsp;&emsp;&emsp;&emsp;&emsp;&ensp;65% סיכוי לזכות ב-₪0.</p>
        
                <p style=""text-align: center;"">₪18<br>35%</p>
                <p id=""wtp"" style=""text-align:center; margin-top: 0px; margin-bottom: 0px; font-size: 40px"";>מוכנים לשלם: <span id=""c_p_y""></span></p>","15","example","7","","","","","","","","","","","","","","","","","","","",""
"","","","","","html-keyboard-response","8","728365","0.0-8.0","23e4e6c8-96b3-4791-b8dc-05b9530d7211","null","<p>הייתם מוכנים לשלם  ₪15 כדי להשתתף בהגרלה:
                <p style=""text-align: center;"">₪18<br>35%</p>
                <p>כעת נניח שהמחשב בחר את ההגרלה הזו בסוף הניסוי, וקבע עבורה מחיר.
                <br><br>לחצו על העכבר כדי להמשיך.</p>","1","instructions","","","","","","","","","","","","","","","","","","","","",""
"","","","","","html-keyboard-response","9","753165","0.0-9.0","23e4e6c8-96b3-4791-b8dc-05b9530d7211","null","<p>המחשב קבע מחיר להגרלה: ₪8<br>ואתם בחרתם לשלם לכל היותר: ₪15
                <br><br>כעת המחיר שנקבע נמוך מזה שבחרתם, אז תשלמו את המחיר שקבע המחשב (₪8) ותשתתפו בהגרלה.
                <br>במקרה כזה, תסיימו את הניסוי עם תקציב של ₪72 ועם סיכוי לזכות ב-₪18 נוספים מההגרלה.
                <br>כלומר, תוכלו לקבל ₪72 אם לא תזכו בהגרלה, או ₪90 אם תזכו בהגרלה.
                <br><br>לחצו על העכבר להמשך.</p>","1","example","","","","","","","","","","","","","","","","","","","","",""
"","","","","","html-keyboard-response","10","764925","0.0-10.0","23e4e6c8-96b3-4791-b8dc-05b9530d7211","null","<p>במהלך הניסוי, קודם תראו את ההגרלה ורק לאחר מכן תוכלו לבחור.
                <p>כמו כן, יהיו לכם מספר שניות מוגבל להגיב.
                <p>בואו ננסה זאת עם ההגרלה הקודמת.
                <br>לחצו על העכבר כדי להמשיך.</p>","1","instructions","","","","","","","","","","","","","","","","","","","","",""
"","","","","","html-slider-response","11","766189","0.0-11.0","23e4e6c8-96b3-4791-b8dc-05b9530d7211","1000","
                    <p style=""text-align: center;"">₪18<br>35%</p>
                    <p id=""wtp"" style=""text-align:center; margin-top: 0px; margin-bottom: 0px; font-size: 40px"";>&ensp;</p>","53","instructions","0","","","","","","","","","","","","","","","","","","","",""
"","","","","","html-slider-response","12","769006","0.0-12.0","23e4e6c8-96b3-4791-b8dc-05b9530d7211","2551","
                    <p style=""text-align: center;"">₪18<br>35%</p>
                    <p id=""wtp"" style=""text-align:center; margin-top: 0px; margin-bottom: 0px; font-size: 40px"";>מוכנים לשלם: <span id=""c_p_y""></span></p>","33","instructions","62","","","","","","","","","","","","","","","","","","","",""
"","","","","","html-keyboard-response","13","771853","0.0-13.0","23e4e6c8-96b3-4791-b8dc-05b9530d7211","null","<p>יפה. הפעם בחרתם לשלם לכל היותר ₪33.
                <br><br>לחצו על העכבר כדי להמשיך.</p>","1","instructions","","","","","","","","","","","","","","","","","","","","",""
"","","","","","html-keyboard-response","14","779597","0.0-15.0","23e4e6c8-96b3-4791-b8dc-05b9530d7211","null","<p>כעת נתחיל את הניסוי.
                <br><br>אתם תראו הגרלות ותתבקשו לבחור כמה תהיו מוכנים לשלם כדי להשתתף בהן.
                <br>יש לכם תקציב של ₪80 עבור כל הגרלה.
                <br>בסוף הניסוי הגרלה אחת תבחר באקראי ותשוחק.
                <br><br>לחצו על העכבר כדי להתחיל את הניסוי.</p>","1","instructions","","","","","","","","","","","","","","","","","","","","",""
"","","","","","html-keyboard-response","15","780875","0.0-16.0","23e4e6c8-96b3-4791-b8dc-05b9530d7211","null","<p style=""text-align: center;"">+</p>","null","fixation","","","","","","","","","","","","","","","","","","","","",""
"","","","","","html-slider-response","16","781878","0.0-17.0-0.0","23e4e6c8-96b3-4791-b8dc-05b9530d7211","1000","
                  <p style=""text-align: center;"">₪16
                                                <br>20%</p>
                  <p id=""wtp"" style=""text-align:center; margin-top: 0px; margin-bottom: 0px; font-size: 40px"";>&ensp;</p>","-","viewing","0","8","14C,17A,20C,27A","","","","","","","","","","","","","","","","","",""
"","","","","","html-slider-response","17","785886","0.0-17.0-1.0","23e4e6c8-96b3-4791-b8dc-05b9530d7211","null","
                  <p style=""text-align: center;"">₪16
                                                <br>20%</p>
                  <p id=""wtp"" style=""text-align:center; margin-top: 0px; margin-bottom: 0px; font-size: 40px"";>מוכנים לשלם: <span id=""c_p_y""></span></p>","null","evaluation","71","8","14C,17A,20C,27A","20","16","19","","","","","","","","","","","","","","",""
"","","","","","html-keyboard-response","18","786622","0.0-17.0-2.0","23e4e6c8-96b3-4791-b8dc-05b9530d7211","null","<p style=""text-align: center;"">+</p>","null","fixation","","","","","","","","","","","","","","","","","","","","",""
"","","","","","html-slider-response","19","787629","0.0-17.0-0.1","23e4e6c8-96b3-4791-b8dc-05b9530d7211","1000","
                  <p style=""text-align: center;"">₪71
                                                <br>55%</p>
                  <p id=""wtp"" style=""text-align:center; margin-top: 0px; margin-bottom: 0px; font-size: 40px"";>&ensp;</p>","-","viewing","0","27","5B,18A","","","","","","","","","","","","","","","","","",""
"","","","","","html-slider-response","20","791637","0.0-17.0-1.1","23e4e6c8-96b3-4791-b8dc-05b9530d7211","null","
                  <p style=""text-align: center;"">₪71
                                                <br>55%</p>
                  <p id=""wtp"" style=""text-align:center; margin-top: 0px; margin-bottom: 0px; font-size: 40px"";>מוכנים לשלם: <span id=""c_p_y""></span></p>","null","evaluation","41","27","5B,18A","55","71","32","","","","","","","","","","","","","","",""
"","","","","","html-keyboard-response","21","792462","0.0-17.0-2.1","23e4e6c8-96b3-4791-b8dc-05b9530d7211","null","<p style=""text-align: center;"">+</p>","null","fixation","","","","","","","","","","","","","","","","","","","","",""
"","","","","","html-slider-response","22","793476","0.0-17.0-0.2","23e4e6c8-96b3-4791-b8dc-05b9530d7211","1000","
                  <p style=""text-align: center;"">₪76
                                                <br>65%</p>
                  <p id=""wtp"" style=""text-align:center; margin-top: 0px; margin-bottom: 0px; font-size: 40px"";>&ensp;</p>","-","viewing","0","29","8C,19A,24B","","","","","","","","","","","","","","","","","",""
"","","","","","html-slider-response","23","797486","0.0-17.0-1.2","23e4e6c8-96b3-4791-b8dc-05b9530d7211","null","
                  <p style=""text-align: center;"">₪76
                                                <br>65%</p>
                  <p id=""wtp"" style=""text-align:center; margin-top: 0px; margin-bottom: 0px; font-size: 40px"";>מוכנים לשלם: <span id=""c_p_y""></span></p>","null","evaluation","53","29","8C,19A,24B","65","76","49","","","","","","","","","","","","","","",""
"","","","","","html-keyboard-response","24","798495","0.0-17.0-2.2","23e4e6c8-96b3-4791-b8dc-05b9530d7211","null","<p style=""text-align: center;"">+</p>","null","fixation","","","","","","","","","","","","","","","","","","","","",""
"","","","","","html-slider-response","25","799498","0.0-17.0-0.3","23e4e6c8-96b3-4791-b8dc-05b9530d7211","1000","
                  <p style=""text-align: center;"">₪11
                                                <br>45%</p>
                  <p id=""wtp"" style=""text-align:center; margin-top: 0px; margin-bottom: 0px; font-size: 40px"";>&ensp;</p>","-","viewing","0","6","14B,21C,25C","","","","","","","","","","","","","","","","","",""
"","","","","","html-slider-response","26","802605","0.0-17.0-1.3","23e4e6c8-96b3-4791-b8dc-05b9530d7211","3107","
                  <p style=""text-align: center;"">₪11
                                                <br>45%</p>
                  <p id=""wtp"" style=""text-align:center; margin-top: 0px; margin-bottom: 0px; font-size: 40px"";>מוכנים לשלם: <span id=""c_p_y""></span></p>","22","evaluation","70","6","14B,21C,25C","45","11","22","","","","","","","","","","","","","","",""
"","","","","","html-keyboard-response","27","803632","0.0-17.0-2.3","23e4e6c8-96b3-4791-b8dc-05b9530d7211","null","<p style=""text-align: center;"">+</p>","null","fixation","","","","","","","","","","","","","","","","","","","","",""
"","","","","","html-slider-response","28","804638","0.0-17.0-0.4","23e4e6c8-96b3-4791-b8dc-05b9530d7211","1000","
                  <p style=""text-align: center;"">₪18
                                                <br>25%</p>
                  <p id=""wtp"" style=""text-align:center; margin-top: 0px; margin-bottom: 0px; font-size: 40px"";>&ensp;</p>","-","viewing","0","9","14A,23A","","","","","","","","","","","","","","","","","",""
"","","","","","html-slider-response","29","808639","0.0-17.0-1.4","23e4e6c8-96b3-4791-b8dc-05b9530d7211","null","
                  <p style=""text-align: center;"">₪18
                                                <br>25%</p>
                  <p id=""wtp"" style=""text-align:center; margin-top: 0px; margin-bottom: 0px; font-size: 40px"";>מוכנים לשלם: <span id=""c_p_y""></span></p>","null","evaluation","9","9","14A,23A","25","18","24","","","","","","","","","","","","","","",""
"","","","","","html-keyboard-response","30","809549","0.0-17.0-2.4","23e4e6c8-96b3-4791-b8dc-05b9530d7211","null","<p style=""text-align: center;"">+</p>","null","fixation","","","","","","","","","","","","","","","","","","","","",""
"","","","","","html-slider-response","31","810550","0.0-17.0-0.5","23e4e6c8-96b3-4791-b8dc-05b9530d7211","1000","
                  <p style=""text-align: center;"">₪64
                                                <br>25%</p>
                  <p id=""wtp"" style=""text-align:center; margin-top: 0px; margin-bottom: 0px; font-size: 40px"";>&ensp;</p>","-","viewing","0","24","6A,21A","","","","","","","","","","","","","","","","","",""
"","","","","","html-slider-response","32","814566","0.0-17.0-1.5","23e4e6c8-96b3-4791-b8dc-05b9530d7211","null","
                  <p style=""text-align: center;"">₪64
                                                <br>25%</p>
                  <p id=""wtp"" style=""text-align:center; margin-top: 0px; margin-bottom: 0px; font-size: 40px"";>מוכנים לשלם: <span id=""c_p_y""></span></p>","null","evaluation","28","24","6A,21A","25","64","30","","","","","","","","","","","","","","",""
"","","","","","html-keyboard-response","33","815688","0.0-17.0-2.5","23e4e6c8-96b3-4791-b8dc-05b9530d7211","null","<p style=""text-align: center;"">+</p>","null","fixation","","","","","","","","","","","","","","","","","","","","",""
"","","","","","html-slider-response","34","816693","0.0-17.0-0.6","23e4e6c8-96b3-4791-b8dc-05b9530d7211","1000","
                  <p style=""text-align: center;"">₪36
                                                <br>30%</p>
                  <p id=""wtp"" style=""text-align:center; margin-top: 0px; margin-bottom: 0px; font-size: 40px"";>&ensp;</p>","-","viewing","0","11","3C,20A,22A","","","","","","","","","","","","","","","","","",""
"","","","","","html-slider-response","35","820704","0.0-17.0-1.6","23e4e6c8-96b3-4791-b8dc-05b9530d7211","null","
                  <p style=""text-align: center;"">₪36
                                                <br>30%</p>
                  <p id=""wtp"" style=""text-align:center; margin-top: 0px; margin-bottom: 0px; font-size: 40px"";>מוכנים לשלם: <span id=""c_p_y""></span></p>","null","evaluation","22","11","3C,20A,22A","30","36","18","","","","","","","","","","","","","","",""
"","","","","","html-keyboard-response","36","822022","0.0-17.0-2.6","23e4e6c8-96b3-4791-b8dc-05b9530d7211","null","<p style=""text-align: center;"">+</p>","null","fixation","","","","","","","","","","","","","","","","","","","","",""
"","","","","","html-slider-response","37","823034","0.0-17.0-0.7","23e4e6c8-96b3-4791-b8dc-05b9530d7211","1000","
                  <p style=""text-align: center;"">₪64
                                                <br>50%</p>
                  <p id=""wtp"" style=""text-align:center; margin-top: 0px; margin-bottom: 0px; font-size: 40px"";>&ensp;</p>","-","viewing","0","25","1B,3B,4A","","","","","","","","","","","","","","","","","",""
"","","","","","html-slider-response","38","826525","0.0-17.0-1.7","23e4e6c8-96b3-4791-b8dc-05b9530d7211","3490","
                  <p style=""text-align: center;"">₪64
                                                <br>50%</p>
                  <p id=""wtp"" style=""text-align:center; margin-top: 0px; margin-bottom: 0px; font-size: 40px"";>מוכנים לשלם: <span id=""c_p_y""></span></p>","36","evaluation","32","25","1B,3B,4A","50","64","36","","","","","","","","","","","","","","",""
"","","","","","html-keyboard-response","39","827904","0.0-17.0-2.7","23e4e6c8-96b3-4791-b8dc-05b9530d7211","null","<p style=""text-align: center;"">+</p>","null","fixation","","","","","","","","","","","","","","","","","","","","",""
"","","","","","html-slider-response","40","828909","0.0-17.0-0.8","23e4e6c8-96b3-4791-b8dc-05b9530d7211","1000","
                  <p style=""text-align: center;"">₪43
                                                <br>60%</p>
                  <p id=""wtp"" style=""text-align:center; margin-top: 0px; margin-bottom: 0px; font-size: 40px"";>&ensp;</p>","-","viewing","0","17","2A,7A,9A,15B","","","","","","","","","","","","","","","","","",""
"","","","","","html-slider-response","41","832914","0.0-17.0-1.8","23e4e6c8-96b3-4791-b8dc-05b9530d7211","null","
                  <p style=""text-align: center;"">₪43
                                                <br>60%</p>
                  <p id=""wtp"" style=""text-align:center; margin-top: 0px; margin-bottom: 0px; font-size: 40px"";>מוכנים לשלם: <span id=""c_p_y""></span></p>","null","evaluation","75","17","2A,7A,9A,15B","60","43","32","","","","","","","","","","","","","","",""
"","","","","","html-keyboard-response","42","834118","0.0-17.0-2.8","23e4e6c8-96b3-4791-b8dc-05b9530d7211","null","<p style=""text-align: center;"">+</p>","null","fixation","","","","","","","","","","","","","","","","","","","","",""
"","","","","","html-slider-response","43","835120","0.0-17.0-0.9","23e4e6c8-96b3-4791-b8dc-05b9530d7211","1000","
                  <p style=""text-align: center;"">₪58
                                                <br>30%</p>
                  <p id=""wtp"" style=""text-align:center; margin-top: 0px; margin-bottom: 0px; font-size: 40px"";>&ensp;</p>","-","viewing","0","19","13C,30A","","","","","","","","","","","","","","","","","",""
"","","","","","html-slider-response","44","839132","0.0-17.0-1.9","23e4e6c8-96b3-4791-b8dc-05b9530d7211","null","
                  <p style=""text-align: center;"">₪58
                                                <br>30%</p>
                  <p id=""wtp"" style=""text-align:center; margin-top: 0px; margin-bottom: 0px; font-size: 40px"";>מוכנים לשלם: <span id=""c_p_y""></span></p>","null","evaluation","51","19","13C,30A","30","58","31","","","","","","","","","","","","","","",""
"","","","","","html-keyboard-response","45","840376","0.0-17.0-2.9","23e4e6c8-96b3-4791-b8dc-05b9530d7211","null","<p style=""text-align: center;"">+</p>","null","fixation","","","","","","","","","","","","","","","","","","","","",""
"","","","","","html-slider-response","46","841378","0.0-17.0-0.10","23e4e6c8-96b3-4791-b8dc-05b9530d7211","1000","
                  <p style=""text-align: center;"">₪61
                                                <br>45%</p>
                  <p id=""wtp"" style=""text-align:center; margin-top: 0px; margin-bottom: 0px; font-size: 40px"";>&ensp;</p>","-","viewing","0","22","10A,11A","","","","","","","","","","","","","","","","","",""
"","","","","","html-slider-response","47","845382","0.0-17.0-1.10","23e4e6c8-96b3-4791-b8dc-05b9530d7211","null","
                  <p style=""text-align: center;"">₪61
                                                <br>45%</p>
                  <p id=""wtp"" style=""text-align:center; margin-top: 0px; margin-bottom: 0px; font-size: 40px"";>מוכנים לשלם: <span id=""c_p_y""></span></p>","null","evaluation","25","22","10A,11A","45","61","19","","","","","","","","","","","","","","",""
"","","","","","html-keyboard-response","48","846090","0.0-17.0-2.10","23e4e6c8-96b3-4791-b8dc-05b9530d7211","null","<p style=""text-align: center;"">+</p>","null","fixation","","","","","","","","","","","","","","","","","","","","",""
"","","","","","html-slider-response","49","847107","0.0-17.0-0.11","23e4e6c8-96b3-4791-b8dc-05b9530d7211","1000","
                  <p style=""text-align: center;"">₪4
                                                <br>50%</p>
                  <p id=""wtp"" style=""text-align:center; margin-top: 0px; margin-bottom: 0px; font-size: 40px"";>&ensp;</p>","-","viewing","0","2","4C,17B","","","","","","","","","","","","","","","","","",""
"","","","","","html-slider-response","50","851109","0.0-17.0-1.11","23e4e6c8-96b3-4791-b8dc-05b9530d7211","null","
                  <p style=""text-align: center;"">₪4
                                                <br>50%</p>
                  <p id=""wtp"" style=""text-align:center; margin-top: 0px; margin-bottom: 0px; font-size: 40px"";>מוכנים לשלם: <span id=""c_p_y""></span></p>","null","evaluation","79","2","4C,17B","50","4","8","","","","","","","","","","","","","","",""
"","","","","","html-keyboard-response","51","852057","0.0-17.0-2.11","23e4e6c8-96b3-4791-b8dc-05b9530d7211","null","<p style=""text-align: center;"">+</p>","null","fixation","","","","","","","","","","","","","","","","","","","","",""
"","","","","","html-slider-response","52","853058","0.0-17.0-0.12","23e4e6c8-96b3-4791-b8dc-05b9530d7211","1000","
                  <p style=""text-align: center;"">₪18
                                                <br>50%</p>
                  <p id=""wtp"" style=""text-align:center; margin-top: 0px; margin-bottom: 0px; font-size: 40px"";>&ensp;</p>","-","viewing","0","10","2C,16C,22B,28A","","","","","","","","","","","","","","","","","",""
"","","","","","html-slider-response","53","855405","0.0-17.0-1.12","23e4e6c8-96b3-4791-b8dc-05b9530d7211","2346","
                  <p style=""text-align: center;"">₪18
                                                <br>50%</p>
                  <p id=""wtp"" style=""text-align:center; margin-top: 0px; margin-bottom: 0px; font-size: 40px"";>מוכנים לשלם: <span id=""c_p_y""></span></p>","13","evaluation","31","10","2C,16C,22B,28A","50","18","13","","","","","","","","","","","","","","",""
"","","","","","html-keyboard-response","54","856539","0.0-17.0-2.12","23e4e6c8-96b3-4791-b8dc-05b9530d7211","null","<p style=""text-align: center;"">+</p>","null","fixation","","","","","","","","","","","","","","","","","","","","",""
"","","","","","html-slider-response","55","857548","0.0-17.0-0.13","23e4e6c8-96b3-4791-b8dc-05b9530d7211","1000","
                  <p style=""text-align: center;"">₪4
                                                <br>25%</p>
                  <p id=""wtp"" style=""text-align:center; margin-top: 0px; margin-bottom: 0px; font-size: 40px"";>&ensp;</p>","-","viewing","0","1","6C,29B,30C","","","","","","","","","","","","","","","","","",""
"","","","","","html-slider-response","56","861563","0.0-17.0-1.13","23e4e6c8-96b3-4791-b8dc-05b9530d7211","null","
                  <p style=""text-align: center;"">₪4
                                                <br>25%</p>
                  <p id=""wtp"" style=""text-align:center; margin-top: 0px; margin-bottom: 0px; font-size: 40px"";>מוכנים לשלם: <span id=""c_p_y""></span></p>","null","evaluation","36","1","6C,29B,30C","25","4","4","","","","","","","","","","","","","","",""
"","","","","","html-keyboard-response","57","862859","0.0-17.0-2.13","23e4e6c8-96b3-4791-b8dc-05b9530d7211","null","<p style=""text-align: center;"">+</p>","null","fixation","","","","","","","","","","","","","","","","","","","","",""
"","","","","","html-slider-response","58","863863","0.0-17.0-0.14","23e4e6c8-96b3-4791-b8dc-05b9530d7211","1000","
                  <p style=""text-align: center;"">₪79
                                                <br>65%</p>
                  <p id=""wtp"" style=""text-align:center; margin-top: 0px; margin-bottom: 0px; font-size: 40px"";>&ensp;</p>","-","viewing","0","31","8A","","","","","","","","","","","","","","","","","",""
"","","","","","html-slider-response","59","867866","0.0-17.0-1.14","23e4e6c8-96b3-4791-b8dc-05b9530d7211","null","
                  <p style=""text-align: center;"">₪79
                                                <br>65%</p>
                  <p id=""wtp"" style=""text-align:center; margin-top: 0px; margin-bottom: 0px; font-size: 40px"";>מוכנים לשלם: <span id=""c_p_y""></span></p>","null","evaluation","34","31","8A","65","79","20","","","","","","","","","","","","","","",""
"","","","","","html-keyboard-response","60","869004","0.0-17.0-2.14","23e4e6c8-96b3-4791-b8dc-05b9530d7211","null","<p style=""text-align: center;"">+</p>","null","fixation","","","","","","","","","","","","","","","","","","","","",""
"","","","","","html-slider-response","61","870018","0.0-17.0-0.15","23e4e6c8-96b3-4791-b8dc-05b9530d7211","1000","
                  <p style=""text-align: center;"">₪11
                                                <br>75%</p>
                  <p id=""wtp"" style=""text-align:center; margin-top: 0px; margin-bottom: 0px; font-size: 40px"";>&ensp;</p>","-","viewing","0","7","6B,18B,22C,24C,29A","","","","","","","","","","","","","","","","","",""
"","","","","","html-slider-response","62","874020","0.0-17.0-1.15","23e4e6c8-96b3-4791-b8dc-05b9530d7211","null","
                  <p style=""text-align: center;"">₪11
                                                <br>75%</p>
                  <p id=""wtp"" style=""text-align:center; margin-top: 0px; margin-bottom: 0px; font-size: 40px"";>מוכנים לשלם: <span id=""c_p_y""></span></p>","null","evaluation","27","7","6B,18B,22C,24C,29A","75","11","31","","","","","","","","","","","","","","",""
"","","","","","html-keyboard-response","63","875503","0.0-17.0-2.15","23e4e6c8-96b3-4791-b8dc-05b9530d7211","null","<p style=""text-align: center;"">+</p>","null","fixation","","","","","","","","","","","","","","","","","","","","",""
"","","","","","html-slider-response","64","876505","0.0-17.0-0.16","23e4e6c8-96b3-4791-b8dc-05b9530d7211","1000","
                  <p style=""text-align: center;"">₪11
                                                <br>25%</p>
                  <p id=""wtp"" style=""text-align:center; margin-top: 0px; margin-bottom: 0px; font-size: 40px"";>&ensp;</p>","-","viewing","0","5","12A,27B,28B,30B","","","","","","","","","","","","","","","","","",""
"","","","","","html-slider-response","65","878765","0.0-17.0-1.16","23e4e6c8-96b3-4791-b8dc-05b9530d7211","2259","
                  <p style=""text-align: center;"">₪11
                                                <br>25%</p>
                  <p id=""wtp"" style=""text-align:center; margin-top: 0px; margin-bottom: 0px; font-size: 40px"";>מוכנים לשלם: <span id=""c_p_y""></span></p>","8","evaluation","65","5","12A,27B,28B,30B","25","11","8","","","","","","","","","","","","","","",""
"","","","","","html-keyboard-response","66","879449","0.0-17.0-2.16","23e4e6c8-96b3-4791-b8dc-05b9530d7211","null","<p style=""text-align: center;"">+</p>","null","fixation","","","","","","","","","","","","","","","","","","","","",""
"","","","","","html-slider-response","67","880457","0.0-17.0-0.17","23e4e6c8-96b3-4791-b8dc-05b9530d7211","1000","
                  <p style=""text-align: center;"">₪36
                                                <br>70%</p>
                  <p id=""wtp"" style=""text-align:center; margin-top: 0px; margin-bottom: 0px; font-size: 40px"";>&ensp;</p>","-","viewing","0","13","3A,5C,10B","","","","","","","","","","","","","","","","","",""
"","","","","","html-slider-response","68","884473","0.0-17.0-1.17","23e4e6c8-96b3-4791-b8dc-05b9530d7211","null","
                  <p style=""text-align: center;"">₪36
                                                <br>70%</p>
                  <p id=""wtp"" style=""text-align:center; margin-top: 0px; margin-bottom: 0px; font-size: 40px"";>מוכנים לשלם: <span id=""c_p_y""></span></p>","null","evaluation","80","13","3A,5C,10B","70","36","12","","","","","","","","","","","","","","",""
"","","","","","html-keyboard-response","69","885920","0.0-17.0-2.17","23e4e6c8-96b3-4791-b8dc-05b9530d7211","null","<p style=""text-align: center;"">+</p>","null","fixation","","","","","","","","","","","","","","","","","","","","",""
"","","","","","html-slider-response","70","886931","0.0-17.0-0.18","23e4e6c8-96b3-4791-b8dc-05b9530d7211","1000","
                  <p style=""text-align: center;"">₪61
                                                <br>55%</p>
                  <p id=""wtp"" style=""text-align:center; margin-top: 0px; margin-bottom: 0px; font-size: 40px"";>&ensp;</p>","-","viewing","0","23","7B,26B","","","","","","","","","","","","","","","","","",""
"","","","","","html-slider-response","71","890829","0.0-17.0-1.18","23e4e6c8-96b3-4791-b8dc-05b9530d7211","3896","
                  <p style=""text-align: center;"">₪61
                                                <br>55%</p>
                  <p id=""wtp"" style=""text-align:center; margin-top: 0px; margin-bottom: 0px; font-size: 40px"";>מוכנים לשלם: <span id=""c_p_y""></span></p>","30","evaluation","18","23","7B,26B","55","61","30","","","","","","","","","","","","","","",""
"","","","","","html-keyboard-response","72","891339","0.0-17.0-2.18","23e4e6c8-96b3-4791-b8dc-05b9530d7211","null","<p style=""text-align: center;"">+</p>","null","fixation","","","","","","","","","","","","","","","","","","","","",""
"","","","","","html-slider-response","73","892356","0.0-17.0-0.19","23e4e6c8-96b3-4791-b8dc-05b9530d7211","1000","
                  <p style=""text-align: center;"">₪36
                                                <br>60%</p>
                  <p id=""wtp"" style=""text-align:center; margin-top: 0px; margin-bottom: 0px; font-size: 40px"";>&ensp;</p>","-","viewing","0","12","1C,7C,15C","","","","","","","","","","","","","","","","","",""
"","","","","","html-slider-response","74","896359","0.0-17.0-1.19","23e4e6c8-96b3-4791-b8dc-05b9530d7211","null","
                  <p style=""text-align: center;"">₪36
                                                <br>60%</p>
                  <p id=""wtp"" style=""text-align:center; margin-top: 0px; margin-bottom: 0px; font-size: 40px"";>מוכנים לשלם: <span id=""c_p_y""></span></p>","null","evaluation","61","12","1C,7C,15C","60","36","25","","","","","","","","","","","","","","",""
"","","","","","html-keyboard-response","75","897716","0.0-17.0-2.19","23e4e6c8-96b3-4791-b8dc-05b9530d7211","null","<p style=""text-align: center;"">+</p>","null","fixation","","","","","","","","","","","","","","","","","","","","",""
"","","","","","html-slider-response","76","898729","0.0-17.0-0.20","23e4e6c8-96b3-4791-b8dc-05b9530d7211","1000","
                  <p style=""text-align: center;"">₪71
                                                <br>75%</p>
                  <p id=""wtp"" style=""text-align:center; margin-top: 0px; margin-bottom: 0px; font-size: 40px"";>&ensp;</p>","-","viewing","0","28","8B","","","","","","","","","","","","","","","","","",""
"","","","","","html-slider-response","77","902731","0.0-17.0-1.20","23e4e6c8-96b3-4791-b8dc-05b9530d7211","null","
                  <p style=""text-align: center;"">₪71
                                                <br>75%</p>
                  <p id=""wtp"" style=""text-align:center; margin-top: 0px; margin-bottom: 0px; font-size: 40px"";>מוכנים לשלם: <span id=""c_p_y""></span></p>","null","evaluation","33","28","8B","75","71","41","","","","","","","","","","","","","","",""
"","","","","","html-keyboard-response","78","903468","0.0-17.0-2.20","23e4e6c8-96b3-4791-b8dc-05b9530d7211","null","<p style=""text-align: center;"">+</p>","null","fixation","","","","","","","","","","","","","","","","","","","","",""
"","","","","","html-slider-response","79","904469","0.0-17.0-0.21","23e4e6c8-96b3-4791-b8dc-05b9530d7211","1000","
                  <p style=""text-align: center;"">₪79
                                                <br>40%</p>
                  <p id=""wtp"" style=""text-align:center; margin-top: 0px; margin-bottom: 0px; font-size: 40px"";>&ensp;</p>","-","viewing","0","30","9B","","","","","","","","","","","","","","","","","",""
"","","","","","html-slider-response","80","908483","0.0-17.0-1.21","23e4e6c8-96b3-4791-b8dc-05b9530d7211","null","
                  <p style=""text-align: center;"">₪79
                                                <br>40%</p>
                  <p id=""wtp"" style=""text-align:center; margin-top: 0px; margin-bottom: 0px; font-size: 40px"";>מוכנים לשלם: <span id=""c_p_y""></span></p>","null","evaluation","66","30","9B","40","79","51","","","","","","","","","","","","","","",""
"","","","","","html-keyboard-response","81","909116","0.0-17.0-2.21","23e4e6c8-96b3-4791-b8dc-05b9530d7211","null","<p style=""text-align: center;"">+</p>","null","fixation","","","","","","","","","","","","","","","","","","","","",""
"","","","","","html-slider-response","82","910123","0.0-17.0-0.22","23e4e6c8-96b3-4791-b8dc-05b9530d7211","1000","
                  <p style=""text-align: center;"">₪58
                                                <br>40%</p>
                  <p id=""wtp"" style=""text-align:center; margin-top: 0px; margin-bottom: 0px; font-size: 40px"";>&ensp;</p>","-","viewing","0","20","10C,13A,19C,21B","","","","","","","","","","","","","","","","","",""
"","","","","","html-slider-response","83","914126","0.0-17.0-1.22","23e4e6c8-96b3-4791-b8dc-05b9530d7211","null","
                  <p style=""text-align: center;"">₪58
                                                <br>40%</p>
                  <p id=""wtp"" style=""text-align:center; margin-top: 0px; margin-bottom: 0px; font-size: 40px"";>מוכנים לשלם: <span id=""c_p_y""></span></p>","null","evaluation","4","20","10C,13A,19C,21B","40","58","24","","","","","","","","","","","","","","",""
"","","","","","html-keyboard-response","84","915260","0.0-17.0-2.22","23e4e6c8-96b3-4791-b8dc-05b9530d7211","null","<p style=""text-align: center;"">+</p>","null","fixation","","","","","","","","","","","","","","","","","","","","",""
"","","","","","html-slider-response","85","916265","0.0-17.0-0.23","23e4e6c8-96b3-4791-b8dc-05b9530d7211","1000","
                  <p style=""text-align: center;"">₪58
                                                <br>45%</p>
                  <p id=""wtp"" style=""text-align:center; margin-top: 0px; margin-bottom: 0px; font-size: 40px"";>&ensp;</p>","-","viewing","0","21","11C,18C,25A","","","","","","","","","","","","","","","","","",""
"","","","","","html-slider-response","86","920282","0.0-17.0-1.23","23e4e6c8-96b3-4791-b8dc-05b9530d7211","null","
                  <p style=""text-align: center;"">₪58
                                                <br>45%</p>
                  <p id=""wtp"" style=""text-align:center; margin-top: 0px; margin-bottom: 0px; font-size: 40px"";>מוכנים לשלם: <span id=""c_p_y""></span></p>","null","evaluation","77","21","11C,18C,25A","45","58","19","","","","","","","","","","","","","","",""
"","","","","","html-keyboard-response","87","921271","0.0-17.0-2.23","23e4e6c8-96b3-4791-b8dc-05b9530d7211","null","<p style=""text-align: center;"">+</p>","null","fixation","","","","","","","","","","","","","","","","","","","","",""
"","","","","","html-slider-response","88","922273","0.0-17.0-0.24","23e4e6c8-96b3-4791-b8dc-05b9530d7211","1000","
                  <p style=""text-align: center;"">₪4
                                                <br>75%</p>
                  <p id=""wtp"" style=""text-align:center; margin-top: 0px; margin-bottom: 0px; font-size: 40px"";>&ensp;</p>","-","viewing","0","3","12B,20B,23B,27C,29C","","","","","","","","","","","","","","","","","",""
"","","","","","html-slider-response","89","926278","0.0-17.0-1.24","23e4e6c8-96b3-4791-b8dc-05b9530d7211","null","
                  <p style=""text-align: center;"">₪4
                                                <br>75%</p>
                  <p id=""wtp"" style=""text-align:center; margin-top: 0px; margin-bottom: 0px; font-size: 40px"";>מוכנים לשלם: <span id=""c_p_y""></span></p>","null","evaluation","59","3","12B,20B,23B,27C,29C","75","4","8","","","","","","","","","","","","","","",""
"","","","","","html-keyboard-response","90","927005","0.0-17.0-2.24","23e4e6c8-96b3-4791-b8dc-05b9530d7211","null","<p style=""text-align: center;"">+</p>","null","fixation","","","","","","","","","","","","","","","","","","","","",""
"","","","","","html-slider-response","91","928008","0.0-17.0-0.25","23e4e6c8-96b3-4791-b8dc-05b9530d7211","1000","
                  <p style=""text-align: center;"">₪11
                                                <br>20%</p>
                  <p id=""wtp"" style=""text-align:center; margin-top: 0px; margin-bottom: 0px; font-size: 40px"";>&ensp;</p>","-","viewing","0","4","12C,17C,23C,28C","","","","","","","","","","","","","","","","","",""
"","","","","","html-slider-response","92","932019","0.0-17.0-1.25","23e4e6c8-96b3-4791-b8dc-05b9530d7211","null","
                  <p style=""text-align: center;"">₪11
                                                <br>20%</p>
                  <p id=""wtp"" style=""text-align:center; margin-top: 0px; margin-bottom: 0px; font-size: 40px"";>מוכנים לשלם: <span id=""c_p_y""></span></p>","null","evaluation","14","4","12C,17C,23C,28C","20","11","10","","","","","","","","","","","","","","",""
"","","","","","html-keyboard-response","93","932742","0.0-17.0-2.25","23e4e6c8-96b3-4791-b8dc-05b9530d7211","null","<p style=""text-align: center;"">+</p>","null","fixation","","","","","","","","","","","","","","","","","","","","",""
"","","","","","html-slider-response","94","933744","0.0-17.0-0.26","23e4e6c8-96b3-4791-b8dc-05b9530d7211","1000","
                  <p style=""text-align: center;"">₪36
                                                <br>75%</p>
                  <p id=""wtp"" style=""text-align:center; margin-top: 0px; margin-bottom: 0px; font-size: 40px"";>&ensp;</p>","-","viewing","0","14","4B,5A,13B,16B","","","","","","","","","","","","","","","","","",""
"","","","","","html-slider-response","95","937389","0.0-17.0-1.26","23e4e6c8-96b3-4791-b8dc-05b9530d7211","3644","
                  <p style=""text-align: center;"">₪36
                                                <br>75%</p>
                  <p id=""wtp"" style=""text-align:center; margin-top: 0px; margin-bottom: 0px; font-size: 40px"";>מוכנים לשלם: <span id=""c_p_y""></span></p>","26","evaluation","42","14","4B,5A,13B,16B","75","36","26","","","","","","","","","","","","","","",""
"","","","","","html-keyboard-response","96","938105","0.0-17.0-2.26","23e4e6c8-96b3-4791-b8dc-05b9530d7211","null","<p style=""text-align: center;"">+</p>","null","fixation","","","","","","","","","","","","","","","","","","","","",""
"","","","","","html-slider-response","97","939120","0.0-17.0-0.27","23e4e6c8-96b3-4791-b8dc-05b9530d7211","1000","
                  <p style=""text-align: center;"">₪39
                                                <br>65%</p>
                  <p id=""wtp"" style=""text-align:center; margin-top: 0px; margin-bottom: 0px; font-size: 40px"";>&ensp;</p>","-","viewing","0","16","1A,15A,26C","","","","","","","","","","","","","","","","","",""
"","","","","","html-slider-response","98","943129","0.0-17.0-1.27","23e4e6c8-96b3-4791-b8dc-05b9530d7211","null","
                  <p style=""text-align: center;"">₪39
                                                <br>65%</p>
                  <p id=""wtp"" style=""text-align:center; margin-top: 0px; margin-bottom: 0px; font-size: 40px"";>מוכנים לשלם: <span id=""c_p_y""></span></p>","null","evaluation","28","16","1A,15A,26C","65","39","33","","","","","","","","","","","","","","",""
"","","","","","html-keyboard-response","99","943971","0.0-17.0-2.27","23e4e6c8-96b3-4791-b8dc-05b9530d7211","null","<p style=""text-align: center;"">+</p>","null","fixation","","","","","","","","","","","","","","","","","","","","",""
"","","","","","html-slider-response","100","944974","0.0-17.0-0.28","23e4e6c8-96b3-4791-b8dc-05b9530d7211","1000","
                  <p style=""text-align: center;"">₪43
                                                <br>75%</p>
                  <p id=""wtp"" style=""text-align:center; margin-top: 0px; margin-bottom: 0px; font-size: 40px"";>&ensp;</p>","-","viewing","0","18","11B,19B,24A,26A","","","","","","","","","","","","","","","","","",""
"","","","","","html-slider-response","101","948985","0.0-17.0-1.28","23e4e6c8-96b3-4791-b8dc-05b9530d7211","null","
                  <p style=""text-align: center;"">₪43
                                                <br>75%</p>
                  <p id=""wtp"" style=""text-align:center; margin-top: 0px; margin-bottom: 0px; font-size: 40px"";>מוכנים לשלם: <span id=""c_p_y""></span></p>","null","evaluation","77","18","11B,19B,24A,26A","75","43","33","","","","","","","","","","","","","","",""
"","","","","","html-keyboard-response","102","950033","0.0-17.0-2.28","23e4e6c8-96b3-4791-b8dc-05b9530d7211","null","<p style=""text-align: center;"">+</p>","null","fixation","","","","","","","","","","","","","","","","","","","","",""
"","","","","","html-slider-response","103","951041","0.0-17.0-0.29","23e4e6c8-96b3-4791-b8dc-05b9530d7211","1000","
                  <p style=""text-align: center;"">₪71
                                                <br>45%</p>
                  <p id=""wtp"" style=""text-align:center; margin-top: 0px; margin-bottom: 0px; font-size: 40px"";>&ensp;</p>","-","viewing","0","26","2B,16A","","","","","","","","","","","","","","","","","",""
"","","","","","html-slider-response","104","954989","0.0-17.0-1.29","23e4e6c8-96b3-4791-b8dc-05b9530d7211","3947","
                  <p style=""text-align: center;"">₪71
                                                <br>45%</p>
                  <p id=""wtp"" style=""text-align:center; margin-top: 0px; margin-bottom: 0px; font-size: 40px"";>מוכנים לשלם: <span id=""c_p_y""></span></p>","38","evaluation","64","26","2B,16A","45","71","38","","","","","","","","","","","","","","",""
"","","","","","html-keyboard-response","105","956066","0.0-17.0-2.29","23e4e6c8-96b3-4791-b8dc-05b9530d7211","null","<p style=""text-align: center;"">+</p>","null","fixation","","","","","","","","","","","","","","","","","","","","",""
"","","","","","html-slider-response","106","957078","0.0-17.0-0.30","23e4e6c8-96b3-4791-b8dc-05b9530d7211","1000","
                  <p style=""text-align: center;"">₪39
                                                <br>60%</p>
                  <p id=""wtp"" style=""text-align:center; margin-top: 0px; margin-bottom: 0px; font-size: 40px"";>&ensp;</p>","-","viewing","0","15","9C,25B","","","","","","","","","","","","","","","","","",""
"","","","","","html-slider-response","107","961080","0.0-17.0-1.30","23e4e6c8-96b3-4791-b8dc-05b9530d7211","null","
                  <p style=""text-align: center;"">₪39
                                                <br>60%</p>
                  <p id=""wtp"" style=""text-align:center; margin-top: 0px; margin-bottom: 0px; font-size: 40px"";>מוכנים לשלם: <span id=""c_p_y""></span></p>","null","evaluation","8","15","9C,25B","60","39","13","","","","","","","","","","","","","","",""
"","","","","","html-keyboard-response","108","961687","0.0-17.0-2.30","23e4e6c8-96b3-4791-b8dc-05b9530d7211","null","<p style=""text-align: center;"">+</p>","null","fixation","","","","","","","","","","","","","","","","","","","","",""
"","","","","","html-keyboard-response","109","962690","0.0-18.0","23e4e6c8-96b3-4791-b8dc-05b9530d7211","null","<p style=""text-align: center;"">+</p>","null","fixation","","","","","","","","","","","","","","","","","","","","",""
"","","","","","html-keyboard-response","110","963837","0.0-19.0","23e4e6c8-96b3-4791-b8dc-05b9530d7211","null","<p>הפסקה.
          <br>לחצו כדי להמשיך.</p>","1","scan_wait","","","","","","","","","","","","","","","","","","","","",""
"","","","","","html-keyboard-response","111","964843","0.0-20.0","23e4e6c8-96b3-4791-b8dc-05b9530d7211","null","<p style=""text-align: center;"">+</p>","null","fixation","","","","","","","","","","","","","","","","","","","","",""
"","","","","","html-slider-response","112","965849","0.0-21.0-0.0","23e4e6c8-96b3-4791-b8dc-05b9530d7211","1000","
                  <p style=""text-align: center;"">₪64
                                                <br>50%</p>
                  <p id=""wtp"" style=""text-align:center; margin-top: 0px; margin-bottom: 0px; font-size: 40px"";>&ensp;</p>","-","viewing","0","25","1B,3B,4A","","","","","","","","","","","","","","","","","",""
"","","","","","html-slider-response","113","969701","0.0-21.0-1.0","23e4e6c8-96b3-4791-b8dc-05b9530d7211","3852","
                  <p style=""text-align: center;"">₪64
                                                <br>50%</p>
                  <p id=""wtp"" style=""text-align:center; margin-top: 0px; margin-bottom: 0px; font-size: 40px"";>מוכנים לשלם: <span id=""c_p_y""></span></p>","22","evaluation","71","25","1B,3B,4A","50","64","22","","","","","","","","","","","","","","",""
"","","","","","html-keyboard-response","114","970468","0.0-21.0-2.0","23e4e6c8-96b3-4791-b8dc-05b9530d7211","null","<p style=""text-align: center;"">+</p>","null","fixation","","","","","","","","","","","","","","","","","","","","",""
"","","","","","html-slider-response","115","971477","0.0-21.0-0.1","23e4e6c8-96b3-4791-b8dc-05b9530d7211","1000","
                  <p style=""text-align: center;"">₪79
                                                <br>40%</p>
                  <p id=""wtp"" style=""text-align:center; margin-top: 0px; margin-bottom: 0px; font-size: 40px"";>&ensp;</p>","-","viewing","0","30","9B","","","","","","","","","","","","","","","","","",""
"","","","","","html-slider-response","116","973853","0.0-21.0-1.1","23e4e6c8-96b3-4791-b8dc-05b9530d7211","2375","
                  <p style=""text-align: center;"">₪79
                                                <br>40%</p>
                  <p id=""wtp"" style=""text-align:center; margin-top: 0px; margin-bottom: 0px; font-size: 40px"";>מוכנים לשלם: <span id=""c_p_y""></span></p>","39","evaluation","22","30","9B","40","79","39","","","","","","","","","","","","","","",""
"","","","","","html-keyboard-response","117","974573","0.0-21.0-2.1","23e4e6c8-96b3-4791-b8dc-05b9530d7211","null","<p style=""text-align: center;"">+</p>","null","fixation","","","","","","","","","","","","","","","","","","","","",""
"","","","","","html-slider-response","118","975582","0.0-21.0-0.2","23e4e6c8-96b3-4791-b8dc-05b9530d7211","1000","
                  <p style=""text-align: center;"">₪71
                                                <br>45%</p>
                  <p id=""wtp"" style=""text-align:center; margin-top: 0px; margin-bottom: 0px; font-size: 40px"";>&ensp;</p>","-","viewing","0","26","2B,16A","","","","","","","","","","","","","","","","","",""
"","","","","","html-slider-response","119","979599","0.0-21.0-1.2","23e4e6c8-96b3-4791-b8dc-05b9530d7211","null","
                  <p style=""text-align: center;"">₪71
                                                <br>45%</p>
                  <p id=""wtp"" style=""text-align:center; margin-top: 0px; margin-bottom: 0px; font-size: 40px"";>מוכנים לשלם: <span id=""c_p_y""></span></p>","null","evaluation","70","26","2B,16A","45","71","35","","","","","","","","","","","","","","",""
"","","","","","html-keyboard-response","120","980792","0.0-21.0-2.2","23e4e6c8-96b3-4791-b8dc-05b9530d7211","null","<p style=""text-align: center;"">+</p>","null","fixation","","","","","","","","","","","","","","","","","","","","",""
"","","","","","html-slider-response","121","981797","0.0-21.0-0.3","23e4e6c8-96b3-4791-b8dc-05b9530d7211","1000","
                  <p style=""text-align: center;"">₪79
                                                <br>65%</p>
                  <p id=""wtp"" style=""text-align:center; margin-top: 0px; margin-bottom: 0px; font-size: 40px"";>&ensp;</p>","-","viewing","0","31","8A","","","","","","","","","","","","","","","","","",""
"","","","","","html-slider-response","122","985813","0.0-21.0-1.3","23e4e6c8-96b3-4791-b8dc-05b9530d7211","null","
                  <p style=""text-align: center;"">₪79
                                                <br>65%</p>
                  <p id=""wtp"" style=""text-align:center; margin-top: 0px; margin-bottom: 0px; font-size: 40px"";>מוכנים לשלם: <span id=""c_p_y""></span></p>","null","evaluation","38","31","8A","65","79","45","","","","","","","","","","","","","","",""
"","","","","","html-keyboard-response","123","986842","0.0-21.0-2.3","23e4e6c8-96b3-4791-b8dc-05b9530d7211","null","<p style=""text-align: center;"">+</p>","null","fixation","","","","","","","","","","","","","","","","","","","","",""
"","","","","","html-slider-response","124","987852","0.0-21.0-0.4","23e4e6c8-96b3-4791-b8dc-05b9530d7211","1000","
                  <p style=""text-align: center;"">₪39
                                                <br>60%</p>
                  <p id=""wtp"" style=""text-align:center; margin-top: 0px; margin-bottom: 0px; font-size: 40px"";>&ensp;</p>","-","viewing","0","15","9C,25B","","","","","","","","","","","","","","","","","",""
"","","","","","html-slider-response","125","991869","0.0-21.0-1.4","23e4e6c8-96b3-4791-b8dc-05b9530d7211","null","
                  <p style=""text-align: center;"">₪39
                                                <br>60%</p>
                  <p id=""wtp"" style=""text-align:center; margin-top: 0px; margin-bottom: 0px; font-size: 40px"";>מוכנים לשלם: <span id=""c_p_y""></span></p>","null","evaluation","22","15","9C,25B","60","39","49","","","","","","","","","","","","","","",""
"","","","","","html-keyboard-response","126","992687","0.0-21.0-2.4","23e4e6c8-96b3-4791-b8dc-05b9530d7211","null","<p style=""text-align: center;"">+</p>","null","fixation","","","","","","","","","","","","","","","","","","","","",""
"","","","","","html-slider-response","127","993693","0.0-21.0-0.5","23e4e6c8-96b3-4791-b8dc-05b9530d7211","1000","
                  <p style=""text-align: center;"">₪4
                                                <br>25%</p>
                  <p id=""wtp"" style=""text-align:center; margin-top: 0px; margin-bottom: 0px; font-size: 40px"";>&ensp;</p>","-","viewing","0","1","6C,29B,30C","","","","","","","","","","","","","","","","","",""
"","","","","","html-slider-response","128","997705","0.0-21.0-1.5","23e4e6c8-96b3-4791-b8dc-05b9530d7211","null","
                  <p style=""text-align: center;"">₪4
                                                <br>25%</p>
                  <p id=""wtp"" style=""text-align:center; margin-top: 0px; margin-bottom: 0px; font-size: 40px"";>מוכנים לשלם: <span id=""c_p_y""></span></p>","null","evaluation","26","1","6C,29B,30C","25","4","5","","","","","","","","","","","","","","",""
"","","","","","html-keyboard-response","129","999126","0.0-21.0-2.5","23e4e6c8-96b3-4791-b8dc-05b9530d7211","null","<p style=""text-align: center;"">+</p>","null","fixation","","","","","","","","","","","","","","","","","","","","",""
"","","","","","html-slider-response","130","1000137","0.0-21.0-0.6","23e4e6c8-96b3-4791-b8dc-05b9530d7211","1000","
                  <p style=""text-align: center;"">₪11
                                                <br>45%</p>
                  <p id=""wtp"" style=""text-align:center; margin-top: 0px; margin-bottom: 0px; font-size: 40px"";>&ensp;</p>","-","viewing","0","6","14B,21C,25C","","","","","","","","","","","","","","","","","",""
"","","","","","html-slider-response","131","1003461","0.0-21.0-1.6","23e4e6c8-96b3-4791-b8dc-05b9530d7211","3323","
                  <p style=""text-align: center;"">₪11
                                                <br>45%</p>
                  <p id=""wtp"" style=""text-align:center; margin-top: 0px; margin-bottom: 0px; font-size: 40px"";>מוכנים לשלם: <span id=""c_p_y""></span></p>","8","evaluation","31","6","14B,21C,25C","45","11","8","","","","","","","","","","","","","","",""
"","","","","","html-keyboard-response","132","1004786","0.0-21.0-2.6","23e4e6c8-96b3-4791-b8dc-05b9530d7211","null","<p style=""text-align: center;"">+</p>","null","fixation","","","","","","","","","","","","","","","","","","","","",""
"","","","","","html-slider-response","133","1005798","0.0-21.0-0.7","23e4e6c8-96b3-4791-b8dc-05b9530d7211","1000","
                  <p style=""text-align: center;"">₪39
                                                <br>65%</p>
                  <p id=""wtp"" style=""text-align:center; margin-top: 0px; margin-bottom: 0px; font-size: 40px"";>&ensp;</p>","-","viewing","0","16","1A,15A,26C","","","","","","","","","","","","","","","","","",""
"","","","","","html-slider-response","134","1009802","0.0-21.0-1.7","23e4e6c8-96b3-4791-b8dc-05b9530d7211","null","
                  <p style=""text-align: center;"">₪39
                                                <br>65%</p>
                  <p id=""wtp"" style=""text-align:center; margin-top: 0px; margin-bottom: 0px; font-size: 40px"";>מוכנים לשלם: <span id=""c_p_y""></span></p>","null","evaluation","52","16","1A,15A,26C","65","39","17","","","","","","","","","","","","","","",""
"","","","","","html-keyboard-response","135","1010606","0.0-21.0-2.7","23e4e6c8-96b3-4791-b8dc-05b9530d7211","null","<p style=""text-align: center;"">+</p>","null","fixation","","","","","","","","","","","","","","","","","","","","",""
"","","","","","html-slider-response","136","1011608","0.0-21.0-0.8","23e4e6c8-96b3-4791-b8dc-05b9530d7211","1000","
                  <p style=""text-align: center;"">₪11
                                                <br>75%</p>
                  <p id=""wtp"" style=""text-align:center; margin-top: 0px; margin-bottom: 0px; font-size: 40px"";>&ensp;</p>","-","viewing","0","7","6B,18B,22C,24C,29A","","","","","","","","","","","","","","","","","",""
"","","","","","html-slider-response","137","1013677","0.0-21.0-1.8","23e4e6c8-96b3-4791-b8dc-05b9530d7211","2068","
                  <p style=""text-align: center;"">₪11
                                                <br>75%</p>
                  <p id=""wtp"" style=""text-align:center; margin-top: 0px; margin-bottom: 0px; font-size: 40px"";>מוכנים לשלם: <span id=""c_p_y""></span></p>","10","evaluation","34","7","6B,18B,22C,24C,29A","75","11","10","","","","","","","","","","","","","","",""
"","","","","","html-keyboard-response","138","1015022","0.0-21.0-2.8","23e4e6c8-96b3-4791-b8dc-05b9530d7211","null","<p style=""text-align: center;"">+</p>","null","fixation","","","","","","","","","","","","","","","","","","","","",""
"","","","","","html-slider-response","139","1016027","0.0-21.0-0.9","23e4e6c8-96b3-4791-b8dc-05b9530d7211","1000","
                  <p style=""text-align: center;"">₪43
                                                <br>75%</p>
                  <p id=""wtp"" style=""text-align:center; margin-top: 0px; margin-bottom: 0px; font-size: 40px"";>&ensp;</p>","-","viewing","0","18","11B,19B,24A,26A","","","","","","","","","","","","","","","","","",""
"","","","","","html-slider-response","140","1019701","0.0-21.0-1.9","23e4e6c8-96b3-4791-b8dc-05b9530d7211","3672","
                  <p style=""text-align: center;"">₪43
                                                <br>75%</p>
                  <p id=""wtp"" style=""text-align:center; margin-top: 0px; margin-bottom: 0px; font-size: 40px"";>מוכנים לשלם: <span id=""c_p_y""></span></p>","33","evaluation","33","18","11B,19B,24A,26A","75","43","33","","","","","","","","","","","","","","",""
"","","","","","html-keyboard-response","141","1020827","0.0-21.0-2.9","23e4e6c8-96b3-4791-b8dc-05b9530d7211","null","<p style=""text-align: center;"">+</p>","null","fixation","","","","","","","","","","","","","","","","","","","","",""
"","","","","","html-slider-response","142","1021835","0.0-21.0-0.10","23e4e6c8-96b3-4791-b8dc-05b9530d7211","1000","
                  <p style=""text-align: center;"">₪36
                                                <br>30%</p>
                  <p id=""wtp"" style=""text-align:center; margin-top: 0px; margin-bottom: 0px; font-size: 40px"";>&ensp;</p>","-","viewing","0","11","3C,20A,22A","","","","","","","","","","","","","","","","","",""
"","","","","","html-slider-response","143","1025468","0.0-21.0-1.10","23e4e6c8-96b3-4791-b8dc-05b9530d7211","3633","
                  <p style=""text-align: center;"">₪36
                                                <br>30%</p>
                  <p id=""wtp"" style=""text-align:center; margin-top: 0px; margin-bottom: 0px; font-size: 40px"";>מוכנים לשלם: <span id=""c_p_y""></span></p>","15","evaluation","48","11","3C,20A,22A","30","36","15","","","","","","","","","","","","","","",""
"","","","","","html-keyboard-response","144","1026970","0.0-21.0-2.10","23e4e6c8-96b3-4791-b8dc-05b9530d7211","null","<p style=""text-align: center;"">+</p>","null","fixation","","","","","","","","","","","","","","","","","","","","",""
"","","","","","html-slider-response","145","1027976","0.0-21.0-0.11","23e4e6c8-96b3-4791-b8dc-05b9530d7211","1000","
                  <p style=""text-align: center;"">₪71
                                                <br>75%</p>
                  <p id=""wtp"" style=""text-align:center; margin-top: 0px; margin-bottom: 0px; font-size: 40px"";>&ensp;</p>","-","viewing","0","28","8B","","","","","","","","","","","","","","","","","",""
"","","","","","html-slider-response","146","1031829","0.0-21.0-1.11","23e4e6c8-96b3-4791-b8dc-05b9530d7211","3852","
                  <p style=""text-align: center;"">₪71
                                                <br>75%</p>
                  <p id=""wtp"" style=""text-align:center; margin-top: 0px; margin-bottom: 0px; font-size: 40px"";>מוכנים לשלם: <span id=""c_p_y""></span></p>","37","evaluation","8","28","8B","75","71","37","","","","","","","","","","","","","","",""
"","","","","","html-keyboard-response","147","1033064","0.0-21.0-2.11","23e4e6c8-96b3-4791-b8dc-05b9530d7211","null","<p style=""text-align: center;"">+</p>","null","fixation","","","","","","","","","","","","","","","","","","","","",""
"","","","","","html-slider-response","148","1034081","0.0-21.0-0.12","23e4e6c8-96b3-4791-b8dc-05b9530d7211","1000","
                  <p style=""text-align: center;"">₪36
                                                <br>70%</p>
                  <p id=""wtp"" style=""text-align:center; margin-top: 0px; margin-bottom: 0px; font-size: 40px"";>&ensp;</p>","-","viewing","0","13","3A,5C,10B","","","","","","","","","","","","","","","","","",""
"","","","","","html-slider-response","149","1038099","0.0-21.0-1.12","23e4e6c8-96b3-4791-b8dc-05b9530d7211","null","
                  <p style=""text-align: center;"">₪36
                                                <br>70%</p>
                  <p id=""wtp"" style=""text-align:center; margin-top: 0px; margin-bottom: 0px; font-size: 40px"";>מוכנים לשלם: <span id=""c_p_y""></span></p>","null","evaluation","76","13","3A,5C,10B","70","36","13","","","","","","","","","","","","","","",""
"","","","","","html-keyboard-response","150","1039033","0.0-21.0-2.12","23e4e6c8-96b3-4791-b8dc-05b9530d7211","null","<p style=""text-align: center;"">+</p>","null","fixation","","","","","","","","","","","","","","","","","","","","",""
"","","","","","html-slider-response","151","1040039","0.0-21.0-0.13","23e4e6c8-96b3-4791-b8dc-05b9530d7211","1000","
                  <p style=""text-align: center;"">₪61
                                                <br>45%</p>
                  <p id=""wtp"" style=""text-align:center; margin-top: 0px; margin-bottom: 0px; font-size: 40px"";>&ensp;</p>","-","viewing","0","22","10A,11A","","","","","","","","","","","","","","","","","",""
"","","","","","html-slider-response","152","1044041","0.0-21.0-1.13","23e4e6c8-96b3-4791-b8dc-05b9530d7211","null","
                  <p style=""text-align: center;"">₪61
                                                <br>45%</p>
                  <p id=""wtp"" style=""text-align:center; margin-top: 0px; margin-bottom: 0px; font-size: 40px"";>מוכנים לשלם: <span id=""c_p_y""></span></p>","null","evaluation","20","22","10A,11A","45","61","30","","","","","","","","","","","","","","",""
"","","","","","html-keyboard-response","153","1044656","0.0-21.0-2.13","23e4e6c8-96b3-4791-b8dc-05b9530d7211","null","<p style=""text-align: center;"">+</p>","null","fixation","","","","","","","","","","","","","","","","","","","","",""
"","","","","","html-slider-response","154","1045668","0.0-21.0-0.14","23e4e6c8-96b3-4791-b8dc-05b9530d7211","1000","
                  <p style=""text-align: center;"">₪18
                                                <br>25%</p>
                  <p id=""wtp"" style=""text-align:center; margin-top: 0px; margin-bottom: 0px; font-size: 40px"";>&ensp;</p>","-","viewing","0","9","14A,23A","","","","","","","","","","","","","","","","","",""
"","","","","","html-slider-response","155","1048309","0.0-21.0-1.14","23e4e6c8-96b3-4791-b8dc-05b9530d7211","2640","
                  <p style=""text-align: center;"">₪18
                                                <br>25%</p>
                  <p id=""wtp"" style=""text-align:center; margin-top: 0px; margin-bottom: 0px; font-size: 40px"";>מוכנים לשלם: <span id=""c_p_y""></span></p>","4","evaluation","10","9","14A,23A","25","18","4","","","","","","","","","","","","","","",""
"","","","","","html-keyboard-response","156","1049752","0.0-21.0-2.14","23e4e6c8-96b3-4791-b8dc-05b9530d7211","null","<p style=""text-align: center;"">+</p>","null","fixation","","","","","","","","","","","","","","","","","","","","",""
"","","","","","html-slider-response","157","1050768","0.0-21.0-0.15","23e4e6c8-96b3-4791-b8dc-05b9530d7211","1000","
                  <p style=""text-align: center;"">₪36
                                                <br>75%</p>
                  <p id=""wtp"" style=""text-align:center; margin-top: 0px; margin-bottom: 0px; font-size: 40px"";>&ensp;</p>","-","viewing","0","14","4B,5A,13B,16B","","","","","","","","","","","","","","","","","",""
"","","","","","html-slider-response","158","1054776","0.0-21.0-1.15","23e4e6c8-96b3-4791-b8dc-05b9530d7211","null","
                  <p style=""text-align: center;"">₪36
                                                <br>75%</p>
                  <p id=""wtp"" style=""text-align:center; margin-top: 0px; margin-bottom: 0px; font-size: 40px"";>מוכנים לשלם: <span id=""c_p_y""></span></p>","null","evaluation","40","14","4B,5A,13B,16B","75","36","47","","","","","","","","","","","","","","",""
"","","","","","html-keyboard-response","159","1055661","0.0-21.0-2.15","23e4e6c8-96b3-4791-b8dc-05b9530d7211","null","<p style=""text-align: center;"">+</p>","null","fixation","","","","","","","","","","","","","","","","","","","","",""
"","","","","","html-slider-response","160","1056669","0.0-21.0-0.16","23e4e6c8-96b3-4791-b8dc-05b9530d7211","1000","
                  <p style=""text-align: center;"">₪4
                                                <br>75%</p>
                  <p id=""wtp"" style=""text-align:center; margin-top: 0px; margin-bottom: 0px; font-size: 40px"";>&ensp;</p>","-","viewing","0","3","12B,20B,23B,27C,29C","","","","","","","","","","","","","","","","","",""
"","","","","","html-slider-response","161","1058525","0.0-21.0-1.16","23e4e6c8-96b3-4791-b8dc-05b9530d7211","1856","
                  <p style=""text-align: center;"">₪4
                                                <br>75%</p>
                  <p id=""wtp"" style=""text-align:center; margin-top: 0px; margin-bottom: 0px; font-size: 40px"";>מוכנים לשלם: <span id=""c_p_y""></span></p>","3","evaluation","15","3","12B,20B,23B,27C,29C","75","4","3","","","","","","","","","","","","","","",""
"","","","","","html-keyboard-response","162","1059196","0.0-21.0-2.16","23e4e6c8-96b3-4791-b8dc-05b9530d7211","null","<p style=""text-align: center;"">+</p>","null","fixation","","","","","","","","","","","","","","","","","","","","",""
"","","","","","html-slider-response","163","1060207","0.0-21.0-0.17","23e4e6c8-96b3-4791-b8dc-05b9530d7211","1000","
                  <p style=""text-align: center;"">₪36
                                                <br>60%</p>
                  <p id=""wtp"" style=""text-align:center; margin-top: 0px; margin-bottom: 0px; font-size: 40px"";>&ensp;</p>","-","viewing","0","12","1C,7C,15C","","","","","","","","","","","","","","","","","",""
"","","","","","html-slider-response","164","1064210","0.0-21.0-1.17","23e4e6c8-96b3-4791-b8dc-05b9530d7211","null","
                  <p style=""text-align: center;"">₪36
                                                <br>60%</p>
                  <p id=""wtp"" style=""text-align:center; margin-top: 0px; margin-bottom: 0px; font-size: 40px"";>מוכנים לשלם: <span id=""c_p_y""></span></p>","null","evaluation","6","12","1C,7C,15C","60","36","26","","","","","","","","","","","","","","",""
"","","","","","html-keyboard-response","165","1065334","0.0-21.0-2.17","23e4e6c8-96b3-4791-b8dc-05b9530d7211","null","<p style=""text-align: center;"">+</p>","null","fixation","","","","","","","","","","","","","","","","","","","","",""
"","","","","","html-slider-response","166","1066346","0.0-21.0-0.18","23e4e6c8-96b3-4791-b8dc-05b9530d7211","1000","
                  <p style=""text-align: center;"">₪18
                                                <br>50%</p>
                  <p id=""wtp"" style=""text-align:center; margin-top: 0px; margin-bottom: 0px; font-size: 40px"";>&ensp;</p>","-","viewing","0","10","2C,16C,22B,28A","","","","","","","","","","","","","","","","","",""
"","","","","","html-slider-response","167","1070363","0.0-21.0-1.18","23e4e6c8-96b3-4791-b8dc-05b9530d7211","null","
                  <p style=""text-align: center;"">₪18
                                                <br>50%</p>
                  <p id=""wtp"" style=""text-align:center; margin-top: 0px; margin-bottom: 0px; font-size: 40px"";>מוכנים לשלם: <span id=""c_p_y""></span></p>","null","evaluation","39","10","2C,16C,22B,28A","50","18","12","","","","","","","","","","","","","","",""
"","","","","","html-keyboard-response","168","1071094","0.0-21.0-2.18","23e4e6c8-96b3-4791-b8dc-05b9530d7211","null","<p style=""text-align: center;"">+</p>","null","fixation","","","","","","","","","","","","","","","","","","","","",""
"","","","","","html-slider-response","169","1072101","0.0-21.0-0.19","23e4e6c8-96b3-4791-b8dc-05b9530d7211","1000","
                  <p style=""text-align: center;"">₪76
                                                <br>65%</p>
                  <p id=""wtp"" style=""text-align:center; margin-top: 0px; margin-bottom: 0px; font-size: 40px"";>&ensp;</p>","-","viewing","0","29","8C,19A,24B","","","","","","","","","","","","","","","","","",""
"","","","","","html-slider-response","170","1076102","0.0-21.0-1.19","23e4e6c8-96b3-4791-b8dc-05b9530d7211","null","
                  <p style=""text-align: center;"">₪76
                                                <br>65%</p>
                  <p id=""wtp"" style=""text-align:center; margin-top: 0px; margin-bottom: 0px; font-size: 40px"";>מוכנים לשלם: <span id=""c_p_y""></span></p>","null","evaluation","69","29","8C,19A,24B","65","76","52","","","","","","","","","","","","","","",""
"","","","","","html-keyboard-response","171","1076801","0.0-21.0-2.19","23e4e6c8-96b3-4791-b8dc-05b9530d7211","null","<p style=""text-align: center;"">+</p>","null","fixation","","","","","","","","","","","","","","","","","","","","",""
"","","","","","html-slider-response","172","1077812","0.0-21.0-0.20","23e4e6c8-96b3-4791-b8dc-05b9530d7211","1000","
                  <p style=""text-align: center;"">₪16
                                                <br>20%</p>
                  <p id=""wtp"" style=""text-align:center; margin-top: 0px; margin-bottom: 0px; font-size: 40px"";>&ensp;</p>","-","viewing","0","8","14C,17A,20C,27A","","","","","","","","","","","","","","","","","",""
"","","","","","html-slider-response","173","1081812","0.0-21.0-1.20","23e4e6c8-96b3-4791-b8dc-05b9530d7211","null","
                  <p style=""text-align: center;"">₪16
                                                <br>20%</p>
                  <p id=""wtp"" style=""text-align:center; margin-top: 0px; margin-bottom: 0px; font-size: 40px"";>מוכנים לשלם: <span id=""c_p_y""></span></p>","null","evaluation","49","8","14C,17A,20C,27A","20","16","11","","","","","","","","","","","","","","",""
"","","","","","html-keyboard-response","174","1082785","0.0-21.0-2.20","23e4e6c8-96b3-4791-b8dc-05b9530d7211","null","<p style=""text-align: center;"">+</p>","null","fixation","","","","","","","","","","","","","","","","","","","","",""
"","","","","","html-slider-response","175","1083793","0.0-21.0-0.21","23e4e6c8-96b3-4791-b8dc-05b9530d7211","1000","
                  <p style=""text-align: center;"">₪64
                                                <br>25%</p>
                  <p id=""wtp"" style=""text-align:center; margin-top: 0px; margin-bottom: 0px; font-size: 40px"";>&ensp;</p>","-","viewing","0","24","6A,21A","","","","","","","","","","","","","","","","","",""
"","","","","","html-slider-response","176","1087795","0.0-21.0-1.21","23e4e6c8-96b3-4791-b8dc-05b9530d7211","null","
                  <p style=""text-align: center;"">₪64
                                                <br>25%</p>
                  <p id=""wtp"" style=""text-align:center; margin-top: 0px; margin-bottom: 0px; font-size: 40px"";>מוכנים לשלם: <span id=""c_p_y""></span></p>","null","evaluation","52","24","6A,21A","25","64","7","","","","","","","","","","","","","","",""
"","","","","","html-keyboard-response","177","1089296","0.0-21.0-2.21","23e4e6c8-96b3-4791-b8dc-05b9530d7211","null","<p style=""text-align: center;"">+</p>","null","fixation","","","","","","","","","","","","","","","","","","","","",""
"","","","","","html-slider-response","178","1090299","0.0-21.0-0.22","23e4e6c8-96b3-4791-b8dc-05b9530d7211","1000","
                  <p style=""text-align: center;"">₪71
                                                <br>55%</p>
                  <p id=""wtp"" style=""text-align:center; margin-top: 0px; margin-bottom: 0px; font-size: 40px"";>&ensp;</p>","-","viewing","0","27","5B,18A","","","","","","","","","","","","","","","","","",""
"","","","","","html-slider-response","179","1094302","0.0-21.0-1.22","23e4e6c8-96b3-4791-b8dc-05b9530d7211","null","
                  <p style=""text-align: center;"">₪71
                                                <br>55%</p>
                  <p id=""wtp"" style=""text-align:center; margin-top: 0px; margin-bottom: 0px; font-size: 40px"";>מוכנים לשלם: <span id=""c_p_y""></span></p>","null","evaluation","67","27","5B,18A","55","71","32","","","","","","","","","","","","","","",""
"","","","","","html-keyboard-response","180","1095562","0.0-21.0-2.22","23e4e6c8-96b3-4791-b8dc-05b9530d7211","null","<p style=""text-align: center;"">+</p>","null","fixation","","","","","","","","","","","","","","","","","","","","",""
"","","","","","html-slider-response","181","1096577","0.0-21.0-0.23","23e4e6c8-96b3-4791-b8dc-05b9530d7211","1000","
                  <p style=""text-align: center;"">₪58
                                                <br>45%</p>
                  <p id=""wtp"" style=""text-align:center; margin-top: 0px; margin-bottom: 0px; font-size: 40px"";>&ensp;</p>","-","viewing","0","21","11C,18C,25A","","","","","","","","","","","","","","","","","",""
"","","","","","html-slider-response","182","1100453","0.0-21.0-1.23","23e4e6c8-96b3-4791-b8dc-05b9530d7211","3875","
                  <p style=""text-align: center;"">₪58
                                                <br>45%</p>
                  <p id=""wtp"" style=""text-align:center; margin-top: 0px; margin-bottom: 0px; font-size: 40px"";>מוכנים לשלם: <span id=""c_p_y""></span></p>","26","evaluation","78","21","11C,18C,25A","45","58","26","","","","","","","","","","","","","","",""
"","","","","","html-keyboard-response","183","1101902","0.0-21.0-2.23","23e4e6c8-96b3-4791-b8dc-05b9530d7211","null","<p style=""text-align: center;"">+</p>","null","fixation","","","","","","","","","","","","","","","","","","","","",""
"","","","","","html-slider-response","184","1102916","0.0-21.0-0.24","23e4e6c8-96b3-4791-b8dc-05b9530d7211","1000","
                  <p style=""text-align: center;"">₪11
                                                <br>25%</p>
                  <p id=""wtp"" style=""text-align:center; margin-top: 0px; margin-bottom: 0px; font-size: 40px"";>&ensp;</p>","-","viewing","0","5","12A,27B,28B,30B","","","","","","","","","","","","","","","","","",""
"","","","","","html-slider-response","185","1106918","0.0-21.0-1.24","23e4e6c8-96b3-4791-b8dc-05b9530d7211","null","
                  <p style=""text-align: center;"">₪11
                                                <br>25%</p>
                  <p id=""wtp"" style=""text-align:center; margin-top: 0px; margin-bottom: 0px; font-size: 40px"";>מוכנים לשלם: <span id=""c_p_y""></span></p>","null","evaluation","78","5","12A,27B,28B,30B","25","11","10","","","","","","","","","","","","","","",""
"","","","","","html-keyboard-response","186","1107767","0.0-21.0-2.24","23e4e6c8-96b3-4791-b8dc-05b9530d7211","null","<p style=""text-align: center;"">+</p>","null","fixation","","","","","","","","","","","","","","","","","","","","",""
"","","","","","html-slider-response","187","1108773","0.0-21.0-0.25","23e4e6c8-96b3-4791-b8dc-05b9530d7211","1000","
                  <p style=""text-align: center;"">₪4
                                                <br>50%</p>
                  <p id=""wtp"" style=""text-align:center; margin-top: 0px; margin-bottom: 0px; font-size: 40px"";>&ensp;</p>","-","viewing","0","2","4C,17B","","","","","","","","","","","","","","","","","",""
"","","","","","html-slider-response","188","1112774","0.0-21.0-1.25","23e4e6c8-96b3-4791-b8dc-05b9530d7211","null","
                  <p style=""text-align: center;"">₪4
                                                <br>50%</p>
                  <p id=""wtp"" style=""text-align:center; margin-top: 0px; margin-bottom: 0px; font-size: 40px"";>מוכנים לשלם: <span id=""c_p_y""></span></p>","null","evaluation","27","2","4C,17B","50","4","6","","","","","","","","","","","","","","",""
"","","","","","html-keyboard-response","189","1113357","0.0-21.0-2.25","23e4e6c8-96b3-4791-b8dc-05b9530d7211","null","<p style=""text-align: center;"">+</p>","null","fixation","","","","","","","","","","","","","","","","","","","","",""
"","","","","","html-slider-response","190","1114363","0.0-21.0-0.26","23e4e6c8-96b3-4791-b8dc-05b9530d7211","1000","
                  <p style=""text-align: center;"">₪11
                                                <br>20%</p>
                  <p id=""wtp"" style=""text-align:center; margin-top: 0px; margin-bottom: 0px; font-size: 40px"";>&ensp;</p>","-","viewing","0","4","12C,17C,23C,28C","","","","","","","","","","","","","","","","","",""
"","","","","","html-slider-response","191","1118375","0.0-21.0-1.26","23e4e6c8-96b3-4791-b8dc-05b9530d7211","null","
                  <p style=""text-align: center;"">₪11
                                                <br>20%</p>
                  <p id=""wtp"" style=""text-align:center; margin-top: 0px; margin-bottom: 0px; font-size: 40px"";>מוכנים לשלם: <span id=""c_p_y""></span></p>","null","evaluation","49","4","12C,17C,23C,28C","20","11","7","","","","","","","","","","","","","","",""
"","","","","","html-keyboard-response","192","1119321","0.0-21.0-2.26","23e4e6c8-96b3-4791-b8dc-05b9530d7211","null","<p style=""text-align: center;"">+</p>","null","fixation","","","","","","","","","","","","","","","","","","","","",""
"","","","","","html-slider-response","193","1120334","0.0-21.0-0.27","23e4e6c8-96b3-4791-b8dc-05b9530d7211","1000","
                  <p style=""text-align: center;"">₪43
                                                <br>60%</p>
                  <p id=""wtp"" style=""text-align:center; margin-top: 0px; margin-bottom: 0px; font-size: 40px"";>&ensp;</p>","-","viewing","0","17","2A,7A,9A,15B","","","","","","","","","","","","","","","","","",""
"","","","","","html-slider-response","194","1123925","0.0-21.0-1.27","23e4e6c8-96b3-4791-b8dc-05b9530d7211","3590","
                  <p style=""text-align: center;"">₪43
                                                <br>60%</p>
                  <p id=""wtp"" style=""text-align:center; margin-top: 0px; margin-bottom: 0px; font-size: 40px"";>מוכנים לשלם: <span id=""c_p_y""></span></p>","29","evaluation","28","17","2A,7A,9A,15B","60","43","29","","","","","","","","","","","","","","",""
"","","","","","html-keyboard-response","195","1124580","0.0-21.0-2.27","23e4e6c8-96b3-4791-b8dc-05b9530d7211","null","<p style=""text-align: center;"">+</p>","null","fixation","","","","","","","","","","","","","","","","","","","","",""
"","","","","","html-slider-response","196","1125589","0.0-21.0-0.28","23e4e6c8-96b3-4791-b8dc-05b9530d7211","1000","
                  <p style=""text-align: center;"">₪58
                                                <br>30%</p>
                  <p id=""wtp"" style=""text-align:center; margin-top: 0px; margin-bottom: 0px; font-size: 40px"";>&ensp;</p>","-","viewing","0","19","13C,30A","","","","","","","","","","","","","","","","","",""
"","","","","","html-slider-response","197","1128565","0.0-21.0-1.28","23e4e6c8-96b3-4791-b8dc-05b9530d7211","2975","
                  <p style=""text-align: center;"">₪58
                                                <br>30%</p>
                  <p id=""wtp"" style=""text-align:center; margin-top: 0px; margin-bottom: 0px; font-size: 40px"";>מוכנים לשלם: <span id=""c_p_y""></span></p>","15","evaluation","80","19","13C,30A","30","58","15","","","","","","","","","","","","","","",""
"","","","","","html-keyboard-response","198","1129873","0.0-21.0-2.28","23e4e6c8-96b3-4791-b8dc-05b9530d7211","null","<p style=""text-align: center;"">+</p>","null","fixation","","","","","","","","","","","","","","","","","","","","",""
"","","","","","html-slider-response","199","1130879","0.0-21.0-0.29","23e4e6c8-96b3-4791-b8dc-05b9530d7211","1000","
                  <p style=""text-align: center;"">₪58
                                                <br>40%</p>
                  <p id=""wtp"" style=""text-align:center; margin-top: 0px; margin-bottom: 0px; font-size: 40px"";>&ensp;</p>","-","viewing","0","20","10C,13A,19C,21B","","","","","","","","","","","","","","","","","",""
"","","","","","html-slider-response","200","1134894","0.0-21.0-1.29","23e4e6c8-96b3-4791-b8dc-05b9530d7211","null","
                  <p style=""text-align: center;"">₪58
                                                <br>40%</p>
                  <p id=""wtp"" style=""text-align:center; margin-top: 0px; margin-bottom: 0px; font-size: 40px"";>מוכנים לשלם: <span id=""c_p_y""></span></p>","null","evaluation","12","20","10C,13A,19C,21B","40","58","11","","","","","","","","","","","","","","",""
"","","","","","html-keyboard-response","201","1135971","0.0-21.0-2.29","23e4e6c8-96b3-4791-b8dc-05b9530d7211","null","<p style=""text-align: center;"">+</p>","null","fixation","","","","","","","","","","","","","","","","","","","","",""
"","","","","","html-slider-response","202","1136984","0.0-21.0-0.30","23e4e6c8-96b3-4791-b8dc-05b9530d7211","1000","
                  <p style=""text-align: center;"">₪61
                                                <br>55%</p>
                  <p id=""wtp"" style=""text-align:center; margin-top: 0px; margin-bottom: 0px; font-size: 40px"";>&ensp;</p>","-","viewing","0","23","7B,26B","","","","","","","","","","","","","","","","","",""
"","","","","","html-slider-response","203","1140477","0.0-21.0-1.30","23e4e6c8-96b3-4791-b8dc-05b9530d7211","3493","
                  <p style=""text-align: center;"">₪61
                                                <br>55%</p>
                  <p id=""wtp"" style=""text-align:center; margin-top: 0px; margin-bottom: 0px; font-size: 40px"";>מוכנים לשלם: <span id=""c_p_y""></span></p>","44","evaluation","18","23","7B,26B","55","61","44","","","","","","","","","","","","","","",""
"","","","","","html-keyboard-response","204","1141707","0.0-21.0-2.30","23e4e6c8-96b3-4791-b8dc-05b9530d7211","null","<p style=""text-align: center;"">+</p>","null","fixation","","","","","","","","","","","","","","","","","","","","",""
"","","","","","html-keyboard-response","205","1142723","0.0-22.0","23e4e6c8-96b3-4791-b8dc-05b9530d7211","null","<p style=""text-align: center;"">+</p>","null","fixation","","","","","","","","","","","","","","","","","","","","",""
"","","","","","html-keyboard-response","206","1149661","0.0-23.0","23e4e6c8-96b3-4791-b8dc-05b9530d7211","null","<p>הפסקה.
          <br>לחצו כדי להמשיך.</p>","1","scan_wait","","","","","","","","","","","","","","","","","","","","",""
"","","","","","html-keyboard-response","207","1150674","0.0-24.0","23e4e6c8-96b3-4791-b8dc-05b9530d7211","null","<p style=""text-align: center;"">+</p>","null","fixation","","","","","","","","","","","","","","","","","","","","",""
"","","","","","html-slider-response","208","1151677","0.0-25.0-0.0","23e4e6c8-96b3-4791-b8dc-05b9530d7211","1000","
                  <p style=""text-align: center;"">₪11
                                                <br>45%</p>
                  <p id=""wtp"" style=""text-align:center; margin-top: 0px; margin-bottom: 0px; font-size: 40px"";>&ensp;</p>","-","viewing","0","6","14B,21C,25C","","","","","","","","","","","","","","","","","",""
"","","","","","html-slider-response","209","1155684","0.0-25.0-1.0","23e4e6c8-96b3-4791-b8dc-05b9530d7211","null","
                  <p style=""text-align: center;"">₪11
                                                <br>45%</p>
                  <p id=""wtp"" style=""text-align:center; margin-top: 0px; margin-bottom: 0px; font-size: 40px"";>מוכנים לשלם: <span id=""c_p_y""></span></p>","null","evaluation","71","6","14B,21C,25C","45","11","27","","","","","","","","","","","","","","",""
"","","","","","html-keyboard-response","210","1157076","0.0-25.0-2.0","23e4e6c8-96b3-4791-b8dc-05b9530d7211","null","<p style=""text-align: center;"">+</p>","null","fixation","","","","","","","","","","","","","","","","","","","","",""
"","","","","","html-slider-response","211","1158088","0.0-25.0-0.1","23e4e6c8-96b3-4791-b8dc-05b9530d7211","1000","
                  <p style=""text-align: center;"">₪64
                                                <br>50%</p>
                  <p id=""wtp"" style=""text-align:center; margin-top: 0px; margin-bottom: 0px; font-size: 40px"";>&ensp;</p>","-","viewing","0","25","1B,3B,4A","","","","","","","","","","","","","","","","","",""
"","","","","","html-slider-response","212","1159973","0.0-25.0-1.1","23e4e6c8-96b3-4791-b8dc-05b9530d7211","1885","
                  <p style=""text-align: center;"">₪64
                                                <br>50%</p>
                  <p id=""wtp"" style=""text-align:center; margin-top: 0px; margin-bottom: 0px; font-size: 40px"";>מוכנים לשלם: <span id=""c_p_y""></span></p>","36","evaluation","36","25","1B,3B,4A","50","64","36","","","","","","","","","","","","","","",""
"","","","","","html-keyboard-response","213","1161273","0.0-25.0-2.1","23e4e6c8-96b3-4791-b8dc-05b9530d7211","null","<p style=""text-align: center;"">+</p>","null","fixation","","","","","","","","","","","","","","","","","","","","",""
"","","","","","html-slider-response","214","1162277","0.0-25.0-0.2","23e4e6c8-96b3-4791-b8dc-05b9530d7211","1000","
                  <p style=""text-align: center;"">₪43
                                                <br>75%</p>
                  <p id=""wtp"" style=""text-align:center; margin-top: 0px; margin-bottom: 0px; font-size: 40px"";>&ensp;</p>","-","viewing","0","18","11B,19B,24A,26A","","","","","","","","","","","","","","","","","",""
"","","","","","html-slider-response","215","1166290","0.0-25.0-1.2","23e4e6c8-96b3-4791-b8dc-05b9530d7211","null","
                  <p style=""text-align: center;"">₪43
                                                <br>75%</p>
                  <p id=""wtp"" style=""text-align:center; margin-top: 0px; margin-bottom: 0px; font-size: 40px"";>מוכנים לשלם: <span id=""c_p_y""></span></p>","null","evaluation","23","18","11B,19B,24A,26A","75","43","31","","","","","","","","","","","","","","",""
"","","","","","html-keyboard-response","216","1167296","0.0-25.0-2.2","23e4e6c8-96b3-4791-b8dc-05b9530d7211","null","<p style=""text-align: center;"">+</p>","null","fixation","","","","","","","","","","","","","","","","","","","","",""
"","","","","","html-slider-response","217","1168300","0.0-25.0-0.3","23e4e6c8-96b3-4791-b8dc-05b9530d7211","1000","
                  <p style=""text-align: center;"">₪43
                                                <br>60%</p>
                  <p id=""wtp"" style=""text-align:center; margin-top: 0px; margin-bottom: 0px; font-size: 40px"";>&ensp;</p>","-","viewing","0","17","2A,7A,9A,15B","","","","","","","","","","","","","","","","","",""
"","","","","","html-slider-response","218","1172304","0.0-25.0-1.3","23e4e6c8-96b3-4791-b8dc-05b9530d7211","null","
                  <p style=""text-align: center;"">₪43
                                                <br>60%</p>
                  <p id=""wtp"" style=""text-align:center; margin-top: 0px; margin-bottom: 0px; font-size: 40px"";>מוכנים לשלם: <span id=""c_p_y""></span></p>","null","evaluation","46","17","2A,7A,9A,15B","60","43","36","","","","","","","","","","","","","","",""
"","","","","","html-keyboard-response","219","1173308","0.0-25.0-2.3","23e4e6c8-96b3-4791-b8dc-05b9530d7211","null","<p style=""text-align: center;"">+</p>","null","fixation","","","","","","","","","","","","","","","","","","","","",""
"","","","","","html-slider-response","220","1174320","0.0-25.0-0.4","23e4e6c8-96b3-4791-b8dc-05b9530d7211","1000","
                  <p style=""text-align: center;"">₪39
                                                <br>65%</p>
                  <p id=""wtp"" style=""text-align:center; margin-top: 0px; margin-bottom: 0px; font-size: 40px"";>&ensp;</p>","-","viewing","0","16","1A,15A,26C","","","","","","","","","","","","","","","","","",""
"","","","","","html-slider-response","221","1178330","0.0-25.0-1.4","23e4e6c8-96b3-4791-b8dc-05b9530d7211","null","
                  <p style=""text-align: center;"">₪39
                                                <br>65%</p>
                  <p id=""wtp"" style=""text-align:center; margin-top: 0px; margin-bottom: 0px; font-size: 40px"";>מוכנים לשלם: <span id=""c_p_y""></span></p>","null","evaluation","77","16","1A,15A,26C","65","39","41","","","","","","","","","","","","","","",""
"","","","","","html-keyboard-response","222","1179306","0.0-25.0-2.4","23e4e6c8-96b3-4791-b8dc-05b9530d7211","null","<p style=""text-align: center;"">+</p>","null","fixation","","","","","","","","","","","","","","","","","","","","",""
"","","","","","html-slider-response","223","1180311","0.0-25.0-0.5","23e4e6c8-96b3-4791-b8dc-05b9530d7211","1000","
                  <p style=""text-align: center;"">₪58
                                                <br>40%</p>
                  <p id=""wtp"" style=""text-align:center; margin-top: 0px; margin-bottom: 0px; font-size: 40px"";>&ensp;</p>","-","viewing","0","20","10C,13A,19C,21B","","","","","","","","","","","","","","","","","",""
"","","","","","html-slider-response","224","1182917","0.0-25.0-1.5","23e4e6c8-96b3-4791-b8dc-05b9530d7211","2606","
                  <p style=""text-align: center;"">₪58
                                                <br>40%</p>
                  <p id=""wtp"" style=""text-align:center; margin-top: 0px; margin-bottom: 0px; font-size: 40px"";>מוכנים לשלם: <span id=""c_p_y""></span></p>","19","evaluation","33","20","10C,13A,19C,21B","40","58","19","","","","","","","","","","","","","","",""
"","","","","","html-keyboard-response","225","1184166","0.0-25.0-2.5","23e4e6c8-96b3-4791-b8dc-05b9530d7211","null","<p style=""text-align: center;"">+</p>","null","fixation","","","","","","","","","","","","","","","","","","","","",""
"","","","","","html-slider-response","226","1185180","0.0-25.0-0.6","23e4e6c8-96b3-4791-b8dc-05b9530d7211","1000","
                  <p style=""text-align: center;"">₪18
                                                <br>25%</p>
                  <p id=""wtp"" style=""text-align:center; margin-top: 0px; margin-bottom: 0px; font-size: 40px"";>&ensp;</p>","-","viewing","0","9","14A,23A","","","","","","","","","","","","","","","","","",""
"","","","","","html-slider-response","227","1187157","0.0-25.0-1.6","23e4e6c8-96b3-4791-b8dc-05b9530d7211","1976","
                  <p style=""text-align: center;"">₪18
                                                <br>25%</p>
                  <p id=""wtp"" style=""text-align:center; margin-top: 0px; margin-bottom: 0px; font-size: 40px"";>מוכנים לשלם: <span id=""c_p_y""></span></p>","6","evaluation","76","9","14A,23A","25","18","6","","","","","","","","","","","","","","",""
"","","","","","html-keyboard-response","228","1187800","0.0-25.0-2.6","23e4e6c8-96b3-4791-b8dc-05b9530d7211","null","<p style=""text-align: center;"">+</p>","null","fixation","","","","","","","","","","","","","","","","","","","","",""
"","","","","","html-slider-response","229","1188813","0.0-25.0-0.7","23e4e6c8-96b3-4791-b8dc-05b9530d7211","1000","
                  <p style=""text-align: center;"">₪36
                                                <br>60%</p>
                  <p id=""wtp"" style=""text-align:center; margin-top: 0px; margin-bottom: 0px; font-size: 40px"";>&ensp;</p>","-","viewing","0","12","1C,7C,15C","","","","","","","","","","","","","","","","","",""
"","","","","","html-slider-response","230","1191485","0.0-25.0-1.7","23e4e6c8-96b3-4791-b8dc-05b9530d7211","2671","
                  <p style=""text-align: center;"">₪36
                                                <br>60%</p>
                  <p id=""wtp"" style=""text-align:center; margin-top: 0px; margin-bottom: 0px; font-size: 40px"";>מוכנים לשלם: <span id=""c_p_y""></span></p>","20","evaluation","8","12","1C,7C,15C","60","36","20","","","","","","","","","","","","","","",""
"","","","","","html-keyboard-response","231","1192894","0.0-25.0-2.7","23e4e6c8-96b3-4791-b8dc-05b9530d7211","null","<p style=""text-align: center;"">+</p>","null","fixation","","","","","","","","","","","","","","","","","","","","",""
"","","","","","html-slider-response","232","1193906","0.0-25.0-0.8","23e4e6c8-96b3-4791-b8dc-05b9530d7211","1000","
                  <p style=""text-align: center;"">₪36
                                                <br>75%</p>
                  <p id=""wtp"" style=""text-align:center; margin-top: 0px; margin-bottom: 0px; font-size: 40px"";>&ensp;</p>","-","viewing","0","14","4B,5A,13B,16B","","","","","","","","","","","","","","","","","",""
"","","","","","html-slider-response","233","1197341","0.0-25.0-1.8","23e4e6c8-96b3-4791-b8dc-05b9530d7211","3434","
                  <p style=""text-align: center;"">₪36
                                                <br>75%</p>
                  <p id=""wtp"" style=""text-align:center; margin-top: 0px; margin-bottom: 0px; font-size: 40px"";>מוכנים לשלם: <span id=""c_p_y""></span></p>","32","evaluation","35","14","4B,5A,13B,16B","75","36","32","","","","","","","","","","","","","","",""
"","","","","","html-keyboard-response","234","1198156","0.0-25.0-2.8","23e4e6c8-96b3-4791-b8dc-05b9530d7211","null","<p style=""text-align: center;"">+</p>","null","fixation","","","","","","","","","","","","","","","","","","","","",""
"","","","","","html-slider-response","235","1199158","0.0-25.0-0.9","23e4e6c8-96b3-4791-b8dc-05b9530d7211","1000","
                  <p style=""text-align: center;"">₪36
                                                <br>30%</p>
                  <p id=""wtp"" style=""text-align:center; margin-top: 0px; margin-bottom: 0px; font-size: 40px"";>&ensp;</p>","-","viewing","0","11","3C,20A,22A","","","","","","","","","","","","","","","","","",""
"","","","","","html-slider-response","236","1203164","0.0-25.0-1.9","23e4e6c8-96b3-4791-b8dc-05b9530d7211","null","
                  <p style=""text-align: center;"">₪36
                                                <br>30%</p>
                  <p id=""wtp"" style=""text-align:center; margin-top: 0px; margin-bottom: 0px; font-size: 40px"";>מוכנים לשלם: <span id=""c_p_y""></span></p>","null","evaluation","44","11","3C,20A,22A","30","36","22","","","","","","","","","","","","","","",""
"","","","","","html-keyboard-response","237","1204515","0.0-25.0-2.9","23e4e6c8-96b3-4791-b8dc-05b9530d7211","null","<p style=""text-align: center;"">+</p>","null","fixation","","","","","","","","","","","","","","","","","","","","",""
"","","","","","html-slider-response","238","1205520","0.0-25.0-0.10","23e4e6c8-96b3-4791-b8dc-05b9530d7211","1000","
                  <p style=""text-align: center;"">₪61
                                                <br>45%</p>
                  <p id=""wtp"" style=""text-align:center; margin-top: 0px; margin-bottom: 0px; font-size: 40px"";>&ensp;</p>","-","viewing","0","22","10A,11A","","","","","","","","","","","","","","","","","",""
"","","","","","html-slider-response","239","1208189","0.0-25.0-1.10","23e4e6c8-96b3-4791-b8dc-05b9530d7211","2668","
                  <p style=""text-align: center;"">₪61
                                                <br>45%</p>
                  <p id=""wtp"" style=""text-align:center; margin-top: 0px; margin-bottom: 0px; font-size: 40px"";>מוכנים לשלם: <span id=""c_p_y""></span></p>","28","evaluation","73","22","10A,11A","45","61","28","","","","","","","","","","","","","","",""
"","","","","","html-keyboard-response","240","1209112","0.0-25.0-2.10","23e4e6c8-96b3-4791-b8dc-05b9530d7211","null","<p style=""text-align: center;"">+</p>","null","fixation","","","","","","","","","","","","","","","","","","","","",""
"","","","","","html-slider-response","241","1210118","0.0-25.0-0.11","23e4e6c8-96b3-4791-b8dc-05b9530d7211","1000","
                  <p style=""text-align: center;"">₪58
                                                <br>30%</p>
                  <p id=""wtp"" style=""text-align:center; margin-top: 0px; margin-bottom: 0px; font-size: 40px"";>&ensp;</p>","-","viewing","0","19","13C,30A","","","","","","","","","","","","","","","","","",""
"","","","","","html-slider-response","242","1214124","0.0-25.0-1.11","23e4e6c8-96b3-4791-b8dc-05b9530d7211","null","
                  <p style=""text-align: center;"">₪58
                                                <br>30%</p>
                  <p id=""wtp"" style=""text-align:center; margin-top: 0px; margin-bottom: 0px; font-size: 40px"";>מוכנים לשלם: <span id=""c_p_y""></span></p>","null","evaluation","7","19","13C,30A","30","58","30","","","","","","","","","","","","","","",""
"","","","","","html-keyboard-response","243","1214759","0.0-25.0-2.11","23e4e6c8-96b3-4791-b8dc-05b9530d7211","null","<p style=""text-align: center;"">+</p>","null","fixation","","","","","","","","","","","","","","","","","","","","",""
"","","","","","html-slider-response","244","1215763","0.0-25.0-0.12","23e4e6c8-96b3-4791-b8dc-05b9530d7211","1000","
                  <p style=""text-align: center;"">₪64
                                                <br>25%</p>
                  <p id=""wtp"" style=""text-align:center; margin-top: 0px; margin-bottom: 0px; font-size: 40px"";>&ensp;</p>","-","viewing","0","24","6A,21A","","","","","","","","","","","","","","","","","",""
"","","","","","html-slider-response","245","1219764","0.0-25.0-1.12","23e4e6c8-96b3-4791-b8dc-05b9530d7211","null","
                  <p style=""text-align: center;"">₪64
                                                <br>25%</p>
                  <p id=""wtp"" style=""text-align:center; margin-top: 0px; margin-bottom: 0px; font-size: 40px"";>מוכנים לשלם: <span id=""c_p_y""></span></p>","null","evaluation","68","24","6A,21A","25","64","32","","","","","","","","","","","","","","",""
"","","","","","html-keyboard-response","246","1221051","0.0-25.0-2.12","23e4e6c8-96b3-4791-b8dc-05b9530d7211","null","<p style=""text-align: center;"">+</p>","null","fixation","","","","","","","","","","","","","","","","","","","","",""
"","","","","","html-slider-response","247","1222068","0.0-25.0-0.13","23e4e6c8-96b3-4791-b8dc-05b9530d7211","1000","
                  <p style=""text-align: center;"">₪79
                                                <br>40%</p>
                  <p id=""wtp"" style=""text-align:center; margin-top: 0px; margin-bottom: 0px; font-size: 40px"";>&ensp;</p>","-","viewing","0","30","9B","","","","","","","","","","","","","","","","","",""
"","","","","","html-slider-response","248","1226070","0.0-25.0-1.13","23e4e6c8-96b3-4791-b8dc-05b9530d7211","null","
                  <p style=""text-align: center;"">₪79
                                                <br>40%</p>
                  <p id=""wtp"" style=""text-align:center; margin-top: 0px; margin-bottom: 0px; font-size: 40px"";>מוכנים לשלם: <span id=""c_p_y""></span></p>","null","evaluation","44","30","9B","40","79","28","","","","","","","","","","","","","","",""
"","","","","","html-keyboard-response","249","1227189","0.0-25.0-2.13","23e4e6c8-96b3-4791-b8dc-05b9530d7211","null","<p style=""text-align: center;"">+</p>","null","fixation","","","","","","","","","","","","","","","","","","","","",""
"","","","","","html-slider-response","250","1228193","0.0-25.0-0.14","23e4e6c8-96b3-4791-b8dc-05b9530d7211","1000","
                  <p style=""text-align: center;"">₪11
                                                <br>75%</p>
                  <p id=""wtp"" style=""text-align:center; margin-top: 0px; margin-bottom: 0px; font-size: 40px"";>&ensp;</p>","-","viewing","0","7","6B,18B,22C,24C,29A","","","","","","","","","","","","","","","","","",""
"","","","","","html-slider-response","251","1230989","0.0-25.0-1.14","23e4e6c8-96b3-4791-b8dc-05b9530d7211","2795","
                  <p style=""text-align: center;"">₪11
                                                <br>75%</p>
                  <p id=""wtp"" style=""text-align:center; margin-top: 0px; margin-bottom: 0px; font-size: 40px"";>מוכנים לשלם: <span id=""c_p_y""></span></p>","16","evaluation","58","7","6B,18B,22C,24C,29A","75","11","17","","","","","","","","","","","","","","",""
"","","","","","html-keyboard-response","252","1231886","0.0-25.0-2.14","23e4e6c8-96b3-4791-b8dc-05b9530d7211","null","<p style=""text-align: center;"">+</p>","null","fixation","","","","","","","","","","","","","","","","","","","","",""
