"success","timeout","failed_images","failed_audio","failed_video","trial_type","trial_index","time_elapsed","internal_node_id","subject_id","rt","stimulus","response","part","slider_start","ID","set_ID","prob","amount","last_location","actual_choice","actual_EV","binary_id","trinary_id","catch","direction","A_key","S_key","D_key","choice_prob","choice_amount","chosen_part","potential_prize_prob","potential_prize_amount","won_prize","total_prize","prize_cost","remaining_budget","accuracy"
"true","false","[]","[]","[]","preload","0","434","0.0-0.0","96aeb710-2bf4-4449-8382-e4bd3178473e","","","","","","","","","","","","","","","","","","","","","","","","","","","","",""
"","","","","","html-keyboard-response","1","19720","0.0-1.0","96aeb710-2bf4-4449-8382-e4bd3178473e","null","
          <h1>שלום וברוכים הבאים!</h1>
          <p>לפניכם ניסוי בקבלת החלטות עם שני חלקים.
          <br><br>לחצו על העכבר כדי להמשיך.</p>","0","example","","","","","","","","","","","","","","","","","","","","","","","","",""
"","","","","","html-keyboard-response","2","27568","0.0-2.0","96aeb710-2bf4-4449-8382-e4bd3178473e","null","
        <h1>חלק 1</h1>
        <p>בקרוב יוצגו בפניכם הגרלות.
        <br>עליכם לבחור את המחיר המירבי שתהיו מוכנים לשלם כדי להשתתף בהגרלה שתוצג.
        <br>יש לכם תקציב של ₪80 לכל הגרלה. 
        <br>נסו להעריך כל הגרלה בנפרד ולחשוב כמה היא שווה עבורכם, ₪80 זמינים לכל הגרלה בנפרד.
        <br><br>לחצו על העכבר כדי להמשיך.</p>","1","instructions","","","","","","","","","","","","","","","","","","","","","","","","",""
"","","","","","html-keyboard-response","3","33496","0.0-3.0","96aeb710-2bf4-4449-8382-e4bd3178473e","null","
        <p>בסוף הניסוי, המחשב יבחר את אחת ההגרלות ויקבע מחיר לכרטיס עבורה. 
        <br>במידה והמחיר שבחרתם נמוך מהמחיר שנבחר על ידי המחשב, לא תשתתפו בהגרלה ותשארו עם מלוא התקציב.
        <br>במידה והמחיר שבחרתם גבוה מהמחיר שנבחר על ידי המחשב, תשלמו את המחיר שנקבע ותשתתפו בהגרלה.
        <br><br>לחצו על העכבר כדי להמשיך.</p>","1","instructions","","","","","","","","","","","","","","","","","","","","","","","","",""
"","","","","","html-slider-response","4","42936","0.0-4.0","96aeb710-2bf4-4449-8382-e4bd3178473e","9335","
        <p style=""font-size: 42px;"">נתחיל עם דוגמא: 
        <br>ההגרלה מטה מציעה 65% סיכוי לזכות ב-₪40 
        <br>&emsp;&emsp;&emsp;&emsp;&emsp;&emsp;&emsp;&emsp;&ensp;35% סיכוי לזכות ב-₪0.
        <br><br>מה המחיר המירבי שתהיו מוכנים לשלם על כרטיס להגרלה זו בין 0 ל-₪80?
        <br>הזיזו את העכבר על פני המלבן ולחצו כדי לבצע בחירה.</p>
        
        <p style=""text-align: center;"">₪40<br>65%</p>

        <p id=""wtp"" style=""text-align:center; margin-top: 0px; margin-bottom: 0px; font-size: 40px"";>מוכנים לשלם: <span id=""c_p_y""></span></p>","5","example","74","","","","","","","","","","","","","","","","","","","","","","","",""
"","","","","","html-keyboard-response","5","49167","0.0-5.0","96aeb710-2bf4-4449-8382-e4bd3178473e","null","<p>יפה מאוד!
                <br> בחרתם שתהיו מוכנים לשלם ₪5 כדי להשתתף בהגרלה:
                <br><p style=""text-align: center;"">₪40<br>65%</p>
                <p>נשמע נכון?
                <br>נניח שהגרלה זו נבחרה בסוף הניסוי.
                <br>כעת המחשב יקבע מחיר עבורה באקראי.
                <br>לחצו על העכבר להמשך.</p>","1","example","","","","","","","","","","","","","","","","","","","","","","","","",""
"","","","","","html-keyboard-response","6","54632","0.0-6.0","96aeb710-2bf4-4449-8382-e4bd3178473e","null","<p>המחשב קבע מחיר: ₪68
                <br>ואתם בחרתם לשלם לכל היותר: ₪5
                <br><br>מכיוון שהמחיר שבחרתם נמוך מהמחיר שנקבע, לא תתשתתפו בהגרלה.
                <br>במקרה כזה, בסוף הניסוי תקבלו את כל התקציב ההתחלתי של ₪80.
                <br><br>לחצו על העכבר להמשך.</p>","1","example","","","","","","","","","","","","","","","","","","","","","","","","",""
"","","","","","html-slider-response","7","60144","0.0-7.0","96aeb710-2bf4-4449-8382-e4bd3178473e","5248","<p style=""font-size: 42px;"">הנה עוד דוגמא:
                <br>ההגרלה מטה מציעה 35% סיכוי לזכות ב-₪18 
                <br>&emsp;&emsp;&emsp;&emsp;&emsp;&emsp;&emsp;&emsp;&ensp;65% סיכוי לזכות ב-₪0.</p>
        
                <p style=""text-align: center;"">₪18<br>35%</p>
                <p id=""wtp"" style=""text-align:center; margin-top: 0px; margin-bottom: 0px; font-size: 40px"";>מוכנים לשלם: <span id=""c_p_y""></span></p>","1","example","64","","","","","","","","","","","","","","","","","","","","","","","",""
"","","","","","html-keyboard-response","8","65008","0.0-8.0","96aeb710-2bf4-4449-8382-e4bd3178473e","null","<p>הייתם מוכנים לשלם  ₪1 כדי להשתתף בהגרלה:
                <p style=""text-align: center;"">₪18<br>35%</p>
                <p>כעת נניח שהמחשב בחר את ההגרלה הזו בסוף הניסוי, וקבע עבורה מחיר.
                <br><br>לחצו על העכבר כדי להמשיך.</p>","1","instructions","","","","","","","","","","","","","","","","","","","","","","","","",""
"","","","","","html-keyboard-response","9","69880","0.0-9.0","96aeb710-2bf4-4449-8382-e4bd3178473e","null","<p>המחשב קבע מחיר להגרלה: ₪0<br>ואתם בחרתם לשלם לכל היותר: ₪1
                <br><br>כעת המחיר שנקבע נמוך מזה שבחרתם, אז תשלמו את המחיר שקבע המחשב (₪0) ותשתתפו בהגרלה.
                <br>במקרה כזה, תסיימו את הניסוי עם תקציב של ₪80 ועם סיכוי לזכות ב-₪18 נוספים מההגרלה.
                <br>כלומר, תוכלו לקבל ₪80 אם לא תזכו בהגרלה, או ₪98 אם תזכו בהגרלה.
                <br><br>לחצו על העכבר להמשך.</p>","1","example","","","","","","","","","","","","","","","","","","","","","","","","",""
"","","","","","html-keyboard-response","10","76008","0.0-10.0","96aeb710-2bf4-4449-8382-e4bd3178473e","null","<p>במהלך הניסוי, קודם תראו את ההגרלה ורק לאחר מכן תוכלו לבחור.
                <p>כמו כן, יהיו לכם מספר שניות מוגבל להגיב.
                <p>בואו ננסה זאת עם ההגרלה הקודמת.
                <br>לחצו על העכבר כדי להמשיך.</p>","1","instructions","","","","","","","","","","","","","","","","","","","","","","","","",""
"","","","","","html-slider-response","11","77270","0.0-11.0","96aeb710-2bf4-4449-8382-e4bd3178473e","1000","
                    <p style=""text-align: center;"">₪18<br>35%</p>
                    <p id=""wtp"" style=""text-align:center; margin-top: 0px; margin-bottom: 0px; font-size: 40px"";>&ensp;</p>","13","instructions","0","","","","","","","","","","","","","","","","","","","","","","","",""
"","","","","","html-slider-response","12","78920","0.0-12.0","96aeb710-2bf4-4449-8382-e4bd3178473e","1399","
                    <p style=""text-align: center;"">₪18<br>35%</p>
                    <p id=""wtp"" style=""text-align:center; margin-top: 0px; margin-bottom: 0px; font-size: 40px"";>מוכנים לשלם: <span id=""c_p_y""></span></p>","0","instructions","7","","","","","","","","","","","","","","","","","","","","","","","",""
"","","","","","html-keyboard-response","13","80456","0.0-13.0","96aeb710-2bf4-4449-8382-e4bd3178473e","null","<p>יפה. הפעם בחרתם לשלם לכל היותר ₪0.
                <br><br>לחצו על העכבר כדי להמשיך.</p>","1","instructions","","","","","","","","","","","","","","","","","","","","","","","","",""
"","","","","","html-keyboard-response","14","85007","0.0-15.0","96aeb710-2bf4-4449-8382-e4bd3178473e","null","<p>כעת נתחיל את הניסוי.
                <br><br>אתם תראו הגרלות ותתבקשו לבחור כמה תהיו מוכנים לשלם כדי להשתתף בהן.
                <br>יש לכם תקציב של ₪80 עבור כל הגרלה.
                <br>בסוף הניסוי הגרלה אחת תבחר באקראי ותשוחק.
                <br><br>לחצו על העכבר כדי להתחיל את הניסוי.</p>","1","instructions","","","","","","","","","","","","","","","","","","","","","","","","",""
"","","","","","html-keyboard-response","15","86275","0.0-16.0","96aeb710-2bf4-4449-8382-e4bd3178473e","null","<p style=""text-align: center;"">+</p>","null","fixation","","","","","","","","","","","","","","","","","","","","","","","","",""
"","","","","","html-slider-response","16","87279","0.0-17.0-0.0","96aeb710-2bf4-4449-8382-e4bd3178473e","1000","
                  <p style=""text-align: center;"">₪16
                                                <br>20%</p>
                  <p id=""wtp"" style=""text-align:center; margin-top: 0px; margin-bottom: 0px; font-size: 40px"";>&ensp;</p>","-","viewing","0","8","14C,17A,20C,27A","","","","","","","","","","","","","","","","","","","","","",""
"","","","","","html-slider-response","17","88776","0.0-17.0-1.0","96aeb710-2bf4-4449-8382-e4bd3178473e","1496","
                  <p style=""text-align: center;"">₪16
                                                <br>20%</p>
                  <p id=""wtp"" style=""text-align:center; margin-top: 0px; margin-bottom: 0px; font-size: 40px"";>מוכנים לשלם: <span id=""c_p_y""></span></p>","1","evaluation","24","8","14C,17A,20C,27A","20","16","1","","","","","","","","","","","","","","","","","","",""
"","","","","","html-keyboard-response","18","89733","0.0-17.0-2.0","96aeb710-2bf4-4449-8382-e4bd3178473e","null","<p style=""text-align: center;"">+</p>","null","fixation","","","","","","","","","","","","","","","","","","","","","","","","",""
"","","","","","html-slider-response","19","90737","0.0-17.0-0.1","96aeb710-2bf4-4449-8382-e4bd3178473e","1000","
                  <p style=""text-align: center;"">₪79
                                                <br>65%</p>
                  <p id=""wtp"" style=""text-align:center; margin-top: 0px; margin-bottom: 0px; font-size: 40px"";>&ensp;</p>","-","viewing","0","31","8A","","","","","","","","","","","","","","","","","","","","","",""
"","","","","","html-slider-response","20","93440","0.0-17.0-1.1","96aeb710-2bf4-4449-8382-e4bd3178473e","2702","
                  <p style=""text-align: center;"">₪79
                                                <br>65%</p>
                  <p id=""wtp"" style=""text-align:center; margin-top: 0px; margin-bottom: 0px; font-size: 40px"";>מוכנים לשלם: <span id=""c_p_y""></span></p>","7","evaluation","8","31","8A","65","79","7","","","","","","","","","","","","","","","","","","",""
"","","","","","html-keyboard-response","21","94894","0.0-17.0-2.1","96aeb710-2bf4-4449-8382-e4bd3178473e","null","<p style=""text-align: center;"">+</p>","null","fixation","","","","","","","","","","","","","","","","","","","","","","","","",""
"","","","","","html-slider-response","22","95900","0.0-17.0-0.2","96aeb710-2bf4-4449-8382-e4bd3178473e","1000","
                  <p style=""text-align: center;"">₪36
                                                <br>70%</p>
                  <p id=""wtp"" style=""text-align:center; margin-top: 0px; margin-bottom: 0px; font-size: 40px"";>&ensp;</p>","-","viewing","0","13","3A,5C,10B","","","","","","","","","","","","","","","","","","","","","",""
"","","","","","html-slider-response","23","97943","0.0-17.0-1.2","96aeb710-2bf4-4449-8382-e4bd3178473e","2043","
                  <p style=""text-align: center;"">₪36
                                                <br>70%</p>
                  <p id=""wtp"" style=""text-align:center; margin-top: 0px; margin-bottom: 0px; font-size: 40px"";>מוכנים לשלם: <span id=""c_p_y""></span></p>","10","evaluation","78","13","3A,5C,10B","70","36","10","","","","","","","","","","","","","","","","","","",""
"","","","","","html-keyboard-response","24","98867","0.0-17.0-2.2","96aeb710-2bf4-4449-8382-e4bd3178473e","null","<p style=""text-align: center;"">+</p>","null","fixation","","","","","","","","","","","","","","","","","","","","","","","","",""
"","","","","","html-slider-response","25","99873","0.0-17.0-0.3","96aeb710-2bf4-4449-8382-e4bd3178473e","1000","
                  <p style=""text-align: center;"">₪58
                                                <br>30%</p>
                  <p id=""wtp"" style=""text-align:center; margin-top: 0px; margin-bottom: 0px; font-size: 40px"";>&ensp;</p>","-","viewing","0","19","13C,30A","","","","","","","","","","","","","","","","","","","","","",""
"","","","","","html-slider-response","26","102200","0.0-17.0-1.3","96aeb710-2bf4-4449-8382-e4bd3178473e","2326","
                  <p style=""text-align: center;"">₪58
                                                <br>30%</p>
                  <p id=""wtp"" style=""text-align:center; margin-top: 0px; margin-bottom: 0px; font-size: 40px"";>מוכנים לשלם: <span id=""c_p_y""></span></p>","5","evaluation","58","19","13C,30A","30","58","5","","","","","","","","","","","","","","","","","","",""
"","","","","","html-keyboard-response","27","103224","0.0-17.0-2.3","96aeb710-2bf4-4449-8382-e4bd3178473e","null","<p style=""text-align: center;"">+</p>","null","fixation","","","","","","","","","","","","","","","","","","","","","","","","",""
"","","","","","html-slider-response","28","104228","0.0-17.0-0.4","96aeb710-2bf4-4449-8382-e4bd3178473e","1000","
                  <p style=""text-align: center;"">₪36
                                                <br>60%</p>
                  <p id=""wtp"" style=""text-align:center; margin-top: 0px; margin-bottom: 0px; font-size: 40px"";>&ensp;</p>","-","viewing","0","12","1C,7C,15C","","","","","","","","","","","","","","","","","","","","","",""
"","","","","","html-slider-response","29","106872","0.0-17.0-1.4","96aeb710-2bf4-4449-8382-e4bd3178473e","2642","
                  <p style=""text-align: center;"">₪36
                                                <br>60%</p>
                  <p id=""wtp"" style=""text-align:center; margin-top: 0px; margin-bottom: 0px; font-size: 40px"";>מוכנים לשלם: <span id=""c_p_y""></span></p>","6","evaluation","65","12","1C,7C,15C","60","36","6","","","","","","","","","","","","","","","","","","",""
"","","","","","html-keyboard-response","30","107505","0.0-17.0-2.4","96aeb710-2bf4-4449-8382-e4bd3178473e","null","<p style=""text-align: center;"">+</p>","null","fixation","","","","","","","","","","","","","","","","","","","","","","","","",""
"","","","","","html-slider-response","31","108511","0.0-17.0-0.5","96aeb710-2bf4-4449-8382-e4bd3178473e","1000","
                  <p style=""text-align: center;"">₪11
                                                <br>75%</p>
                  <p id=""wtp"" style=""text-align:center; margin-top: 0px; margin-bottom: 0px; font-size: 40px"";>&ensp;</p>","-","viewing","0","7","6B,18B,22C,24C,29A","","","","","","","","","","","","","","","","","","","","","",""
"","","","","","html-slider-response","32","110808","0.0-17.0-1.5","96aeb710-2bf4-4449-8382-e4bd3178473e","2295","
                  <p style=""text-align: center;"">₪11
                                                <br>75%</p>
                  <p id=""wtp"" style=""text-align:center; margin-top: 0px; margin-bottom: 0px; font-size: 40px"";>מוכנים לשלם: <span id=""c_p_y""></span></p>","0","evaluation","42","7","6B,18B,22C,24C,29A","75","11","0","","","","","","","","","","","","","","","","","","",""
"","","","","","html-keyboard-response","33","111442","0.0-17.0-2.5","96aeb710-2bf4-4449-8382-e4bd3178473e","null","<p style=""text-align: center;"">+</p>","null","fixation","","","","","","","","","","","","","","","","","","","","","","","","",""
"","","","","","html-slider-response","34","112451","0.0-17.0-0.6","96aeb710-2bf4-4449-8382-e4bd3178473e","1000","
                  <p style=""text-align: center;"">₪64
                                                <br>25%</p>
                  <p id=""wtp"" style=""text-align:center; margin-top: 0px; margin-bottom: 0px; font-size: 40px"";>&ensp;</p>","-","viewing","0","24","6A,21A","","","","","","","","","","","","","","","","","","","","","",""
"","","","","","html-slider-response","35","115752","0.0-17.0-1.6","96aeb710-2bf4-4449-8382-e4bd3178473e","3300","
                  <p style=""text-align: center;"">₪64
                                                <br>25%</p>
                  <p id=""wtp"" style=""text-align:center; margin-top: 0px; margin-bottom: 0px; font-size: 40px"";>מוכנים לשלם: <span id=""c_p_y""></span></p>","4","evaluation","70","24","6A,21A","25","64","5","","","","","","","","","","","","","","","","","","",""
"","","","","","html-keyboard-response","36","116664","0.0-17.0-2.6","96aeb710-2bf4-4449-8382-e4bd3178473e","null","<p style=""text-align: center;"">+</p>","null","fixation","","","","","","","","","","","","","","","","","","","","","","","","",""
"","","","","","html-slider-response","37","117673","0.0-17.0-0.7","96aeb710-2bf4-4449-8382-e4bd3178473e","1000","
                  <p style=""text-align: center;"">₪61
                                                <br>45%</p>
                  <p id=""wtp"" style=""text-align:center; margin-top: 0px; margin-bottom: 0px; font-size: 40px"";>&ensp;</p>","-","viewing","0","22","10A,11A","","","","","","","","","","","","","","","","","","","","","",""
"","","","","","html-slider-response","38","119645","0.0-17.0-1.7","96aeb710-2bf4-4449-8382-e4bd3178473e","1975","
                  <p style=""text-align: center;"">₪61
                                                <br>45%</p>
                  <p id=""wtp"" style=""text-align:center; margin-top: 0px; margin-bottom: 0px; font-size: 40px"";>מוכנים לשלם: <span id=""c_p_y""></span></p>","8","evaluation","69","22","10A,11A","45","61","8","","","","","","","","","","","","","","","","","","",""
"","","","","","html-keyboard-response","39","121032","0.0-17.0-2.7","96aeb710-2bf4-4449-8382-e4bd3178473e","null","<p style=""text-align: center;"">+</p>","null","fixation","","","","","","","","","","","","","","","","","","","","","","","","",""
"","","","","","html-slider-response","40","122042","0.0-17.0-0.8","96aeb710-2bf4-4449-8382-e4bd3178473e","1000","
                  <p style=""text-align: center;"">₪11
                                                <br>25%</p>
                  <p id=""wtp"" style=""text-align:center; margin-top: 0px; margin-bottom: 0px; font-size: 40px"";>&ensp;</p>","-","viewing","0","5","12A,27B,28B,30B","","","","","","","","","","","","","","","","","","","","","",""
"","","","","","html-slider-response","41","124213","0.0-17.0-1.8","96aeb710-2bf4-4449-8382-e4bd3178473e","2171","
                  <p style=""text-align: center;"">₪11
                                                <br>25%</p>
                  <p id=""wtp"" style=""text-align:center; margin-top: 0px; margin-bottom: 0px; font-size: 40px"";>מוכנים לשלם: <span id=""c_p_y""></span></p>","0","evaluation","18","5","12A,27B,28B,30B","25","11","0","","","","","","","","","","","","","","","","","","",""
"","","","","","html-keyboard-response","42","125344","0.0-17.0-2.8","96aeb710-2bf4-4449-8382-e4bd3178473e","null","<p style=""text-align: center;"">+</p>","null","fixation","","","","","","","","","","","","","","","","","","","","","","","","",""
"","","","","","html-slider-response","43","126347","0.0-17.0-0.9","96aeb710-2bf4-4449-8382-e4bd3178473e","1000","
                  <p style=""text-align: center;"">₪18
                                                <br>25%</p>
                  <p id=""wtp"" style=""text-align:center; margin-top: 0px; margin-bottom: 0px; font-size: 40px"";>&ensp;</p>","-","viewing","0","9","14A,23A","","","","","","","","","","","","","","","","","","","","","",""
"","","","","","html-slider-response","44","127718","0.0-17.0-1.9","96aeb710-2bf4-4449-8382-e4bd3178473e","1370","
                  <p style=""text-align: center;"">₪18
                                                <br>25%</p>
                  <p id=""wtp"" style=""text-align:center; margin-top: 0px; margin-bottom: 0px; font-size: 40px"";>מוכנים לשלם: <span id=""c_p_y""></span></p>","0","evaluation","66","9","14A,23A","25","18","1","","","","","","","","","","","","","","","","","","",""
"","","","","","html-keyboard-response","45","128846","0.0-17.0-2.9","96aeb710-2bf4-4449-8382-e4bd3178473e","null","<p style=""text-align: center;"">+</p>","null","fixation","","","","","","","","","","","","","","","","","","","","","","","","",""
"","","","","","html-slider-response","46","129863","0.0-17.0-0.10","96aeb710-2bf4-4449-8382-e4bd3178473e","1000","
                  <p style=""text-align: center;"">₪4
                                                <br>25%</p>
                  <p id=""wtp"" style=""text-align:center; margin-top: 0px; margin-bottom: 0px; font-size: 40px"";>&ensp;</p>","-","viewing","0","1","6C,29B,30C","","","","","","","","","","","","","","","","","","","","","",""
"","","","","","html-slider-response","47","130798","0.0-17.0-1.10","96aeb710-2bf4-4449-8382-e4bd3178473e","934","
                  <p style=""text-align: center;"">₪4
                                                <br>25%</p>
                  <p id=""wtp"" style=""text-align:center; margin-top: 0px; margin-bottom: 0px; font-size: 40px"";>מוכנים לשלם: <span id=""c_p_y""></span></p>","0","evaluation","60","1","6C,29B,30C","25","4","0","","","","","","","","","","","","","","","","","","",""
"","","","","","html-keyboard-response","48","131631","0.0-17.0-2.10","96aeb710-2bf4-4449-8382-e4bd3178473e","null","<p style=""text-align: center;"">+</p>","null","fixation","","","","","","","","","","","","","","","","","","","","","","","","",""
"","","","","","html-slider-response","49","132637","0.0-17.0-0.11","96aeb710-2bf4-4449-8382-e4bd3178473e","1000","
                  <p style=""text-align: center;"">₪11
                                                <br>20%</p>
                  <p id=""wtp"" style=""text-align:center; margin-top: 0px; margin-bottom: 0px; font-size: 40px"";>&ensp;</p>","-","viewing","0","4","12C,17C,23C,28C","","","","","","","","","","","","","","","","","","","","","",""
"","","","","","html-slider-response","50","133573","0.0-17.0-1.11","96aeb710-2bf4-4449-8382-e4bd3178473e","935","
                  <p style=""text-align: center;"">₪11
                                                <br>20%</p>
                  <p id=""wtp"" style=""text-align:center; margin-top: 0px; margin-bottom: 0px; font-size: 40px"";>מוכנים לשלם: <span id=""c_p_y""></span></p>","0","evaluation","59","4","12C,17C,23C,28C","20","11","0","","","","","","","","","","","","","","","","","","",""
"","","","","","html-keyboard-response","51","134416","0.0-17.0-2.11","96aeb710-2bf4-4449-8382-e4bd3178473e","null","<p style=""text-align: center;"">+</p>","null","fixation","","","","","","","","","","","","","","","","","","","","","","","","",""
"","","","","","html-slider-response","52","135423","0.0-17.0-0.12","96aeb710-2bf4-4449-8382-e4bd3178473e","1000","
                  <p style=""text-align: center;"">₪11
                                                <br>45%</p>
                  <p id=""wtp"" style=""text-align:center; margin-top: 0px; margin-bottom: 0px; font-size: 40px"";>&ensp;</p>","-","viewing","0","6","14B,21C,25C","","","","","","","","","","","","","","","","","","","","","",""
"","","","","","html-slider-response","53","136717","0.0-17.0-1.12","96aeb710-2bf4-4449-8382-e4bd3178473e","1293","
                  <p style=""text-align: center;"">₪11
                                                <br>45%</p>
                  <p id=""wtp"" style=""text-align:center; margin-top: 0px; margin-bottom: 0px; font-size: 40px"";>מוכנים לשלם: <span id=""c_p_y""></span></p>","0","evaluation","6","6","14B,21C,25C","45","11","0","","","","","","","","","","","","","","","","","","",""
"","","","","","html-keyboard-response","54","137927","0.0-17.0-2.12","96aeb710-2bf4-4449-8382-e4bd3178473e","null","<p style=""text-align: center;"">+</p>","null","fixation","","","","","","","","","","","","","","","","","","","","","","","","",""
"","","","","","html-slider-response","55","138942","0.0-17.0-0.13","96aeb710-2bf4-4449-8382-e4bd3178473e","1000","
                  <p style=""text-align: center;"">₪64
                                                <br>50%</p>
                  <p id=""wtp"" style=""text-align:center; margin-top: 0px; margin-bottom: 0px; font-size: 40px"";>&ensp;</p>","-","viewing","0","25","1B,3B,4A","","","","","","","","","","","","","","","","","","","","","",""
"","","","","","html-slider-response","56","141646","0.0-17.0-1.13","96aeb710-2bf4-4449-8382-e4bd3178473e","2703","
                  <p style=""text-align: center;"">₪64
                                                <br>50%</p>
                  <p id=""wtp"" style=""text-align:center; margin-top: 0px; margin-bottom: 0px; font-size: 40px"";>מוכנים לשלם: <span id=""c_p_y""></span></p>","6","evaluation","50","25","1B,3B,4A","50","64","6","","","","","","","","","","","","","","","","","","",""
"","","","","","html-keyboard-response","57","143131","0.0-17.0-2.13","96aeb710-2bf4-4449-8382-e4bd3178473e","null","<p style=""text-align: center;"">+</p>","null","fixation","","","","","","","","","","","","","","","","","","","","","","","","",""
"","","","","","html-slider-response","58","144145","0.0-17.0-0.14","96aeb710-2bf4-4449-8382-e4bd3178473e","1000","
                  <p style=""text-align: center;"">₪39
                                                <br>60%</p>
                  <p id=""wtp"" style=""text-align:center; margin-top: 0px; margin-bottom: 0px; font-size: 40px"";>&ensp;</p>","-","viewing","0","15","9C,25B","","","","","","","","","","","","","","","","","","","","","",""
"","","","","","html-slider-response","59","145269","0.0-17.0-1.14","96aeb710-2bf4-4449-8382-e4bd3178473e","1123","
                  <p style=""text-align: center;"">₪39
                                                <br>60%</p>
                  <p id=""wtp"" style=""text-align:center; margin-top: 0px; margin-bottom: 0px; font-size: 40px"";>מוכנים לשלם: <span id=""c_p_y""></span></p>","4","evaluation","73","15","9C,25B","60","39","5","","","","","","","","","","","","","","","","","","",""
"","","","","","html-keyboard-response","60","145830","0.0-17.0-2.14","96aeb710-2bf4-4449-8382-e4bd3178473e","null","<p style=""text-align: center;"">+</p>","null","fixation","","","","","","","","","","","","","","","","","","","","","","","","",""
"","","","","","html-slider-response","61","146834","0.0-17.0-0.15","96aeb710-2bf4-4449-8382-e4bd3178473e","1000","
                  <p style=""text-align: center;"">₪71
                                                <br>45%</p>
                  <p id=""wtp"" style=""text-align:center; margin-top: 0px; margin-bottom: 0px; font-size: 40px"";>&ensp;</p>","-","viewing","0","26","2B,16A","","","","","","","","","","","","","","","","","","","","","",""
"","","","","","html-slider-response","62","148733","0.0-17.0-1.15","96aeb710-2bf4-4449-8382-e4bd3178473e","1899","
                  <p style=""text-align: center;"">₪71
                                                <br>45%</p>
                  <p id=""wtp"" style=""text-align:center; margin-top: 0px; margin-bottom: 0px; font-size: 40px"";>מוכנים לשלם: <span id=""c_p_y""></span></p>","7","evaluation","41","26","2B,16A","45","71","8","","","","","","","","","","","","","","","","","","",""
"","","","","","html-keyboard-response","63","150049","0.0-17.0-2.15","96aeb710-2bf4-4449-8382-e4bd3178473e","null","<p style=""text-align: center;"">+</p>","null","fixation","","","","","","","","","","","","","","","","","","","","","","","","",""
"","","","","","html-slider-response","64","151056","0.0-17.0-0.16","96aeb710-2bf4-4449-8382-e4bd3178473e","1000","
                  <p style=""text-align: center;"">₪71
                                                <br>75%</p>
                  <p id=""wtp"" style=""text-align:center; margin-top: 0px; margin-bottom: 0px; font-size: 40px"";>&ensp;</p>","-","viewing","0","28","8B","","","","","","","","","","","","","","","","","","","","","",""
"","","","","","html-slider-response","65","153173","0.0-17.0-1.16","96aeb710-2bf4-4449-8382-e4bd3178473e","2117","
                  <p style=""text-align: center;"">₪71
                                                <br>75%</p>
                  <p id=""wtp"" style=""text-align:center; margin-top: 0px; margin-bottom: 0px; font-size: 40px"";>מוכנים לשלם: <span id=""c_p_y""></span></p>","10","evaluation","43","28","8B","75","71","10","","","","","","","","","","","","","","","","","","",""
"","","","","","html-keyboard-response","66","154199","0.0-17.0-2.16","96aeb710-2bf4-4449-8382-e4bd3178473e","null","<p style=""text-align: center;"">+</p>","null","fixation","","","","","","","","","","","","","","","","","","","","","","","","",""
"","","","","","html-slider-response","67","155209","0.0-17.0-0.17","96aeb710-2bf4-4449-8382-e4bd3178473e","1000","
                  <p style=""text-align: center;"">₪36
                                                <br>75%</p>
                  <p id=""wtp"" style=""text-align:center; margin-top: 0px; margin-bottom: 0px; font-size: 40px"";>&ensp;</p>","-","viewing","0","14","4B,5A,13B,16B","","","","","","","","","","","","","","","","","","","","","",""
"","","","","","html-slider-response","68","157686","0.0-17.0-1.17","96aeb710-2bf4-4449-8382-e4bd3178473e","2476","
                  <p style=""text-align: center;"">₪36
                                                <br>75%</p>
                  <p id=""wtp"" style=""text-align:center; margin-top: 0px; margin-bottom: 0px; font-size: 40px"";>מוכנים לשלם: <span id=""c_p_y""></span></p>","5","evaluation","66","14","4B,5A,13B,16B","75","36","5","","","","","","","","","","","","","","","","","","",""
"","","","","","html-keyboard-response","69","158761","0.0-17.0-2.17","96aeb710-2bf4-4449-8382-e4bd3178473e","null","<p style=""text-align: center;"">+</p>","null","fixation","","","","","","","","","","","","","","","","","","","","","","","","",""
"","","","","","html-slider-response","70","159776","0.0-17.0-0.18","96aeb710-2bf4-4449-8382-e4bd3178473e","1000","
                  <p style=""text-align: center;"">₪18
                                                <br>50%</p>
                  <p id=""wtp"" style=""text-align:center; margin-top: 0px; margin-bottom: 0px; font-size: 40px"";>&ensp;</p>","-","viewing","0","10","2C,16C,22B,28A","","","","","","","","","","","","","","","","","","","","","",""
"","","","","","html-slider-response","71","161070","0.0-17.0-1.18","96aeb710-2bf4-4449-8382-e4bd3178473e","1293","
                  <p style=""text-align: center;"">₪18
                                                <br>50%</p>
                  <p id=""wtp"" style=""text-align:center; margin-top: 0px; margin-bottom: 0px; font-size: 40px"";>מוכנים לשלם: <span id=""c_p_y""></span></p>","5","evaluation","17","10","2C,16C,22B,28A","50","18","5","","","","","","","","","","","","","","","","","","",""
"","","","","","html-keyboard-response","72","161645","0.0-17.0-2.18","96aeb710-2bf4-4449-8382-e4bd3178473e","null","<p style=""text-align: center;"">+</p>","null","fixation","","","","","","","","","","","","","","","","","","","","","","","","",""
"","","","","","html-slider-response","73","162650","0.0-17.0-0.19","96aeb710-2bf4-4449-8382-e4bd3178473e","1000","
                  <p style=""text-align: center;"">₪71
                                                <br>55%</p>
                  <p id=""wtp"" style=""text-align:center; margin-top: 0px; margin-bottom: 0px; font-size: 40px"";>&ensp;</p>","-","viewing","0","27","5B,18A","","","","","","","","","","","","","","","","","","","","","",""
"","","","","","html-slider-response","74","164421","0.0-17.0-1.19","96aeb710-2bf4-4449-8382-e4bd3178473e","1771","
                  <p style=""text-align: center;"">₪71
                                                <br>55%</p>
                  <p id=""wtp"" style=""text-align:center; margin-top: 0px; margin-bottom: 0px; font-size: 40px"";>מוכנים לשלם: <span id=""c_p_y""></span></p>","9","evaluation","0","27","5B,18A","55","71","10","","","","","","","","","","","","","","","","","","",""
"","","","","","html-keyboard-response","75","165122","0.0-17.0-2.19","96aeb710-2bf4-4449-8382-e4bd3178473e","null","<p style=""text-align: center;"">+</p>","null","fixation","","","","","","","","","","","","","","","","","","","","","","","","",""
"","","","","","html-slider-response","76","166136","0.0-17.0-0.20","96aeb710-2bf4-4449-8382-e4bd3178473e","1000","
                  <p style=""text-align: center;"">₪43
                                                <br>60%</p>
                  <p id=""wtp"" style=""text-align:center; margin-top: 0px; margin-bottom: 0px; font-size: 40px"";>&ensp;</p>","-","viewing","0","17","2A,7A,9A,15B","","","","","","","","","","","","","","","","","","","","","",""
"","","","","","html-slider-response","77","167790","0.0-17.0-1.20","96aeb710-2bf4-4449-8382-e4bd3178473e","1652","
                  <p style=""text-align: center;"">₪43
                                                <br>60%</p>
                  <p id=""wtp"" style=""text-align:center; margin-top: 0px; margin-bottom: 0px; font-size: 40px"";>מוכנים לשלם: <span id=""c_p_y""></span></p>","15","evaluation","1","17","2A,7A,9A,15B","60","43","15","","","","","","","","","","","","","","","","","","",""
"","","","","","html-keyboard-response","78","168680","0.0-17.0-2.20","96aeb710-2bf4-4449-8382-e4bd3178473e","null","<p style=""text-align: center;"">+</p>","null","fixation","","","","","","","","","","","","","","","","","","","","","","","","",""
"","","","","","html-slider-response","79","169693","0.0-17.0-0.21","96aeb710-2bf4-4449-8382-e4bd3178473e","1000","
                  <p style=""text-align: center;"">₪4
                                                <br>50%</p>
                  <p id=""wtp"" style=""text-align:center; margin-top: 0px; margin-bottom: 0px; font-size: 40px"";>&ensp;</p>","-","viewing","0","2","4C,17B","","","","","","","","","","","","","","","","","","","","","",""
"","","","","","html-slider-response","80","170870","0.0-17.0-1.21","96aeb710-2bf4-4449-8382-e4bd3178473e","1176","
                  <p style=""text-align: center;"">₪4
                                                <br>50%</p>
                  <p id=""wtp"" style=""text-align:center; margin-top: 0px; margin-bottom: 0px; font-size: 40px"";>מוכנים לשלם: <span id=""c_p_y""></span></p>","0","evaluation","17","2","4C,17B","50","4","0","","","","","","","","","","","","","","","","","","",""
"","","","","","html-keyboard-response","81","172128","0.0-17.0-2.21","96aeb710-2bf4-4449-8382-e4bd3178473e","null","<p style=""text-align: center;"">+</p>","null","fixation","","","","","","","","","","","","","","","","","","","","","","","","",""
"","","","","","html-slider-response","82","173143","0.0-17.0-0.22","96aeb710-2bf4-4449-8382-e4bd3178473e","1000","
                  <p style=""text-align: center;"">₪79
                                                <br>40%</p>
                  <p id=""wtp"" style=""text-align:center; margin-top: 0px; margin-bottom: 0px; font-size: 40px"";>&ensp;</p>","-","viewing","0","30","9B","","","","","","","","","","","","","","","","","","","","","",""
"","","","","","html-slider-response","83","176429","0.0-17.0-1.22","96aeb710-2bf4-4449-8382-e4bd3178473e","3285","
                  <p style=""text-align: center;"">₪79
                                                <br>40%</p>
                  <p id=""wtp"" style=""text-align:center; margin-top: 0px; margin-bottom: 0px; font-size: 40px"";>מוכנים לשלם: <span id=""c_p_y""></span></p>","11","evaluation","79","30","9B","40","79","12","","","","","","","","","","","","","","","","","","",""
"","","","","","html-keyboard-response","84","177120","0.0-17.0-2.22","96aeb710-2bf4-4449-8382-e4bd3178473e","null","<p style=""text-align: center;"">+</p>","null","fixation","","","","","","","","","","","","","","","","","","","","","","","","",""
"","","","","","html-slider-response","85","178131","0.0-17.0-0.23","96aeb710-2bf4-4449-8382-e4bd3178473e","1000","
                  <p style=""text-align: center;"">₪39
                                                <br>65%</p>
                  <p id=""wtp"" style=""text-align:center; margin-top: 0px; margin-bottom: 0px; font-size: 40px"";>&ensp;</p>","-","viewing","0","16","1A,15A,26C","","","","","","","","","","","","","","","","","","","","","",""
"","","","","","html-slider-response","86","179643","0.0-17.0-1.23","96aeb710-2bf4-4449-8382-e4bd3178473e","1514","
                  <p style=""text-align: center;"">₪39
                                                <br>65%</p>
                  <p id=""wtp"" style=""text-align:center; margin-top: 0px; margin-bottom: 0px; font-size: 40px"";>מוכנים לשלם: <span id=""c_p_y""></span></p>","4","evaluation","21","16","1A,15A,26C","65","39","5","","","","","","","","","","","","","","","","","","",""
"","","","","","html-keyboard-response","87","180382","0.0-17.0-2.23","96aeb710-2bf4-4449-8382-e4bd3178473e","null","<p style=""text-align: center;"">+</p>","null","fixation","","","","","","","","","","","","","","","","","","","","","","","","",""
"","","","","","html-slider-response","88","181399","0.0-17.0-0.24","96aeb710-2bf4-4449-8382-e4bd3178473e","1000","
                  <p style=""text-align: center;"">₪61
                                                <br>55%</p>
                  <p id=""wtp"" style=""text-align:center; margin-top: 0px; margin-bottom: 0px; font-size: 40px"";>&ensp;</p>","-","viewing","0","23","7B,26B","","","","","","","","","","","","","","","","","","","","","",""
"","","","","","html-slider-response","89","183235","0.0-17.0-1.24","96aeb710-2bf4-4449-8382-e4bd3178473e","1836","
                  <p style=""text-align: center;"">₪61
                                                <br>55%</p>
                  <p id=""wtp"" style=""text-align:center; margin-top: 0px; margin-bottom: 0px; font-size: 40px"";>מוכנים לשלם: <span id=""c_p_y""></span></p>","10","evaluation","18","23","7B,26B","55","61","10","","","","","","","","","","","","","","","","","","",""
"","","","","","html-keyboard-response","90","184521","0.0-17.0-2.24","96aeb710-2bf4-4449-8382-e4bd3178473e","null","<p style=""text-align: center;"">+</p>","null","fixation","","","","","","","","","","","","","","","","","","","","","","","","",""
"","","","","","html-slider-response","91","185537","0.0-17.0-0.25","96aeb710-2bf4-4449-8382-e4bd3178473e","1000","
                  <p style=""text-align: center;"">₪76
                                                <br>65%</p>
                  <p id=""wtp"" style=""text-align:center; margin-top: 0px; margin-bottom: 0px; font-size: 40px"";>&ensp;</p>","-","viewing","0","29","8C,19A,24B","","","","","","","","","","","","","","","","","","","","","",""
"","","","","","html-slider-response","92","189550","0.0-17.0-1.25","96aeb710-2bf4-4449-8382-e4bd3178473e","null","
                  <p style=""text-align: center;"">₪76
                                                <br>65%</p>
                  <p id=""wtp"" style=""text-align:center; margin-top: 0px; margin-bottom: 0px; font-size: 40px"";>מוכנים לשלם: <span id=""c_p_y""></span></p>","null","evaluation","44","29","8C,19A,24B","65","76","11","","","","","","","","","","","","","","","","","","",""
"","","","","","html-keyboard-response","93","190599","0.0-17.0-2.25","96aeb710-2bf4-4449-8382-e4bd3178473e","null","<p style=""text-align: center;"">+</p>","null","fixation","","","","","","","","","","","","","","","","","","","","","","","","",""
"","","","","","html-slider-response","94","191604","0.0-17.0-0.26","96aeb710-2bf4-4449-8382-e4bd3178473e","1000","
                  <p style=""text-align: center;"">₪4
                                                <br>75%</p>
                  <p id=""wtp"" style=""text-align:center; margin-top: 0px; margin-bottom: 0px; font-size: 40px"";>&ensp;</p>","-","viewing","0","3","12B,20B,23B,27C,29C","","","","","","","","","","","","","","","","","","","","","",""
"","","","","","html-slider-response","95","192547","0.0-17.0-1.26","96aeb710-2bf4-4449-8382-e4bd3178473e","942","
                  <p style=""text-align: center;"">₪4
                                                <br>75%</p>
                  <p id=""wtp"" style=""text-align:center; margin-top: 0px; margin-bottom: 0px; font-size: 40px"";>מוכנים לשלם: <span id=""c_p_y""></span></p>","0","evaluation","37","3","12B,20B,23B,27C,29C","75","4","0","","","","","","","","","","","","","","","","","","",""
"","","","","","html-keyboard-response","96","193192","0.0-17.0-2.26","96aeb710-2bf4-4449-8382-e4bd3178473e","null","<p style=""text-align: center;"">+</p>","null","fixation","","","","","","","","","","","","","","","","","","","","","","","","",""
"","","","","","html-slider-response","97","194197","0.0-17.0-0.27","96aeb710-2bf4-4449-8382-e4bd3178473e","1000","
                  <p style=""text-align: center;"">₪58
                                                <br>40%</p>
                  <p id=""wtp"" style=""text-align:center; margin-top: 0px; margin-bottom: 0px; font-size: 40px"";>&ensp;</p>","-","viewing","0","20","10C,13A,19C,21B","","","","","","","","","","","","","","","","","","","","","",""
"","","","","","html-slider-response","98","196556","0.0-17.0-1.27","96aeb710-2bf4-4449-8382-e4bd3178473e","2357","
                  <p style=""text-align: center;"">₪58
                                                <br>40%</p>
                  <p id=""wtp"" style=""text-align:center; margin-top: 0px; margin-bottom: 0px; font-size: 40px"";>מוכנים לשלם: <span id=""c_p_y""></span></p>","7","evaluation","0","20","10C,13A,19C,21B","40","58","7","","","","","","","","","","","","","","","","","","",""
"","","","","","html-keyboard-response","99","198065","0.0-17.0-2.27","96aeb710-2bf4-4449-8382-e4bd3178473e","null","<p style=""text-align: center;"">+</p>","null","fixation","","","","","","","","","","","","","","","","","","","","","","","","",""
"","","","","","html-slider-response","100","199068","0.0-17.0-0.28","96aeb710-2bf4-4449-8382-e4bd3178473e","1000","
                  <p style=""text-align: center;"">₪43
                                                <br>75%</p>
                  <p id=""wtp"" style=""text-align:center; margin-top: 0px; margin-bottom: 0px; font-size: 40px"";>&ensp;</p>","-","viewing","0","18","11B,19B,24A,26A","","","","","","","","","","","","","","","","","","","","","",""
"","","","","","html-slider-response","101","200955","0.0-17.0-1.28","96aeb710-2bf4-4449-8382-e4bd3178473e","1886","
                  <p style=""text-align: center;"">₪43
                                                <br>75%</p>
                  <p id=""wtp"" style=""text-align:center; margin-top: 0px; margin-bottom: 0px; font-size: 40px"";>מוכנים לשלם: <span id=""c_p_y""></span></p>","11","evaluation","2","18","11B,19B,24A,26A","75","43","11","","","","","","","","","","","","","","","","","","",""
"","","","","","html-keyboard-response","102","201517","0.0-17.0-2.28","96aeb710-2bf4-4449-8382-e4bd3178473e","null","<p style=""text-align: center;"">+</p>","null","fixation","","","","","","","","","","","","","","","","","","","","","","","","",""
"","","","","","html-slider-response","103","202521","0.0-17.0-0.29","96aeb710-2bf4-4449-8382-e4bd3178473e","1000","
                  <p style=""text-align: center;"">₪36
                                                <br>30%</p>
                  <p id=""wtp"" style=""text-align:center; margin-top: 0px; margin-bottom: 0px; font-size: 40px"";>&ensp;</p>","-","viewing","0","11","3C,20A,22A","","","","","","","","","","","","","","","","","","","","","",""
"","","","","","html-slider-response","104","203443","0.0-17.0-1.29","96aeb710-2bf4-4449-8382-e4bd3178473e","921","
                  <p style=""text-align: center;"">₪36
                                                <br>30%</p>
                  <p id=""wtp"" style=""text-align:center; margin-top: 0px; margin-bottom: 0px; font-size: 40px"";>מוכנים לשלם: <span id=""c_p_y""></span></p>","2","evaluation","31","11","3C,20A,22A","30","36","3","","","","","","","","","","","","","","","","","","",""
"","","","","","html-keyboard-response","105","204314","0.0-17.0-2.29","96aeb710-2bf4-4449-8382-e4bd3178473e","null","<p style=""text-align: center;"">+</p>","null","fixation","","","","","","","","","","","","","","","","","","","","","","","","",""
"","","","","","html-slider-response","106","205317","0.0-17.0-0.30","96aeb710-2bf4-4449-8382-e4bd3178473e","1000","
                  <p style=""text-align: center;"">₪58
                                                <br>45%</p>
                  <p id=""wtp"" style=""text-align:center; margin-top: 0px; margin-bottom: 0px; font-size: 40px"";>&ensp;</p>","-","viewing","0","21","11C,18C,25A","","","","","","","","","","","","","","","","","","","","","",""
"","","","","","html-slider-response","107","207955","0.0-17.0-1.30","96aeb710-2bf4-4449-8382-e4bd3178473e","2637","
                  <p style=""text-align: center;"">₪58
                                                <br>45%</p>
                  <p id=""wtp"" style=""text-align:center; margin-top: 0px; margin-bottom: 0px; font-size: 40px"";>מוכנים לשלם: <span id=""c_p_y""></span></p>","14","evaluation","33","21","11C,18C,25A","45","58","14","","","","","","","","","","","","","","","","","","",""
"","","","","","html-keyboard-response","108","208634","0.0-17.0-2.30","96aeb710-2bf4-4449-8382-e4bd3178473e","null","<p style=""text-align: center;"">+</p>","null","fixation","","","","","","","","","","","","","","","","","","","","","","","","",""
"","","","","","html-keyboard-response","109","209643","0.0-18.0","96aeb710-2bf4-4449-8382-e4bd3178473e","null","<p style=""text-align: center;"">+</p>","null","fixation","","","","","","","","","","","","","","","","","","","","","","","","",""
"","","","","","html-keyboard-response","110","210803","0.0-19.0","96aeb710-2bf4-4449-8382-e4bd3178473e","null","<p>הפסקה.
          <br>לחצו כדי להמשיך.</p>","1","scan_wait","","","","","","","","","","","","","","","","","","","","","","","","",""
"","","","","","html-keyboard-response","111","211813","0.0-20.0","96aeb710-2bf4-4449-8382-e4bd3178473e","null","<p style=""text-align: center;"">+</p>","null","fixation","","","","","","","","","","","","","","","","","","","","","","","","",""
"","","","","","html-slider-response","112","212820","0.0-21.0-0.0","96aeb710-2bf4-4449-8382-e4bd3178473e","1000","
                  <p style=""text-align: center;"">₪58
                                                <br>30%</p>
                  <p id=""wtp"" style=""text-align:center; margin-top: 0px; margin-bottom: 0px; font-size: 40px"";>&ensp;</p>","-","viewing","0","19","13C,30A","","","","","","","","","","","","","","","","","","","","","",""
"","","","","","html-slider-response","113","214316","0.0-21.0-1.0","96aeb710-2bf4-4449-8382-e4bd3178473e","1494","
                  <p style=""text-align: center;"">₪58
                                                <br>30%</p>
                  <p id=""wtp"" style=""text-align:center; margin-top: 0px; margin-bottom: 0px; font-size: 40px"";>מוכנים לשלם: <span id=""c_p_y""></span></p>","5","evaluation","66","19","13C,30A","30","58","6","","","","","","","","","","","","","","","","","","",""
"","","","","","html-keyboard-response","114","215255","0.0-21.0-2.0","96aeb710-2bf4-4449-8382-e4bd3178473e","null","<p style=""text-align: center;"">+</p>","null","fixation","","","","","","","","","","","","","","","","","","","","","","","","",""
"","","","","","html-slider-response","115","216257","0.0-21.0-0.1","96aeb710-2bf4-4449-8382-e4bd3178473e","1000","
                  <p style=""text-align: center;"">₪36
                                                <br>30%</p>
                  <p id=""wtp"" style=""text-align:center; margin-top: 0px; margin-bottom: 0px; font-size: 40px"";>&ensp;</p>","-","viewing","0","11","3C,20A,22A","","","","","","","","","","","","","","","","","","","","","",""
"","","","","","html-slider-response","116","217412","0.0-21.0-1.1","96aeb710-2bf4-4449-8382-e4bd3178473e","1153","
                  <p style=""text-align: center;"">₪36
                                                <br>30%</p>
                  <p id=""wtp"" style=""text-align:center; margin-top: 0px; margin-bottom: 0px; font-size: 40px"";>מוכנים לשלם: <span id=""c_p_y""></span></p>","9","evaluation","70","11","3C,20A,22A","30","36","10","","","","","","","","","","","","","","","","","","",""
"","","","","","html-keyboard-response","117","218013","0.0-21.0-2.1","96aeb710-2bf4-4449-8382-e4bd3178473e","null","<p style=""text-align: center;"">+</p>","null","fixation","","","","","","","","","","","","","","","","","","","","","","","","",""
"","","","","","html-slider-response","118","219015","0.0-21.0-0.2","96aeb710-2bf4-4449-8382-e4bd3178473e","1000","
                  <p style=""text-align: center;"">₪43
                                                <br>60%</p>
                  <p id=""wtp"" style=""text-align:center; margin-top: 0px; margin-bottom: 0px; font-size: 40px"";>&ensp;</p>","-","viewing","0","17","2A,7A,9A,15B","","","","","","","","","","","","","","","","","","","","","",""
"","","","","","html-slider-response","119","220540","0.0-21.0-1.2","96aeb710-2bf4-4449-8382-e4bd3178473e","1523","
                  <p style=""text-align: center;"">₪43
                                                <br>60%</p>
                  <p id=""wtp"" style=""text-align:center; margin-top: 0px; margin-bottom: 0px; font-size: 40px"";>מוכנים לשלם: <span id=""c_p_y""></span></p>","16","evaluation","38","17","2A,7A,9A,15B","60","43","16","","","","","","","","","","","","","","","","","","",""
"","","","","","html-keyboard-response","120","221165","0.0-21.0-2.2","96aeb710-2bf4-4449-8382-e4bd3178473e","null","<p style=""text-align: center;"">+</p>","null","fixation","","","","","","","","","","","","","","","","","","","","","","","","",""
"","","","","","html-slider-response","121","222172","0.0-21.0-0.3","96aeb710-2bf4-4449-8382-e4bd3178473e","1000","
                  <p style=""text-align: center;"">₪11
                                                <br>45%</p>
                  <p id=""wtp"" style=""text-align:center; margin-top: 0px; margin-bottom: 0px; font-size: 40px"";>&ensp;</p>","-","viewing","0","6","14B,21C,25C","","","","","","","","","","","","","","","","","","","","","",""
"","","","","","html-slider-response","122","224596","0.0-21.0-1.3","96aeb710-2bf4-4449-8382-e4bd3178473e","2423","
                  <p style=""text-align: center;"">₪11
                                                <br>45%</p>
                  <p id=""wtp"" style=""text-align:center; margin-top: 0px; margin-bottom: 0px; font-size: 40px"";>מוכנים לשלם: <span id=""c_p_y""></span></p>","16","evaluation","72","6","14B,21C,25C","45","11","17","","","","","","","","","","","","","","","","","","",""
"","","","","","html-keyboard-response","123","225236","0.0-21.0-2.3","96aeb710-2bf4-4449-8382-e4bd3178473e","null","<p style=""text-align: center;"">+</p>","null","fixation","","","","","","","","","","","","","","","","","","","","","","","","",""
"","","","","","html-slider-response","124","226242","0.0-21.0-0.4","96aeb710-2bf4-4449-8382-e4bd3178473e","1000","
                  <p style=""text-align: center;"">₪11
                                                <br>20%</p>
                  <p id=""wtp"" style=""text-align:center; margin-top: 0px; margin-bottom: 0px; font-size: 40px"";>&ensp;</p>","-","viewing","0","4","12C,17C,23C,28C","","","","","","","","","","","","","","","","","","","","","",""
"","","","","","html-slider-response","125","227884","0.0-21.0-1.4","96aeb710-2bf4-4449-8382-e4bd3178473e","1640","
                  <p style=""text-align: center;"">₪11
                                                <br>20%</p>
                  <p id=""wtp"" style=""text-align:center; margin-top: 0px; margin-bottom: 0px; font-size: 40px"";>מוכנים לשלם: <span id=""c_p_y""></span></p>","3","evaluation","39","4","12C,17C,23C,28C","20","11","3","","","","","","","","","","","","","","","","","","",""
"","","","","","html-keyboard-response","126","229221","0.0-21.0-2.4","96aeb710-2bf4-4449-8382-e4bd3178473e","null","<p style=""text-align: center;"">+</p>","null","fixation","","","","","","","","","","","","","","","","","","","","","","","","",""
"","","","","","html-slider-response","127","230227","0.0-21.0-0.5","96aeb710-2bf4-4449-8382-e4bd3178473e","1000","
                  <p style=""text-align: center;"">₪58
                                                <br>45%</p>
                  <p id=""wtp"" style=""text-align:center; margin-top: 0px; margin-bottom: 0px; font-size: 40px"";>&ensp;</p>","-","viewing","0","21","11C,18C,25A","","","","","","","","","","","","","","","","","","","","","",""
"","","","","","html-slider-response","128","232644","0.0-21.0-1.5","96aeb710-2bf4-4449-8382-e4bd3178473e","2415","
                  <p style=""text-align: center;"">₪58
                                                <br>45%</p>
                  <p id=""wtp"" style=""text-align:center; margin-top: 0px; margin-bottom: 0px; font-size: 40px"";>מוכנים לשלם: <span id=""c_p_y""></span></p>","16","evaluation","61","21","11C,18C,25A","45","58","16","","","","","","","","","","","","","","","","","","",""
"","","","","","html-keyboard-response","129","233995","0.0-21.0-2.5","96aeb710-2bf4-4449-8382-e4bd3178473e","null","<p style=""text-align: center;"">+</p>","null","fixation","","","","","","","","","","","","","","","","","","","","","","","","",""
"","","","","","html-slider-response","130","235003","0.0-21.0-0.6","96aeb710-2bf4-4449-8382-e4bd3178473e","1000","
                  <p style=""text-align: center;"">₪71
                                                <br>55%</p>
                  <p id=""wtp"" style=""text-align:center; margin-top: 0px; margin-bottom: 0px; font-size: 40px"";>&ensp;</p>","-","viewing","0","27","5B,18A","","","","","","","","","","","","","","","","","","","","","",""
"","","","","","html-slider-response","131","236883","0.0-21.0-1.6","96aeb710-2bf4-4449-8382-e4bd3178473e","1880","
                  <p style=""text-align: center;"">₪71
                                                <br>55%</p>
                  <p id=""wtp"" style=""text-align:center; margin-top: 0px; margin-bottom: 0px; font-size: 40px"";>מוכנים לשלם: <span id=""c_p_y""></span></p>","25","evaluation","12","27","5B,18A","55","71","25","","","","","","","","","","","","","","","","","","",""
"","","","","","html-keyboard-response","132","237730","0.0-21.0-2.6","96aeb710-2bf4-4449-8382-e4bd3178473e","null","<p style=""text-align: center;"">+</p>","null","fixation","","","","","","","","","","","","","","","","","","","","","","","","",""
"","","","","","html-slider-response","133","238737","0.0-21.0-0.7","96aeb710-2bf4-4449-8382-e4bd3178473e","1000","
                  <p style=""text-align: center;"">₪79
                                                <br>65%</p>
                  <p id=""wtp"" style=""text-align:center; margin-top: 0px; margin-bottom: 0px; font-size: 40px"";>&ensp;</p>","-","viewing","0","31","8A","","","","","","","","","","","","","","","","","","","","","",""
"","","","","","html-slider-response","134","240729","0.0-21.0-1.7","96aeb710-2bf4-4449-8382-e4bd3178473e","1991","
                  <p style=""text-align: center;"">₪79
                                                <br>65%</p>
                  <p id=""wtp"" style=""text-align:center; margin-top: 0px; margin-bottom: 0px; font-size: 40px"";>מוכנים לשלם: <span id=""c_p_y""></span></p>","20","evaluation","52","31","8A","65","79","20","","","","","","","","","","","","","","","","","","",""
"","","","","","html-keyboard-response","135","242053","0.0-21.0-2.7","96aeb710-2bf4-4449-8382-e4bd3178473e","null","<p style=""text-align: center;"">+</p>","null","fixation","","","","","","","","","","","","","","","","","","","","","","","","",""
"","","","","","html-slider-response","136","243060","0.0-21.0-0.8","96aeb710-2bf4-4449-8382-e4bd3178473e","1000","
                  <p style=""text-align: center;"">₪11
                                                <br>25%</p>
                  <p id=""wtp"" style=""text-align:center; margin-top: 0px; margin-bottom: 0px; font-size: 40px"";>&ensp;</p>","-","viewing","0","5","12A,27B,28B,30B","","","","","","","","","","","","","","","","","","","","","",""
"","","","","","html-slider-response","137","244897","0.0-21.0-1.8","96aeb710-2bf4-4449-8382-e4bd3178473e","1836","
                  <p style=""text-align: center;"">₪11
                                                <br>25%</p>
                  <p id=""wtp"" style=""text-align:center; margin-top: 0px; margin-bottom: 0px; font-size: 40px"";>מוכנים לשלם: <span id=""c_p_y""></span></p>","0","evaluation","71","5","12A,27B,28B,30B","25","11","0","","","","","","","","","","","","","","","","","","",""
"","","","","","html-keyboard-response","138","246302","0.0-21.0-2.8","96aeb710-2bf4-4449-8382-e4bd3178473e","null","<p style=""text-align: center;"">+</p>","null","fixation","","","","","","","","","","","","","","","","","","","","","","","","",""
"","","","","","html-slider-response","139","247305","0.0-21.0-0.9","96aeb710-2bf4-4449-8382-e4bd3178473e","1000","
                  <p style=""text-align: center;"">₪61
                                                <br>45%</p>
                  <p id=""wtp"" style=""text-align:center; margin-top: 0px; margin-bottom: 0px; font-size: 40px"";>&ensp;</p>","-","viewing","0","22","10A,11A","","","","","","","","","","","","","","","","","","","","","",""
"","","","","","html-slider-response","140","249113","0.0-21.0-1.9","96aeb710-2bf4-4449-8382-e4bd3178473e","1807","
                  <p style=""text-align: center;"">₪61
                                                <br>45%</p>
                  <p id=""wtp"" style=""text-align:center; margin-top: 0px; margin-bottom: 0px; font-size: 40px"";>מוכנים לשלם: <span id=""c_p_y""></span></p>","19","evaluation","41","22","10A,11A","45","61","19","","","","","","","","","","","","","","","","","","",""
"","","","","","html-keyboard-response","141","249908","0.0-21.0-2.9","96aeb710-2bf4-4449-8382-e4bd3178473e","null","<p style=""text-align: center;"">+</p>","null","fixation","","","","","","","","","","","","","","","","","","","","","","","","",""
"","","","","","html-slider-response","142","250916","0.0-21.0-0.10","96aeb710-2bf4-4449-8382-e4bd3178473e","1000","
                  <p style=""text-align: center;"">₪64
                                                <br>50%</p>
                  <p id=""wtp"" style=""text-align:center; margin-top: 0px; margin-bottom: 0px; font-size: 40px"";>&ensp;</p>","-","viewing","0","25","1B,3B,4A","","","","","","","","","","","","","","","","","","","","","",""
"","","","","","html-slider-response","143","253377","0.0-21.0-1.10","96aeb710-2bf4-4449-8382-e4bd3178473e","2460","
                  <p style=""text-align: center;"">₪64
                                                <br>50%</p>
                  <p id=""wtp"" style=""text-align:center; margin-top: 0px; margin-bottom: 0px; font-size: 40px"";>מוכנים לשלם: <span id=""c_p_y""></span></p>","19","evaluation","77","25","1B,3B,4A","50","64","20","","","","","","","","","","","","","","","","","","",""
"","","","","","html-keyboard-response","144","254527","0.0-21.0-2.10","96aeb710-2bf4-4449-8382-e4bd3178473e","null","<p style=""text-align: center;"">+</p>","null","fixation","","","","","","","","","","","","","","","","","","","","","","","","",""
"","","","","","html-slider-response","145","255537","0.0-21.0-0.11","96aeb710-2bf4-4449-8382-e4bd3178473e","1000","
                  <p style=""text-align: center;"">₪36
                                                <br>60%</p>
                  <p id=""wtp"" style=""text-align:center; margin-top: 0px; margin-bottom: 0px; font-size: 40px"";>&ensp;</p>","-","viewing","0","12","1C,7C,15C","","","","","","","","","","","","","","","","","","","","","",""
"","","","","","html-slider-response","146","257849","0.0-21.0-1.11","96aeb710-2bf4-4449-8382-e4bd3178473e","2311","
                  <p style=""text-align: center;"">₪36
                                                <br>60%</p>
                  <p id=""wtp"" style=""text-align:center; margin-top: 0px; margin-bottom: 0px; font-size: 40px"";>מוכנים לשלם: <span id=""c_p_y""></span></p>","8","evaluation","5","12","1C,7C,15C","60","36","9","","","","","","","","","","","","","","","","","","",""
"","","","","","html-keyboard-response","147","259284","0.0-21.0-2.11","96aeb710-2bf4-4449-8382-e4bd3178473e","null","<p style=""text-align: center;"">+</p>","null","fixation","","","","","","","","","","","","","","","","","","","","","","","","",""
"","","","","","html-slider-response","148","260294","0.0-21.0-0.12","96aeb710-2bf4-4449-8382-e4bd3178473e","1000","
                  <p style=""text-align: center;"">₪43
                                                <br>75%</p>
                  <p id=""wtp"" style=""text-align:center; margin-top: 0px; margin-bottom: 0px; font-size: 40px"";>&ensp;</p>","-","viewing","0","18","11B,19B,24A,26A","","","","","","","","","","","","","","","","","","","","","",""
"","","","","","html-slider-response","149","263385","0.0-21.0-1.12","96aeb710-2bf4-4449-8382-e4bd3178473e","3091","
                  <p style=""text-align: center;"">₪43
                                                <br>75%</p>
                  <p id=""wtp"" style=""text-align:center; margin-top: 0px; margin-bottom: 0px; font-size: 40px"";>מוכנים לשלם: <span id=""c_p_y""></span></p>","11","evaluation","67","18","11B,19B,24A,26A","75","43","12","","","","","","","","","","","","","","","","","","",""
"","","","","","html-keyboard-response","150","264740","0.0-21.0-2.12","96aeb710-2bf4-4449-8382-e4bd3178473e","null","<p style=""text-align: center;"">+</p>","null","fixation","","","","","","","","","","","","","","","","","","","","","","","","",""
"","","","","","html-slider-response","151","265742","0.0-21.0-0.13","96aeb710-2bf4-4449-8382-e4bd3178473e","1000","
                  <p style=""text-align: center;"">₪11
                                                <br>75%</p>
                  <p id=""wtp"" style=""text-align:center; margin-top: 0px; margin-bottom: 0px; font-size: 40px"";>&ensp;</p>","-","viewing","0","7","6B,18B,22C,24C,29A","","","","","","","","","","","","","","","","","","","","","",""
"","","","","","html-slider-response","152","266777","0.0-21.0-1.13","96aeb710-2bf4-4449-8382-e4bd3178473e","1034","
                  <p style=""text-align: center;"">₪11
                                                <br>75%</p>
                  <p id=""wtp"" style=""text-align:center; margin-top: 0px; margin-bottom: 0px; font-size: 40px"";>מוכנים לשלם: <span id=""c_p_y""></span></p>","1","evaluation","70","7","6B,18B,22C,24C,29A","75","11","1","","","","","","","","","","","","","","","","","","",""
"","","","","","html-keyboard-response","153","267961","0.0-21.0-2.13","96aeb710-2bf4-4449-8382-e4bd3178473e","null","<p style=""text-align: center;"">+</p>","null","fixation","","","","","","","","","","","","","","","","","","","","","","","","",""
"","","","","","html-slider-response","154","268974","0.0-21.0-0.14","96aeb710-2bf4-4449-8382-e4bd3178473e","1000","
                  <p style=""text-align: center;"">₪76
                                                <br>65%</p>
                  <p id=""wtp"" style=""text-align:center; margin-top: 0px; margin-bottom: 0px; font-size: 40px"";>&ensp;</p>","-","viewing","0","29","8C,19A,24B","","","","","","","","","","","","","","","","","","","","","",""
"","","","","","html-slider-response","155","272241","0.0-21.0-1.14","96aeb710-2bf4-4449-8382-e4bd3178473e","3266","
                  <p style=""text-align: center;"">₪76
                                                <br>65%</p>
                  <p id=""wtp"" style=""text-align:center; margin-top: 0px; margin-bottom: 0px; font-size: 40px"";>מוכנים לשלם: <span id=""c_p_y""></span></p>","13","evaluation","2","29","8C,19A,24B","65","76","13","","","","","","","","","","","","","","","","","","",""
"","","","","","html-keyboard-response","156","273693","0.0-21.0-2.14","96aeb710-2bf4-4449-8382-e4bd3178473e","null","<p style=""text-align: center;"">+</p>","null","fixation","","","","","","","","","","","","","","","","","","","","","","","","",""
"","","","","","html-slider-response","157","274707","0.0-21.0-0.15","96aeb710-2bf4-4449-8382-e4bd3178473e","1000","
                  <p style=""text-align: center;"">₪18
                                                <br>50%</p>
                  <p id=""wtp"" style=""text-align:center; margin-top: 0px; margin-bottom: 0px; font-size: 40px"";>&ensp;</p>","-","viewing","0","10","2C,16C,22B,28A","","","","","","","","","","","","","","","","","","","","","",""
"","","","","","html-slider-response","158","276305","0.0-21.0-1.15","96aeb710-2bf4-4449-8382-e4bd3178473e","1597","
                  <p style=""text-align: center;"">₪18
                                                <br>50%</p>
                  <p id=""wtp"" style=""text-align:center; margin-top: 0px; margin-bottom: 0px; font-size: 40px"";>מוכנים לשלם: <span id=""c_p_y""></span></p>","4","evaluation","19","10","2C,16C,22B,28A","50","18","4","","","","","","","","","","","","","","","","","","",""
"","","","","","html-keyboard-response","159","277657","0.0-21.0-2.15","96aeb710-2bf4-4449-8382-e4bd3178473e","null","<p style=""text-align: center;"">+</p>","null","fixation","","","","","","","","","","","","","","","","","","","","","","","","",""
"","","","","","html-slider-response","160","278664","0.0-21.0-0.16","96aeb710-2bf4-4449-8382-e4bd3178473e","1000","
                  <p style=""text-align: center;"">₪4
                                                <br>25%</p>
                  <p id=""wtp"" style=""text-align:center; margin-top: 0px; margin-bottom: 0px; font-size: 40px"";>&ensp;</p>","-","viewing","0","1","6C,29B,30C","","","","","","","","","","","","","","","","","","","","","",""
"","","","","","html-slider-response","161","279505","0.0-21.0-1.16","96aeb710-2bf4-4449-8382-e4bd3178473e","840","
                  <p style=""text-align: center;"">₪4
                                                <br>25%</p>
                  <p id=""wtp"" style=""text-align:center; margin-top: 0px; margin-bottom: 0px; font-size: 40px"";>מוכנים לשלם: <span id=""c_p_y""></span></p>","0","evaluation","27","1","6C,29B,30C","25","4","0","","","","","","","","","","","","","","","","","","",""
"","","","","","html-keyboard-response","162","280262","0.0-21.0-2.16","96aeb710-2bf4-4449-8382-e4bd3178473e","null","<p style=""text-align: center;"">+</p>","null","fixation","","","","","","","","","","","","","","","","","","","","","","","","",""
"","","","","","html-slider-response","163","281274","0.0-21.0-0.17","96aeb710-2bf4-4449-8382-e4bd3178473e","1000","
                  <p style=""text-align: center;"">₪39
                                                <br>65%</p>
                  <p id=""wtp"" style=""text-align:center; margin-top: 0px; margin-bottom: 0px; font-size: 40px"";>&ensp;</p>","-","viewing","0","16","1A,15A,26C","","","","","","","","","","","","","","","","","","","","","",""
"","","","","","html-slider-response","164","282881","0.0-21.0-1.17","96aeb710-2bf4-4449-8382-e4bd3178473e","1606","
                  <p style=""text-align: center;"">₪39
                                                <br>65%</p>
                  <p id=""wtp"" style=""text-align:center; margin-top: 0px; margin-bottom: 0px; font-size: 40px"";>מוכנים לשלם: <span id=""c_p_y""></span></p>","8","evaluation","26","16","1A,15A,26C","65","39","8","","","","","","","","","","","","","","","","","","",""
"","","","","","html-keyboard-response","165","283962","0.0-21.0-2.17","96aeb710-2bf4-4449-8382-e4bd3178473e","null","<p style=""text-align: center;"">+</p>","null","fixation","","","","","","","","","","","","","","","","","","","","","","","","",""
"","","","","","html-slider-response","166","284968","0.0-21.0-0.18","96aeb710-2bf4-4449-8382-e4bd3178473e","1000","
                  <p style=""text-align: center;"">₪18
                                                <br>25%</p>
                  <p id=""wtp"" style=""text-align:center; margin-top: 0px; margin-bottom: 0px; font-size: 40px"";>&ensp;</p>","-","viewing","0","9","14A,23A","","","","","","","","","","","","","","","","","","","","","",""
"","","","","","html-slider-response","167","286417","0.0-21.0-1.18","96aeb710-2bf4-4449-8382-e4bd3178473e","1447","
                  <p style=""text-align: center;"">₪18
                                                <br>25%</p>
                  <p id=""wtp"" style=""text-align:center; margin-top: 0px; margin-bottom: 0px; font-size: 40px"";>מוכנים לשלם: <span id=""c_p_y""></span></p>","0","evaluation","5","9","14A,23A","25","18","0","","","","","","","","","","","","","","","","","","",""
"","","","","","html-keyboard-response","168","287680","0.0-21.0-2.18","96aeb710-2bf4-4449-8382-e4bd3178473e","null","<p style=""text-align: center;"">+</p>","null","fixation","","","","","","","","","","","","","","","","","","","","","","","","",""
"","","","","","html-slider-response","169","288681","0.0-21.0-0.19","96aeb710-2bf4-4449-8382-e4bd3178473e","1000","
                  <p style=""text-align: center;"">₪39
                                                <br>60%</p>
                  <p id=""wtp"" style=""text-align:center; margin-top: 0px; margin-bottom: 0px; font-size: 40px"";>&ensp;</p>","-","viewing","0","15","9C,25B","","","","","","","","","","","","","","","","","","","","","",""
"","","","","","html-slider-response","170","290089","0.0-21.0-1.19","96aeb710-2bf4-4449-8382-e4bd3178473e","1407","
                  <p style=""text-align: center;"">₪39
                                                <br>60%</p>
                  <p id=""wtp"" style=""text-align:center; margin-top: 0px; margin-bottom: 0px; font-size: 40px"";>מוכנים לשלם: <span id=""c_p_y""></span></p>","10","evaluation","6","15","9C,25B","60","39","10","","","","","","","","","","","","","","","","","","",""
"","","","","","html-keyboard-response","171","291278","0.0-21.0-2.19","96aeb710-2bf4-4449-8382-e4bd3178473e","null","<p style=""text-align: center;"">+</p>","null","fixation","","","","","","","","","","","","","","","","","","","","","","","","",""
"","","","","","html-slider-response","172","292291","0.0-21.0-0.20","96aeb710-2bf4-4449-8382-e4bd3178473e","1000","
                  <p style=""text-align: center;"">₪71
                                                <br>45%</p>
                  <p id=""wtp"" style=""text-align:center; margin-top: 0px; margin-bottom: 0px; font-size: 40px"";>&ensp;</p>","-","viewing","0","26","2B,16A","","","","","","","","","","","","","","","","","","","","","",""
"","","","","","html-slider-response","173","294393","0.0-21.0-1.20","96aeb710-2bf4-4449-8382-e4bd3178473e","2101","
                  <p style=""text-align: center;"">₪71
                                                <br>45%</p>
                  <p id=""wtp"" style=""text-align:center; margin-top: 0px; margin-bottom: 0px; font-size: 40px"";>מוכנים לשלם: <span id=""c_p_y""></span></p>","29","evaluation","77","26","2B,16A","45","71","29","","","","","","","","","","","","","","","","","","",""
"","","","","","html-keyboard-response","174","295333","0.0-21.0-2.20","96aeb710-2bf4-4449-8382-e4bd3178473e","null","<p style=""text-align: center;"">+</p>","null","fixation","","","","","","","","","","","","","","","","","","","","","","","","",""
"","","","","","html-slider-response","175","296344","0.0-21.0-0.21","96aeb710-2bf4-4449-8382-e4bd3178473e","1000","
                  <p style=""text-align: center;"">₪4
                                                <br>75%</p>
                  <p id=""wtp"" style=""text-align:center; margin-top: 0px; margin-bottom: 0px; font-size: 40px"";>&ensp;</p>","-","viewing","0","3","12B,20B,23B,27C,29C","","","","","","","","","","","","","","","","","","","","","",""
"","","","","","html-slider-response","176","297073","0.0-21.0-1.21","96aeb710-2bf4-4449-8382-e4bd3178473e","728","
                  <p style=""text-align: center;"">₪4
                                                <br>75%</p>
                  <p id=""wtp"" style=""text-align:center; margin-top: 0px; margin-bottom: 0px; font-size: 40px"";>מוכנים לשלם: <span id=""c_p_y""></span></p>","0","evaluation","78","3","12B,20B,23B,27C,29C","75","4","0","","","","","","","","","","","","","","","","","","",""
"","","","","","html-keyboard-response","177","298476","0.0-21.0-2.21","96aeb710-2bf4-4449-8382-e4bd3178473e","null","<p style=""text-align: center;"">+</p>","null","fixation","","","","","","","","","","","","","","","","","","","","","","","","",""
"","","","","","html-slider-response","178","299476","0.0-21.0-0.22","96aeb710-2bf4-4449-8382-e4bd3178473e","1000","
                  <p style=""text-align: center;"">₪58
                                                <br>40%</p>
                  <p id=""wtp"" style=""text-align:center; margin-top: 0px; margin-bottom: 0px; font-size: 40px"";>&ensp;</p>","-","viewing","0","20","10C,13A,19C,21B","","","","","","","","","","","","","","","","","","","","","",""
"","","","","","html-slider-response","179","301415","0.0-21.0-1.22","96aeb710-2bf4-4449-8382-e4bd3178473e","1938","
                  <p style=""text-align: center;"">₪58
                                                <br>40%</p>
                  <p id=""wtp"" style=""text-align:center; margin-top: 0px; margin-bottom: 0px; font-size: 40px"";>מוכנים לשלם: <span id=""c_p_y""></span></p>","18","evaluation","79","20","10C,13A,19C,21B","40","58","18","","","","","","","","","","","","","","","","","","",""
"","","","","","html-keyboard-response","180","302091","0.0-21.0-2.22","96aeb710-2bf4-4449-8382-e4bd3178473e","null","<p style=""text-align: center;"">+</p>","null","fixation","","","","","","","","","","","","","","","","","","","","","","","","",""
"","","","","","html-slider-response","181","303093","0.0-21.0-0.23","96aeb710-2bf4-4449-8382-e4bd3178473e","1000","
                  <p style=""text-align: center;"">₪4
                                                <br>50%</p>
                  <p id=""wtp"" style=""text-align:center; margin-top: 0px; margin-bottom: 0px; font-size: 40px"";>&ensp;</p>","-","viewing","0","2","4C,17B","","","","","","","","","","","","","","","","","","","","","",""
"","","","","","html-slider-response","182","304071","0.0-21.0-1.23","96aeb710-2bf4-4449-8382-e4bd3178473e","977","
                  <p style=""text-align: center;"">₪4
                                                <br>50%</p>
                  <p id=""wtp"" style=""text-align:center; margin-top: 0px; margin-bottom: 0px; font-size: 40px"";>מוכנים לשלם: <span id=""c_p_y""></span></p>","0","evaluation","67","2","4C,17B","50","4","0","","","","","","","","","","","","","","","","","","",""
"","","","","","html-keyboard-response","183","305562","0.0-21.0-2.23","96aeb710-2bf4-4449-8382-e4bd3178473e","null","<p style=""text-align: center;"">+</p>","null","fixation","","","","","","","","","","","","","","","","","","","","","","","","",""
"","","","","","html-slider-response","184","306572","0.0-21.0-0.24","96aeb710-2bf4-4449-8382-e4bd3178473e","1000","
                  <p style=""text-align: center;"">₪64
                                                <br>25%</p>
                  <p id=""wtp"" style=""text-align:center; margin-top: 0px; margin-bottom: 0px; font-size: 40px"";>&ensp;</p>","-","viewing","0","24","6A,21A","","","","","","","","","","","","","","","","","","","","","",""
"","","","","","html-slider-response","185","309439","0.0-21.0-1.24","96aeb710-2bf4-4449-8382-e4bd3178473e","2866","
                  <p style=""text-align: center;"">₪64
                                                <br>25%</p>
                  <p id=""wtp"" style=""text-align:center; margin-top: 0px; margin-bottom: 0px; font-size: 40px"";>מוכנים לשלם: <span id=""c_p_y""></span></p>","10","evaluation","65","24","6A,21A","25","64","10","","","","","","","","","","","","","","","","","","",""
"","","","","","html-keyboard-response","186","310816","0.0-21.0-2.24","96aeb710-2bf4-4449-8382-e4bd3178473e","null","<p style=""text-align: center;"">+</p>","null","fixation","","","","","","","","","","","","","","","","","","","","","","","","",""
"","","","","","html-slider-response","187","311825","0.0-21.0-0.25","96aeb710-2bf4-4449-8382-e4bd3178473e","1000","
                  <p style=""text-align: center;"">₪79
                                                <br>40%</p>
                  <p id=""wtp"" style=""text-align:center; margin-top: 0px; margin-bottom: 0px; font-size: 40px"";>&ensp;</p>","-","viewing","0","30","9B","","","","","","","","","","","","","","","","","","","","","",""
"","","","","","html-slider-response","188","314935","0.0-21.0-1.25","96aeb710-2bf4-4449-8382-e4bd3178473e","3109","
                  <p style=""text-align: center;"">₪79
                                                <br>40%</p>
                  <p id=""wtp"" style=""text-align:center; margin-top: 0px; margin-bottom: 0px; font-size: 40px"";>מוכנים לשלם: <span id=""c_p_y""></span></p>","15","evaluation","44","30","9B","40","79","15","","","","","","","","","","","","","","","","","","",""
"","","","","","html-keyboard-response","189","316040","0.0-21.0-2.25","96aeb710-2bf4-4449-8382-e4bd3178473e","null","<p style=""text-align: center;"">+</p>","null","fixation","","","","","","","","","","","","","","","","","","","","","","","","",""
"","","","","","html-slider-response","190","317047","0.0-21.0-0.26","96aeb710-2bf4-4449-8382-e4bd3178473e","1000","
                  <p style=""text-align: center;"">₪36
                                                <br>70%</p>
                  <p id=""wtp"" style=""text-align:center; margin-top: 0px; margin-bottom: 0px; font-size: 40px"";>&ensp;</p>","-","viewing","0","13","3A,5C,10B","","","","","","","","","","","","","","","","","","","","","",""
"","","","","","html-slider-response","191","318879","0.0-21.0-1.26","96aeb710-2bf4-4449-8382-e4bd3178473e","1830","
                  <p style=""text-align: center;"">₪36
                                                <br>70%</p>
                  <p id=""wtp"" style=""text-align:center; margin-top: 0px; margin-bottom: 0px; font-size: 40px"";>מוכנים לשלם: <span id=""c_p_y""></span></p>","10","evaluation","7","13","3A,5C,10B","70","36","10","","","","","","","","","","","","","","","","","","",""
"","","","","","html-keyboard-response","192","320274","0.0-21.0-2.26","96aeb710-2bf4-4449-8382-e4bd3178473e","null","<p style=""text-align: center;"">+</p>","null","fixation","","","","","","","","","","","","","","","","","","","","","","","","",""
"","","","","","html-slider-response","193","321285","0.0-21.0-0.27","96aeb710-2bf4-4449-8382-e4bd3178473e","1000","
                  <p style=""text-align: center;"">₪71
                                                <br>75%</p>
                  <p id=""wtp"" style=""text-align:center; margin-top: 0px; margin-bottom: 0px; font-size: 40px"";>&ensp;</p>","-","viewing","0","28","8B","","","","","","","","","","","","","","","","","","","","","",""
"","","","","","html-slider-response","194","323567","0.0-21.0-1.27","96aeb710-2bf4-4449-8382-e4bd3178473e","2281","
                  <p style=""text-align: center;"">₪71
                                                <br>75%</p>
                  <p id=""wtp"" style=""text-align:center; margin-top: 0px; margin-bottom: 0px; font-size: 40px"";>מוכנים לשלם: <span id=""c_p_y""></span></p>","31","evaluation","37","28","8B","75","71","31","","","","","","","","","","","","","","","","","","",""
"","","","","","html-keyboard-response","195","324557","0.0-21.0-2.27","96aeb710-2bf4-4449-8382-e4bd3178473e","null","<p style=""text-align: center;"">+</p>","null","fixation","","","","","","","","","","","","","","","","","","","","","","","","",""
"","","","","","html-slider-response","196","325568","0.0-21.0-0.28","96aeb710-2bf4-4449-8382-e4bd3178473e","1000","
                  <p style=""text-align: center;"">₪16
                                                <br>20%</p>
                  <p id=""wtp"" style=""text-align:center; margin-top: 0px; margin-bottom: 0px; font-size: 40px"";>&ensp;</p>","-","viewing","0","8","14C,17A,20C,27A","","","","","","","","","","","","","","","","","","","","","",""
"","","","","","html-slider-response","197","326486","0.0-21.0-1.28","96aeb710-2bf4-4449-8382-e4bd3178473e","917","
                  <p style=""text-align: center;"">₪16
                                                <br>20%</p>
                  <p id=""wtp"" style=""text-align:center; margin-top: 0px; margin-bottom: 0px; font-size: 40px"";>מוכנים לשלם: <span id=""c_p_y""></span></p>","0","evaluation","36","8","14C,17A,20C,27A","20","16","0","","","","","","","","","","","","","","","","","","",""
"","","","","","html-keyboard-response","198","327905","0.0-21.0-2.28","96aeb710-2bf4-4449-8382-e4bd3178473e","null","<p style=""text-align: center;"">+</p>","null","fixation","","","","","","","","","","","","","","","","","","","","","","","","",""
"","","","","","html-slider-response","199","328910","0.0-21.0-0.29","96aeb710-2bf4-4449-8382-e4bd3178473e","1000","
                  <p style=""text-align: center;"">₪61
                                                <br>55%</p>
                  <p id=""wtp"" style=""text-align:center; margin-top: 0px; margin-bottom: 0px; font-size: 40px"";>&ensp;</p>","-","viewing","0","23","7B,26B","","","","","","","","","","","","","","","","","","","","","",""
"","","","","","html-slider-response","200","330847","0.0-21.0-1.29","96aeb710-2bf4-4449-8382-e4bd3178473e","1936","
                  <p style=""text-align: center;"">₪61
                                                <br>55%</p>
                  <p id=""wtp"" style=""text-align:center; margin-top: 0px; margin-bottom: 0px; font-size: 40px"";>מוכנים לשלם: <span id=""c_p_y""></span></p>","20","evaluation","56","23","7B,26B","55","61","20","","","","","","","","","","","","","","","","","","",""
"","","","","","html-keyboard-response","201","331548","0.0-21.0-2.29","96aeb710-2bf4-4449-8382-e4bd3178473e","null","<p style=""text-align: center;"">+</p>","null","fixation","","","","","","","","","","","","","","","","","","","","","","","","",""
"","","","","","html-slider-response","202","332562","0.0-21.0-0.30","96aeb710-2bf4-4449-8382-e4bd3178473e","1000","
                  <p style=""text-align: center;"">₪36
                                                <br>75%</p>
                  <p id=""wtp"" style=""text-align:center; margin-top: 0px; margin-bottom: 0px; font-size: 40px"";>&ensp;</p>","-","viewing","0","14","4B,5A,13B,16B","","","","","","","","","","","","","","","","","","","","","",""
"","","","","","html-slider-response","203","334391","0.0-21.0-1.30","96aeb710-2bf4-4449-8382-e4bd3178473e","1828","
                  <p style=""text-align: center;"">₪36
                                                <br>75%</p>
                  <p id=""wtp"" style=""text-align:center; margin-top: 0px; margin-bottom: 0px; font-size: 40px"";>מוכנים לשלם: <span id=""c_p_y""></span></p>","11","evaluation","30","14","4B,5A,13B,16B","75","36","11","","","","","","","","","","","","","","","","","","",""
"","","","","","html-keyboard-response","204","335117","0.0-21.0-2.30","96aeb710-2bf4-4449-8382-e4bd3178473e","null","<p style=""text-align: center;"">+</p>","null","fixation","","","","","","","","","","","","","","","","","","","","","","","","",""
"","","","","","html-keyboard-response","205","336132","0.0-22.0","96aeb710-2bf4-4449-8382-e4bd3178473e","null","<p style=""text-align: center;"">+</p>","null","fixation","","","","","","","","","","","","","","","","","","","","","","","","",""
"","","","","","html-keyboard-response","206","338047","0.0-23.0","96aeb710-2bf4-4449-8382-e4bd3178473e","null","<p>הפסקה.
          <br>לחצו כדי להמשיך.</p>","1","scan_wait","","","","","","","","","","","","","","","","","","","","","","","","",""
"","","","","","html-keyboard-response","207","339051","0.0-24.0","96aeb710-2bf4-4449-8382-e4bd3178473e","null","<p style=""text-align: center;"">+</p>","null","fixation","","","","","","","","","","","","","","","","","","","","","","","","",""
"","","","","","html-slider-response","208","340053","0.0-25.0-0.0","96aeb710-2bf4-4449-8382-e4bd3178473e","1000","
                  <p style=""text-align: center;"">₪71
                                                <br>75%</p>
                  <p id=""wtp"" style=""text-align:center; margin-top: 0px; margin-bottom: 0px; font-size: 40px"";>&ensp;</p>","-","viewing","0","28","8B","","","","","","","","","","","","","","","","","","","","","",""
"","","","","","html-slider-response","209","341679","0.0-25.0-1.0","96aeb710-2bf4-4449-8382-e4bd3178473e","1625","
                  <p style=""text-align: center;"">₪71
                                                <br>75%</p>
                  <p id=""wtp"" style=""text-align:center; margin-top: 0px; margin-bottom: 0px; font-size: 40px"";>מוכנים לשלם: <span id=""c_p_y""></span></p>","41","evaluation","65","28","8B","75","71","41","","","","","","","","","","","","","","","","","","",""
"","","","","","html-keyboard-response","210","342830","0.0-25.0-2.0","96aeb710-2bf4-4449-8382-e4bd3178473e","null","<p style=""text-align: center;"">+</p>","null","fixation","","","","","","","","","","","","","","","","","","","","","","","","",""
"","","","","","html-slider-response","211","343840","0.0-25.0-0.1","96aeb710-2bf4-4449-8382-e4bd3178473e","1000","
                  <p style=""text-align: center;"">₪11
                                                <br>75%</p>
                  <p id=""wtp"" style=""text-align:center; margin-top: 0px; margin-bottom: 0px; font-size: 40px"";>&ensp;</p>","-","viewing","0","7","6B,18B,22C,24C,29A","","","","","","","","","","","","","","","","","","","","","",""
"","","","","","html-slider-response","212","344735","0.0-25.0-1.1","96aeb710-2bf4-4449-8382-e4bd3178473e","893","
                  <p style=""text-align: center;"">₪11
                                                <br>75%</p>
                  <p id=""wtp"" style=""text-align:center; margin-top: 0px; margin-bottom: 0px; font-size: 40px"";>מוכנים לשלם: <span id=""c_p_y""></span></p>","0","evaluation","53","7","6B,18B,22C,24C,29A","75","11","0","","","","","","","","","","","","","","","","","","",""
"","","","","","html-keyboard-response","213","345334","0.0-25.0-2.1","96aeb710-2bf4-4449-8382-e4bd3178473e","null","<p style=""text-align: center;"">+</p>","null","fixation","","","","","","","","","","","","","","","","","","","","","","","","",""
"","","","","","html-slider-response","214","346336","0.0-25.0-0.2","96aeb710-2bf4-4449-8382-e4bd3178473e","1000","
                  <p style=""text-align: center;"">₪64
                                                <br>25%</p>
                  <p id=""wtp"" style=""text-align:center; margin-top: 0px; margin-bottom: 0px; font-size: 40px"";>&ensp;</p>","-","viewing","0","24","6A,21A","","","","","","","","","","","","","","","","","","","","","",""
"","","","","","html-slider-response","215","348055","0.0-25.0-1.2","96aeb710-2bf4-4449-8382-e4bd3178473e","1718","
                  <p style=""text-align: center;"">₪64
                                                <br>25%</p>
                  <p id=""wtp"" style=""text-align:center; margin-top: 0px; margin-bottom: 0px; font-size: 40px"";>מוכנים לשלם: <span id=""c_p_y""></span></p>","7","evaluation","60","24","6A,21A","25","64","7","","","","","","","","","","","","","","","","","","",""
"","","","","","html-keyboard-response","216","348625","0.0-25.0-2.2","96aeb710-2bf4-4449-8382-e4bd3178473e","null","<p style=""text-align: center;"">+</p>","null","fixation","","","","","","","","","","","","","","","","","","","","","","","","",""
"","","","","","html-slider-response","217","349631","0.0-25.0-0.3","96aeb710-2bf4-4449-8382-e4bd3178473e","1000","
                  <p style=""text-align: center;"">₪76
                                                <br>65%</p>
                  <p id=""wtp"" style=""text-align:center; margin-top: 0px; margin-bottom: 0px; font-size: 40px"";>&ensp;</p>","-","viewing","0","29","8C,19A,24B","","","","","","","","","","","","","","","","","","","","","",""
"","","","","","html-slider-response","218","352295","0.0-25.0-1.3","96aeb710-2bf4-4449-8382-e4bd3178473e","2663","
                  <p style=""text-align: center;"">₪76
                                                <br>65%</p>
                  <p id=""wtp"" style=""text-align:center; margin-top: 0px; margin-bottom: 0px; font-size: 40px"";>מוכנים לשלם: <span id=""c_p_y""></span></p>","29","evaluation","44","29","8C,19A,24B","65","76","29","","","","","","","","","","","","","","","","","","",""
"","","","","","html-keyboard-response","219","353738","0.0-25.0-2.3","96aeb710-2bf4-4449-8382-e4bd3178473e","null","<p style=""text-align: center;"">+</p>","null","fixation","","","","","","","","","","","","","","","","","","","","","","","","",""
"","","","","","html-slider-response","220","354751","0.0-25.0-0.4","96aeb710-2bf4-4449-8382-e4bd3178473e","1000","
                  <p style=""text-align: center;"">₪61
                                                <br>55%</p>
                  <p id=""wtp"" style=""text-align:center; margin-top: 0px; margin-bottom: 0px; font-size: 40px"";>&ensp;</p>","-","viewing","0","23","7B,26B","","","","","","","","","","","","","","","","","","","","","",""
"","","","","","html-slider-response","221","355687","0.0-25.0-1.4","96aeb710-2bf4-4449-8382-e4bd3178473e","935","
                  <p style=""text-align: center;"">₪61
                                                <br>55%</p>
                  <p id=""wtp"" style=""text-align:center; margin-top: 0px; margin-bottom: 0px; font-size: 40px"";>מוכנים לשלם: <span id=""c_p_y""></span></p>","20","evaluation","38","23","7B,26B","55","61","20","","","","","","","","","","","","","","","","","","",""
"","","","","","html-keyboard-response","222","356281","0.0-25.0-2.4","96aeb710-2bf4-4449-8382-e4bd3178473e","null","<p style=""text-align: center;"">+</p>","null","fixation","","","","","","","","","","","","","","","","","","","","","","","","",""
"","","","","","html-slider-response","223","357287","0.0-25.0-0.5","96aeb710-2bf4-4449-8382-e4bd3178473e","1000","
                  <p style=""text-align: center;"">₪71
                                                <br>45%</p>
                  <p id=""wtp"" style=""text-align:center; margin-top: 0px; margin-bottom: 0px; font-size: 40px"";>&ensp;</p>","-","viewing","0","26","2B,16A","","","","","","","","","","","","","","","","","","","","","",""
"","","","","","html-slider-response","224","359916","0.0-25.0-1.5","96aeb710-2bf4-4449-8382-e4bd3178473e","2631","
                  <p style=""text-align: center;"">₪71
                                                <br>45%</p>
                  <p id=""wtp"" style=""text-align:center; margin-top: 0px; margin-bottom: 0px; font-size: 40px"";>מוכנים לשלם: <span id=""c_p_y""></span></p>","20","evaluation","41","26","2B,16A","45","71","20","","","","","","","","","","","","","","","","","","",""
"","","","","","html-keyboard-response","225","361289","0.0-25.0-2.5","96aeb710-2bf4-4449-8382-e4bd3178473e","null","<p style=""text-align: center;"">+</p>","null","fixation","","","","","","","","","","","","","","","","","","","","","","","","",""
"","","","","","html-slider-response","226","362302","0.0-25.0-0.6","96aeb710-2bf4-4449-8382-e4bd3178473e","1000","
                  <p style=""text-align: center;"">₪79
                                                <br>65%</p>
                  <p id=""wtp"" style=""text-align:center; margin-top: 0px; margin-bottom: 0px; font-size: 40px"";>&ensp;</p>","-","viewing","0","31","8A","","","","","","","","","","","","","","","","","","","","","",""
"","","","","","html-slider-response","227","364612","0.0-25.0-1.6","96aeb710-2bf4-4449-8382-e4bd3178473e","2310","
                  <p style=""text-align: center;"">₪79
                                                <br>65%</p>
                  <p id=""wtp"" style=""text-align:center; margin-top: 0px; margin-bottom: 0px; font-size: 40px"";>מוכנים לשלם: <span id=""c_p_y""></span></p>","29","evaluation","46","31","8A","65","79","29","","","","","","","","","","","","","","","","","","",""
"","","","","","html-keyboard-response","228","365236","0.0-25.0-2.6","96aeb710-2bf4-4449-8382-e4bd3178473e","null","<p style=""text-align: center;"">+</p>","null","fixation","","","","","","","","","","","","","","","","","","","","","","","","",""
"","","","","","html-slider-response","229","366239","0.0-25.0-0.7","96aeb710-2bf4-4449-8382-e4bd3178473e","1000","
                  <p style=""text-align: center;"">₪4
                                                <br>75%</p>
                  <p id=""wtp"" style=""text-align:center; margin-top: 0px; margin-bottom: 0px; font-size: 40px"";>&ensp;</p>","-","viewing","0","3","12B,20B,23B,27C,29C","","","","","","","","","","","","","","","","","","","","","",""
"","","","","","html-slider-response","230","367076","0.0-25.0-1.7","96aeb710-2bf4-4449-8382-e4bd3178473e","837","
                  <p style=""text-align: center;"">₪4
                                                <br>75%</p>
                  <p id=""wtp"" style=""text-align:center; margin-top: 0px; margin-bottom: 0px; font-size: 40px"";>מוכנים לשלם: <span id=""c_p_y""></span></p>","0","evaluation","22","3","12B,20B,23B,27C,29C","75","4","0","","","","","","","","","","","","","","","","","","",""
"","","","","","html-keyboard-response","231","367957","0.0-25.0-2.7","96aeb710-2bf4-4449-8382-e4bd3178473e","null","<p style=""text-align: center;"">+</p>","null","fixation","","","","","","","","","","","","","","","","","","","","","","","","",""
"","","","","","html-slider-response","232","368965","0.0-25.0-0.8","96aeb710-2bf4-4449-8382-e4bd3178473e","1000","
                  <p style=""text-align: center;"">₪4
                                                <br>25%</p>
                  <p id=""wtp"" style=""text-align:center; margin-top: 0px; margin-bottom: 0px; font-size: 40px"";>&ensp;</p>","-","viewing","0","1","6C,29B,30C","","","","","","","","","","","","","","","","","","","","","",""
"","","","","","html-slider-response","233","369372","0.0-25.0-1.8","96aeb710-2bf4-4449-8382-e4bd3178473e","406","
                  <p style=""text-align: center;"">₪4
                                                <br>25%</p>
                  <p id=""wtp"" style=""text-align:center; margin-top: 0px; margin-bottom: 0px; font-size: 40px"";>מוכנים לשלם: <span id=""c_p_y""></span></p>","0","evaluation","55","1","6C,29B,30C","25","4","0","","","","","","","","","","","","","","","","","","",""
"","","","","","html-keyboard-response","234","370363","0.0-25.0-2.8","96aeb710-2bf4-4449-8382-e4bd3178473e","null","<p style=""text-align: center;"">+</p>","null","fixation","","","","","","","","","","","","","","","","","","","","","","","","",""
"","","","","","html-slider-response","235","371366","0.0-25.0-0.9","96aeb710-2bf4-4449-8382-e4bd3178473e","1000","
                  <p style=""text-align: center;"">₪58
                                                <br>30%</p>
                  <p id=""wtp"" style=""text-align:center; margin-top: 0px; margin-bottom: 0px; font-size: 40px"";>&ensp;</p>","-","viewing","0","19","13C,30A","","","","","","","","","","","","","","","","","","","","","",""
"","","","","","html-slider-response","236","373700","0.0-25.0-1.9","96aeb710-2bf4-4449-8382-e4bd3178473e","2334","
                  <p style=""text-align: center;"">₪58
                                                <br>30%</p>
                  <p id=""wtp"" style=""text-align:center; margin-top: 0px; margin-bottom: 0px; font-size: 40px"";>מוכנים לשלם: <span id=""c_p_y""></span></p>","11","evaluation","16","19","13C,30A","30","58","11","","","","","","","","","","","","","","","","","","",""
"","","","","","html-keyboard-response","237","374578","0.0-25.0-2.9","96aeb710-2bf4-4449-8382-e4bd3178473e","null","<p style=""text-align: center;"">+</p>","null","fixation","","","","","","","","","","","","","","","","","","","","","","","","",""
"","","","","","html-slider-response","238","375585","0.0-25.0-0.10","96aeb710-2bf4-4449-8382-e4bd3178473e","1000","
                  <p style=""text-align: center;"">₪58
                                                <br>45%</p>
                  <p id=""wtp"" style=""text-align:center; margin-top: 0px; margin-bottom: 0px; font-size: 40px"";>&ensp;</p>","-","viewing","0","21","11C,18C,25A","","","","","","","","","","","","","","","","","","","","","",""
"","","","","","html-slider-response","239","378468","0.0-25.0-1.10","96aeb710-2bf4-4449-8382-e4bd3178473e","2882","
                  <p style=""text-align: center;"">₪58
                                                <br>45%</p>
                  <p id=""wtp"" style=""text-align:center; margin-top: 0px; margin-bottom: 0px; font-size: 40px"";>מוכנים לשלם: <span id=""c_p_y""></span></p>","18","evaluation","37","21","11C,18C,25A","45","58","18","","","","","","","","","","","","","","","","","","",""
"","","","","","html-keyboard-response","240","379332","0.0-25.0-2.10","96aeb710-2bf4-4449-8382-e4bd3178473e","null","<p style=""text-align: center;"">+</p>","null","fixation","","","","","","","","","","","","","","","","","","","","","","","","",""
"","","","","","html-slider-response","241","380334","0.0-25.0-0.11","96aeb710-2bf4-4449-8382-e4bd3178473e","1000","
                  <p style=""text-align: center;"">₪16
                                                <br>20%</p>
                  <p id=""wtp"" style=""text-align:center; margin-top: 0px; margin-bottom: 0px; font-size: 40px"";>&ensp;</p>","-","viewing","0","8","14C,17A,20C,27A","","","","","","","","","","","","","","","","","","","","","",""
"","","","","","html-slider-response","242","380764","0.0-25.0-1.11","96aeb710-2bf4-4449-8382-e4bd3178473e","429","
                  <p style=""text-align: center;"">₪16
                                                <br>20%</p>
                  <p id=""wtp"" style=""text-align:center; margin-top: 0px; margin-bottom: 0px; font-size: 40px"";>מוכנים לשלם: <span id=""c_p_y""></span></p>","0","evaluation","20","8","14C,17A,20C,27A","20","16","0","","","","","","","","","","","","","","","","","","",""
"","","","","","html-keyboard-response","243","382014","0.0-25.0-2.11","96aeb710-2bf4-4449-8382-e4bd3178473e","null","<p style=""text-align: center;"">+</p>","null","fixation","","","","","","","","","","","","","","","","","","","","","","","","",""
"","","","","","html-slider-response","244","383021","0.0-25.0-0.12","96aeb710-2bf4-4449-8382-e4bd3178473e","1000","
                  <p style=""text-align: center;"">₪18
                                                <br>50%</p>
                  <p id=""wtp"" style=""text-align:center; margin-top: 0px; margin-bottom: 0px; font-size: 40px"";>&ensp;</p>","-","viewing","0","10","2C,16C,22B,28A","","","","","","","","","","","","","","","","","","","","","",""
"","","","","","html-slider-response","245","384340","0.0-25.0-1.12","96aeb710-2bf4-4449-8382-e4bd3178473e","1318","
                  <p style=""text-align: center;"">₪18
                                                <br>50%</p>
