"success","timeout","failed_images","failed_audio","failed_video","trial_type","trial_index","time_elapsed","internal_node_id","subject_id","rt","stimulus","response","part","slider_start","ID","set_ID","prob","amount","last_location","actual_choice","actual_EV","binary_id","trinary_id","catch","A_key","D_key","choice_prob","choice_amount","chosen_part","won_prize","potential_prize_amount","potential_prize_prob","total_prize","accuracy"
"true","false","[]","[]","[]","preload","0","215","0.0-0.0","8096b4eb-f983-4e8d-8b05-e4a0828db6bf","","","","","","","","","","","","","","","","","","","","","","","","",""
"","","","","","html-keyboard-response","1","867316","0.0-1.0","8096b4eb-f983-4e8d-8b05-e4a0828db6bf","null","
          <h1>שלום וברוכים הבאים!</h1>
          <p>לפניכם ניסוי בקבלת החלטות עם שני חלקים.
          <br><br>לחצו על העכבר כדי להמשיך.</p>","0","example","","","","","","","","","","","","","","","","","","","","",""
"","","","","","html-keyboard-response","2","879628","0.0-2.0","8096b4eb-f983-4e8d-8b05-e4a0828db6bf","null","
        <h1>חלק 1</h1>
        <p>בקרוב יוצגו בפניכם הגרלות.
        <br>עליכם לבחור את המחיר המירבי שתהיו מוכנים לשלם כדי להשתתף בהגרלה שתוצג.
        <br>יש לכם תקציב של ₪80 לכל הגרלה. 
        <br>נסו להעריך כל הגרלה בנפרד ולחשוב כמה היא שווה עבורכם, ₪80 זמינים לכל הגרלה בנפרד.
        <br><br>לחצו על העכבר כדי להמשיך.</p>","1","instructions","","","","","","","","","","","","","","","","","","","","",""
"","","","","","html-keyboard-response","3","903628","0.0-3.0","8096b4eb-f983-4e8d-8b05-e4a0828db6bf","null","
        <p>בסוף הניסוי, המחשב יבחר את אחת ההגרלות ויקבע מחיר לכרטיס עבורה. 
        <br>במידה והמחיר שבחרתם נמוך מהמחיר שנבחר על ידי המחשב, לא תשתתפו בהגרלה ותשארו עם מלוא התקציב.
        <br>במידה והמחיר שבחרתם גבוה מהמחיר שנבחר על ידי המחשב, תשלמו את המחיר שנקבע ותשתתפו בהגרלה.
        <br><br>לחצו על העכבר כדי להמשיך.</p>","1","instructions","","","","","","","","","","","","","","","","","","","","",""
"","","","","","html-slider-response","4","926516","0.0-4.0","8096b4eb-f983-4e8d-8b05-e4a0828db6bf","22772","
        <p style=""font-size: 42px;"">נתחיל עם דוגמא: 
        <br>ההגרלה מטה מציעה 65% סיכוי לזכות ב-₪40 
        <br>&emsp;&emsp;&emsp;&emsp;&emsp;&emsp;&emsp;&emsp;&ensp;35% סיכוי לזכות ב-₪0.
        <br><br>מה המחיר המירבי שתהיו מוכנים לשלם על כרטיס להגרלה זו בין 0 ל-₪80?
        <br>הזיזו את העכבר על פני המלבן ולחצו כדי לבצע בחירה.</p>
        
        <p style=""text-align: center;"">₪40<br>65%</p>

        <p id=""wtp"" style=""text-align:center; margin-top: 0px; margin-bottom: 0px; font-size: 40px"";>מוכנים לשלם: <span id=""c_p_y""></span></p>","50","example","16","","","","","","","","","","","","","","","","","","","",""
"","","","","","html-keyboard-response","5","937787","0.0-5.0","8096b4eb-f983-4e8d-8b05-e4a0828db6bf","null","<p>יפה מאוד!
                <br> בחרתם שתהיו מוכנים לשלם ₪50 כדי להשתתף בהגרלה:
                <br><p style=""text-align: center;"">₪40<br>65%</p>
                <p>נשמע נכון?
                <br>נניח שהגרלה זו נבחרה בסוף הניסוי.
                <br>כעת המחשב יקבע מחיר עבורה באקראי.
                <br>לחצו על העכבר להמשך.</p>","1","example","","","","","","","","","","","","","","","","","","","","",""
"","","","","","html-keyboard-response","6","946411","0.0-6.0","8096b4eb-f983-4e8d-8b05-e4a0828db6bf","null","<p>המחשב קבע מחיר: ₪72
                <br>ואתם בחרתם לשלם לכל היותר: ₪50
                <br><br>מכיוון שהמחיר שבחרתם נמוך מהמחיר שנקבע, לא תתשתתפו בהגרלה.
                <br>במקרה כזה, בסוף הניסוי תקבלו את כל התקציב ההתחלתי של ₪80.
                <br><br>לחצו על העכבר להמשך.</p>","1","example","","","","","","","","","","","","","","","","","","","","",""
"","","","","","html-slider-response","7","953803","0.0-7.0","8096b4eb-f983-4e8d-8b05-e4a0828db6bf","7127","<p style=""font-size: 42px;"">הנה עוד דוגמא:
                <br>ההגרלה מטה מציעה 35% סיכוי לזכות ב-₪18 
                <br>&emsp;&emsp;&emsp;&emsp;&emsp;&emsp;&emsp;&emsp;&ensp;65% סיכוי לזכות ב-₪0.</p>
        
                <p style=""text-align: center;"">₪18<br>35%</p>
                <p id=""wtp"" style=""text-align:center; margin-top: 0px; margin-bottom: 0px; font-size: 40px"";>מוכנים לשלם: <span id=""c_p_y""></span></p>","40","example","72","","","","","","","","","","","","","","","","","","","",""
"","","","","","html-keyboard-response","8","964571","0.0-8.0","8096b4eb-f983-4e8d-8b05-e4a0828db6bf","null","<p>הייתם מוכנים לשלם  ₪40 כדי להשתתף בהגרלה:
                <p style=""text-align: center;"">₪18<br>35%</p>
                <p>כעת נניח שהמחשב בחר את ההגרלה הזו בסוף הניסוי, וקבע עבורה מחיר.
                <br><br>לחצו על העכבר כדי להמשיך.</p>","1","instructions","","","","","","","","","","","","","","","","","","","","",""
"","","","","","html-keyboard-response","9","985115","0.0-9.0","8096b4eb-f983-4e8d-8b05-e4a0828db6bf","null","<p>המחשב קבע מחיר להגרלה: ₪15<br>ואתם בחרתם לשלם לכל היותר: ₪40
                <br><br>כעת המחיר שנקבע נמוך מזה שבחרתם, אז תשלמו את המחיר שקבע המחשב (₪15) ותשתתפו בהגרלה.
                <br>במקרה כזה, תסיימו את הניסוי עם תקציב של ₪65 ועם סיכוי לזכות ב-₪18 נוספים מההגרלה.
                <br>כלומר, תוכלו לקבל ₪65 אם לא תזכו בהגרלה, או ₪83 אם תזכו בהגרלה.
                <br><br>לחצו על העכבר להמשך.</p>","1","example","","","","","","","","","","","","","","","","","","","","",""
"","","","","","html-keyboard-response","10","1007402","0.0-10.0","8096b4eb-f983-4e8d-8b05-e4a0828db6bf","null","<p>במהלך הניסוי, קודם תראו את ההגרלה ורק לאחר מכן תוכלו לבחור.
                <p>כמו כן, יהיו לכם מספר שניות מוגבל להגיב.
                <p>בואו ננסה זאת עם ההגרלה הקודמת.
                <br>לחצו על העכבר כדי להמשיך.</p>","1","instructions","","","","","","","","","","","","","","","","","","","","",""
"","","","","","html-slider-response","11","1008683","0.0-11.0","8096b4eb-f983-4e8d-8b05-e4a0828db6bf","1000","
                    <p style=""text-align: center;"">₪18<br>35%</p>
                    <p id=""wtp"" style=""text-align:center; margin-top: 0px; margin-bottom: 0px; font-size: 40px"";>&ensp;</p>","39","instructions","0","","","","","","","","","","","","","","","","","","","",""
"","","","","","html-slider-response","12","1012951","0.0-12.0","8096b4eb-f983-4e8d-8b05-e4a0828db6bf","null","
                    <p style=""text-align: center;"">₪18<br>35%</p>
                    <p id=""wtp"" style=""text-align:center; margin-top: 0px; margin-bottom: 0px; font-size: 40px"";>מוכנים לשלם: <span id=""c_p_y""></span></p>","null","instructions","36","","","","","","","","","","","","","","","","","","","",""
"","","","","","html-keyboard-response","13","1017274","0.0-13.0","8096b4eb-f983-4e8d-8b05-e4a0828db6bf","null","<p>לא הגבתם בזמן המוקצב לתגובה. 
                <br>נסו להגיב מהר יותר בפעם הבאה.
                <br><br>לחצו על העכבר כדי להמשיך.</p>","1","instructions","","","","","","","","","","","","","","","","","","","","",""
"","","","","","html-slider-response","14","1021542","0.0-14.0-0.0","8096b4eb-f983-4e8d-8b05-e4a0828db6bf","null","
                    <p style=""text-align: center;"">₪40<br>65%</p>
                    <p id=""wtp"" style=""text-align:center; margin-top: 0px; margin-bottom: 0px; font-size: 40px"";>מוכנים לשלם: <span id=""c_p_y""></span></p>","null","instructions","77","","","","","","","","","","","","","","","","","","","",""
"","","","","","html-keyboard-response","15","1021922","0.0-14.0-1.0","8096b4eb-f983-4e8d-8b05-e4a0828db6bf","null","<p>לא הגבתם בזמן המוקצב לתגובה. 
                <br>נסו להגיב מהר יותר בפעם הבאה.
                <br><br>לחצו על העכבר כדי להמשיך.</p>","1","instructions","","","","","","","","","","","","","","","","","","","","",""
"","","","","","html-keyboard-response","16","1029226","0.0-15.0","8096b4eb-f983-4e8d-8b05-e4a0828db6bf","null","<p>כעת נתחיל את הניסוי.
                <br><br>אתם תראו הגרלות ותתבקשו לבחור כמה תהיו מוכנים לשלם כדי להשתתף בהן.
                <br>יש לכם תקציב של ₪80 עבור כל הגרלה.
                <br>בסוף הניסוי הגרלה אחת תבחר באקראי ותשוחק.
                <br><br>לחצו על העכבר כדי להתחיל את הניסוי.</p>","1","instructions","","","","","","","","","","","","","","","","","","","","",""
"","","","","","html-keyboard-response","17","1030489","0.0-16.0","8096b4eb-f983-4e8d-8b05-e4a0828db6bf","null","<p style=""text-align: center;"">+</p>","null","fixation","","","","","","","","","","","","","","","","","","","","",""
"","","","","","html-slider-response","18","1031492","0.0-17.0-0.0","8096b4eb-f983-4e8d-8b05-e4a0828db6bf","1000","
                  <p style=""text-align: center;"">₪11
                                                <br>20%</p>
                  <p id=""wtp"" style=""text-align:center; margin-top: 0px; margin-bottom: 0px; font-size: 40px"";>&ensp;</p>","-","viewing","0","4","12C,17C,23C,28C","","","","","","","","","","","","","","","","","",""
"","","","","","html-slider-response","19","1032305","0.0-17.0-1.0","8096b4eb-f983-4e8d-8b05-e4a0828db6bf","812","
                  <p style=""text-align: center;"">₪11
                                                <br>20%</p>
                  <p id=""wtp"" style=""text-align:center; margin-top: 0px; margin-bottom: 0px; font-size: 40px"";>מוכנים לשלם: <span id=""c_p_y""></span></p>","80","evaluation","16","4","12C,17C,23C,28C","20","11","80","","","","","","","","","","","","","","",""
"","","","","","html-keyboard-response","20","1033272","0.0-17.0-2.0","8096b4eb-f983-4e8d-8b05-e4a0828db6bf","null","<p style=""text-align: center;"">+</p>","null","fixation","","","","","","","","","","","","","","","","","","","","",""
"","","","","","html-slider-response","21","1034284","0.0-17.0-0.1","8096b4eb-f983-4e8d-8b05-e4a0828db6bf","1000","
                  <p style=""text-align: center;"">₪71
                                                <br>45%</p>
                  <p id=""wtp"" style=""text-align:center; margin-top: 0px; margin-bottom: 0px; font-size: 40px"";>&ensp;</p>","-","viewing","0","26","2B,16A","","","","","","","","","","","","","","","","","",""
"","","","","","html-slider-response","22","1035698","0.0-17.0-1.1","8096b4eb-f983-4e8d-8b05-e4a0828db6bf","1413","
                  <p style=""text-align: center;"">₪71
                                                <br>45%</p>
                  <p id=""wtp"" style=""text-align:center; margin-top: 0px; margin-bottom: 0px; font-size: 40px"";>מוכנים לשלם: <span id=""c_p_y""></span></p>","80","evaluation","16","26","2B,16A","45","71","80","","","","","","","","","","","","","","",""
"","","","","","html-keyboard-response","23","1036493","0.0-17.0-2.1","8096b4eb-f983-4e8d-8b05-e4a0828db6bf","null","<p style=""text-align: center;"">+</p>","null","fixation","","","","","","","","","","","","","","","","","","","","",""
"","","","","","html-slider-response","24","1037499","0.0-17.0-0.2","8096b4eb-f983-4e8d-8b05-e4a0828db6bf","1000","
                  <p style=""text-align: center;"">₪4
                                                <br>25%</p>
                  <p id=""wtp"" style=""text-align:center; margin-top: 0px; margin-bottom: 0px; font-size: 40px"";>&ensp;</p>","-","viewing","0","1","6C,29B,30C","","","","","","","","","","","","","","","","","",""
"","","","","","html-slider-response","25","1039426","0.0-17.0-1.2","8096b4eb-f983-4e8d-8b05-e4a0828db6bf","1926","
                  <p style=""text-align: center;"">₪4
                                                <br>25%</p>
                  <p id=""wtp"" style=""text-align:center; margin-top: 0px; margin-bottom: 0px; font-size: 40px"";>מוכנים לשלם: <span id=""c_p_y""></span></p>","17","evaluation","11","1","6C,29B,30C","25","4","17","","","","","","","","","","","","","","",""
"","","","","","html-keyboard-response","26","1040507","0.0-17.0-2.2","8096b4eb-f983-4e8d-8b05-e4a0828db6bf","null","<p style=""text-align: center;"">+</p>","null","fixation","","","","","","","","","","","","","","","","","","","","",""
"","","","","","html-slider-response","27","1041515","0.0-17.0-0.3","8096b4eb-f983-4e8d-8b05-e4a0828db6bf","1000","
                  <p style=""text-align: center;"">₪64
                                                <br>25%</p>
                  <p id=""wtp"" style=""text-align:center; margin-top: 0px; margin-bottom: 0px; font-size: 40px"";>&ensp;</p>","-","viewing","0","24","6A,21A","","","","","","","","","","","","","","","","","",""
"","","","","","html-slider-response","28","1043505","0.0-17.0-1.3","8096b4eb-f983-4e8d-8b05-e4a0828db6bf","1989","
                  <p style=""text-align: center;"">₪64
                                                <br>25%</p>
                  <p id=""wtp"" style=""text-align:center; margin-top: 0px; margin-bottom: 0px; font-size: 40px"";>מוכנים לשלם: <span id=""c_p_y""></span></p>","80","evaluation","42","24","6A,21A","25","64","80","","","","","","","","","","","","","","",""
"","","","","","html-keyboard-response","29","1044509","0.0-17.0-2.3","8096b4eb-f983-4e8d-8b05-e4a0828db6bf","null","<p style=""text-align: center;"">+</p>","null","fixation","","","","","","","","","","","","","","","","","","","","",""
"","","","","","html-slider-response","30","1045514","0.0-17.0-0.4","8096b4eb-f983-4e8d-8b05-e4a0828db6bf","1000","
                  <p style=""text-align: center;"">₪58
                                                <br>45%</p>
                  <p id=""wtp"" style=""text-align:center; margin-top: 0px; margin-bottom: 0px; font-size: 40px"";>&ensp;</p>","-","viewing","0","21","11C,18C,25A","","","","","","","","","","","","","","","","","",""
"","","","","","html-slider-response","31","1046883","0.0-17.0-1.4","8096b4eb-f983-4e8d-8b05-e4a0828db6bf","1368","
                  <p style=""text-align: center;"">₪58
                                                <br>45%</p>
                  <p id=""wtp"" style=""text-align:center; margin-top: 0px; margin-bottom: 0px; font-size: 40px"";>מוכנים לשלם: <span id=""c_p_y""></span></p>","60","evaluation","62","21","11C,18C,25A","45","58","60","","","","","","","","","","","","","","",""
"","","","","","html-keyboard-response","32","1048003","0.0-17.0-2.4","8096b4eb-f983-4e8d-8b05-e4a0828db6bf","null","<p style=""text-align: center;"">+</p>","null","fixation","","","","","","","","","","","","","","","","","","","","",""
"","","","","","html-slider-response","33","1049009","0.0-17.0-0.5","8096b4eb-f983-4e8d-8b05-e4a0828db6bf","1000","
                  <p style=""text-align: center;"">₪71
                                                <br>75%</p>
                  <p id=""wtp"" style=""text-align:center; margin-top: 0px; margin-bottom: 0px; font-size: 40px"";>&ensp;</p>","-","viewing","0","28","8B","","","","","","","","","","","","","","","","","",""
"","","","","","html-slider-response","34","1050402","0.0-17.0-1.5","8096b4eb-f983-4e8d-8b05-e4a0828db6bf","1391","
                  <p style=""text-align: center;"">₪71
                                                <br>75%</p>
                  <p id=""wtp"" style=""text-align:center; margin-top: 0px; margin-bottom: 0px; font-size: 40px"";>מוכנים לשלם: <span id=""c_p_y""></span></p>","80","evaluation","2","28","8B","75","71","80","","","","","","","","","","","","","","",""
"","","","","","html-keyboard-response","35","1051696","0.0-17.0-2.5","8096b4eb-f983-4e8d-8b05-e4a0828db6bf","null","<p style=""text-align: center;"">+</p>","null","fixation","","","","","","","","","","","","","","","","","","","","",""
"","","","","","html-slider-response","36","1052707","0.0-17.0-0.6","8096b4eb-f983-4e8d-8b05-e4a0828db6bf","1000","
                  <p style=""text-align: center;"">₪36
                                                <br>75%</p>
                  <p id=""wtp"" style=""text-align:center; margin-top: 0px; margin-bottom: 0px; font-size: 40px"";>&ensp;</p>","-","viewing","0","14","4B,5A,13B,16B","","","","","","","","","","","","","","","","","",""
"","","","","","html-slider-response","37","1054762","0.0-17.0-1.6","8096b4eb-f983-4e8d-8b05-e4a0828db6bf","2054","
                  <p style=""text-align: center;"">₪36
                                                <br>75%</p>
                  <p id=""wtp"" style=""text-align:center; margin-top: 0px; margin-bottom: 0px; font-size: 40px"";>מוכנים לשלם: <span id=""c_p_y""></span></p>","80","evaluation","7","14","4B,5A,13B,16B","75","36","80","","","","","","","","","","","","","","",""
"","","","","","html-keyboard-response","38","1055890","0.0-17.0-2.6","8096b4eb-f983-4e8d-8b05-e4a0828db6bf","null","<p style=""text-align: center;"">+</p>","null","fixation","","","","","","","","","","","","","","","","","","","","",""
"","","","","","html-slider-response","39","1056902","0.0-17.0-0.7","8096b4eb-f983-4e8d-8b05-e4a0828db6bf","1000","
                  <p style=""text-align: center;"">₪64
                                                <br>50%</p>
                  <p id=""wtp"" style=""text-align:center; margin-top: 0px; margin-bottom: 0px; font-size: 40px"";>&ensp;</p>","-","viewing","0","25","1B,3B,4A","","","","","","","","","","","","","","","","","",""
"","","","","","html-slider-response","40","1058522","0.0-17.0-1.7","8096b4eb-f983-4e8d-8b05-e4a0828db6bf","1618","
                  <p style=""text-align: center;"">₪64
                                                <br>50%</p>
                  <p id=""wtp"" style=""text-align:center; margin-top: 0px; margin-bottom: 0px; font-size: 40px"";>מוכנים לשלם: <span id=""c_p_y""></span></p>","70","evaluation","26","25","1B,3B,4A","50","64","70","","","","","","","","","","","","","","",""
"","","","","","html-keyboard-response","41","1059378","0.0-17.0-2.7","8096b4eb-f983-4e8d-8b05-e4a0828db6bf","null","<p style=""text-align: center;"">+</p>","null","fixation","","","","","","","","","","","","","","","","","","","","",""
"","","","","","html-slider-response","42","1060385","0.0-17.0-0.8","8096b4eb-f983-4e8d-8b05-e4a0828db6bf","1000","
                  <p style=""text-align: center;"">₪61
                                                <br>45%</p>
                  <p id=""wtp"" style=""text-align:center; margin-top: 0px; margin-bottom: 0px; font-size: 40px"";>&ensp;</p>","-","viewing","0","22","10A,11A","","","","","","","","","","","","","","","","","",""
"","","","","","html-slider-response","43","1062914","0.0-17.0-1.8","8096b4eb-f983-4e8d-8b05-e4a0828db6bf","2528","
                  <p style=""text-align: center;"">₪61
                                                <br>45%</p>
                  <p id=""wtp"" style=""text-align:center; margin-top: 0px; margin-bottom: 0px; font-size: 40px"";>מוכנים לשלם: <span id=""c_p_y""></span></p>","69","evaluation","12","22","10A,11A","45","61","69","","","","","","","","","","","","","","",""
"","","","","","html-keyboard-response","44","1063578","0.0-17.0-2.8","8096b4eb-f983-4e8d-8b05-e4a0828db6bf","null","<p style=""text-align: center;"">+</p>","null","fixation","","","","","","","","","","","","","","","","","","","","",""
"","","","","","html-slider-response","45","1064587","0.0-17.0-0.9","8096b4eb-f983-4e8d-8b05-e4a0828db6bf","1000","
                  <p style=""text-align: center;"">₪71
                                                <br>55%</p>
                  <p id=""wtp"" style=""text-align:center; margin-top: 0px; margin-bottom: 0px; font-size: 40px"";>&ensp;</p>","-","viewing","0","27","5B,18A","","","","","","","","","","","","","","","","","",""
"","","","","","html-slider-response","46","1065369","0.0-17.0-1.9","8096b4eb-f983-4e8d-8b05-e4a0828db6bf","782","
                  <p style=""text-align: center;"">₪71
                                                <br>55%</p>
                  <p id=""wtp"" style=""text-align:center; margin-top: 0px; margin-bottom: 0px; font-size: 40px"";>מוכנים לשלם: <span id=""c_p_y""></span></p>","80","evaluation","69","27","5B,18A","55","71","80","","","","","","","","","","","","","","",""
"","","","","","html-keyboard-response","47","1066021","0.0-17.0-2.9","8096b4eb-f983-4e8d-8b05-e4a0828db6bf","null","<p style=""text-align: center;"">+</p>","null","fixation","","","","","","","","","","","","","","","","","","","","",""
"","","","","","html-slider-response","48","1067025","0.0-17.0-0.10","8096b4eb-f983-4e8d-8b05-e4a0828db6bf","1000","
                  <p style=""text-align: center;"">₪4
                                                <br>50%</p>
                  <p id=""wtp"" style=""text-align:center; margin-top: 0px; margin-bottom: 0px; font-size: 40px"";>&ensp;</p>","-","viewing","0","2","4C,17B","","","","","","","","","","","","","","","","","",""
"","","","","","html-slider-response","49","1068584","0.0-17.0-1.10","8096b4eb-f983-4e8d-8b05-e4a0828db6bf","1559","
                  <p style=""text-align: center;"">₪4
                                                <br>50%</p>
                  <p id=""wtp"" style=""text-align:center; margin-top: 0px; margin-bottom: 0px; font-size: 40px"";>מוכנים לשלם: <span id=""c_p_y""></span></p>","0","evaluation","73","2","4C,17B","50","4","0","","","","","","","","","","","","","","",""
"","","","","","html-keyboard-response","50","1070067","0.0-17.0-2.10","8096b4eb-f983-4e8d-8b05-e4a0828db6bf","null","<p style=""text-align: center;"">+</p>","null","fixation","","","","","","","","","","","","","","","","","","","","",""
"","","","","","html-slider-response","51","1071068","0.0-17.0-0.11","8096b4eb-f983-4e8d-8b05-e4a0828db6bf","1000","
                  <p style=""text-align: center;"">₪4
                                                <br>75%</p>
                  <p id=""wtp"" style=""text-align:center; margin-top: 0px; margin-bottom: 0px; font-size: 40px"";>&ensp;</p>","-","viewing","0","3","12B,20B,23B,27C,29C","","","","","","","","","","","","","","","","","",""
"","","","","","html-slider-response","52","1073496","0.0-17.0-1.11","8096b4eb-f983-4e8d-8b05-e4a0828db6bf","2426","
                  <p style=""text-align: center;"">₪4
                                                <br>75%</p>
                  <p id=""wtp"" style=""text-align:center; margin-top: 0px; margin-bottom: 0px; font-size: 40px"";>מוכנים לשלם: <span id=""c_p_y""></span></p>","68","evaluation","79","3","12B,20B,23B,27C,29C","75","4","67","","","","","","","","","","","","","","",""
"","","","","","html-keyboard-response","53","1074046","0.0-17.0-2.11","8096b4eb-f983-4e8d-8b05-e4a0828db6bf","null","<p style=""text-align: center;"">+</p>","null","fixation","","","","","","","","","","","","","","","","","","","","",""
"","","","","","html-slider-response","54","1075048","0.0-17.0-0.12","8096b4eb-f983-4e8d-8b05-e4a0828db6bf","1000","
                  <p style=""text-align: center;"">₪43
                                                <br>60%</p>
                  <p id=""wtp"" style=""text-align:center; margin-top: 0px; margin-bottom: 0px; font-size: 40px"";>&ensp;</p>","-","viewing","0","17","2A,7A,9A,15B","","","","","","","","","","","","","","","","","",""
"","","","","","html-slider-response","55","1076672","0.0-17.0-1.12","8096b4eb-f983-4e8d-8b05-e4a0828db6bf","1623","
                  <p style=""text-align: center;"">₪43
                                                <br>60%</p>
                  <p id=""wtp"" style=""text-align:center; margin-top: 0px; margin-bottom: 0px; font-size: 40px"";>מוכנים לשלם: <span id=""c_p_y""></span></p>","80","evaluation","7","17","2A,7A,9A,15B","60","43","80","","","","","","","","","","","","","","",""
"","","","","","html-keyboard-response","56","1077857","0.0-17.0-2.12","8096b4eb-f983-4e8d-8b05-e4a0828db6bf","null","<p style=""text-align: center;"">+</p>","null","fixation","","","","","","","","","","","","","","","","","","","","",""
"","","","","","html-slider-response","57","1078858","0.0-17.0-0.13","8096b4eb-f983-4e8d-8b05-e4a0828db6bf","1000","
                  <p style=""text-align: center;"">₪79
                                                <br>65%</p>
                  <p id=""wtp"" style=""text-align:center; margin-top: 0px; margin-bottom: 0px; font-size: 40px"";>&ensp;</p>","-","viewing","0","31","8A","","","","","","","","","","","","","","","","","",""
"","","","","","html-slider-response","58","1080496","0.0-17.0-1.13","8096b4eb-f983-4e8d-8b05-e4a0828db6bf","1636","
                  <p style=""text-align: center;"">₪79
                                                <br>65%</p>
                  <p id=""wtp"" style=""text-align:center; margin-top: 0px; margin-bottom: 0px; font-size: 40px"";>מוכנים לשלם: <span id=""c_p_y""></span></p>","80","evaluation","13","31","8A","65","79","80","","","","","","","","","","","","","","",""
"","","","","","html-keyboard-response","59","1081710","0.0-17.0-2.13","8096b4eb-f983-4e8d-8b05-e4a0828db6bf","null","<p style=""text-align: center;"">+</p>","null","fixation","","","","","","","","","","","","","","","","","","","","",""
"","","","","","html-slider-response","60","1082722","0.0-17.0-0.14","8096b4eb-f983-4e8d-8b05-e4a0828db6bf","1000","
                  <p style=""text-align: center;"">₪16
                                                <br>20%</p>
                  <p id=""wtp"" style=""text-align:center; margin-top: 0px; margin-bottom: 0px; font-size: 40px"";>&ensp;</p>","-","viewing","0","8","14C,17A,20C,27A","","","","","","","","","","","","","","","","","",""
"","","","","","html-slider-response","61","1084472","0.0-17.0-1.14","8096b4eb-f983-4e8d-8b05-e4a0828db6bf","1749","
                  <p style=""text-align: center;"">₪16
                                                <br>20%</p>
                  <p id=""wtp"" style=""text-align:center; margin-top: 0px; margin-bottom: 0px; font-size: 40px"";>מוכנים לשלם: <span id=""c_p_y""></span></p>","40","evaluation","26","8","14C,17A,20C,27A","20","16","40","","","","","","","","","","","","","","",""
"","","","","","html-keyboard-response","62","1085274","0.0-17.0-2.14","8096b4eb-f983-4e8d-8b05-e4a0828db6bf","null","<p style=""text-align: center;"">+</p>","null","fixation","","","","","","","","","","","","","","","","","","","","",""
"","","","","","html-slider-response","63","1086290","0.0-17.0-0.15","8096b4eb-f983-4e8d-8b05-e4a0828db6bf","1000","
                  <p style=""text-align: center;"">₪39
                                                <br>65%</p>
                  <p id=""wtp"" style=""text-align:center; margin-top: 0px; margin-bottom: 0px; font-size: 40px"";>&ensp;</p>","-","viewing","0","16","1A,15A,26C","","","","","","","","","","","","","","","","","",""
"","","","","","html-slider-response","64","1088192","0.0-17.0-1.15","8096b4eb-f983-4e8d-8b05-e4a0828db6bf","1901","
                  <p style=""text-align: center;"">₪39
                                                <br>65%</p>
                  <p id=""wtp"" style=""text-align:center; margin-top: 0px; margin-bottom: 0px; font-size: 40px"";>מוכנים לשלם: <span id=""c_p_y""></span></p>","65","evaluation","52","16","1A,15A,26C","65","39","64","","","","","","","","","","","","","","",""
"","","","","","html-keyboard-response","65","1088728","0.0-17.0-2.15","8096b4eb-f983-4e8d-8b05-e4a0828db6bf","null","<p style=""text-align: center;"">+</p>","null","fixation","","","","","","","","","","","","","","","","","","","","",""
"","","","","","html-slider-response","66","1089730","0.0-17.0-0.16","8096b4eb-f983-4e8d-8b05-e4a0828db6bf","1000","
                  <p style=""text-align: center;"">₪18
                                                <br>25%</p>
                  <p id=""wtp"" style=""text-align:center; margin-top: 0px; margin-bottom: 0px; font-size: 40px"";>&ensp;</p>","-","viewing","0","9","14A,23A","","","","","","","","","","","","","","","","","",""
"","","","","","html-slider-response","67","1091512","0.0-17.0-1.16","8096b4eb-f983-4e8d-8b05-e4a0828db6bf","1781","
                  <p style=""text-align: center;"">₪18
                                                <br>25%</p>
                  <p id=""wtp"" style=""text-align:center; margin-top: 0px; margin-bottom: 0px; font-size: 40px"";>מוכנים לשלם: <span id=""c_p_y""></span></p>","30","evaluation","38","9","14A,23A","25","18","30","","","","","","","","","","","","","","",""
"","","","","","html-keyboard-response","68","1092244","0.0-17.0-2.16","8096b4eb-f983-4e8d-8b05-e4a0828db6bf","null","<p style=""text-align: center;"">+</p>","null","fixation","","","","","","","","","","","","","","","","","","","","",""
"","","","","","html-slider-response","69","1093247","0.0-17.0-0.17","8096b4eb-f983-4e8d-8b05-e4a0828db6bf","1000","
                  <p style=""text-align: center;"">₪58
                                                <br>30%</p>
                  <p id=""wtp"" style=""text-align:center; margin-top: 0px; margin-bottom: 0px; font-size: 40px"";>&ensp;</p>","-","viewing","0","19","13C,30A","","","","","","","","","","","","","","","","","",""
"","","","","","html-slider-response","70","1094952","0.0-17.0-1.17","8096b4eb-f983-4e8d-8b05-e4a0828db6bf","1704","
                  <p style=""text-align: center;"">₪58
                                                <br>30%</p>
                  <p id=""wtp"" style=""text-align:center; margin-top: 0px; margin-bottom: 0px; font-size: 40px"";>מוכנים לשלם: <span id=""c_p_y""></span></p>","70","evaluation","52","19","13C,30A","30","58","70","","","","","","","","","","","","","","",""
"","","","","","html-keyboard-response","71","1096267","0.0-17.0-2.17","8096b4eb-f983-4e8d-8b05-e4a0828db6bf","null","<p style=""text-align: center;"">+</p>","null","fixation","","","","","","","","","","","","","","","","","","","","",""
"","","","","","html-slider-response","72","1097280","0.0-17.0-0.18","8096b4eb-f983-4e8d-8b05-e4a0828db6bf","1000","
                  <p style=""text-align: center;"">₪58
                                                <br>40%</p>
                  <p id=""wtp"" style=""text-align:center; margin-top: 0px; margin-bottom: 0px; font-size: 40px"";>&ensp;</p>","-","viewing","0","20","10C,13A,19C,21B","","","","","","","","","","","","","","","","","",""
"","","","","","html-slider-response","73","1099808","0.0-17.0-1.18","8096b4eb-f983-4e8d-8b05-e4a0828db6bf","2528","
                  <p style=""text-align: center;"">₪58
                                                <br>40%</p>
                  <p id=""wtp"" style=""text-align:center; margin-top: 0px; margin-bottom: 0px; font-size: 40px"";>מוכנים לשלם: <span id=""c_p_y""></span></p>","69","evaluation","71","20","10C,13A,19C,21B","40","58","68","","","","","","","","","","","","","","",""
"","","","","","html-keyboard-response","74","1100634","0.0-17.0-2.18","8096b4eb-f983-4e8d-8b05-e4a0828db6bf","null","<p style=""text-align: center;"">+</p>","null","fixation","","","","","","","","","","","","","","","","","","","","",""
"","","","","","html-slider-response","75","1101639","0.0-17.0-0.19","8096b4eb-f983-4e8d-8b05-e4a0828db6bf","1000","
                  <p style=""text-align: center;"">₪39
                                                <br>60%</p>
                  <p id=""wtp"" style=""text-align:center; margin-top: 0px; margin-bottom: 0px; font-size: 40px"";>&ensp;</p>","-","viewing","0","15","9C,25B","","","","","","","","","","","","","","","","","",""
"","","","","","html-slider-response","76","1103457","0.0-17.0-1.19","8096b4eb-f983-4e8d-8b05-e4a0828db6bf","1817","
                  <p style=""text-align: center;"">₪39
                                                <br>60%</p>
                  <p id=""wtp"" style=""text-align:center; margin-top: 0px; margin-bottom: 0px; font-size: 40px"";>מוכנים לשלם: <span id=""c_p_y""></span></p>","76","evaluation","55","15","9C,25B","60","39","76","","","","","","","","","","","","","","",""
"","","","","","html-keyboard-response","77","1104496","0.0-17.0-2.19","8096b4eb-f983-4e8d-8b05-e4a0828db6bf","null","<p style=""text-align: center;"">+</p>","null","fixation","","","","","","","","","","","","","","","","","","","","",""
"","","","","","html-slider-response","78","1105509","0.0-17.0-0.20","8096b4eb-f983-4e8d-8b05-e4a0828db6bf","1000","
                  <p style=""text-align: center;"">₪11
                                                <br>45%</p>
                  <p id=""wtp"" style=""text-align:center; margin-top: 0px; margin-bottom: 0px; font-size: 40px"";>&ensp;</p>","-","viewing","0","6","14B,21C,25C","","","","","","","","","","","","","","","","","",""
"","","","","","html-slider-response","79","1106632","0.0-17.0-1.20","8096b4eb-f983-4e8d-8b05-e4a0828db6bf","1122","
                  <p style=""text-align: center;"">₪11
                                                <br>45%</p>
                  <p id=""wtp"" style=""text-align:center; margin-top: 0px; margin-bottom: 0px; font-size: 40px"";>מוכנים לשלם: <span id=""c_p_y""></span></p>","32","evaluation","79","6","14B,21C,25C","45","11","32","","","","","","","","","","","","","","",""
"","","","","","html-keyboard-response","80","1107554","0.0-17.0-2.20","8096b4eb-f983-4e8d-8b05-e4a0828db6bf","null","<p style=""text-align: center;"">+</p>","null","fixation","","","","","","","","","","","","","","","","","","","","",""
"","","","","","html-slider-response","81","1108560","0.0-17.0-0.21","8096b4eb-f983-4e8d-8b05-e4a0828db6bf","1000","
                  <p style=""text-align: center;"">₪11
                                                <br>25%</p>
                  <p id=""wtp"" style=""text-align:center; margin-top: 0px; margin-bottom: 0px; font-size: 40px"";>&ensp;</p>","-","viewing","0","5","12A,27B,28B,30B","","","","","","","","","","","","","","","","","",""
"","","","","","html-slider-response","82","1110152","0.0-17.0-1.21","8096b4eb-f983-4e8d-8b05-e4a0828db6bf","1590","
                  <p style=""text-align: center;"">₪11
                                                <br>25%</p>
                  <p id=""wtp"" style=""text-align:center; margin-top: 0px; margin-bottom: 0px; font-size: 40px"";>מוכנים לשלם: <span id=""c_p_y""></span></p>","8","evaluation","55","5","12A,27B,28B,30B","25","11","8","","","","","","","","","","","","","","",""
"","","","","","html-keyboard-response","83","1111034","0.0-17.0-2.21","8096b4eb-f983-4e8d-8b05-e4a0828db6bf","null","<p style=""text-align: center;"">+</p>","null","fixation","","","","","","","","","","","","","","","","","","","","",""
"","","","","","html-slider-response","84","1112048","0.0-17.0-0.22","8096b4eb-f983-4e8d-8b05-e4a0828db6bf","1000","
                  <p style=""text-align: center;"">₪36
                                                <br>60%</p>
                  <p id=""wtp"" style=""text-align:center; margin-top: 0px; margin-bottom: 0px; font-size: 40px"";>&ensp;</p>","-","viewing","0","12","1C,7C,15C","","","","","","","","","","","","","","","","","",""
"","","","","","html-slider-response","85","1113664","0.0-17.0-1.22","8096b4eb-f983-4e8d-8b05-e4a0828db6bf","1616","
                  <p style=""text-align: center;"">₪36
                                                <br>60%</p>
                  <p id=""wtp"" style=""text-align:center; margin-top: 0px; margin-bottom: 0px; font-size: 40px"";>מוכנים לשלם: <span id=""c_p_y""></span></p>","66","evaluation","44","12","1C,7C,15C","60","36","66","","","","","","","","","","","","","","",""
"","","","","","html-keyboard-response","86","1114498","0.0-17.0-2.22","8096b4eb-f983-4e8d-8b05-e4a0828db6bf","null","<p style=""text-align: center;"">+</p>","null","fixation","","","","","","","","","","","","","","","","","","","","",""
"","","","","","html-slider-response","87","1115509","0.0-17.0-0.23","8096b4eb-f983-4e8d-8b05-e4a0828db6bf","1000","
                  <p style=""text-align: center;"">₪43
                                                <br>75%</p>
                  <p id=""wtp"" style=""text-align:center; margin-top: 0px; margin-bottom: 0px; font-size: 40px"";>&ensp;</p>","-","viewing","0","18","11B,19B,24A,26A","","","","","","","","","","","","","","","","","",""
"","","","","","html-slider-response","88","1117080","0.0-17.0-1.23","8096b4eb-f983-4e8d-8b05-e4a0828db6bf","1571","
                  <p style=""text-align: center;"">₪43
                                                <br>75%</p>
                  <p id=""wtp"" style=""text-align:center; margin-top: 0px; margin-bottom: 0px; font-size: 40px"";>מוכנים לשלם: <span id=""c_p_y""></span></p>","74","evaluation","67","18","11B,19B,24A,26A","75","43","74","","","","","","","","","","","","","","",""
"","","","","","html-keyboard-response","89","1117939","0.0-17.0-2.23","8096b4eb-f983-4e8d-8b05-e4a0828db6bf","null","<p style=""text-align: center;"">+</p>","null","fixation","","","","","","","","","","","","","","","","","","","","",""
"","","","","","html-slider-response","90","1118940","0.0-17.0-0.24","8096b4eb-f983-4e8d-8b05-e4a0828db6bf","1000","
                  <p style=""text-align: center;"">₪11
                                                <br>75%</p>
                  <p id=""wtp"" style=""text-align:center; margin-top: 0px; margin-bottom: 0px; font-size: 40px"";>&ensp;</p>","-","viewing","0","7","6B,18B,22C,24C,29A","","","","","","","","","","","","","","","","","",""
"","","","","","html-slider-response","91","1121984","0.0-17.0-1.24","8096b4eb-f983-4e8d-8b05-e4a0828db6bf","3044","
                  <p style=""text-align: center;"">₪11
                                                <br>75%</p>
                  <p id=""wtp"" style=""text-align:center; margin-top: 0px; margin-bottom: 0px; font-size: 40px"";>מוכנים לשלם: <span id=""c_p_y""></span></p>","24","evaluation","27","7","6B,18B,22C,24C,29A","75","11","24","","","","","","","","","","","","","","",""
"","","","","","html-keyboard-response","92","1123405","0.0-17.0-2.24","8096b4eb-f983-4e8d-8b05-e4a0828db6bf","null","<p style=""text-align: center;"">+</p>","null","fixation","","","","","","","","","","","","","","","","","","","","",""
"","","","","","html-slider-response","93","1124412","0.0-17.0-0.25","8096b4eb-f983-4e8d-8b05-e4a0828db6bf","1000","
                  <p style=""text-align: center;"">₪79
                                                <br>40%</p>
                  <p id=""wtp"" style=""text-align:center; margin-top: 0px; margin-bottom: 0px; font-size: 40px"";>&ensp;</p>","-","viewing","0","30","9B","","","","","","","","","","","","","","","","","",""
"","","","","","html-slider-response","94","1125864","0.0-17.0-1.25","8096b4eb-f983-4e8d-8b05-e4a0828db6bf","1451","
                  <p style=""text-align: center;"">₪79
                                                <br>40%</p>
                  <p id=""wtp"" style=""text-align:center; margin-top: 0px; margin-bottom: 0px; font-size: 40px"";>מוכנים לשלם: <span id=""c_p_y""></span></p>","36","evaluation","40","30","9B","40","79","36","","","","","","","","","","","","","","",""
"","","","","","html-keyboard-response","95","1127241","0.0-17.0-2.25","8096b4eb-f983-4e8d-8b05-e4a0828db6bf","null","<p style=""text-align: center;"">+</p>","null","fixation","","","","","","","","","","","","","","","","","","","","",""
"","","","","","html-slider-response","96","1128250","0.0-17.0-0.26","8096b4eb-f983-4e8d-8b05-e4a0828db6bf","1000","
                  <p style=""text-align: center;"">₪36
                                                <br>30%</p>
                  <p id=""wtp"" style=""text-align:center; margin-top: 0px; margin-bottom: 0px; font-size: 40px"";>&ensp;</p>","-","viewing","0","11","3C,20A,22A","","","","","","","","","","","","","","","","","",""
"","","","","","html-slider-response","97","1130199","0.0-17.0-1.26","8096b4eb-f983-4e8d-8b05-e4a0828db6bf","1948","
                  <p style=""text-align: center;"">₪36
                                                <br>30%</p>
                  <p id=""wtp"" style=""text-align:center; margin-top: 0px; margin-bottom: 0px; font-size: 40px"";>מוכנים לשלם: <span id=""c_p_y""></span></p>","25","evaluation","70","11","3C,20A,22A","30","36","25","","","","","","","","","","","","","","",""
"","","","","","html-keyboard-response","98","1131526","0.0-17.0-2.26","8096b4eb-f983-4e8d-8b05-e4a0828db6bf","null","<p style=""text-align: center;"">+</p>","null","fixation","","","","","","","","","","","","","","","","","","","","",""
"","","","","","html-slider-response","99","1132542","0.0-17.0-0.27","8096b4eb-f983-4e8d-8b05-e4a0828db6bf","1000","
                  <p style=""text-align: center;"">₪36
                                                <br>70%</p>
                  <p id=""wtp"" style=""text-align:center; margin-top: 0px; margin-bottom: 0px; font-size: 40px"";>&ensp;</p>","-","viewing","0","13","3A,5C,10B","","","","","","","","","","","","","","","","","",""
"","","","","","html-slider-response","100","1134247","0.0-17.0-1.27","8096b4eb-f983-4e8d-8b05-e4a0828db6bf","1704","
                  <p style=""text-align: center;"">₪36
                                                <br>70%</p>
                  <p id=""wtp"" style=""text-align:center; margin-top: 0px; margin-bottom: 0px; font-size: 40px"";>מוכנים לשלם: <span id=""c_p_y""></span></p>","72","evaluation","42","13","3A,5C,10B","70","36","71","","","","","","","","","","","","","","",""
"","","","","","html-keyboard-response","101","1134983","0.0-17.0-2.27","8096b4eb-f983-4e8d-8b05-e4a0828db6bf","null","<p style=""text-align: center;"">+</p>","null","fixation","","","","","","","","","","","","","","","","","","","","",""
"","","","","","html-slider-response","102","1135990","0.0-17.0-0.28","8096b4eb-f983-4e8d-8b05-e4a0828db6bf","1000","
                  <p style=""text-align: center;"">₪76
                                                <br>65%</p>
                  <p id=""wtp"" style=""text-align:center; margin-top: 0px; margin-bottom: 0px; font-size: 40px"";>&ensp;</p>","-","viewing","0","29","8C,19A,24B","","","","","","","","","","","","","","","","","",""
"","","","","","html-slider-response","103","1137319","0.0-17.0-1.28","8096b4eb-f983-4e8d-8b05-e4a0828db6bf","1327","
                  <p style=""text-align: center;"">₪76
                                                <br>65%</p>
                  <p id=""wtp"" style=""text-align:center; margin-top: 0px; margin-bottom: 0px; font-size: 40px"";>מוכנים לשלם: <span id=""c_p_y""></span></p>","80","evaluation","18","29","8C,19A,24B","65","76","80","","","","","","","","","","","","","","",""
"","","","","","html-keyboard-response","104","1137922","0.0-17.0-2.28","8096b4eb-f983-4e8d-8b05-e4a0828db6bf","null","<p style=""text-align: center;"">+</p>","null","fixation","","","","","","","","","","","","","","","","","","","","",""
"","","","","","html-slider-response","105","1138924","0.0-17.0-0.29","8096b4eb-f983-4e8d-8b05-e4a0828db6bf","1000","
                  <p style=""text-align: center;"">₪18
                                                <br>50%</p>
                  <p id=""wtp"" style=""text-align:center; margin-top: 0px; margin-bottom: 0px; font-size: 40px"";>&ensp;</p>","-","viewing","0","10","2C,16C,22B,28A","","","","","","","","","","","","","","","","","",""
"","","","","","html-slider-response","106","1140375","0.0-17.0-1.29","8096b4eb-f983-4e8d-8b05-e4a0828db6bf","1450","
                  <p style=""text-align: center;"">₪18
                                                <br>50%</p>
                  <p id=""wtp"" style=""text-align:center; margin-top: 0px; margin-bottom: 0px; font-size: 40px"";>מוכנים לשלם: <span id=""c_p_y""></span></p>","38","evaluation","17","10","2C,16C,22B,28A","50","18","38","","","","","","","","","","","","","","",""
"","","","","","html-keyboard-response","107","1141490","0.0-17.0-2.29","8096b4eb-f983-4e8d-8b05-e4a0828db6bf","null","<p style=""text-align: center;"">+</p>","null","fixation","","","","","","","","","","","","","","","","","","","","",""
"","","","","","html-slider-response","108","1142491","0.0-17.0-0.30","8096b4eb-f983-4e8d-8b05-e4a0828db6bf","1000","
                  <p style=""text-align: center;"">₪61
                                                <br>55%</p>
                  <p id=""wtp"" style=""text-align:center; margin-top: 0px; margin-bottom: 0px; font-size: 40px"";>&ensp;</p>","-","viewing","0","23","7B,26B","","","","","","","","","","","","","","","","","",""
"","","","","","html-slider-response","109","1143735","0.0-17.0-1.30","8096b4eb-f983-4e8d-8b05-e4a0828db6bf","1244","
                  <p style=""text-align: center;"">₪61
                                                <br>55%</p>
                  <p id=""wtp"" style=""text-align:center; margin-top: 0px; margin-bottom: 0px; font-size: 40px"";>מוכנים לשלם: <span id=""c_p_y""></span></p>","79","evaluation","31","23","7B,26B","55","61","79","","","","","","","","","","","","","","",""
"","","","","","html-keyboard-response","110","1144804","0.0-17.0-2.30","8096b4eb-f983-4e8d-8b05-e4a0828db6bf","null","<p style=""text-align: center;"">+</p>","null","fixation","","","","","","","","","","","","","","","","","","","","",""
"","","","","","html-keyboard-response","111","1145817","0.0-18.0","8096b4eb-f983-4e8d-8b05-e4a0828db6bf","null","<p style=""text-align: center;"">+</p>","null","fixation","","","","","","","","","","","","","","","","","","","","",""
"","","","","","html-keyboard-response","112","1148599","0.0-19.0","8096b4eb-f983-4e8d-8b05-e4a0828db6bf","null","<p>הפסקה.
          <br>לחצו כדי להמשיך.</p>","1","scan_wait","","","","","","","","","","","","","","","","","","","","",""
"","","","","","html-keyboard-response","113","1149605","0.0-20.0","8096b4eb-f983-4e8d-8b05-e4a0828db6bf","null","<p style=""text-align: center;"">+</p>","null","fixation","","","","","","","","","","","","","","","","","","","","",""
"","","","","","html-slider-response","114","1150607","0.0-21.0-0.0","8096b4eb-f983-4e8d-8b05-e4a0828db6bf","1000","
                  <p style=""text-align: center;"">₪71
                                                <br>75%</p>
                  <p id=""wtp"" style=""text-align:center; margin-top: 0px; margin-bottom: 0px; font-size: 40px"";>&ensp;</p>","-","viewing","0","28","8B","","","","","","","","","","","","","","","","","",""
"","","","","","html-slider-response","115","1151655","0.0-21.0-1.0","8096b4eb-f983-4e8d-8b05-e4a0828db6bf","1047","
                  <p style=""text-align: center;"">₪71
                                                <br>75%</p>
                  <p id=""wtp"" style=""text-align:center; margin-top: 0px; margin-bottom: 0px; font-size: 40px"";>מוכנים לשלם: <span id=""c_p_y""></span></p>","80","evaluation","74","28","8B","75","71","80","","","","","","","","","","","","","","",""
"","","","","","html-keyboard-response","116","1153151","0.0-21.0-2.0","8096b4eb-f983-4e8d-8b05-e4a0828db6bf","null","<p style=""text-align: center;"">+</p>","null","fixation","","","","","","","","","","","","","","","","","","","","",""
"","","","","","html-slider-response","117","1154160","0.0-21.0-0.1","8096b4eb-f983-4e8d-8b05-e4a0828db6bf","1000","
                  <p style=""text-align: center;"">₪43
                                                <br>75%</p>
                  <p id=""wtp"" style=""text-align:center; margin-top: 0px; margin-bottom: 0px; font-size: 40px"";>&ensp;</p>","-","viewing","0","18","11B,19B,24A,26A","","","","","","","","","","","","","","","","","",""
"","","","","","html-slider-response","118","1155471","0.0-21.0-1.1","8096b4eb-f983-4e8d-8b05-e4a0828db6bf","1309","
                  <p style=""text-align: center;"">₪43
                                                <br>75%</p>
                  <p id=""wtp"" style=""text-align:center; margin-top: 0px; margin-bottom: 0px; font-size: 40px"";>מוכנים לשלם: <span id=""c_p_y""></span></p>","65","evaluation","50","18","11B,19B,24A,26A","75","43","65","","","","","","","","","","","","","","",""
"","","","","","html-keyboard-response","119","1156679","0.0-21.0-2.1","8096b4eb-f983-4e8d-8b05-e4a0828db6bf","null","<p style=""text-align: center;"">+</p>","null","fixation","","","","","","","","","","","","","","","","","","","","",""
"","","","","","html-slider-response","120","1157693","0.0-21.0-0.2","8096b4eb-f983-4e8d-8b05-e4a0828db6bf","1000","
                  <p style=""text-align: center;"">₪36
                                                <br>70%</p>
                  <p id=""wtp"" style=""text-align:center; margin-top: 0px; margin-bottom: 0px; font-size: 40px"";>&ensp;</p>","-","viewing","0","13","3A,5C,10B","","","","","","","","","","","","","","","","","",""
"","","","","","html-slider-response","121","1159383","0.0-21.0-1.2","8096b4eb-f983-4e8d-8b05-e4a0828db6bf","1689","
                  <p style=""text-align: center;"">₪36
                                                <br>70%</p>
                  <p id=""wtp"" style=""text-align:center; margin-top: 0px; margin-bottom: 0px; font-size: 40px"";>מוכנים לשלם: <span id=""c_p_y""></span></p>","80","evaluation","60","13","3A,5C,10B","70","36","80","","","","","","","","","","","","","","",""
"","","","","","html-keyboard-response","122","1160654","0.0-21.0-2.2","8096b4eb-f983-4e8d-8b05-e4a0828db6bf","null","<p style=""text-align: center;"">+</p>","null","fixation","","","","","","","","","","","","","","","","","","","","",""
"","","","","","html-slider-response","123","1161670","0.0-21.0-0.3","8096b4eb-f983-4e8d-8b05-e4a0828db6bf","1000","
                  <p style=""text-align: center;"">₪4
                                                <br>75%</p>
                  <p id=""wtp"" style=""text-align:center; margin-top: 0px; margin-bottom: 0px; font-size: 40px"";>&ensp;</p>","-","viewing","0","3","12B,20B,23B,27C,29C","","","","","","","","","","","","","","","","","",""
"","","","","","html-slider-response","124","1164055","0.0-21.0-1.3","8096b4eb-f983-4e8d-8b05-e4a0828db6bf","2384","
                  <p style=""text-align: center;"">₪4
                                                <br>75%</p>
                  <p id=""wtp"" style=""text-align:center; margin-top: 0px; margin-bottom: 0px; font-size: 40px"";>מוכנים לשלם: <span id=""c_p_y""></span></p>","20","evaluation","43","3","12B,20B,23B,27C,29C","75","4","20","","","","","","","","","","","","","","",""
"","","","","","html-keyboard-response","125","1164972","0.0-21.0-2.3","8096b4eb-f983-4e8d-8b05-e4a0828db6bf","null","<p style=""text-align: center;"">+</p>","null","fixation","","","","","","","","","","","","","","","","","","","","",""
"","","","","","html-slider-response","126","1165976","0.0-21.0-0.4","8096b4eb-f983-4e8d-8b05-e4a0828db6bf","1000","
                  <p style=""text-align: center;"">₪4
                                                <br>50%</p>
                  <p id=""wtp"" style=""text-align:center; margin-top: 0px; margin-bottom: 0px; font-size: 40px"";>&ensp;</p>","-","viewing","0","2","4C,17B","","","","","","","","","","","","","","","","","",""
"","","","","","html-slider-response","127","1168215","0.0-21.0-1.4","8096b4eb-f983-4e8d-8b05-e4a0828db6bf","2238","
                  <p style=""text-align: center;"">₪4
                                                <br>50%</p>
                  <p id=""wtp"" style=""text-align:center; margin-top: 0px; margin-bottom: 0px; font-size: 40px"";>מוכנים לשלם: <span id=""c_p_y""></span></p>","80","evaluation","16","2","4C,17B","50","4","80","","","","","","","","","","","","","","",""
"","","","","","html-keyboard-response","128","1169561","0.0-21.0-2.4","8096b4eb-f983-4e8d-8b05-e4a0828db6bf","null","<p style=""text-align: center;"">+</p>","null","fixation","","","","","","","","","","","","","","","","","","","","",""
"","","","","","html-slider-response","129","1170568","0.0-21.0-0.5","8096b4eb-f983-4e8d-8b05-e4a0828db6bf","1000","
                  <p style=""text-align: center;"">₪18
                                                <br>50%</p>
                  <p id=""wtp"" style=""text-align:center; margin-top: 0px; margin-bottom: 0px; font-size: 40px"";>&ensp;</p>","-","viewing","0","10","2C,16C,22B,28A","","","","","","","","","","","","","","","","","",""
"","","","","","html-slider-response","130","1172111","0.0-21.0-1.5","8096b4eb-f983-4e8d-8b05-e4a0828db6bf","1542","
                  <p style=""text-align: center;"">₪18
                                                <br>50%</p>
                  <p id=""wtp"" style=""text-align:center; margin-top: 0px; margin-bottom: 0px; font-size: 40px"";>מוכנים לשלם: <span id=""c_p_y""></span></p>","20","evaluation","11","10","2C,16C,22B,28A","50","18","20","","","","","","","","","","","","","","",""
"","","","","","html-keyboard-response","131","1172735","0.0-21.0-2.5","8096b4eb-f983-4e8d-8b05-e4a0828db6bf","null","<p style=""text-align: center;"">+</p>","null","fixation","","","","","","","","","","","","","","","","","","","","",""
"","","","","","html-slider-response","132","1173737","0.0-21.0-0.6","8096b4eb-f983-4e8d-8b05-e4a0828db6bf","1000","
                  <p style=""text-align: center;"">₪61
                                                <br>55%</p>
                  <p id=""wtp"" style=""text-align:center; margin-top: 0px; margin-bottom: 0px; font-size: 40px"";>&ensp;</p>","-","viewing","0","23","7B,26B","","","","","","","","","","","","","","","","","",""
"","","","","","html-slider-response","133","1174279","0.0-21.0-1.6","8096b4eb-f983-4e8d-8b05-e4a0828db6bf","540","
                  <p style=""text-align: center;"">₪61
                                                <br>55%</p>
                  <p id=""wtp"" style=""text-align:center; margin-top: 0px; margin-bottom: 0px; font-size: 40px"";>מוכנים לשלם: <span id=""c_p_y""></span></p>","80","evaluation","9","23","7B,26B","55","61","80","","","","","","","","","","","","","","",""
"","","","","","html-keyboard-response","134","1174978","0.0-21.0-2.6","8096b4eb-f983-4e8d-8b05-e4a0828db6bf","null","<p style=""text-align: center;"">+</p>","null","fixation","","","","","","","","","","","","","","","","","","","","",""
"","","","","","html-slider-response","135","1175986","0.0-21.0-0.7","8096b4eb-f983-4e8d-8b05-e4a0828db6bf","1000","
                  <p style=""text-align: center;"">₪11
                                                <br>75%</p>
                  <p id=""wtp"" style=""text-align:center; margin-top: 0px; margin-bottom: 0px; font-size: 40px"";>&ensp;</p>","-","viewing","0","7","6B,18B,22C,24C,29A","","","","","","","","","","","","","","","","","",""
"","","","","","html-slider-response","136","1179167","0.0-21.0-1.7","8096b4eb-f983-4e8d-8b05-e4a0828db6bf","3179","
                  <p style=""text-align: center;"">₪11
                                                <br>75%</p>
                  <p id=""wtp"" style=""text-align:center; margin-top: 0px; margin-bottom: 0px; font-size: 40px"";>מוכנים לשלם: <span id=""c_p_y""></span></p>","19","evaluation","32","7","6B,18B,22C,24C,29A","75","11","20","","","","","","","","","","","","","","",""
"","","","","","html-keyboard-response","137","1179779","0.0-21.0-2.7","8096b4eb-f983-4e8d-8b05-e4a0828db6bf","null","<p style=""text-align: center;"">+</p>","null","fixation","","","","","","","","","","","","","","","","","","","","",""
"","","","","","html-slider-response","138","1180784","0.0-21.0-0.8","8096b4eb-f983-4e8d-8b05-e4a0828db6bf","1000","
                  <p style=""text-align: center;"">₪71
                                                <br>55%</p>
                  <p id=""wtp"" style=""text-align:center; margin-top: 0px; margin-bottom: 0px; font-size: 40px"";>&ensp;</p>","-","viewing","0","27","5B,18A","","","","","","","","","","","","","","","","","",""
"","","","","","html-slider-response","139","1181519","0.0-21.0-1.8","8096b4eb-f983-4e8d-8b05-e4a0828db6bf","734","
                  <p style=""text-align: center;"">₪71
                                                <br>55%</p>
                  <p id=""wtp"" style=""text-align:center; margin-top: 0px; margin-bottom: 0px; font-size: 40px"";>מוכנים לשלם: <span id=""c_p_y""></span></p>","75","evaluation","75","27","5B,18A","55","71","75","","","","","","","","","","","","","","",""
"","","","","","html-keyboard-response","140","1182798","0.0-21.0-2.8","8096b4eb-f983-4e8d-8b05-e4a0828db6bf","null","<p style=""text-align: center;"">+</p>","null","fixation","","","","","","","","","","","","","","","","","","","","",""
"","","","","","html-slider-response","141","1183806","0.0-21.0-0.9","8096b4eb-f983-4e8d-8b05-e4a0828db6bf","1000","
                  <p style=""text-align: center;"">₪39
                                                <br>65%</p>
                  <p id=""wtp"" style=""text-align:center; margin-top: 0px; margin-bottom: 0px; font-size: 40px"";>&ensp;</p>","-","viewing","0","16","1A,15A,26C","","","","","","","","","","","","","","","","","",""
"","","","","","html-slider-response","142","1187111","0.0-21.0-1.9","8096b4eb-f983-4e8d-8b05-e4a0828db6bf","3304","
                  <p style=""text-align: center;"">₪39
                                                <br>65%</p>
                  <p id=""wtp"" style=""text-align:center; margin-top: 0px; margin-bottom: 0px; font-size: 40px"";>מוכנים לשלם: <span id=""c_p_y""></span></p>","42","evaluation","66","16","1A,15A,26C","65","39","42","","","","","","","","","","","","","","",""
"","","","","","html-keyboard-response","143","1188156","0.0-21.0-2.9","8096b4eb-f983-4e8d-8b05-e4a0828db6bf","null","<p style=""text-align: center;"">+</p>","null","fixation","","","","","","","","","","","","","","","","","","","","",""
"","","","","","html-slider-response","144","1189158","0.0-21.0-0.10","8096b4eb-f983-4e8d-8b05-e4a0828db6bf","1000","
                  <p style=""text-align: center;"">₪16
                                                <br>20%</p>
                  <p id=""wtp"" style=""text-align:center; margin-top: 0px; margin-bottom: 0px; font-size: 40px"";>&ensp;</p>","-","viewing","0","8","14C,17A,20C,27A","","","","","","","","","","","","","","","","","",""
"","","","","","html-slider-response","145","1191374","0.0-21.0-1.10","8096b4eb-f983-4e8d-8b05-e4a0828db6bf","2215","
                  <p style=""text-align: center;"">₪16
                                                <br>20%</p>
                  <p id=""wtp"" style=""text-align:center; margin-top: 0px; margin-bottom: 0px; font-size: 40px"";>מוכנים לשלם: <span id=""c_p_y""></span></p>","16","evaluation","3","8","14C,17A,20C,27A","20","16","16","","","","","","","","","","","","","","",""
"","","","","","html-keyboard-response","146","1191959","0.0-21.0-2.10","8096b4eb-f983-4e8d-8b05-e4a0828db6bf","null","<p style=""text-align: center;"">+</p>","null","fixation","","","","","","","","","","","","","","","","","","","","",""
"","","","","","html-slider-response","147","1192961","0.0-21.0-0.11","8096b4eb-f983-4e8d-8b05-e4a0828db6bf","1000","
                  <p style=""text-align: center;"">₪58
                                                <br>45%</p>
                  <p id=""wtp"" style=""text-align:center; margin-top: 0px; margin-bottom: 0px; font-size: 40px"";>&ensp;</p>","-","viewing","0","21","11C,18C,25A","","","","","","","","","","","","","","","","","",""
"","","","","","html-slider-response","148","1194542","0.0-21.0-1.11","8096b4eb-f983-4e8d-8b05-e4a0828db6bf","1580","
                  <p style=""text-align: center;"">₪58
                                                <br>45%</p>
                  <p id=""wtp"" style=""text-align:center; margin-top: 0px; margin-bottom: 0px; font-size: 40px"";>מוכנים לשלם: <span id=""c_p_y""></span></p>","48","evaluation","76","21","11C,18C,25A","45","58","48","","","","","","","","","","","","","","",""
"","","","","","html-keyboard-response","149","1195987","0.0-21.0-2.11","8096b4eb-f983-4e8d-8b05-e4a0828db6bf","null","<p style=""text-align: center;"">+</p>","null","fixation","","","","","","","","","","","","","","","","","","","","",""
"","","","","","html-slider-response","150","1196992","0.0-21.0-0.12","8096b4eb-f983-4e8d-8b05-e4a0828db6bf","1000","
                  <p style=""text-align: center;"">₪79
                                                <br>65%</p>
                  <p id=""wtp"" style=""text-align:center; margin-top: 0px; margin-bottom: 0px; font-size: 40px"";>&ensp;</p>","-","viewing","0","31","8A","","","","","","","","","","","","","","","","","",""
"","","","","","html-slider-response","151","1197734","0.0-21.0-1.12","8096b4eb-f983-4e8d-8b05-e4a0828db6bf","741","
                  <p style=""text-align: center;"">₪79
                                                <br>65%</p>
                  <p id=""wtp"" style=""text-align:center; margin-top: 0px; margin-bottom: 0px; font-size: 40px"";>מוכנים לשלם: <span id=""c_p_y""></span></p>","80","evaluation","11","31","8A","65","79","80","","","","","","","","","","","","","","",""
"","","","","","html-keyboard-response","152","1198622","0.0-21.0-2.12","8096b4eb-f983-4e8d-8b05-e4a0828db6bf","null","<p style=""text-align: center;"">+</p>","null","fixation","","","","","","","","","","","","","","","","","","","","",""
"","","","","","html-slider-response","153","1199629","0.0-21.0-0.13","8096b4eb-f983-4e8d-8b05-e4a0828db6bf","1000","
                  <p style=""text-align: center;"">₪58
                                                <br>40%</p>
                  <p id=""wtp"" style=""text-align:center; margin-top: 0px; margin-bottom: 0px; font-size: 40px"";>&ensp;</p>","-","viewing","0","20","10C,13A,19C,21B","","","","","","","","","","","","","","","","","",""
"","","","","","html-slider-response","154","1200598","0.0-21.0-1.13","8096b4eb-f983-4e8d-8b05-e4a0828db6bf","968","
                  <p style=""text-align: center;"">₪58
                                                <br>40%</p>
                  <p id=""wtp"" style=""text-align:center; margin-top: 0px; margin-bottom: 0px; font-size: 40px"";>מוכנים לשלם: <span id=""c_p_y""></span></p>","28","evaluation","61","20","10C,13A,19C,21B","40","58","28","","","","","","","","","","","","","","",""
"","","","","","html-keyboard-response","155","1201607","0.0-21.0-2.13","8096b4eb-f983-4e8d-8b05-e4a0828db6bf","null","<p style=""text-align: center;"">+</p>","null","fixation","","","","","","","","","","","","","","","","","","","","",""
"","","","","","html-slider-response","156","1202613","0.0-21.0-0.14","8096b4eb-f983-4e8d-8b05-e4a0828db6bf","1000","
                  <p style=""text-align: center;"">₪76
                                                <br>65%</p>
                  <p id=""wtp"" style=""text-align:center; margin-top: 0px; margin-bottom: 0px; font-size: 40px"";>&ensp;</p>","-","viewing","0","29","8C,19A,24B","","","","","","","","","","","","","","","","","",""
"","","","","","html-slider-response","157","1203542","0.0-21.0-1.14","8096b4eb-f983-4e8d-8b05-e4a0828db6bf","928","
                  <p style=""text-align: center;"">₪76
                                                <br>65%</p>
                  <p id=""wtp"" style=""text-align:center; margin-top: 0px; margin-bottom: 0px; font-size: 40px"";>מוכנים לשלם: <span id=""c_p_y""></span></p>","80","evaluation","68","29","8C,19A,24B","65","76","80","","","","","","","","","","","","","","",""
"","","","","","html-keyboard-response","158","1204779","0.0-21.0-2.14","8096b4eb-f983-4e8d-8b05-e4a0828db6bf","null","<p style=""text-align: center;"">+</p>","null","fixation","","","","","","","","","","","","","","","","","","","","",""
"","","","","","html-slider-response","159","1205783","0.0-21.0-0.15","8096b4eb-f983-4e8d-8b05-e4a0828db6bf","1000","
                  <p style=""text-align: center;"">₪39
                                                <br>60%</p>
                  <p id=""wtp"" style=""text-align:center; margin-top: 0px; margin-bottom: 0px; font-size: 40px"";>&ensp;</p>","-","viewing","0","15","9C,25B","","","","","","","","","","","","","","","","","",""
"","","","","","html-slider-response","160","1207190","0.0-21.0-1.15","8096b4eb-f983-4e8d-8b05-e4a0828db6bf","1406","
                  <p style=""text-align: center;"">₪39
                                                <br>60%</p>
                  <p id=""wtp"" style=""text-align:center; margin-top: 0px; margin-bottom: 0px; font-size: 40px"";>מוכנים לשלם: <span id=""c_p_y""></span></p>","39","evaluation","74","15","9C,25B","60","39","39","","","","","","","","","","","","","","",""
"","","","","","html-keyboard-response","161","1208387","0.0-21.0-2.15","8096b4eb-f983-4e8d-8b05-e4a0828db6bf","null","<p style=""text-align: center;"">+</p>","null","fixation","","","","","","","","","","","","","","","","","","","","",""
"","","","","","html-slider-response","162","1209394","0.0-21.0-0.16","8096b4eb-f983-4e8d-8b05-e4a0828db6bf","1000","
                  <p style=""text-align: center;"">₪11
                                                <br>20%</p>
                  <p id=""wtp"" style=""text-align:center; margin-top: 0px; margin-bottom: 0px; font-size: 40px"";>&ensp;</p>","-","viewing","0","4","12C,17C,23C,28C","","","","","","","","","","","","","","","","","",""
"","","","","","html-slider-response","163","1210590","0.0-21.0-1.16","8096b4eb-f983-4e8d-8b05-e4a0828db6bf","1195","
                  <p style=""text-align: center;"">₪11
                                                <br>20%</p>
                  <p id=""wtp"" style=""text-align:center; margin-top: 0px; margin-bottom: 0px; font-size: 40px"";>מוכנים לשלם: <span id=""c_p_y""></span></p>","0","evaluation","66","4","12C,17C,23C,28C","20","11","1","","","","","","","","","","","","","","",""
"","","","","","html-keyboard-response","164","1211821","0.0-21.0-2.16","8096b4eb-f983-4e8d-8b05-e4a0828db6bf","null","<p style=""text-align: center;"">+</p>","null","fixation","","","","","","","","","","","","","","","","","","","","",""
"","","","","","html-slider-response","165","1212822","0.0-21.0-0.17","8096b4eb-f983-4e8d-8b05-e4a0828db6bf","1000","
                  <p style=""text-align: center;"">₪36
                                                <br>60%</p>
                  <p id=""wtp"" style=""text-align:center; margin-top: 0px; margin-bottom: 0px; font-size: 40px"";>&ensp;</p>","-","viewing","0","12","1C,7C,15C","","","","","","","","","","","","","","","","","",""
"","","","","","html-slider-response","166","1214398","0.0-21.0-1.17","8096b4eb-f983-4e8d-8b05-e4a0828db6bf","1574","
                  <p style=""text-align: center;"">₪36
                                                <br>60%</p>
                  <p id=""wtp"" style=""text-align:center; margin-top: 0px; margin-bottom: 0px; font-size: 40px"";>מוכנים לשלם: <span id=""c_p_y""></span></p>","71","evaluation","37","12","1C,7C,15C","60","36","71","","","","","","","","","","","","","","",""
"","","","","","html-keyboard-response","167","1215488","0.0-21.0-2.17","8096b4eb-f983-4e8d-8b05-e4a0828db6bf","null","<p style=""text-align: center;"">+</p>","null","fixation","","","","","","","","","","","","","","","","","","","","",""
"","","","","","html-slider-response","168","1216505","0.0-21.0-0.18","8096b4eb-f983-4e8d-8b05-e4a0828db6bf","1000","
                  <p style=""text-align: center;"">₪36
                                                <br>75%</p>
                  <p id=""wtp"" style=""text-align:center; margin-top: 0px; margin-bottom: 0px; font-size: 40px"";>&ensp;</p>","-","viewing","0","14","4B,5A,13B,16B","","","","","","","","","","","","","","","","","",""
"","","","","","html-slider-response","169","1217214","0.0-21.0-1.18","8096b4eb-f983-4e8d-8b05-e4a0828db6bf","708","
                  <p style=""text-align: center;"">₪36
                                                <br>75%</p>
                  <p id=""wtp"" style=""text-align:center; margin-top: 0px; margin-bottom: 0px; font-size: 40px"";>מוכנים לשלם: <span id=""c_p_y""></span></p>","66","evaluation","76","14","4B,5A,13B,16B","75","36","66","","","","","","","","","","","","","","",""
"","","","","","html-keyboard-response","170","1217988","0.0-21.0-2.18","8096b4eb-f983-4e8d-8b05-e4a0828db6bf","null","<p style=""text-align: center;"">+</p>","null","fixation","","","","","","","","","","","","","","","","","","","","",""
"","","","","","html-slider-response","171","1219003","0.0-21.0-0.19","8096b4eb-f983-4e8d-8b05-e4a0828db6bf","1000","
                  <p style=""text-align: center;"">₪71
                                                <br>45%</p>
                  <p id=""wtp"" style=""text-align:center; margin-top: 0px; margin-bottom: 0px; font-size: 40px"";>&ensp;</p>","-","viewing","0","26","2B,16A","","","","","","","","","","","","","","","","","",""
"","","","","","html-slider-response","172","1220422","0.0-21.0-1.19","8096b4eb-f983-4e8d-8b05-e4a0828db6bf","1418","
                  <p style=""text-align: center;"">₪71
                                                <br>45%</p>
                  <p id=""wtp"" style=""text-align:center; margin-top: 0px; margin-bottom: 0px; font-size: 40px"";>מוכנים לשלם: <span id=""c_p_y""></span></p>","44","evaluation","60","26","2B,16A","45","71","44","","","","","","","","","","","","","","",""
"","","","","","html-keyboard-response","173","1221231","0.0-21.0-2.19","8096b4eb-f983-4e8d-8b05-e4a0828db6bf","null","<p style=""text-align: center;"">+</p>","null","fixation","","","","","","","","","","","","","","","","","","","","",""
"","","","","","html-slider-response","174","1222234","0.0-21.0-0.20","8096b4eb-f983-4e8d-8b05-e4a0828db6bf","1000","
                  <p style=""text-align: center;"">₪11
                                                <br>25%</p>
                  <p id=""wtp"" style=""text-align:center; margin-top: 0px; margin-bottom: 0px; font-size: 40px"";>&ensp;</p>","-","viewing","0","5","12A,27B,28B,30B","","","","","","","","","","","","","","","","","",""
"","","","","","html-slider-response","175","1223014","0.0-21.0-1.20","8096b4eb-f983-4e8d-8b05-e4a0828db6bf","779","
                  <p style=""text-align: center;"">₪11
                                                <br>25%</p>
                  <p id=""wtp"" style=""text-align:center; margin-top: 0px; margin-bottom: 0px; font-size: 40px"";>מוכנים לשלם: <span id=""c_p_y""></span></p>","0","evaluation","77","5","12A,27B,28B,30B","25","11","0","","","","","","","","","","","","","","",""
"","","","","","html-keyboard-response","176","1224387","0.0-21.0-2.20","8096b4eb-f983-4e8d-8b05-e4a0828db6bf","null","<p style=""text-align: center;"">+</p>","null","fixation","","","","","","","","","","","","","","","","","","","","",""
"","","","","","html-slider-response","177","1225395","0.0-21.0-0.21","8096b4eb-f983-4e8d-8b05-e4a0828db6bf","1000","
                  <p style=""text-align: center;"">₪43
                                                <br>60%</p>
                  <p id=""wtp"" style=""text-align:center; margin-top: 0px; margin-bottom: 0px; font-size: 40px"";>&ensp;</p>","-","viewing","0","17","2A,7A,9A,15B","","","","","","","","","","","","","","","","","",""
"","","","","","html-slider-response","178","1226574","0.0-21.0-1.21","8096b4eb-f983-4e8d-8b05-e4a0828db6bf","1178","
                  <p style=""text-align: center;"">₪43
                                                <br>60%</p>
                  <p id=""wtp"" style=""text-align:center; margin-top: 0px; margin-bottom: 0px; font-size: 40px"";>מוכנים לשלם: <span id=""c_p_y""></span></p>","63","evaluation","72","17","2A,7A,9A,15B","60","43","63","","","","","","","","","","","","","","",""
"","","","","","html-keyboard-response","179","1228084","0.0-21.0-2.21","8096b4eb-f983-4e8d-8b05-e4a0828db6bf","null","<p style=""text-align: center;"">+</p>","null","fixation","","","","","","","","","","","","","","","","","","","","",""
"","","","","","html-slider-response","180","1229086","0.0-21.0-0.22","8096b4eb-f983-4e8d-8b05-e4a0828db6bf","1000","
                  <p style=""text-align: center;"">₪64
                                                <br>25%</p>
                  <p id=""wtp"" style=""text-align:center; margin-top: 0px; margin-bottom: 0px; font-size: 40px"";>&ensp;</p>","-","viewing","0","24","6A,21A","","","","","","","","","","","","","","","","","",""
"","","","","","html-slider-response","181","1230702","0.0-21.0-1.22","8096b4eb-f983-4e8d-8b05-e4a0828db6bf","1616","
                  <p style=""text-align: center;"">₪64
                                                <br>25%</p>
                  <p id=""wtp"" style=""text-align:center; margin-top: 0px; margin-bottom: 0px; font-size: 40px"";>מוכנים לשלם: <span id=""c_p_y""></span></p>","44","evaluation","31","24","6A,21A","25","64","44","","","","","","","","","","","","","","",""
"","","","","","html-keyboard-response","182","1231398","0.0-21.0-2.22","8096b4eb-f983-4e8d-8b05-e4a0828db6bf","null","<p style=""text-align: center;"">+</p>","null","fixation","","","","","","","","","","","","","","","","","","","","",""
"","","","","","html-slider-response","183","1232410","0.0-21.0-0.23","8096b4eb-f983-4e8d-8b05-e4a0828db6bf","1000","
                  <p style=""text-align: center;"">₪58
                                                <br>30%</p>
                  <p id=""wtp"" style=""text-align:center; margin-top: 0px; margin-bottom: 0px; font-size: 40px"";>&ensp;</p>","-","viewing","0","19","13C,30A","","","","","","","","","","","","","","","","","",""
"","","","","","html-slider-response","184","1233286","0.0-21.0-1.23","8096b4eb-f983-4e8d-8b05-e4a0828db6bf","874","
                  <p style=""text-align: center;"">₪58
                                                <br>30%</p>
                  <p id=""wtp"" style=""text-align:center; margin-top: 0px; margin-bottom: 0px; font-size: 40px"";>מוכנים לשלם: <span id=""c_p_y""></span></p>","40","evaluation","72","19","13C,30A","30","58","40","","","","","","","","","","","","","","",""
"","","","","","html-keyboard-response","185","1234021","0.0-21.0-2.23","8096b4eb-f983-4e8d-8b05-e4a0828db6bf","null","<p style=""text-align: center;"">+</p>","null","fixation","","","","","","","","","","","","","","","","","","","","",""
"","","","","","html-slider-response","186","1235023","0.0-21.0-0.24","8096b4eb-f983-4e8d-8b05-e4a0828db6bf","1000","
                  <p style=""text-align: center;"">₪36
                                                <br>30%</p>
                  <p id=""wtp"" style=""text-align:center; margin-top: 0px; margin-bottom: 0px; font-size: 40px"";>&ensp;</p>","-","viewing","0","11","3C,20A,22A","","","","","","","","","","","","","","","","","",""
"","","","","","html-slider-response","187","1235686","0.0-21.0-1.24","8096b4eb-f983-4e8d-8b05-e4a0828db6bf","662","
                  <p style=""text-align: center;"">₪36
                                                <br>30%</p>
                  <p id=""wtp"" style=""text-align:center; margin-top: 0px; margin-bottom: 0px; font-size: 40px"";>מוכנים לשלם: <span id=""c_p_y""></span></p>","29","evaluation","14","11","3C,20A,22A","30","36","29","","","","","","","","","","","","","","",""
"","","","","","html-keyboard-response","188","1236603","0.0-21.0-2.24","8096b4eb-f983-4e8d-8b05-e4a0828db6bf","null","<p style=""text-align: center;"">+</p>","null","fixation","","","","","","","","","","","","","","","","","","","","",""
"","","","","","html-slider-response","189","1237609","0.0-21.0-0.25","8096b4eb-f983-4e8d-8b05-e4a0828db6bf","1000","
                  <p style=""text-align: center;"">₪79
                                                <br>40%</p>
                  <p id=""wtp"" style=""text-align:center; margin-top: 0px; margin-bottom: 0px; font-size: 40px"";>&ensp;</p>","-","viewing","0","30","9B","","","","","","","","","","","","","","","","","",""
"","","","","","html-slider-response","190","1238574","0.0-21.0-1.25","8096b4eb-f983-4e8d-8b05-e4a0828db6bf","963","
                  <p style=""text-align: center;"">₪79
                                                <br>40%</p>
                  <p id=""wtp"" style=""text-align:center; margin-top: 0px; margin-bottom: 0px; font-size: 40px"";>מוכנים לשלם: <span id=""c_p_y""></span></p>","60","evaluation","58","30","9B","40","79","60","","","","","","","","","","","","","","",""
"","","","","","html-keyboard-response","191","1239932","0.0-21.0-2.25","8096b4eb-f983-4e8d-8b05-e4a0828db6bf","null","<p style=""text-align: center;"">+</p>","null","fixation","","","","","","","","","","","","","","","","","","","","",""
"","","","","","html-slider-response","192","1240934","0.0-21.0-0.26","8096b4eb-f983-4e8d-8b05-e4a0828db6bf","1000","
                  <p style=""text-align: center;"">₪4
                                                <br>25%</p>
                  <p id=""wtp"" style=""text-align:center; margin-top: 0px; margin-bottom: 0px; font-size: 40px"";>&ensp;</p>","-","viewing","0","1","6C,29B,30C","","","","","","","","","","","","","","","","","",""
"","","","","","html-slider-response","193","1241486","0.0-21.0-1.26","8096b4eb-f983-4e8d-8b05-e4a0828db6bf","551","
                  <p style=""text-align: center;"">₪4
                                                <br>25%</p>
                  <p id=""wtp"" style=""text-align:center; margin-top: 0px; margin-bottom: 0px; font-size: 40px"";>מוכנים לשלם: <span id=""c_p_y""></span></p>","0","evaluation","42","1","6C,29B,30C","25","4","0","","","","","","","","","","","","","","",""
"","","","","","html-keyboard-response","194","1242258","0.0-21.0-2.26","8096b4eb-f983-4e8d-8b05-e4a0828db6bf","null","<p style=""text-align: center;"">+</p>","null","fixation","","","","","","","","","","","","","","","","","","","","",""
"","","","","","html-slider-response","195","1243265","0.0-21.0-0.27","8096b4eb-f983-4e8d-8b05-e4a0828db6bf","1000","
                  <p style=""text-align: center;"">₪18
                                                <br>25%</p>
                  <p id=""wtp"" style=""text-align:center; margin-top: 0px; margin-bottom: 0px; font-size: 40px"";>&ensp;</p>","-","viewing","0","9","14A,23A","","","","","","","","","","","","","","","","","",""
"","","","","","html-slider-response","196","1244334","0.0-21.0-1.27","8096b4eb-f983-4e8d-8b05-e4a0828db6bf","1067","
                  <p style=""text-align: center;"">₪18
                                                <br>25%</p>
                  <p id=""wtp"" style=""text-align:center; margin-top: 0px; margin-bottom: 0px; font-size: 40px"";>מוכנים לשלם: <span id=""c_p_y""></span></p>","7","evaluation","77","9","14A,23A","25","18","7","","","","","","","","","","","","","","",""
"","","","","","html-keyboard-response","197","1245385","0.0-21.0-2.27","8096b4eb-f983-4e8d-8b05-e4a0828db6bf","null","<p style=""text-align: center;"">+</p>","null","fixation","","","","","","","","","","","","","","","","","","","","",""
"","","","","","html-slider-response","198","1246390","0.0-21.0-0.28","8096b4eb-f983-4e8d-8b05-e4a0828db6bf","1000","
                  <p style=""text-align: center;"">₪64
                                                <br>50%</p>
                  <p id=""wtp"" style=""text-align:center; margin-top: 0px; margin-bottom: 0px; font-size: 40px"";>&ensp;</p>","-","viewing","0","25","1B,3B,4A","","","","","","","","","","","","","","","","","",""
"","","","","","html-slider-response","199","1247718","0.0-21.0-1.28","8096b4eb-f983-4e8d-8b05-e4a0828db6bf","1327","
                  <p style=""text-align: center;"">₪64
                                                <br>50%</p>
                  <p id=""wtp"" style=""text-align:center; margin-top: 0px; margin-bottom: 0px; font-size: 40px"";>מוכנים לשלם: <span id=""c_p_y""></span></p>","60","evaluation","23","25","1B,3B,4A","50","64","60","","","","","","","","","","","","","","",""
"","","","","","html-keyboard-response","200","1249076","0.0-21.0-2.28","8096b4eb-f983-4e8d-8b05-e4a0828db6bf","null","<p style=""text-align: center;"">+</p>","null","fixation","","","","","","","","","","","","","","","","","","","","",""
"","","","","","html-slider-response","201","1250085","0.0-21.0-0.29","8096b4eb-f983-4e8d-8b05-e4a0828db6bf","1000","
                  <p style=""text-align: center;"">₪61
                                                <br>45%</p>
                  <p id=""wtp"" style=""text-align:center; margin-top: 0px; margin-bottom: 0px; font-size: 40px"";>&ensp;</p>","-","viewing","0","22","10A,11A","","","","","","","","","","","","","","","","","",""
"","","","","","html-slider-response","202","1251388","0.0-21.0-1.29","8096b4eb-f983-4e8d-8b05-e4a0828db6bf","1302","
                  <p style=""text-align: center;"">₪61
                                                <br>45%</p>
                  <p id=""wtp"" style=""text-align:center; margin-top: 0px; margin-bottom: 0px; font-size: 40px"";>מוכנים לשלם: <span id=""c_p_y""></span></p>","58","evaluation","45","22","10A,11A","45","61","58","","","","","","","","","","","","","","",""
"","","","","","html-keyboard-response","203","1252791","0.0-21.0-2.29","8096b4eb-f983-4e8d-8b05-e4a0828db6bf","null","<p style=""text-align: center;"">+</p>","null","fixation","","","","","","","","","","","","","","","","","","","","",""
"","","","","","html-slider-response","204","1253805","0.0-21.0-0.30","8096b4eb-f983-4e8d-8b05-e4a0828db6bf","1000","
                  <p style=""text-align: center;"">₪11
                                                <br>45%</p>
                  <p id=""wtp"" style=""text-align:center; margin-top: 0px; margin-bottom: 0px; font-size: 40px"";>&ensp;</p>","-","viewing","0","6","14B,21C,25C","","","","","","","","","","","","","","","","","",""
"","","","","","html-slider-response","205","1255140","0.0-21.0-1.30","8096b4eb-f983-4e8d-8b05-e4a0828db6bf","1334","
                  <p style=""text-align: center;"">₪11
                                                <br>45%</p>
                  <p id=""wtp"" style=""text-align:center; margin-top: 0px; margin-bottom: 0px; font-size: 40px"";>מוכנים לשלם: <span id=""c_p_y""></span></p>","4","evaluation","66","6","14B,21C,25C","45","11","4","","","","","","","","","","","","","","",""
"","","","","","html-keyboard-response","206","1255989","0.0-21.0-2.30","8096b4eb-f983-4e8d-8b05-e4a0828db6bf","null","<p style=""text-align: center;"">+</p>","null","fixation","","","","","","","","","","","","","","","","","","","","",""
"","","","","","html-keyboard-response","207","1256993","0.0-22.0","8096b4eb-f983-4e8d-8b05-e4a0828db6bf","null","<p style=""text-align: center;"">+</p>","null","fixation","","","","","","","","","","","","","","","","","","","","",""
"","","","","","html-keyboard-response","208","1258700","0.0-23.0","8096b4eb-f983-4e8d-8b05-e4a0828db6bf","null","<p>הפסקה.
          <br>לחצו כדי להמשיך.</p>","1","scan_wait","","","","","","","","","","","","","","","","","","","","",""
"","","","","","html-keyboard-response","209","1259712","0.0-24.0","8096b4eb-f983-4e8d-8b05-e4a0828db6bf","null","<p style=""text-align: center;"">+</p>","null","fixation","","","","","","","","","","","","","","","","","","","","",""
"","","","","","html-slider-response","210","1260714","0.0-25.0-0.0","8096b4eb-f983-4e8d-8b05-e4a0828db6bf","1000","
                  <p style=""text-align: center;"">₪43
                                                <br>75%</p>
                  <p id=""wtp"" style=""text-align:center; margin-top: 0px; margin-bottom: 0px; font-size: 40px"";>&ensp;</p>","-","viewing","0","18","11B,19B,24A,26A","","","","","","","","","","","","","","","","","",""
"","","","","","html-slider-response","211","1261844","0.0-25.0-1.0","8096b4eb-f983-4e8d-8b05-e4a0828db6bf","1129","
                  <p style=""text-align: center;"">₪43
                                                <br>75%</p>
                  <p id=""wtp"" style=""text-align:center; margin-top: 0px; margin-bottom: 0px; font-size: 40px"";>מוכנים לשלם: <span id=""c_p_y""></span></p>","71","evaluation","48","18","11B,19B,24A,26A","75","43","71","","","","","","","","","","","","","","",""
"","","","","","html-keyboard-response","212","1262493","0.0-25.0-2.0","8096b4eb-f983-4e8d-8b05-e4a0828db6bf","null","<p style=""text-align: center;"">+</p>","null","fixation","","","","","","","","","","","","","","","","","","","","",""
"","","","","","html-slider-response","213","1263496","0.0-25.0-0.1","8096b4eb-f983-4e8d-8b05-e4a0828db6bf","1000","
                  <p style=""text-align: center;"">₪4
                                                <br>75%</p>
                  <p id=""wtp"" style=""text-align:center; margin-top: 0px; margin-bottom: 0px; font-size: 40px"";>&ensp;</p>","-","viewing","0","3","12B,20B,23B,27C,29C","","","","","","","","","","","","","","","","","",""
"","","","","","html-slider-response","214","1263844","0.0-25.0-1.1","8096b4eb-f983-4e8d-8b05-e4a0828db6bf","348","
                  <p style=""text-align: center;"">₪4
                                                <br>75%</p>
                  <p id=""wtp"" style=""text-align:center; margin-top: 0px; margin-bottom: 0px; font-size: 40px"";>מוכנים לשלם: <span id=""c_p_y""></span></p>","0","evaluation","17","3","12B,20B,23B,27C,29C","75","4","0","","","","","","","","","","","","","","",""
"","","","","","html-keyboard-response","215","1264739","0.0-25.0-2.1","8096b4eb-f983-4e8d-8b05-e4a0828db6bf","null","<p style=""text-align: center;"">+</p>","null","fixation","","","","","","","","","","","","","","","","","","","","",""
"","","","","","html-slider-response","216","1265741","0.0-25.0-0.2","8096b4eb-f983-4e8d-8b05-e4a0828db6bf","1000","
                  <p style=""text-align: center;"">₪11
                                                <br>25%</p>
                  <p id=""wtp"" style=""text-align:center; margin-top: 0px; margin-bottom: 0px; font-size: 40px"";>&ensp;</p>","-","viewing","0","5","12A,27B,28B,30B","","","","","","","","","","","","","","","","","",""
"","","","","","html-slider-response","217","1266396","0.0-25.0-1.2","8096b4eb-f983-4e8d-8b05-e4a0828db6bf","654","
                  <p style=""text-align: center;"">₪11
                                                <br>25%</p>
                  <p id=""wtp"" style=""text-align:center; margin-top: 0px; margin-bottom: 0px; font-size: 40px"";>מוכנים לשלם: <span id=""c_p_y""></span></p>","0","evaluation","78","5","12A,27B,28B,30B","25","11","0","","","","","","","","","","","","","","",""
"","","","","","html-keyboard-response","218","1267171","0.0-25.0-2.2","8096b4eb-f983-4e8d-8b05-e4a0828db6bf","null","<p style=""text-align: center;"">+</p>","null","fixation","","","","","","","","","","","","","","","","","","","","",""
"","","","","","html-slider-response","219","1268185","0.0-25.0-0.3","8096b4eb-f983-4e8d-8b05-e4a0828db6bf","1000","
                  <p style=""text-align: center;"">₪58
                                                <br>30%</p>
                  <p id=""wtp"" style=""text-align:center; margin-top: 0px; margin-bottom: 0px; font-size: 40px"";>&ensp;</p>","-","viewing","0","19","13C,30A","","","","","","","","","","","","","","","","","",""
"","","","","","html-slider-response","220","1269244","0.0-25.0-1.3","8096b4eb-f983-4e8d-8b05-e4a0828db6bf","1058","
                  <p style=""text-align: center;"">₪58
                                                <br>30%</p>
                  <p id=""wtp"" style=""text-align:center; margin-top: 0px; margin-bottom: 0px; font-size: 40px"";>מוכנים לשלם: <span id=""c_p_y""></span></p>","42","evaluation","54","19","13C,30A","30","58","42","","","","","","","","","","","","","","",""
"","","","","","html-keyboard-response","221","1270322","0.0-25.0-2.3","8096b4eb-f983-4e8d-8b05-e4a0828db6bf","null","<p style=""text-align: center;"">+</p>","null","fixation","","","","","","","","","","","","","","","","","","","","",""
"","","","","","html-slider-response","222","1271336","0.0-25.0-0.4","8096b4eb-f983-4e8d-8b05-e4a0828db6bf","1000","
                  <p style=""text-align: center;"">₪18
                                                <br>25%</p>
                  <p id=""wtp"" style=""text-align:center; margin-top: 0px; margin-bottom: 0px; font-size: 40px"";>&ensp;</p>","-","viewing","0","9","14A,23A","","","","","","","","","","","","","","","","","",""
"","","","","","html-slider-response","223","1272596","0.0-25.0-1.4","8096b4eb-f983-4e8d-8b05-e4a0828db6bf","1260","
                  <p style=""text-align: center;"">₪18
                                                <br>25%</p>
                  <p id=""wtp"" style=""text-align:center; margin-top: 0px; margin-bottom: 0px; font-size: 40px"";>מוכנים לשלם: <span id=""c_p_y""></span></p>","16","evaluation","22","9","14A,23A","25","18","17","","","","","","","","","","","","","","",""
"","","","","","html-keyboard-response","224","1274058","0.0-25.0-2.4","8096b4eb-f983-4e8d-8b05-e4a0828db6bf","null","<p style=""text-align: center;"">+</p>","null","fixation","","","","","","","","","","","","","","","","","","","","",""
"","","","","","html-slider-response","225","1275061","0.0-25.0-0.5","8096b4eb-f983-4e8d-8b05-e4a0828db6bf","1000","
                  <p style=""text-align: center;"">₪58
                                                <br>40%</p>
                  <p id=""wtp"" style=""text-align:center; margin-top: 0px; margin-bottom: 0px; font-size: 40px"";>&ensp;</p>","-","viewing","0","20","10C,13A,19C,21B","","","","","","","","","","","","","","","","","",""
"","","","","","html-slider-response","226","1275924","0.0-25.0-1.5","8096b4eb-f983-4e8d-8b05-e4a0828db6bf","862","
                  <p style=""text-align: center;"">₪58
                                                <br>40%</p>
                  <p id=""wtp"" style=""text-align:center; margin-top: 0px; margin-bottom: 0px; font-size: 40px"";>מוכנים לשלם: <span id=""c_p_y""></span></p>","40","evaluation","54","20","10C,13A,19C,21B","40","58","40","","","","","","","","","","","","","","",""
"","","","","","html-keyboard-response","227","1276747","0.0-25.0-2.5","8096b4eb-f983-4e8d-8b05-e4a0828db6bf","null","<p style=""text-align: center;"">+</p>","null","fixation","","","","","","","","","","","","","","","","","","","","",""
"","","","","","html-slider-response","228","1277749","0.0-25.0-0.6","8096b4eb-f983-4e8d-8b05-e4a0828db6bf","1000","
                  <p style=""text-align: center;"">₪36
                                                <br>60%</p>
                  <p id=""wtp"" style=""text-align:center; margin-top: 0px; margin-bottom: 0px; font-size: 40px"";>&ensp;</p>","-","viewing","0","12","1C,7C,15C","","","","","","","","","","","","","","","","","",""
"","","","","","html-slider-response","229","1279156","0.0-25.0-1.6","8096b4eb-f983-4e8d-8b05-e4a0828db6bf","1406","
                  <p style=""text-align: center;"">₪36
                                                <br>60%</p>
                  <p id=""wtp"" style=""text-align:center; margin-top: 0px; margin-bottom: 0px; font-size: 40px"";>מוכנים לשלם: <span id=""c_p_y""></span></p>","64","evaluation","29","12","1C,7C,15C","60","36","64","","","","","","","","","","","","","","",""
"","","","","","html-keyboard-response","230","1280077","0.0-25.0-2.6","8096b4eb-f983-4e8d-8b05-e4a0828db6bf","null","<p style=""text-align: center;"">+</p>","null","fixation","","","","","","","","","","","","","","","","","","","","",""
"","","","","","html-slider-response","231","1281084","0.0-25.0-0.7","8096b4eb-f983-4e8d-8b05-e4a0828db6bf","1000","
                  <p style=""text-align: center;"">₪4
                                                <br>25%</p>
                  <p id=""wtp"" style=""text-align:center; margin-top: 0px; margin-bottom: 0px; font-size: 40px"";>&ensp;</p>","-","viewing","0","1","6C,29B,30C","","","","","","","","","","","","","","","","","",""
"","","","","","html-slider-response","232","1281926","0.0-25.0-1.7","8096b4eb-f983-4e8d-8b05-e4a0828db6bf","840","
                  <p style=""text-align: center;"">₪4
                                                <br>25%</p>
                  <p id=""wtp"" style=""text-align:center; margin-top: 0px; margin-bottom: 0px; font-size: 40px"";>מוכנים לשלם: <span id=""c_p_y""></span></p>","0","evaluation","2","1","6C,29B,30C","25","4","0","","","","","","","","","","","","","","",""
"","","","","","html-keyboard-response","233","1282614","0.0-25.0-2.7","8096b4eb-f983-4e8d-8b05-e4a0828db6bf","null","<p style=""text-align: center;"">+</p>","null","fixation","","","","","","","","","","","","","","","","","","","","",""
"","","","","","html-slider-response","234","1283626","0.0-25.0-0.8","8096b4eb-f983-4e8d-8b05-e4a0828db6bf","1000","
                  <p style=""text-align: center;"">₪4
                                                <br>50%</p>
                  <p id=""wtp"" style=""text-align:center; margin-top: 0px; margin-bottom: 0px; font-size: 40px"";>&ensp;</p>","-","viewing","0","2","4C,17B","","","","","","","","","","","","","","","","","",""
"","","","","","html-slider-response","235","1284924","0.0-25.0-1.8","8096b4eb-f983-4e8d-8b05-e4a0828db6bf","1297","
                  <p style=""text-align: center;"">₪4
                                                <br>50%</p>
                  <p id=""wtp"" style=""text-align:center; margin-top: 0px; margin-bottom: 0px; font-size: 40px"";>מוכנים לשלם: <span id=""c_p_y""></span></p>","5","evaluation","19","2","4C,17B","50","4","5","","","","","","","","","","","","","","",""
"","","","","","html-keyboard-response","236","1285867","0.0-25.0-2.8","8096b4eb-f983-4e8d-8b05-e4a0828db6bf","null","<p style=""text-align: center;"">+</p>","null","fixation","","","","","","","","","","","","","","","","","","","","",""
"","","","","","html-slider-response","237","1286870","0.0-25.0-0.9","8096b4eb-f983-4e8d-8b05-e4a0828db6bf","1000","
                  <p style=""text-align: center;"">₪18
                                                <br>50%</p>
                  <p id=""wtp"" style=""text-align:center; margin-top: 0px; margin-bottom: 0px; font-size: 40px"";>&ensp;</p>","-","viewing","0","10","2C,16C,22B,28A","","","","","","","","","","","","","","","","","",""
"","","","","","html-slider-response","238","1288700","0.0-25.0-1.9","8096b4eb-f983-4e8d-8b05-e4a0828db6bf","1830","
                  <p style=""text-align: center;"">₪18
                                                <br>50%</p>
                  <p id=""wtp"" style=""text-align:center; margin-top: 0px; margin-bottom: 0px; font-size: 40px"";>מוכנים לשלם: <span id=""c_p_y""></span></p>","23","evaluation","17","10","2C,16C,22B,28A","50","18","23","","","","","","","","","","","","","","",""
"","","","","","html-keyboard-response","239","1289623","0.0-25.0-2.9","8096b4eb-f983-4e8d-8b05-e4a0828db6bf","null","<p style=""text-align: center;"">+</p>","null","fixation","","","","","","","","","","","","","","","","","","","","",""
"","","","","","html-slider-response","240","1290624","0.0-25.0-0.10","8096b4eb-f983-4e8d-8b05-e4a0828db6bf","1000","
                  <p style=""text-align: center;"">₪16
                                                <br>20%</p>
                  <p id=""wtp"" style=""text-align:center; margin-top: 0px; margin-bottom: 0px; font-size: 40px"";>&ensp;</p>","-","viewing","0","8","14C,17A,20C,27A","","","","","","","","","","","","","","","","","",""
"","","","","","html-slider-response","241","1292157","0.0-25.0-1.10","8096b4eb-f983-4e8d-8b05-e4a0828db6bf","1532","
                  <p style=""text-align: center;"">₪16
                                                <br>20%</p>
                  <p id=""wtp"" style=""text-align:center; margin-top: 0px; margin-bottom: 0px; font-size: 40px"";>מוכנים לשלם: <span id=""c_p_y""></span></p>","22","evaluation","12","8","14C,17A,20C,27A","20","16","22","","","","","","","","","","","","","","",""
"","","","","","html-keyboard-response","242","1293102","0.0-25.0-2.10","8096b4eb-f983-4e8d-8b05-e4a0828db6bf","null","<p style=""text-align: center;"">+</p>","null","fixation","","","","","","","","","","","","","","","","","","","","",""
"","","","","","html-slider-response","243","1294113","0.0-25.0-0.11","8096b4eb-f983-4e8d-8b05-e4a0828db6bf","1000","
                  <p style=""text-align: center;"">₪58
                                                <br>45%</p>
                  <p id=""wtp"" style=""text-align:center; margin-top: 0px; margin-bottom: 0px; font-size: 40px"";>&ensp;</p>","-","viewing","0","21","11C,18C,25A","","","","","","","","","","","","","","","","","",""
"","","","","","html-slider-response","244","1296868","0.0-25.0-1.11","8096b4eb-f983-4e8d-8b05-e4a0828db6bf","2754","
                  <p style=""text-align: center;"">₪58
                                                <br>45%</p>
                  <p id=""wtp"" style=""text-align:center; margin-top: 0px; margin-bottom: 0px; font-size: 40px"";>מוכנים לשלם: <span id=""c_p_y""></span></p>","45","evaluation","18","21","11C,18C,25A","45","58","44","","","","","","","","","","","","","","",""
"","","","","","html-keyboard-response","245","1297722","0.0-25.0-2.11","8096b4eb-f983-4e8d-8b05-e4a0828db6bf","null","<p style=""text-align: center;"">+</p>","null","fixation","","","","","","","","","","","","","","","","","","","","",""
"","","","","","html-slider-response","246","1298735","0.0-25.0-0.12","8096b4eb-f983-4e8d-8b05-e4a0828db6bf","1000","
                  <p style=""text-align: center;"">₪11
                                                <br>20%</p>
                  <p id=""wtp"" style=""text-align:center; margin-top: 0px; margin-bottom: 0px; font-size: 40px"";>&ensp;</p>","-","viewing","0","4","12C,17C,23C,28C","","","","","","","","","","","","","","","","","",""
"","","","","","html-slider-response","247","1300013","0.0-25.0-1.12","8096b4eb-f983-4e8d-8b05-e4a0828db6bf","1276","
                  <p style=""text-align: center;"">₪11
                                                <br>20%</p>
                  <p id=""wtp"" style=""text-align:center; margin-top: 0px; margin-bottom: 0px; font-size: 40px"";>מוכנים לשלם: <span id=""c_p_y""></span></p>","6","evaluation","0","4","12C,17C,23C,28C","20","11","6","","","","","","","","","","","","","","",""
"","","","","","html-keyboard-response","248","1300697","0.0-25.0-2.12","8096b4eb-f983-4e8d-8b05-e4a0828db6bf","null","<p style=""text-align: center;"">+</p>","null","fixation","","","","","","","","","","","","","","","","","","","","",""
"","","","","","html-slider-response","249","1301701","0.0-25.0-0.13","8096b4eb-f983-4e8d-8b05-e4a0828db6bf","1000","
                  <p style=""text-align: center;"">₪36
                                                <br>70%</p>
                  <p id=""wtp"" style=""text-align:center; margin-top: 0px; margin-bottom: 0px; font-size: 40px"";>&ensp;</p>","-","viewing","0","13","3A,5C,10B","","","","","","","","","","","","","","","","","",""
"","","","","","html-slider-response","250","1302652","0.0-25.0-1.13","8096b4eb-f983-4e8d-8b05-e4a0828db6bf","951","
                  <p style=""text-align: center;"">₪36
                                                <br>70%</p>
                  <p id=""wtp"" style=""text-align:center; margin-top: 0px; margin-bottom: 0px; font-size: 40px"";>מוכנים לשלם: <span id=""c_p_y""></span></p>","66","evaluation","51","13","3A,5C,10B","70","36","65","","","","","","","","","","","","","","",""
"","","","","","html-keyboard-response","251","1303336","0.0-25.0-2.13","8096b4eb-f983-4e8d-8b05-e4a0828db6bf","null","<p style=""text-align: center;"">+</p>","null","fixation","","","","","","","","","","","","","","","","","","","","",""
"","","","","","html-slider-response","252","1304338","0.0-25.0-0.14","8096b4eb-f983-4e8d-8b05-e4a0828db6bf","1000","
                  <p style=""text-align: center;"">₪11
                                                <br>45%</p>
