"success","timeout","failed_images","failed_audio","failed_video","trial_type","trial_index","time_elapsed","internal_node_id","subject_id","rt","stimulus","response","part","slider_start","ID","set_ID","prob","amount","last_location","actual_choice","actual_EV","binary_id","trinary_id","catch","direction","A_key","S_key","D_key","choice_prob","choice_amount","potential_prize_prob","potential_prize_amount","won_prize","total_prize","accuracy"
"true","false","[]","[]","[]","preload","0","5","0.0-0.0","4a9ce7d8-368c-43cb-9911-0b763322c6be","","","","","","","","","","","","","","","","","","","","","","","","","",""
"","","","","","html-keyboard-response","1","21684","0.0-1.0","4a9ce7d8-368c-43cb-9911-0b763322c6be","null","
          <h1>שלום וברוכים הבאים!</h1>
          <p>לפניכם ניסוי בקבלת החלטות עם שני חלקים.
          <br><br>לחצו על העכבר כדי להמשיך.</p>","0","example","","","","","","","","","","","","","","","","","","","","","",""
"","","","","","html-keyboard-response","2","48500","0.0-2.0","4a9ce7d8-368c-43cb-9911-0b763322c6be","null","
        <h1>חלק 1</h1>
        <p>בקרוב יוצגו בפניכם הגרלות.
        <br>עליכם לבחור את המחיר המירבי שתהיו מוכנים לשלם כדי להשתתף בהגרלה שתוצג.
        <br>יש לכם תקציב של ₪80 לכל הגרלה. 
        <br>נסו להעריך כל הגרלה בנפרד ולחשוב כמה היא שווה עבורכם, ₪80 זמינים לכל הגרלה בנפרד.
        <br><br>לחצו על העכבר כדי להמשיך.</p>","1","instructions","","","","","","","","","","","","","","","","","","","","","",""
"","","","","","html-keyboard-response","3","89924","0.0-3.0","4a9ce7d8-368c-43cb-9911-0b763322c6be","null","
        <p>בסוף הניסוי, המחשב יבחר את אחת ההגרלות ויקבע מחיר לכרטיס עבורה. 
        <br>במידה והמחיר שבחרתם נמוך מהמחיר שנבחר על ידי המחשב, לא תשתתפו בהגרלה ותשארו עם מלוא התקציב.
        <br>במידה והמחיר שבחרתם גבוה מהמחיר שנבחר על ידי המחשב, תשלמו את המחיר שנקבע ותשתתפו בהגרלה.
        <br><br>לחצו על העכבר כדי להמשיך.</p>","1","instructions","","","","","","","","","","","","","","","","","","","","","",""
"","","","","","html-slider-response","4","133492","0.0-4.0","4a9ce7d8-368c-43cb-9911-0b763322c6be","43463","
        <p style=""font-size: 42px;"">נתחיל עם דוגמא: 
        <br>ההגרלה מטה מציעה 65% סיכוי לזכות ב-₪40 
        <br>&emsp;&emsp;&emsp;&emsp;&emsp;&emsp;&emsp;&emsp;&ensp;35% סיכוי לזכות ב-₪0.
        <br><br>מה המחיר המירבי שתהיו מוכנים לשלם על כרטיס להגרלה זו בין 0 ל-₪80?
        <br>הזיזו את העכבר על פני המלבן ולחצו כדי לבצע בחירה.</p>
        
        <p style=""text-align: center;"">₪40<br>65%</p>

        <p id=""wtp"" style=""text-align:center; margin-top: 0px; margin-bottom: 0px; font-size: 40px"";>מוכנים לשלם: <span id=""c_p_y""></span></p>","35","example","73","","","","","","","","","","","","","","","","","","","","",""
"","","","","","html-keyboard-response","5","145044","0.0-5.0","4a9ce7d8-368c-43cb-9911-0b763322c6be","null","<p>יפה מאוד!
                <br> בחרתם שתהיו מוכנים לשלם ₪35 כדי להשתתף בהגרלה:
                <br><p style=""text-align: center;"">₪40<br>65%</p>
                <p>נשמע נכון?
                <br>נניח שהגרלה זו נבחרה בסוף הניסוי.
                <br>כעת המחשב יקבע מחיר עבורה באקראי.
                <br>לחצו על העכבר להמשך.</p>","1","example","","","","","","","","","","","","","","","","","","","","","",""
"","","","","","html-keyboard-response","6","175588","0.0-6.0","4a9ce7d8-368c-43cb-9911-0b763322c6be","null","<p>המחשב קבע מחיר: ₪63
                <br>ואתם בחרתם לשלם לכל היותר: ₪35
                <br><br>מכיוון שהמחיר שבחרתם נמוך מהמחיר שנקבע, לא תתשתתפו בהגרלה.
                <br>במקרה כזה, בסוף הניסוי תקבלו את כל התקציב ההתחלתי של ₪80.
                <br><br>לחצו על העכבר להמשך.</p>","1","example","","","","","","","","","","","","","","","","","","","","","",""
"","","","","","html-slider-response","7","205732","0.0-7.0","4a9ce7d8-368c-43cb-9911-0b763322c6be","29890","<p style=""font-size: 42px;"">הנה עוד דוגמא:
                <br>ההגרלה מטה מציעה 35% סיכוי לזכות ב-₪18 
                <br>&emsp;&emsp;&emsp;&emsp;&emsp;&emsp;&emsp;&emsp;&ensp;65% סיכוי לזכות ב-₪0.</p>
        
                <p style=""text-align: center;"">₪18<br>35%</p>
                <p id=""wtp"" style=""text-align:center; margin-top: 0px; margin-bottom: 0px; font-size: 40px"";>מוכנים לשלם: <span id=""c_p_y""></span></p>","10","example","22","","","","","","","","","","","","","","","","","","","","",""
"","","","","","html-keyboard-response","8","213148","0.0-8.0","4a9ce7d8-368c-43cb-9911-0b763322c6be","null","<p>הייתם מוכנים לשלם  ₪10 כדי להשתתף בהגרלה:
                <p style=""text-align: center;"">₪18<br>35%</p>
                <p>כעת נניח שהמחשב בחר את ההגרלה הזו בסוף הניסוי, וקבע עבורה מחיר.
                <br><br>לחצו על העכבר כדי להמשיך.</p>","1","instructions","","","","","","","","","","","","","","","","","","","","","",""
"","","","","","html-keyboard-response","9","253548","0.0-9.0","4a9ce7d8-368c-43cb-9911-0b763322c6be","null","<p>המחשב קבע מחיר להגרלה: ₪6<br>ואתם בחרתם לשלם לכל היותר: ₪10
                <br><br>כעת המחיר שנקבע נמוך מזה שבחרתם, אז תשלמו את המחיר שקבע המחשב (₪6) ותשתתפו בהגרלה.
                <br>במקרה כזה, תסיימו את הניסוי עם תקציב של ₪74 ועם סיכוי לזכות ב-₪18 נוספים מההגרלה.
                <br>כלומר, תוכלו לקבל ₪74 אם לא תזכו בהגרלה, או ₪92 אם תזכו בהגרלה.
                <br><br>לחצו על העכבר להמשך.</p>","1","example","","","","","","","","","","","","","","","","","","","","","",""
"","","","","","html-keyboard-response","10","279796","0.0-10.0","4a9ce7d8-368c-43cb-9911-0b763322c6be","null","<p>במהלך הניסוי, קודם תראו את ההגרלה ורק לאחר מכן תוכלו לבחור.
                <p>כמו כן, יהיו לכם מספר שניות מוגבל להגיב.
                <p>בואו ננסה זאת עם ההגרלה הקודמת.
                <br>לחצו על העכבר כדי להמשיך.</p>","1","instructions","","","","","","","","","","","","","","","","","","","","","",""
"","","","","","html-slider-response","11","281066","0.0-11.0","4a9ce7d8-368c-43cb-9911-0b763322c6be","1000","
                    <p style=""text-align: center;"">₪18<br>35%</p>
                    <p id=""wtp"" style=""text-align:center; margin-top: 0px; margin-bottom: 0px; font-size: 40px"";>&ensp;</p>","18","instructions","0","","","","","","","","","","","","","","","","","","","","",""
"","","","","","html-slider-response","12","283078","0.0-12.0","4a9ce7d8-368c-43cb-9911-0b763322c6be","1752","
                    <p style=""text-align: center;"">₪18<br>35%</p>
                    <p id=""wtp"" style=""text-align:center; margin-top: 0px; margin-bottom: 0px; font-size: 40px"";>מוכנים לשלם: <span id=""c_p_y""></span></p>","46","instructions","16","","","","","","","","","","","","","","","","","","","","",""
"","","","","","html-keyboard-response","13","287204","0.0-13.0","4a9ce7d8-368c-43cb-9911-0b763322c6be","null","<p>יפה. הפעם בחרתם לשלם לכל היותר ₪46.
                <br><br>לחצו על העכבר כדי להמשיך.</p>","1","instructions","","","","","","","","","","","","","","","","","","","","","",""
"","","","","","html-keyboard-response","14","309004","0.0-15.0","4a9ce7d8-368c-43cb-9911-0b763322c6be","null","<p>כעת נתחיל את הניסוי.
                <br><br>אתם תראו הגרלות ותתבקשו לבחור כמה תהיו מוכנים לשלם כדי להשתתף בהן.
                <br>יש לכם תקציב של ₪80 עבור כל הגרלה.
                <br>בסוף הניסוי הגרלה אחת תבחר באקראי ותשוחק.
                <br><br>לחצו על העכבר כדי להתחיל את הניסוי.</p>","1","instructions","","","","","","","","","","","","","","","","","","","","","",""
"","","","","","html-keyboard-response","15","310270","0.0-16.0","4a9ce7d8-368c-43cb-9911-0b763322c6be","null","<p style=""text-align: center;"">+</p>","null","fixation","","","","","","","","","","","","","","","","","","","","","",""
"","","","","","html-slider-response","16","311272","0.0-17.0-0.0","4a9ce7d8-368c-43cb-9911-0b763322c6be","1000","
                  <p style=""text-align: center;"">₪71
                                                <br>55%</p>
                  <p id=""wtp"" style=""text-align:center; margin-top: 0px; margin-bottom: 0px; font-size: 40px"";>&ensp;</p>","-","viewing","0","27","5B,18A","","","","","","","","","","","","","","","","","","",""
"","","","","","html-slider-response","17","315282","0.0-17.0-1.0","4a9ce7d8-368c-43cb-9911-0b763322c6be","null","
                  <p style=""text-align: center;"">₪71
                                                <br>55%</p>
                  <p id=""wtp"" style=""text-align:center; margin-top: 0px; margin-bottom: 0px; font-size: 40px"";>מוכנים לשלם: <span id=""c_p_y""></span></p>","null","evaluation","74","27","5B,18A","55","71","42","","","","","","","","","","","","","","","",""
"","","","","","html-keyboard-response","18","315928","0.0-17.0-2.0","4a9ce7d8-368c-43cb-9911-0b763322c6be","null","<p style=""text-align: center;"">+</p>","null","fixation","","","","","","","","","","","","","","","","","","","","","",""
"","","","","","html-slider-response","19","316931","0.0-17.0-0.1","4a9ce7d8-368c-43cb-9911-0b763322c6be","1000","
                  <p style=""text-align: center;"">₪39
                                                <br>60%</p>
                  <p id=""wtp"" style=""text-align:center; margin-top: 0px; margin-bottom: 0px; font-size: 40px"";>&ensp;</p>","-","viewing","0","15","9C,25B","","","","","","","","","","","","","","","","","","",""
"","","","","","html-slider-response","20","320945","0.0-17.0-1.1","4a9ce7d8-368c-43cb-9911-0b763322c6be","null","
                  <p style=""text-align: center;"">₪39
                                                <br>60%</p>
                  <p id=""wtp"" style=""text-align:center; margin-top: 0px; margin-bottom: 0px; font-size: 40px"";>מוכנים לשלם: <span id=""c_p_y""></span></p>","null","evaluation","59","15","9C,25B","60","39","47","","","","","","","","","","","","","","","",""
"","","","","","html-keyboard-response","21","321955","0.0-17.0-2.1","4a9ce7d8-368c-43cb-9911-0b763322c6be","null","<p style=""text-align: center;"">+</p>","null","fixation","","","","","","","","","","","","","","","","","","","","","",""
"","","","","","html-slider-response","22","322960","0.0-17.0-0.2","4a9ce7d8-368c-43cb-9911-0b763322c6be","1000","
                  <p style=""text-align: center;"">₪36
                                                <br>75%</p>
                  <p id=""wtp"" style=""text-align:center; margin-top: 0px; margin-bottom: 0px; font-size: 40px"";>&ensp;</p>","-","viewing","0","14","4B,5A,13B,16B","","","","","","","","","","","","","","","","","","",""
"","","","","","html-slider-response","23","326970","0.0-17.0-1.2","4a9ce7d8-368c-43cb-9911-0b763322c6be","null","
                  <p style=""text-align: center;"">₪36
                                                <br>75%</p>
                  <p id=""wtp"" style=""text-align:center; margin-top: 0px; margin-bottom: 0px; font-size: 40px"";>מוכנים לשלם: <span id=""c_p_y""></span></p>","null","evaluation","39","14","4B,5A,13B,16B","75","36","67","","","","","","","","","","","","","","","",""
"","","","","","html-keyboard-response","24","328275","0.0-17.0-2.2","4a9ce7d8-368c-43cb-9911-0b763322c6be","null","<p style=""text-align: center;"">+</p>","null","fixation","","","","","","","","","","","","","","","","","","","","","",""
"","","","","","html-slider-response","25","329278","0.0-17.0-0.3","4a9ce7d8-368c-43cb-9911-0b763322c6be","1000","
                  <p style=""text-align: center;"">₪4
                                                <br>50%</p>
                  <p id=""wtp"" style=""text-align:center; margin-top: 0px; margin-bottom: 0px; font-size: 40px"";>&ensp;</p>","-","viewing","0","2","4C,17B","","","","","","","","","","","","","","","","","","",""
"","","","","","html-slider-response","26","333292","0.0-17.0-1.3","4a9ce7d8-368c-43cb-9911-0b763322c6be","null","
                  <p style=""text-align: center;"">₪4
                                                <br>50%</p>
                  <p id=""wtp"" style=""text-align:center; margin-top: 0px; margin-bottom: 0px; font-size: 40px"";>מוכנים לשלם: <span id=""c_p_y""></span></p>","null","evaluation","61","2","4C,17B","50","4","38","","","","","","","","","","","","","","","",""
"","","","","","html-keyboard-response","27","334544","0.0-17.0-2.3","4a9ce7d8-368c-43cb-9911-0b763322c6be","null","<p style=""text-align: center;"">+</p>","null","fixation","","","","","","","","","","","","","","","","","","","","","",""
"","","","","","html-slider-response","28","335547","0.0-17.0-0.4","4a9ce7d8-368c-43cb-9911-0b763322c6be","1000","
                  <p style=""text-align: center;"">₪16
                                                <br>20%</p>
                  <p id=""wtp"" style=""text-align:center; margin-top: 0px; margin-bottom: 0px; font-size: 40px"";>&ensp;</p>","-","viewing","0","8","14C,17A,20C,27A","","","","","","","","","","","","","","","","","","",""
"","","","","","html-slider-response","29","339560","0.0-17.0-1.4","4a9ce7d8-368c-43cb-9911-0b763322c6be","null","
                  <p style=""text-align: center;"">₪16
                                                <br>20%</p>
                  <p id=""wtp"" style=""text-align:center; margin-top: 0px; margin-bottom: 0px; font-size: 40px"";>מוכנים לשלם: <span id=""c_p_y""></span></p>","null","evaluation","33","8","14C,17A,20C,27A","20","16","9","","","","","","","","","","","","","","","",""
"","","","","","html-keyboard-response","30","340591","0.0-17.0-2.4","4a9ce7d8-368c-43cb-9911-0b763322c6be","null","<p style=""text-align: center;"">+</p>","null","fixation","","","","","","","","","","","","","","","","","","","","","",""
"","","","","","html-slider-response","31","341601","0.0-17.0-0.5","4a9ce7d8-368c-43cb-9911-0b763322c6be","1000","
                  <p style=""text-align: center;"">₪43
                                                <br>60%</p>
                  <p id=""wtp"" style=""text-align:center; margin-top: 0px; margin-bottom: 0px; font-size: 40px"";>&ensp;</p>","-","viewing","0","17","2A,7A,9A,15B","","","","","","","","","","","","","","","","","","",""
"","","","","","html-slider-response","32","345609","0.0-17.0-1.5","4a9ce7d8-368c-43cb-9911-0b763322c6be","null","
                  <p style=""text-align: center;"">₪43
                                                <br>60%</p>
                  <p id=""wtp"" style=""text-align:center; margin-top: 0px; margin-bottom: 0px; font-size: 40px"";>מוכנים לשלם: <span id=""c_p_y""></span></p>","null","evaluation","69","17","2A,7A,9A,15B","60","43","16","","","","","","","","","","","","","","","",""
"","","","","","html-keyboard-response","33","346769","0.0-17.0-2.5","4a9ce7d8-368c-43cb-9911-0b763322c6be","null","<p style=""text-align: center;"">+</p>","null","fixation","","","","","","","","","","","","","","","","","","","","","",""
"","","","","","html-slider-response","34","347773","0.0-17.0-0.6","4a9ce7d8-368c-43cb-9911-0b763322c6be","1000","
                  <p style=""text-align: center;"">₪71
                                                <br>75%</p>
                  <p id=""wtp"" style=""text-align:center; margin-top: 0px; margin-bottom: 0px; font-size: 40px"";>&ensp;</p>","-","viewing","0","28","8B","","","","","","","","","","","","","","","","","","",""
"","","","","","html-slider-response","35","351786","0.0-17.0-1.6","4a9ce7d8-368c-43cb-9911-0b763322c6be","null","
                  <p style=""text-align: center;"">₪71
                                                <br>75%</p>
                  <p id=""wtp"" style=""text-align:center; margin-top: 0px; margin-bottom: 0px; font-size: 40px"";>מוכנים לשלם: <span id=""c_p_y""></span></p>","null","evaluation","47","28","8B","75","71","68","","","","","","","","","","","","","","","",""
"","","","","","html-keyboard-response","36","352537","0.0-17.0-2.6","4a9ce7d8-368c-43cb-9911-0b763322c6be","null","<p style=""text-align: center;"">+</p>","null","fixation","","","","","","","","","","","","","","","","","","","","","",""
"","","","","","html-slider-response","37","353541","0.0-17.0-0.7","4a9ce7d8-368c-43cb-9911-0b763322c6be","1000","
                  <p style=""text-align: center;"">₪61
                                                <br>55%</p>
                  <p id=""wtp"" style=""text-align:center; margin-top: 0px; margin-bottom: 0px; font-size: 40px"";>&ensp;</p>","-","viewing","0","23","7B,26B","","","","","","","","","","","","","","","","","","",""
"","","","","","html-slider-response","38","357543","0.0-17.0-1.7","4a9ce7d8-368c-43cb-9911-0b763322c6be","null","
                  <p style=""text-align: center;"">₪61
                                                <br>55%</p>
                  <p id=""wtp"" style=""text-align:center; margin-top: 0px; margin-bottom: 0px; font-size: 40px"";>מוכנים לשלם: <span id=""c_p_y""></span></p>","null","evaluation","57","23","7B,26B","55","61","48","","","","","","","","","","","","","","","",""
"","","","","","html-keyboard-response","39","358903","0.0-17.0-2.7","4a9ce7d8-368c-43cb-9911-0b763322c6be","null","<p style=""text-align: center;"">+</p>","null","fixation","","","","","","","","","","","","","","","","","","","","","",""
"","","","","","html-slider-response","40","359905","0.0-17.0-0.8","4a9ce7d8-368c-43cb-9911-0b763322c6be","1000","
                  <p style=""text-align: center;"">₪18
                                                <br>25%</p>
                  <p id=""wtp"" style=""text-align:center; margin-top: 0px; margin-bottom: 0px; font-size: 40px"";>&ensp;</p>","-","viewing","0","9","14A,23A","","","","","","","","","","","","","","","","","","",""
"","","","","","html-slider-response","41","363921","0.0-17.0-1.8","4a9ce7d8-368c-43cb-9911-0b763322c6be","null","
                  <p style=""text-align: center;"">₪18
                                                <br>25%</p>
                  <p id=""wtp"" style=""text-align:center; margin-top: 0px; margin-bottom: 0px; font-size: 40px"";>מוכנים לשלם: <span id=""c_p_y""></span></p>","null","evaluation","44","9","14A,23A","25","18","6","","","","","","","","","","","","","","","",""
"","","","","","html-keyboard-response","42","365203","0.0-17.0-2.8","4a9ce7d8-368c-43cb-9911-0b763322c6be","null","<p style=""text-align: center;"">+</p>","null","fixation","","","","","","","","","","","","","","","","","","","","","",""
"","","","","","html-slider-response","43","366217","0.0-17.0-0.9","4a9ce7d8-368c-43cb-9911-0b763322c6be","1000","
                  <p style=""text-align: center;"">₪36
                                                <br>30%</p>
                  <p id=""wtp"" style=""text-align:center; margin-top: 0px; margin-bottom: 0px; font-size: 40px"";>&ensp;</p>","-","viewing","0","11","3C,20A,22A","","","","","","","","","","","","","","","","","","",""
"","","","","","html-slider-response","44","370219","0.0-17.0-1.9","4a9ce7d8-368c-43cb-9911-0b763322c6be","null","
                  <p style=""text-align: center;"">₪36
                                                <br>30%</p>
                  <p id=""wtp"" style=""text-align:center; margin-top: 0px; margin-bottom: 0px; font-size: 40px"";>מוכנים לשלם: <span id=""c_p_y""></span></p>","null","evaluation","74","11","3C,20A,22A","30","36","22","","","","","","","","","","","","","","","",""
"","","","","","html-keyboard-response","45","371200","0.0-17.0-2.9","4a9ce7d8-368c-43cb-9911-0b763322c6be","null","<p style=""text-align: center;"">+</p>","null","fixation","","","","","","","","","","","","","","","","","","","","","",""
"","","","","","html-slider-response","46","372209","0.0-17.0-0.10","4a9ce7d8-368c-43cb-9911-0b763322c6be","1000","
                  <p style=""text-align: center;"">₪64
                                                <br>25%</p>
                  <p id=""wtp"" style=""text-align:center; margin-top: 0px; margin-bottom: 0px; font-size: 40px"";>&ensp;</p>","-","viewing","0","24","6A,21A","","","","","","","","","","","","","","","","","","",""
"","","","","","html-slider-response","47","376220","0.0-17.0-1.10","4a9ce7d8-368c-43cb-9911-0b763322c6be","null","
                  <p style=""text-align: center;"">₪64
                                                <br>25%</p>
                  <p id=""wtp"" style=""text-align:center; margin-top: 0px; margin-bottom: 0px; font-size: 40px"";>מוכנים לשלם: <span id=""c_p_y""></span></p>","null","evaluation","52","24","6A,21A","25","64","17","","","","","","","","","","","","","","","",""
"","","","","","html-keyboard-response","48","377348","0.0-17.0-2.10","4a9ce7d8-368c-43cb-9911-0b763322c6be","null","<p style=""text-align: center;"">+</p>","null","fixation","","","","","","","","","","","","","","","","","","","","","",""
"","","","","","html-slider-response","49","378354","0.0-17.0-0.11","4a9ce7d8-368c-43cb-9911-0b763322c6be","1000","
                  <p style=""text-align: center;"">₪4
                                                <br>75%</p>
                  <p id=""wtp"" style=""text-align:center; margin-top: 0px; margin-bottom: 0px; font-size: 40px"";>&ensp;</p>","-","viewing","0","3","12B,20B,23B,27C,29C","","","","","","","","","","","","","","","","","","",""
"","","","","","html-slider-response","50","382358","0.0-17.0-1.11","4a9ce7d8-368c-43cb-9911-0b763322c6be","null","
                  <p style=""text-align: center;"">₪4
                                                <br>75%</p>
                  <p id=""wtp"" style=""text-align:center; margin-top: 0px; margin-bottom: 0px; font-size: 40px"";>מוכנים לשלם: <span id=""c_p_y""></span></p>","null","evaluation","22","3","12B,20B,23B,27C,29C","75","4","62","","","","","","","","","","","","","","","",""
"","","","","","html-keyboard-response","51","383216","0.0-17.0-2.11","4a9ce7d8-368c-43cb-9911-0b763322c6be","null","<p style=""text-align: center;"">+</p>","null","fixation","","","","","","","","","","","","","","","","","","","","","",""
"","","","","","html-slider-response","52","384219","0.0-17.0-0.12","4a9ce7d8-368c-43cb-9911-0b763322c6be","1000","
                  <p style=""text-align: center;"">₪79
                                                <br>40%</p>
                  <p id=""wtp"" style=""text-align:center; margin-top: 0px; margin-bottom: 0px; font-size: 40px"";>&ensp;</p>","-","viewing","0","30","9B","","","","","","","","","","","","","","","","","","",""
"","","","","","html-slider-response","53","388228","0.0-17.0-1.12","4a9ce7d8-368c-43cb-9911-0b763322c6be","null","
                  <p style=""text-align: center;"">₪79
                                                <br>40%</p>
                  <p id=""wtp"" style=""text-align:center; margin-top: 0px; margin-bottom: 0px; font-size: 40px"";>מוכנים לשלם: <span id=""c_p_y""></span></p>","null","evaluation","37","30","9B","40","79","25","","","","","","","","","","","","","","","",""
"","","","","","html-keyboard-response","54","388742","0.0-17.0-2.12","4a9ce7d8-368c-43cb-9911-0b763322c6be","null","<p style=""text-align: center;"">+</p>","null","fixation","","","","","","","","","","","","","","","","","","","","","",""
"","","","","","html-slider-response","55","389751","0.0-17.0-0.13","4a9ce7d8-368c-43cb-9911-0b763322c6be","1000","
                  <p style=""text-align: center;"">₪18
                                                <br>50%</p>
                  <p id=""wtp"" style=""text-align:center; margin-top: 0px; margin-bottom: 0px; font-size: 40px"";>&ensp;</p>","-","viewing","0","10","2C,16C,22B,28A","","","","","","","","","","","","","","","","","","",""
"","","","","","html-slider-response","56","393753","0.0-17.0-1.13","4a9ce7d8-368c-43cb-9911-0b763322c6be","null","
                  <p style=""text-align: center;"">₪18
                                                <br>50%</p>
                  <p id=""wtp"" style=""text-align:center; margin-top: 0px; margin-bottom: 0px; font-size: 40px"";>מוכנים לשלם: <span id=""c_p_y""></span></p>","null","evaluation","24","10","2C,16C,22B,28A","50","18","50","","","","","","","","","","","","","","","",""
"","","","","","html-keyboard-response","57","395168","0.0-17.0-2.13","4a9ce7d8-368c-43cb-9911-0b763322c6be","null","<p style=""text-align: center;"">+</p>","null","fixation","","","","","","","","","","","","","","","","","","","","","",""
"","","","","","html-slider-response","58","396171","0.0-17.0-0.14","4a9ce7d8-368c-43cb-9911-0b763322c6be","1000","
                  <p style=""text-align: center;"">₪11
                                                <br>25%</p>
                  <p id=""wtp"" style=""text-align:center; margin-top: 0px; margin-bottom: 0px; font-size: 40px"";>&ensp;</p>","-","viewing","0","5","12A,27B,28B,30B","","","","","","","","","","","","","","","","","","",""
"","","","","","html-slider-response","59","400173","0.0-17.0-1.14","4a9ce7d8-368c-43cb-9911-0b763322c6be","null","
                  <p style=""text-align: center;"">₪11
                                                <br>25%</p>
                  <p id=""wtp"" style=""text-align:center; margin-top: 0px; margin-bottom: 0px; font-size: 40px"";>מוכנים לשלם: <span id=""c_p_y""></span></p>","null","evaluation","54","5","12A,27B,28B,30B","25","11","9","","","","","","","","","","","","","","","",""
"","","","","","html-keyboard-response","60","401418","0.0-17.0-2.14","4a9ce7d8-368c-43cb-9911-0b763322c6be","null","<p style=""text-align: center;"">+</p>","null","fixation","","","","","","","","","","","","","","","","","","","","","",""
"","","","","","html-slider-response","61","402430","0.0-17.0-0.15","4a9ce7d8-368c-43cb-9911-0b763322c6be","1000","
                  <p style=""text-align: center;"">₪61
                                                <br>45%</p>
                  <p id=""wtp"" style=""text-align:center; margin-top: 0px; margin-bottom: 0px; font-size: 40px"";>&ensp;</p>","-","viewing","0","22","10A,11A","","","","","","","","","","","","","","","","","","",""
"","","","","","html-slider-response","62","406444","0.0-17.0-1.15","4a9ce7d8-368c-43cb-9911-0b763322c6be","null","
                  <p style=""text-align: center;"">₪61
                                                <br>45%</p>
                  <p id=""wtp"" style=""text-align:center; margin-top: 0px; margin-bottom: 0px; font-size: 40px"";>מוכנים לשלם: <span id=""c_p_y""></span></p>","null","evaluation","78","22","10A,11A","45","61","23","","","","","","","","","","","","","","","",""
"","","","","","html-keyboard-response","63","407132","0.0-17.0-2.15","4a9ce7d8-368c-43cb-9911-0b763322c6be","null","<p style=""text-align: center;"">+</p>","null","fixation","","","","","","","","","","","","","","","","","","","","","",""
"","","","","","html-slider-response","64","408136","0.0-17.0-0.16","4a9ce7d8-368c-43cb-9911-0b763322c6be","1000","
                  <p style=""text-align: center;"">₪71
                                                <br>45%</p>
                  <p id=""wtp"" style=""text-align:center; margin-top: 0px; margin-bottom: 0px; font-size: 40px"";>&ensp;</p>","-","viewing","0","26","2B,16A","","","","","","","","","","","","","","","","","","",""
"","","","","","html-slider-response","65","412147","0.0-17.0-1.16","4a9ce7d8-368c-43cb-9911-0b763322c6be","null","
                  <p style=""text-align: center;"">₪71
                                                <br>45%</p>
                  <p id=""wtp"" style=""text-align:center; margin-top: 0px; margin-bottom: 0px; font-size: 40px"";>מוכנים לשלם: <span id=""c_p_y""></span></p>","null","evaluation","34","26","2B,16A","45","71","40","","","","","","","","","","","","","","","",""
"","","","","","html-keyboard-response","66","413423","0.0-17.0-2.16","4a9ce7d8-368c-43cb-9911-0b763322c6be","null","<p style=""text-align: center;"">+</p>","null","fixation","","","","","","","","","","","","","","","","","","","","","",""
"","","","","","html-slider-response","67","414429","0.0-17.0-0.17","4a9ce7d8-368c-43cb-9911-0b763322c6be","1000","
                  <p style=""text-align: center;"">₪64
                                                <br>50%</p>
                  <p id=""wtp"" style=""text-align:center; margin-top: 0px; margin-bottom: 0px; font-size: 40px"";>&ensp;</p>","-","viewing","0","25","1B,3B,4A","","","","","","","","","","","","","","","","","","",""
"","","","","","html-slider-response","68","418443","0.0-17.0-1.17","4a9ce7d8-368c-43cb-9911-0b763322c6be","null","
                  <p style=""text-align: center;"">₪64
                                                <br>50%</p>
                  <p id=""wtp"" style=""text-align:center; margin-top: 0px; margin-bottom: 0px; font-size: 40px"";>מוכנים לשלם: <span id=""c_p_y""></span></p>","null","evaluation","29","25","1B,3B,4A","50","64","39","","","","","","","","","","","","","","","",""
"","","","","","html-keyboard-response","69","419749","0.0-17.0-2.17","4a9ce7d8-368c-43cb-9911-0b763322c6be","null","<p style=""text-align: center;"">+</p>","null","fixation","","","","","","","","","","","","","","","","","","","","","",""
"","","","","","html-slider-response","70","420760","0.0-17.0-0.18","4a9ce7d8-368c-43cb-9911-0b763322c6be","1000","
                  <p style=""text-align: center;"">₪4
                                                <br>25%</p>
                  <p id=""wtp"" style=""text-align:center; margin-top: 0px; margin-bottom: 0px; font-size: 40px"";>&ensp;</p>","-","viewing","0","1","6C,29B,30C","","","","","","","","","","","","","","","","","","",""
"","","","","","html-slider-response","71","424777","0.0-17.0-1.18","4a9ce7d8-368c-43cb-9911-0b763322c6be","null","
                  <p style=""text-align: center;"">₪4
                                                <br>25%</p>
                  <p id=""wtp"" style=""text-align:center; margin-top: 0px; margin-bottom: 0px; font-size: 40px"";>מוכנים לשלם: <span id=""c_p_y""></span></p>","null","evaluation","53","1","6C,29B,30C","25","4","5","","","","","","","","","","","","","","","",""
"","","","","","html-keyboard-response","72","425458","0.0-17.0-2.18","4a9ce7d8-368c-43cb-9911-0b763322c6be","null","<p style=""text-align: center;"">+</p>","null","fixation","","","","","","","","","","","","","","","","","","","","","",""
"","","","","","html-slider-response","73","426460","0.0-17.0-0.19","4a9ce7d8-368c-43cb-9911-0b763322c6be","1000","
                  <p style=""text-align: center;"">₪58
                                                <br>30%</p>
                  <p id=""wtp"" style=""text-align:center; margin-top: 0px; margin-bottom: 0px; font-size: 40px"";>&ensp;</p>","-","viewing","0","19","13C,30A","","","","","","","","","","","","","","","","","","",""
"","","","","","html-slider-response","74","430472","0.0-17.0-1.19","4a9ce7d8-368c-43cb-9911-0b763322c6be","null","
                  <p style=""text-align: center;"">₪58
                                                <br>30%</p>
                  <p id=""wtp"" style=""text-align:center; margin-top: 0px; margin-bottom: 0px; font-size: 40px"";>מוכנים לשלם: <span id=""c_p_y""></span></p>","null","evaluation","39","19","13C,30A","30","58","22","","","","","","","","","","","","","","","",""
"","","","","","html-keyboard-response","75","431099","0.0-17.0-2.19","4a9ce7d8-368c-43cb-9911-0b763322c6be","null","<p style=""text-align: center;"">+</p>","null","fixation","","","","","","","","","","","","","","","","","","","","","",""
"","","","","","html-slider-response","76","432111","0.0-17.0-0.20","4a9ce7d8-368c-43cb-9911-0b763322c6be","1000","
                  <p style=""text-align: center;"">₪76
                                                <br>65%</p>
                  <p id=""wtp"" style=""text-align:center; margin-top: 0px; margin-bottom: 0px; font-size: 40px"";>&ensp;</p>","-","viewing","0","29","8C,19A,24B","","","","","","","","","","","","","","","","","","",""
"","","","","","html-slider-response","77","436114","0.0-17.0-1.20","4a9ce7d8-368c-43cb-9911-0b763322c6be","null","
                  <p style=""text-align: center;"">₪76
                                                <br>65%</p>
                  <p id=""wtp"" style=""text-align:center; margin-top: 0px; margin-bottom: 0px; font-size: 40px"";>מוכנים לשלם: <span id=""c_p_y""></span></p>","null","evaluation","34","29","8C,19A,24B","65","76","44","","","","","","","","","","","","","","","",""
"","","","","","html-keyboard-response","78","437105","0.0-17.0-2.20","4a9ce7d8-368c-43cb-9911-0b763322c6be","null","<p style=""text-align: center;"">+</p>","null","fixation","","","","","","","","","","","","","","","","","","","","","",""
"","","","","","html-slider-response","79","438122","0.0-17.0-0.21","4a9ce7d8-368c-43cb-9911-0b763322c6be","1000","
                  <p style=""text-align: center;"">₪11
                                                <br>45%</p>
                  <p id=""wtp"" style=""text-align:center; margin-top: 0px; margin-bottom: 0px; font-size: 40px"";>&ensp;</p>","-","viewing","0","6","14B,21C,25C","","","","","","","","","","","","","","","","","","",""
"","","","","","html-slider-response","80","442132","0.0-17.0-1.21","4a9ce7d8-368c-43cb-9911-0b763322c6be","null","
                  <p style=""text-align: center;"">₪11
                                                <br>45%</p>
                  <p id=""wtp"" style=""text-align:center; margin-top: 0px; margin-bottom: 0px; font-size: 40px"";>מוכנים לשלם: <span id=""c_p_y""></span></p>","null","evaluation","77","6","14B,21C,25C","45","11","35","","","","","","","","","","","","","","","",""
"","","","","","html-keyboard-response","81","443213","0.0-17.0-2.21","4a9ce7d8-368c-43cb-9911-0b763322c6be","null","<p style=""text-align: center;"">+</p>","null","fixation","","","","","","","","","","","","","","","","","","","","","",""
"","","","","","html-slider-response","82","444222","0.0-17.0-0.22","4a9ce7d8-368c-43cb-9911-0b763322c6be","1000","
                  <p style=""text-align: center;"">₪43
                                                <br>75%</p>
                  <p id=""wtp"" style=""text-align:center; margin-top: 0px; margin-bottom: 0px; font-size: 40px"";>&ensp;</p>","-","viewing","0","18","11B,19B,24A,26A","","","","","","","","","","","","","","","","","","",""
"","","","","","html-slider-response","83","448233","0.0-17.0-1.22","4a9ce7d8-368c-43cb-9911-0b763322c6be","null","
                  <p style=""text-align: center;"">₪43
                                                <br>75%</p>
                  <p id=""wtp"" style=""text-align:center; margin-top: 0px; margin-bottom: 0px; font-size: 40px"";>מוכנים לשלם: <span id=""c_p_y""></span></p>","null","evaluation","63","18","11B,19B,24A,26A","75","43","63","","","","","","","","","","","","","","","",""
"","","","","","html-keyboard-response","84","448785","0.0-17.0-2.22","4a9ce7d8-368c-43cb-9911-0b763322c6be","null","<p style=""text-align: center;"">+</p>","null","fixation","","","","","","","","","","","","","","","","","","","","","",""
"","","","","","html-slider-response","85","449790","0.0-17.0-0.23","4a9ce7d8-368c-43cb-9911-0b763322c6be","1000","
                  <p style=""text-align: center;"">₪11
                                                <br>75%</p>
                  <p id=""wtp"" style=""text-align:center; margin-top: 0px; margin-bottom: 0px; font-size: 40px"";>&ensp;</p>","-","viewing","0","7","6B,18B,22C,24C,29A","","","","","","","","","","","","","","","","","","",""
"","","","","","html-slider-response","86","453794","0.0-17.0-1.23","4a9ce7d8-368c-43cb-9911-0b763322c6be","null","
                  <p style=""text-align: center;"">₪11
                                                <br>75%</p>
                  <p id=""wtp"" style=""text-align:center; margin-top: 0px; margin-bottom: 0px; font-size: 40px"";>מוכנים לשלם: <span id=""c_p_y""></span></p>","null","evaluation","64","7","6B,18B,22C,24C,29A","75","11","62","","","","","","","","","","","","","","","",""
"","","","","","html-keyboard-response","87","455205","0.0-17.0-2.23","4a9ce7d8-368c-43cb-9911-0b763322c6be","null","<p style=""text-align: center;"">+</p>","null","fixation","","","","","","","","","","","","","","","","","","","","","",""
"","","","","","html-slider-response","88","456207","0.0-17.0-0.24","4a9ce7d8-368c-43cb-9911-0b763322c6be","1000","
                  <p style=""text-align: center;"">₪79
                                                <br>65%</p>
                  <p id=""wtp"" style=""text-align:center; margin-top: 0px; margin-bottom: 0px; font-size: 40px"";>&ensp;</p>","-","viewing","0","31","8A","","","","","","","","","","","","","","","","","","",""
"","","","","","html-slider-response","89","460221","0.0-17.0-1.24","4a9ce7d8-368c-43cb-9911-0b763322c6be","null","
                  <p style=""text-align: center;"">₪79
                                                <br>65%</p>
                  <p id=""wtp"" style=""text-align:center; margin-top: 0px; margin-bottom: 0px; font-size: 40px"";>מוכנים לשלם: <span id=""c_p_y""></span></p>","null","evaluation","34","31","8A","65","79","50","","","","","","","","","","","","","","","",""
"","","","","","html-keyboard-response","90","461076","0.0-17.0-2.24","4a9ce7d8-368c-43cb-9911-0b763322c6be","null","<p style=""text-align: center;"">+</p>","null","fixation","","","","","","","","","","","","","","","","","","","","","",""
"","","","","","html-slider-response","91","462092","0.0-17.0-0.25","4a9ce7d8-368c-43cb-9911-0b763322c6be","1000","
                  <p style=""text-align: center;"">₪39
                                                <br>65%</p>
                  <p id=""wtp"" style=""text-align:center; margin-top: 0px; margin-bottom: 0px; font-size: 40px"";>&ensp;</p>","-","viewing","0","16","1A,15A,26C","","","","","","","","","","","","","","","","","","",""
"","","","","","html-slider-response","92","466101","0.0-17.0-1.25","4a9ce7d8-368c-43cb-9911-0b763322c6be","null","
                  <p style=""text-align: center;"">₪39
                                                <br>65%</p>
                  <p id=""wtp"" style=""text-align:center; margin-top: 0px; margin-bottom: 0px; font-size: 40px"";>מוכנים לשלם: <span id=""c_p_y""></span></p>","null","evaluation","16","16","1A,15A,26C","65","39","52","","","","","","","","","","","","","","","",""
"","","","","","html-keyboard-response","93","467338","0.0-17.0-2.25","4a9ce7d8-368c-43cb-9911-0b763322c6be","null","<p style=""text-align: center;"">+</p>","null","fixation","","","","","","","","","","","","","","","","","","","","","",""
"","","","","","html-slider-response","94","468340","0.0-17.0-0.26","4a9ce7d8-368c-43cb-9911-0b763322c6be","1000","
                  <p style=""text-align: center;"">₪36
                                                <br>60%</p>
                  <p id=""wtp"" style=""text-align:center; margin-top: 0px; margin-bottom: 0px; font-size: 40px"";>&ensp;</p>","-","viewing","0","12","1C,7C,15C","","","","","","","","","","","","","","","","","","",""
"","","","","","html-slider-response","95","472353","0.0-17.0-1.26","4a9ce7d8-368c-43cb-9911-0b763322c6be","null","
                  <p style=""text-align: center;"">₪36
                                                <br>60%</p>
                  <p id=""wtp"" style=""text-align:center; margin-top: 0px; margin-bottom: 0px; font-size: 40px"";>מוכנים לשלם: <span id=""c_p_y""></span></p>","null","evaluation","1","12","1C,7C,15C","60","36","55","","","","","","","","","","","","","","","",""
"","","","","","html-keyboard-response","96","473371","0.0-17.0-2.26","4a9ce7d8-368c-43cb-9911-0b763322c6be","null","<p style=""text-align: center;"">+</p>","null","fixation","","","","","","","","","","","","","","","","","","","","","",""
"","","","","","html-slider-response","97","474374","0.0-17.0-0.27","4a9ce7d8-368c-43cb-9911-0b763322c6be","1000","
                  <p style=""text-align: center;"">₪36
                                                <br>70%</p>
                  <p id=""wtp"" style=""text-align:center; margin-top: 0px; margin-bottom: 0px; font-size: 40px"";>&ensp;</p>","-","viewing","0","13","3A,5C,10B","","","","","","","","","","","","","","","","","","",""
"","","","","","html-slider-response","98","478386","0.0-17.0-1.27","4a9ce7d8-368c-43cb-9911-0b763322c6be","null","
                  <p style=""text-align: center;"">₪36
                                                <br>70%</p>
                  <p id=""wtp"" style=""text-align:center; margin-top: 0px; margin-bottom: 0px; font-size: 40px"";>מוכנים לשלם: <span id=""c_p_y""></span></p>","null","evaluation","49","13","3A,5C,10B","70","36","59","","","","","","","","","","","","","","","",""
"","","","","","html-keyboard-response","99","479702","0.0-17.0-2.27","4a9ce7d8-368c-43cb-9911-0b763322c6be","null","<p style=""text-align: center;"">+</p>","null","fixation","","","","","","","","","","","","","","","","","","","","","",""
"","","","","","html-slider-response","100","480703","0.0-17.0-0.28","4a9ce7d8-368c-43cb-9911-0b763322c6be","1000","
                  <p style=""text-align: center;"">₪58
                                                <br>40%</p>
                  <p id=""wtp"" style=""text-align:center; margin-top: 0px; margin-bottom: 0px; font-size: 40px"";>&ensp;</p>","-","viewing","0","20","10C,13A,19C,21B","","","","","","","","","","","","","","","","","","",""
"","","","","","html-slider-response","101","484708","0.0-17.0-1.28","4a9ce7d8-368c-43cb-9911-0b763322c6be","null","
                  <p style=""text-align: center;"">₪58
                                                <br>40%</p>
                  <p id=""wtp"" style=""text-align:center; margin-top: 0px; margin-bottom: 0px; font-size: 40px"";>מוכנים לשלם: <span id=""c_p_y""></span></p>","null","evaluation","14","20","10C,13A,19C,21B","40","58","29","","","","","","","","","","","","","","","",""
"","","","","","html-keyboard-response","102","485763","0.0-17.0-2.28","4a9ce7d8-368c-43cb-9911-0b763322c6be","null","<p style=""text-align: center;"">+</p>","null","fixation","","","","","","","","","","","","","","","","","","","","","",""
"","","","","","html-slider-response","103","486767","0.0-17.0-0.29","4a9ce7d8-368c-43cb-9911-0b763322c6be","1000","
                  <p style=""text-align: center;"">₪11
                                                <br>20%</p>
                  <p id=""wtp"" style=""text-align:center; margin-top: 0px; margin-bottom: 0px; font-size: 40px"";>&ensp;</p>","-","viewing","0","4","12C,17C,23C,28C","","","","","","","","","","","","","","","","","","",""
"","","","","","html-slider-response","104","490777","0.0-17.0-1.29","4a9ce7d8-368c-43cb-9911-0b763322c6be","null","
                  <p style=""text-align: center;"">₪11
                                                <br>20%</p>
                  <p id=""wtp"" style=""text-align:center; margin-top: 0px; margin-bottom: 0px; font-size: 40px"";>מוכנים לשלם: <span id=""c_p_y""></span></p>","null","evaluation","19","4","12C,17C,23C,28C","20","11","13","","","","","","","","","","","","","","","",""
"","","","","","html-keyboard-response","105","491952","0.0-17.0-2.29","4a9ce7d8-368c-43cb-9911-0b763322c6be","null","<p style=""text-align: center;"">+</p>","null","fixation","","","","","","","","","","","","","","","","","","","","","",""
"","","","","","html-slider-response","106","492957","0.0-17.0-0.30","4a9ce7d8-368c-43cb-9911-0b763322c6be","1000","
                  <p style=""text-align: center;"">₪58
                                                <br>45%</p>
                  <p id=""wtp"" style=""text-align:center; margin-top: 0px; margin-bottom: 0px; font-size: 40px"";>&ensp;</p>","-","viewing","0","21","11C,18C,25A","","","","","","","","","","","","","","","","","","",""
"","","","","","html-slider-response","107","496958","0.0-17.0-1.30","4a9ce7d8-368c-43cb-9911-0b763322c6be","null","
                  <p style=""text-align: center;"">₪58
                                                <br>45%</p>
                  <p id=""wtp"" style=""text-align:center; margin-top: 0px; margin-bottom: 0px; font-size: 40px"";>מוכנים לשלם: <span id=""c_p_y""></span></p>","null","evaluation","50","21","11C,18C,25A","45","58","18","","","","","","","","","","","","","","","",""
"","","","","","html-keyboard-response","108","497925","0.0-17.0-2.30","4a9ce7d8-368c-43cb-9911-0b763322c6be","null","<p style=""text-align: center;"">+</p>","null","fixation","","","","","","","","","","","","","","","","","","","","","",""
"","","","","","html-keyboard-response","109","498927","0.0-18.0","4a9ce7d8-368c-43cb-9911-0b763322c6be","null","<p style=""text-align: center;"">+</p>","null","fixation","","","","","","","","","","","","","","","","","","","","","",""
"","","","","","html-keyboard-response","110","500349","0.0-19.0","4a9ce7d8-368c-43cb-9911-0b763322c6be","null","<p>הפסקה.
          <br>לחצו כדי להמשיך.</p>","1","scan_wait","","","","","","","","","","","","","","","","","","","","","",""
"","","","","","html-keyboard-response","111","501359","0.0-20.0","4a9ce7d8-368c-43cb-9911-0b763322c6be","null","<p style=""text-align: center;"">+</p>","null","fixation","","","","","","","","","","","","","","","","","","","","","",""
"","","","","","html-slider-response","112","502370","0.0-21.0-0.0","4a9ce7d8-368c-43cb-9911-0b763322c6be","1000","
                  <p style=""text-align: center;"">₪61
                                                <br>55%</p>
                  <p id=""wtp"" style=""text-align:center; margin-top: 0px; margin-bottom: 0px; font-size: 40px"";>&ensp;</p>","-","viewing","0","23","7B,26B","","","","","","","","","","","","","","","","","","",""
"","","","","","html-slider-response","113","506372","0.0-21.0-1.0","4a9ce7d8-368c-43cb-9911-0b763322c6be","null","
                  <p style=""text-align: center;"">₪61
                                                <br>55%</p>
                  <p id=""wtp"" style=""text-align:center; margin-top: 0px; margin-bottom: 0px; font-size: 40px"";>מוכנים לשלם: <span id=""c_p_y""></span></p>","null","evaluation","24","23","7B,26B","55","61","51","","","","","","","","","","","","","","","",""
"","","","","","html-keyboard-response","114","507698","0.0-21.0-2.0","4a9ce7d8-368c-43cb-9911-0b763322c6be","null","<p style=""text-align: center;"">+</p>","null","fixation","","","","","","","","","","","","","","","","","","","","","",""
"","","","","","html-slider-response","115","508712","0.0-21.0-0.1","4a9ce7d8-368c-43cb-9911-0b763322c6be","1000","
                  <p style=""text-align: center;"">₪71
                                                <br>75%</p>
                  <p id=""wtp"" style=""text-align:center; margin-top: 0px; margin-bottom: 0px; font-size: 40px"";>&ensp;</p>","-","viewing","0","28","8B","","","","","","","","","","","","","","","","","","",""
"","","","","","html-slider-response","116","512714","0.0-21.0-1.1","4a9ce7d8-368c-43cb-9911-0b763322c6be","null","
                  <p style=""text-align: center;"">₪71
                                                <br>75%</p>
                  <p id=""wtp"" style=""text-align:center; margin-top: 0px; margin-bottom: 0px; font-size: 40px"";>מוכנים לשלם: <span id=""c_p_y""></span></p>","null","evaluation","47","28","8B","75","71","65","","","","","","","","","","","","","","","",""
"","","","","","html-keyboard-response","117","513436","0.0-21.0-2.1","4a9ce7d8-368c-43cb-9911-0b763322c6be","null","<p style=""text-align: center;"">+</p>","null","fixation","","","","","","","","","","","","","","","","","","","","","",""
"","","","","","html-slider-response","118","514439","0.0-21.0-0.2","4a9ce7d8-368c-43cb-9911-0b763322c6be","1000","
                  <p style=""text-align: center;"">₪43
                                                <br>60%</p>
                  <p id=""wtp"" style=""text-align:center; margin-top: 0px; margin-bottom: 0px; font-size: 40px"";>&ensp;</p>","-","viewing","0","17","2A,7A,9A,15B","","","","","","","","","","","","","","","","","","",""
"","","","","","html-slider-response","119","518450","0.0-21.0-1.2","4a9ce7d8-368c-43cb-9911-0b763322c6be","null","
                  <p style=""text-align: center;"">₪43
                                                <br>60%</p>
                  <p id=""wtp"" style=""text-align:center; margin-top: 0px; margin-bottom: 0px; font-size: 40px"";>מוכנים לשלם: <span id=""c_p_y""></span></p>","null","evaluation","29","17","2A,7A,9A,15B","60","43","61","","","","","","","","","","","","","","","",""
"","","","","","html-keyboard-response","120","519286","0.0-21.0-2.2","4a9ce7d8-368c-43cb-9911-0b763322c6be","null","<p style=""text-align: center;"">+</p>","null","fixation","","","","","","","","","","","","","","","","","","","","","",""
"","","","","","html-slider-response","121","520300","0.0-21.0-0.3","4a9ce7d8-368c-43cb-9911-0b763322c6be","1000","
                  <p style=""text-align: center;"">₪39
                                                <br>60%</p>
                  <p id=""wtp"" style=""text-align:center; margin-top: 0px; margin-bottom: 0px; font-size: 40px"";>&ensp;</p>","-","viewing","0","15","9C,25B","","","","","","","","","","","","","","","","","","",""
"","","","","","html-slider-response","122","524314","0.0-21.0-1.3","4a9ce7d8-368c-43cb-9911-0b763322c6be","null","
                  <p style=""text-align: center;"">₪39
                                                <br>60%</p>
                  <p id=""wtp"" style=""text-align:center; margin-top: 0px; margin-bottom: 0px; font-size: 40px"";>מוכנים לשלם: <span id=""c_p_y""></span></p>","null","evaluation","57","15","9C,25B","60","39","60","","","","","","","","","","","","","","","",""
"","","","","","html-keyboard-response","123","525407","0.0-21.0-2.3","4a9ce7d8-368c-43cb-9911-0b763322c6be","null","<p style=""text-align: center;"">+</p>","null","fixation","","","","","","","","","","","","","","","","","","","","","",""
"","","","","","html-slider-response","124","526409","0.0-21.0-0.4","4a9ce7d8-368c-43cb-9911-0b763322c6be","1000","
                  <p style=""text-align: center;"">₪71
                                                <br>45%</p>
                  <p id=""wtp"" style=""text-align:center; margin-top: 0px; margin-bottom: 0px; font-size: 40px"";>&ensp;</p>","-","viewing","0","26","2B,16A","","","","","","","","","","","","","","","","","","",""
"","","","","","html-slider-response","125","530419","0.0-21.0-1.4","4a9ce7d8-368c-43cb-9911-0b763322c6be","null","
                  <p style=""text-align: center;"">₪71
                                                <br>45%</p>
                  <p id=""wtp"" style=""text-align:center; margin-top: 0px; margin-bottom: 0px; font-size: 40px"";>מוכנים לשלם: <span id=""c_p_y""></span></p>","null","evaluation","13","26","2B,16A","45","71","45","","","","","","","","","","","","","","","",""
"","","","","","html-keyboard-response","126","531005","0.0-21.0-2.4","4a9ce7d8-368c-43cb-9911-0b763322c6be","null","<p style=""text-align: center;"">+</p>","null","fixation","","","","","","","","","","","","","","","","","","","","","",""
"","","","","","html-slider-response","127","532007","0.0-21.0-0.5","4a9ce7d8-368c-43cb-9911-0b763322c6be","1000","
                  <p style=""text-align: center;"">₪76
                                                <br>65%</p>
                  <p id=""wtp"" style=""text-align:center; margin-top: 0px; margin-bottom: 0px; font-size: 40px"";>&ensp;</p>","-","viewing","0","29","8C,19A,24B","","","","","","","","","","","","","","","","","","",""
"","","","","","html-slider-response","128","536013","0.0-21.0-1.5","4a9ce7d8-368c-43cb-9911-0b763322c6be","null","
                  <p style=""text-align: center;"">₪76
                                                <br>65%</p>
                  <p id=""wtp"" style=""text-align:center; margin-top: 0px; margin-bottom: 0px; font-size: 40px"";>מוכנים לשלם: <span id=""c_p_y""></span></p>","null","evaluation","6","29","8C,19A,24B","65","76","66","","","","","","","","","","","","","","","",""
"","","","","","html-keyboard-response","129","537479","0.0-21.0-2.5","4a9ce7d8-368c-43cb-9911-0b763322c6be","null","<p style=""text-align: center;"">+</p>","null","fixation","","","","","","","","","","","","","","","","","","","","","",""
"","","","","","html-slider-response","130","538482","0.0-21.0-0.6","4a9ce7d8-368c-43cb-9911-0b763322c6be","1000","
                  <p style=""text-align: center;"">₪58
                                                <br>45%</p>
                  <p id=""wtp"" style=""text-align:center; margin-top: 0px; margin-bottom: 0px; font-size: 40px"";>&ensp;</p>","-","viewing","0","21","11C,18C,25A","","","","","","","","","","","","","","","","","","",""
"","","","","","html-slider-response","131","542496","0.0-21.0-1.6","4a9ce7d8-368c-43cb-9911-0b763322c6be","null","
                  <p style=""text-align: center;"">₪58
                                                <br>45%</p>
                  <p id=""wtp"" style=""text-align:center; margin-top: 0px; margin-bottom: 0px; font-size: 40px"";>מוכנים לשלם: <span id=""c_p_y""></span></p>","null","evaluation","52","21","11C,18C,25A","45","58","33","","","","","","","","","","","","","","","",""
"","","","","","html-keyboard-response","132","543798","0.0-21.0-2.6","4a9ce7d8-368c-43cb-9911-0b763322c6be","null","<p style=""text-align: center;"">+</p>","null","fixation","","","","","","","","","","","","","","","","","","","","","",""
"","","","","","html-slider-response","133","544801","0.0-21.0-0.7","4a9ce7d8-368c-43cb-9911-0b763322c6be","1000","
                  <p style=""text-align: center;"">₪79
                                                <br>65%</p>
                  <p id=""wtp"" style=""text-align:center; margin-top: 0px; margin-bottom: 0px; font-size: 40px"";>&ensp;</p>","-","viewing","0","31","8A","","","","","","","","","","","","","","","","","","",""
"","","","","","html-slider-response","134","548803","0.0-21.0-1.7","4a9ce7d8-368c-43cb-9911-0b763322c6be","null","
                  <p style=""text-align: center;"">₪79
                                                <br>65%</p>
                  <p id=""wtp"" style=""text-align:center; margin-top: 0px; margin-bottom: 0px; font-size: 40px"";>מוכנים לשלם: <span id=""c_p_y""></span></p>","null","evaluation","0","31","8A","65","79","65","","","","","","","","","","","","","","","",""
"","","","","","html-keyboard-response","135","549604","0.0-21.0-2.7","4a9ce7d8-368c-43cb-9911-0b763322c6be","null","<p style=""text-align: center;"">+</p>","null","fixation","","","","","","","","","","","","","","","","","","","","","",""
"","","","","","html-slider-response","136","550606","0.0-21.0-0.8","4a9ce7d8-368c-43cb-9911-0b763322c6be","1000","
                  <p style=""text-align: center;"">₪58
                                                <br>40%</p>
                  <p id=""wtp"" style=""text-align:center; margin-top: 0px; margin-bottom: 0px; font-size: 40px"";>&ensp;</p>","-","viewing","0","20","10C,13A,19C,21B","","","","","","","","","","","","","","","","","","",""
"","","","","","html-slider-response","137","554622","0.0-21.0-1.8","4a9ce7d8-368c-43cb-9911-0b763322c6be","null","
                  <p style=""text-align: center;"">₪58
                                                <br>40%</p>
                  <p id=""wtp"" style=""text-align:center; margin-top: 0px; margin-bottom: 0px; font-size: 40px"";>מוכנים לשלם: <span id=""c_p_y""></span></p>","null","evaluation","15","20","10C,13A,19C,21B","40","58","40","","","","","","","","","","","","","","","",""
"","","","","","html-keyboard-response","138","555407","0.0-21.0-2.8","4a9ce7d8-368c-43cb-9911-0b763322c6be","null","<p style=""text-align: center;"">+</p>","null","fixation","","","","","","","","","","","","","","","","","","","","","",""
"","","","","","html-slider-response","139","556419","0.0-21.0-0.9","4a9ce7d8-368c-43cb-9911-0b763322c6be","1000","
                  <p style=""text-align: center;"">₪4
                                                <br>25%</p>
                  <p id=""wtp"" style=""text-align:center; margin-top: 0px; margin-bottom: 0px; font-size: 40px"";>&ensp;</p>","-","viewing","0","1","6C,29B,30C","","","","","","","","","","","","","","","","","","",""
"","","","","","html-slider-response","140","560424","0.0-21.0-1.9","4a9ce7d8-368c-43cb-9911-0b763322c6be","null","
                  <p style=""text-align: center;"">₪4
                                                <br>25%</p>
                  <p id=""wtp"" style=""text-align:center; margin-top: 0px; margin-bottom: 0px; font-size: 40px"";>מוכנים לשלם: <span id=""c_p_y""></span></p>","null","evaluation","35","1","6C,29B,30C","25","4","14","","","","","","","","","","","","","","","",""
"","","","","","html-keyboard-response","141","561233","0.0-21.0-2.9","4a9ce7d8-368c-43cb-9911-0b763322c6be","null","<p style=""text-align: center;"">+</p>","null","fixation","","","","","","","","","","","","","","","","","","","","","",""
"","","","","","html-slider-response","142","562241","0.0-21.0-0.10","4a9ce7d8-368c-43cb-9911-0b763322c6be","1000","
                  <p style=""text-align: center;"">₪4
                                                <br>75%</p>
                  <p id=""wtp"" style=""text-align:center; margin-top: 0px; margin-bottom: 0px; font-size: 40px"";>&ensp;</p>","-","viewing","0","3","12B,20B,23B,27C,29C","","","","","","","","","","","","","","","","","","",""
"","","","","","html-slider-response","143","566257","0.0-21.0-1.10","4a9ce7d8-368c-43cb-9911-0b763322c6be","null","
                  <p style=""text-align: center;"">₪4
                                                <br>75%</p>
                  <p id=""wtp"" style=""text-align:center; margin-top: 0px; margin-bottom: 0px; font-size: 40px"";>מוכנים לשלם: <span id=""c_p_y""></span></p>","null","evaluation","55","3","12B,20B,23B,27C,29C","75","4","75","","","","","","","","","","","","","","","",""
"","","","","","html-keyboard-response","144","567410","0.0-21.0-2.10","4a9ce7d8-368c-43cb-9911-0b763322c6be","null","<p style=""text-align: center;"">+</p>","null","fixation","","","","","","","","","","","","","","","","","","","","","",""
"","","","","","html-slider-response","145","568412","0.0-21.0-0.11","4a9ce7d8-368c-43cb-9911-0b763322c6be","1000","
                  <p style=""text-align: center;"">₪16
                                                <br>20%</p>
                  <p id=""wtp"" style=""text-align:center; margin-top: 0px; margin-bottom: 0px; font-size: 40px"";>&ensp;</p>","-","viewing","0","8","14C,17A,20C,27A","","","","","","","","","","","","","","","","","","",""
"","","","","","html-slider-response","146","572419","0.0-21.0-1.11","4a9ce7d8-368c-43cb-9911-0b763322c6be","null","
                  <p style=""text-align: center;"">₪16
                                                <br>20%</p>
                  <p id=""wtp"" style=""text-align:center; margin-top: 0px; margin-bottom: 0px; font-size: 40px"";>מוכנים לשלם: <span id=""c_p_y""></span></p>","null","evaluation","57","8","14C,17A,20C,27A","20","16","12","","","","","","","","","","","","","","","",""
"","","","","","html-keyboard-response","147","573337","0.0-21.0-2.11","4a9ce7d8-368c-43cb-9911-0b763322c6be","null","<p style=""text-align: center;"">+</p>","null","fixation","","","","","","","","","","","","","","","","","","","","","",""
"","","","","","html-slider-response","148","574342","0.0-21.0-0.12","4a9ce7d8-368c-43cb-9911-0b763322c6be","1000","
                  <p style=""text-align: center;"">₪36
                                                <br>60%</p>
                  <p id=""wtp"" style=""text-align:center; margin-top: 0px; margin-bottom: 0px; font-size: 40px"";>&ensp;</p>","-","viewing","0","12","1C,7C,15C","","","","","","","","","","","","","","","","","","",""
"","","","","","html-slider-response","149","578359","0.0-21.0-1.12","4a9ce7d8-368c-43cb-9911-0b763322c6be","null","
                  <p style=""text-align: center;"">₪36
                                                <br>60%</p>
                  <p id=""wtp"" style=""text-align:center; margin-top: 0px; margin-bottom: 0px; font-size: 40px"";>מוכנים לשלם: <span id=""c_p_y""></span></p>","null","evaluation","43","12","1C,7C,15C","60","36","23","","","","","","","","","","","","","","","",""
"","","","","","html-keyboard-response","150","579495","0.0-21.0-2.12","4a9ce7d8-368c-43cb-9911-0b763322c6be","null","<p style=""text-align: center;"">+</p>","null","fixation","","","","","","","","","","","","","","","","","","","","","",""
"","","","","","html-slider-response","151","580509","0.0-21.0-0.13","4a9ce7d8-368c-43cb-9911-0b763322c6be","1000","
                  <p style=""text-align: center;"">₪18
                                                <br>50%</p>
                  <p id=""wtp"" style=""text-align:center; margin-top: 0px; margin-bottom: 0px; font-size: 40px"";>&ensp;</p>","-","viewing","0","10","2C,16C,22B,28A","","","","","","","","","","","","","","","","","","",""
"","","","","","html-slider-response","152","584525","0.0-21.0-1.13","4a9ce7d8-368c-43cb-9911-0b763322c6be","null","
                  <p style=""text-align: center;"">₪18
                                                <br>50%</p>
                  <p id=""wtp"" style=""text-align:center; margin-top: 0px; margin-bottom: 0px; font-size: 40px"";>מוכנים לשלם: <span id=""c_p_y""></span></p>","null","evaluation","80","10","2C,16C,22B,28A","50","18","50","","","","","","","","","","","","","","","",""
"","","","","","html-keyboard-response","153","585351","0.0-21.0-2.13","4a9ce7d8-368c-43cb-9911-0b763322c6be","null","<p style=""text-align: center;"">+</p>","null","fixation","","","","","","","","","","","","","","","","","","","","","",""
"","","","","","html-slider-response","154","586361","0.0-21.0-0.14","4a9ce7d8-368c-43cb-9911-0b763322c6be","1000","
                  <p style=""text-align: center;"">₪11
                                                <br>25%</p>
                  <p id=""wtp"" style=""text-align:center; margin-top: 0px; margin-bottom: 0px; font-size: 40px"";>&ensp;</p>","-","viewing","0","5","12A,27B,28B,30B","","","","","","","","","","","","","","","","","","",""
"","","","","","html-slider-response","155","590373","0.0-21.0-1.14","4a9ce7d8-368c-43cb-9911-0b763322c6be","null","
                  <p style=""text-align: center;"">₪11
                                                <br>25%</p>
                  <p id=""wtp"" style=""text-align:center; margin-top: 0px; margin-bottom: 0px; font-size: 40px"";>מוכנים לשלם: <span id=""c_p_y""></span></p>","null","evaluation","46","5","12A,27B,28B,30B","25","11","25","","","","","","","","","","","","","","","",""
"","","","","","html-keyboard-response","156","591399","0.0-21.0-2.14","4a9ce7d8-368c-43cb-9911-0b763322c6be","null","<p style=""text-align: center;"">+</p>","null","fixation","","","","","","","","","","","","","","","","","","","","","",""
"","","","","","html-slider-response","157","592415","0.0-21.0-0.15","4a9ce7d8-368c-43cb-9911-0b763322c6be","1000","
                  <p style=""text-align: center;"">₪58
                                                <br>30%</p>
                  <p id=""wtp"" style=""text-align:center; margin-top: 0px; margin-bottom: 0px; font-size: 40px"";>&ensp;</p>","-","viewing","0","19","13C,30A","","","","","","","","","","","","","","","","","","",""
"","","","","","html-slider-response","158","596425","0.0-21.0-1.15","4a9ce7d8-368c-43cb-9911-0b763322c6be","null","
                  <p style=""text-align: center;"">₪58
                                                <br>30%</p>
                  <p id=""wtp"" style=""text-align:center; margin-top: 0px; margin-bottom: 0px; font-size: 40px"";>מוכנים לשלם: <span id=""c_p_y""></span></p>","null","evaluation","68","19","13C,30A","30","58","30","","","","","","","","","","","","","","","",""
"","","","","","html-keyboard-response","159","597546","0.0-21.0-2.15","4a9ce7d8-368c-43cb-9911-0b763322c6be","null","<p style=""text-align: center;"">+</p>","null","fixation","","","","","","","","","","","","","","","","","","","","","",""
"","","","","","html-slider-response","160","598552","0.0-21.0-0.16","4a9ce7d8-368c-43cb-9911-0b763322c6be","1000","
                  <p style=""text-align: center;"">₪4
                                                <br>50%</p>
                  <p id=""wtp"" style=""text-align:center; margin-top: 0px; margin-bottom: 0px; font-size: 40px"";>&ensp;</p>","-","viewing","0","2","4C,17B","","","","","","","","","","","","","","","","","","",""
"","","","","","html-slider-response","161","602568","0.0-21.0-1.16","4a9ce7d8-368c-43cb-9911-0b763322c6be","null","
                  <p style=""text-align: center;"">₪4
                                                <br>50%</p>
                  <p id=""wtp"" style=""text-align:center; margin-top: 0px; margin-bottom: 0px; font-size: 40px"";>מוכנים לשלם: <span id=""c_p_y""></span></p>","null","evaluation","23","2","4C,17B","50","4","50","","","","","","","","","","","","","","","",""
"","","","","","html-keyboard-response","162","603889","0.0-21.0-2.16","4a9ce7d8-368c-43cb-9911-0b763322c6be","null","<p style=""text-align: center;"">+</p>","null","fixation","","","","","","","","","","","","","","","","","","","","","",""
"","","","","","html-slider-response","163","604892","0.0-21.0-0.17","4a9ce7d8-368c-43cb-9911-0b763322c6be","1000","
                  <p style=""text-align: center;"">₪71
                                                <br>55%</p>
                  <p id=""wtp"" style=""text-align:center; margin-top: 0px; margin-bottom: 0px; font-size: 40px"";>&ensp;</p>","-","viewing","0","27","5B,18A","","","","","","","","","","","","","","","","","","",""
"","","","","","html-slider-response","164","608894","0.0-21.0-1.17","4a9ce7d8-368c-43cb-9911-0b763322c6be","null","
                  <p style=""text-align: center;"">₪71
                                                <br>55%</p>
                  <p id=""wtp"" style=""text-align:center; margin-top: 0px; margin-bottom: 0px; font-size: 40px"";>מוכנים לשלם: <span id=""c_p_y""></span></p>","null","evaluation","22","27","5B,18A","55","71","48","","","","","","","","","","","","","","","",""
"","","","","","html-keyboard-response","165","609626","0.0-21.0-2.17","4a9ce7d8-368c-43cb-9911-0b763322c6be","null","<p style=""text-align: center;"">+</p>","null","fixation","","","","","","","","","","","","","","","","","","","","","",""
"","","","","","html-slider-response","166","610632","0.0-21.0-0.18","4a9ce7d8-368c-43cb-9911-0b763322c6be","1000","
                  <p style=""text-align: center;"">₪11
                                                <br>45%</p>
                  <p id=""wtp"" style=""text-align:center; margin-top: 0px; margin-bottom: 0px; font-size: 40px"";>&ensp;</p>","-","viewing","0","6","14B,21C,25C","","","","","","","","","","","","","","","","","","",""
"","","","","","html-slider-response","167","614637","0.0-21.0-1.18","4a9ce7d8-368c-43cb-9911-0b763322c6be","null","
                  <p style=""text-align: center;"">₪11
                                                <br>45%</p>
                  <p id=""wtp"" style=""text-align:center; margin-top: 0px; margin-bottom: 0px; font-size: 40px"";>מוכנים לשלם: <span id=""c_p_y""></span></p>","null","evaluation","14","6","14B,21C,25C","45","11","49","","","","","","","","","","","","","","","",""
"","","","","","html-keyboard-response","168","615965","0.0-21.0-2.18","4a9ce7d8-368c-43cb-9911-0b763322c6be","null","<p style=""text-align: center;"">+</p>","null","fixation","","","","","","","","","","","","","","","","","","","","","",""
"","","","","","html-slider-response","169","616968","0.0-21.0-0.19","4a9ce7d8-368c-43cb-9911-0b763322c6be","1000","
                  <p style=""text-align: center;"">₪43
                                                <br>75%</p>
                  <p id=""wtp"" style=""text-align:center; margin-top: 0px; margin-bottom: 0px; font-size: 40px"";>&ensp;</p>","-","viewing","0","18","11B,19B,24A,26A","","","","","","","","","","","","","","","","","","",""
"","","","","","html-slider-response","170","620982","0.0-21.0-1.19","4a9ce7d8-368c-43cb-9911-0b763322c6be","null","
                  <p style=""text-align: center;"">₪43
                                                <br>75%</p>
                  <p id=""wtp"" style=""text-align:center; margin-top: 0px; margin-bottom: 0px; font-size: 40px"";>מוכנים לשלם: <span id=""c_p_y""></span></p>","null","evaluation","10","18","11B,19B,24A,26A","75","43","72","","","","","","","","","","","","","","","",""
"","","","","","html-keyboard-response","171","621579","0.0-21.0-2.19","4a9ce7d8-368c-43cb-9911-0b763322c6be","null","<p style=""text-align: center;"">+</p>","null","fixation","","","","","","","","","","","","","","","","","","","","","",""
"","","","","","html-slider-response","172","622582","0.0-21.0-0.20","4a9ce7d8-368c-43cb-9911-0b763322c6be","1000","
                  <p style=""text-align: center;"">₪39
                                                <br>65%</p>
                  <p id=""wtp"" style=""text-align:center; margin-top: 0px; margin-bottom: 0px; font-size: 40px"";>&ensp;</p>","-","viewing","0","16","1A,15A,26C","","","","","","","","","","","","","","","","","","",""
"","","","","","html-slider-response","173","626594","0.0-21.0-1.20","4a9ce7d8-368c-43cb-9911-0b763322c6be","null","
                  <p style=""text-align: center;"">₪39
                                                <br>65%</p>
                  <p id=""wtp"" style=""text-align:center; margin-top: 0px; margin-bottom: 0px; font-size: 40px"";>מוכנים לשלם: <span id=""c_p_y""></span></p>","null","evaluation","27","16","1A,15A,26C","65","39","65","","","","","","","","","","","","","","","",""
"","","","","","html-keyboard-response","174","627133","0.0-21.0-2.20","4a9ce7d8-368c-43cb-9911-0b763322c6be","null","<p style=""text-align: center;"">+</p>","null","fixation","","","","","","","","","","","","","","","","","","","","","",""
"","","","","","html-slider-response","175","628135","0.0-21.0-0.21","4a9ce7d8-368c-43cb-9911-0b763322c6be","1000","
                  <p style=""text-align: center;"">₪11
                                                <br>20%</p>
                  <p id=""wtp"" style=""text-align:center; margin-top: 0px; margin-bottom: 0px; font-size: 40px"";>&ensp;</p>","-","viewing","0","4","12C,17C,23C,28C","","","","","","","","","","","","","","","","","","",""
"","","","","","html-slider-response","176","632137","0.0-21.0-1.21","4a9ce7d8-368c-43cb-9911-0b763322c6be","null","
                  <p style=""text-align: center;"">₪11
                                                <br>20%</p>
                  <p id=""wtp"" style=""text-align:center; margin-top: 0px; margin-bottom: 0px; font-size: 40px"";>מוכנים לשלם: <span id=""c_p_y""></span></p>","null","evaluation","53","4","12C,17C,23C,28C","20","11","19","","","","","","","","","","","","","","","",""
"","","","","","html-keyboard-response","177","633275","0.0-21.0-2.21","4a9ce7d8-368c-43cb-9911-0b763322c6be","null","<p style=""text-align: center;"">+</p>","null","fixation","","","","","","","","","","","","","","","","","","","","","",""
"","","","","","html-slider-response","178","634277","0.0-21.0-0.22","4a9ce7d8-368c-43cb-9911-0b763322c6be","1000","
                  <p style=""text-align: center;"">₪36
                                                <br>30%</p>
                  <p id=""wtp"" style=""text-align:center; margin-top: 0px; margin-bottom: 0px; font-size: 40px"";>&ensp;</p>","-","viewing","0","11","3C,20A,22A","","","","","","","","","","","","","","","","","","",""
"","","","","","html-slider-response","179","638279","0.0-21.0-1.22","4a9ce7d8-368c-43cb-9911-0b763322c6be","null","
                  <p style=""text-align: center;"">₪36
                                                <br>30%</p>
                  <p id=""wtp"" style=""text-align:center; margin-top: 0px; margin-bottom: 0px; font-size: 40px"";>מוכנים לשלם: <span id=""c_p_y""></span></p>","null","evaluation","42","11","3C,20A,22A","30","36","29","","","","","","","","","","","","","","","",""
"","","","","","html-keyboard-response","180","639132","0.0-21.0-2.22","4a9ce7d8-368c-43cb-9911-0b763322c6be","null","<p style=""text-align: center;"">+</p>","null","fixation","","","","","","","","","","","","","","","","","","","","","",""
"","","","","","html-slider-response","181","640135","0.0-21.0-0.23","4a9ce7d8-368c-43cb-9911-0b763322c6be","1000","
                  <p style=""text-align: center;"">₪61
                                                <br>45%</p>
                  <p id=""wtp"" style=""text-align:center; margin-top: 0px; margin-bottom: 0px; font-size: 40px"";>&ensp;</p>","-","viewing","0","22","10A,11A","","","","","","","","","","","","","","","","","","",""
"","","","","","html-slider-response","182","644138","0.0-21.0-1.23","4a9ce7d8-368c-43cb-9911-0b763322c6be","null","
                  <p style=""text-align: center;"">₪61
                                                <br>45%</p>
                  <p id=""wtp"" style=""text-align:center; margin-top: 0px; margin-bottom: 0px; font-size: 40px"";>מוכנים לשלם: <span id=""c_p_y""></span></p>","null","evaluation","11","22","10A,11A","45","61","45","","","","","","","","","","","","","","","",""
"","","","","","html-keyboard-response","183","645243","0.0-21.0-2.23","4a9ce7d8-368c-43cb-9911-0b763322c6be","null","<p style=""text-align: center;"">+</p>","null","fixation","","","","","","","","","","","","","","","","","","","","","",""
"","","","","","html-slider-response","184","646248","0.0-21.0-0.24","4a9ce7d8-368c-43cb-9911-0b763322c6be","1000","
                  <p style=""text-align: center;"">₪64
                                                <br>50%</p>
                  <p id=""wtp"" style=""text-align:center; margin-top: 0px; margin-bottom: 0px; font-size: 40px"";>&ensp;</p>","-","viewing","0","25","1B,3B,4A","","","","","","","","","","","","","","","","","","",""
"","","","","","html-slider-response","185","650253","0.0-21.0-1.24","4a9ce7d8-368c-43cb-9911-0b763322c6be","null","
                  <p style=""text-align: center;"">₪64
                                                <br>50%</p>
                  <p id=""wtp"" style=""text-align:center; margin-top: 0px; margin-bottom: 0px; font-size: 40px"";>מוכנים לשלם: <span id=""c_p_y""></span></p>","null","evaluation","6","25","1B,3B,4A","50","64","50","","","","","","","","","","","","","","","",""
"","","","","","html-keyboard-response","186","650801","0.0-21.0-2.24","4a9ce7d8-368c-43cb-9911-0b763322c6be","null","<p style=""text-align: center;"">+</p>","null","fixation","","","","","","","","","","","","","","","","","","","","","",""
"","","","","","html-slider-response","187","651803","0.0-21.0-0.25","4a9ce7d8-368c-43cb-9911-0b763322c6be","1000","
                  <p style=""text-align: center;"">₪36
                                                <br>75%</p>
                  <p id=""wtp"" style=""text-align:center; margin-top: 0px; margin-bottom: 0px; font-size: 40px"";>&ensp;</p>","-","viewing","0","14","4B,5A,13B,16B","","","","","","","","","","","","","","","","","","",""
"","","","","","html-slider-response","188","655810","0.0-21.0-1.25","4a9ce7d8-368c-43cb-9911-0b763322c6be","null","
                  <p style=""text-align: center;"">₪36
                                                <br>75%</p>
                  <p id=""wtp"" style=""text-align:center; margin-top: 0px; margin-bottom: 0px; font-size: 40px"";>מוכנים לשלם: <span id=""c_p_y""></span></p>","null","evaluation","34","14","4B,5A,13B,16B","75","36","67","","","","","","","","","","","","","","","",""
"","","","","","html-keyboard-response","189","657180","0.0-21.0-2.25","4a9ce7d8-368c-43cb-9911-0b763322c6be","null","<p style=""text-align: center;"">+</p>","null","fixation","","","","","","","","","","","","","","","","","","","","","",""
"","","","","","html-slider-response","190","658193","0.0-21.0-0.26","4a9ce7d8-368c-43cb-9911-0b763322c6be","1000","
                  <p style=""text-align: center;"">₪79
                                                <br>40%</p>
                  <p id=""wtp"" style=""text-align:center; margin-top: 0px; margin-bottom: 0px; font-size: 40px"";>&ensp;</p>","-","viewing","0","30","9B","","","","","","","","","","","","","","","","","","",""
"","","","","","html-slider-response","191","662200","0.0-21.0-1.26","4a9ce7d8-368c-43cb-9911-0b763322c6be","null","
                  <p style=""text-align: center;"">₪79
                                                <br>40%</p>
                  <p id=""wtp"" style=""text-align:center; margin-top: 0px; margin-bottom: 0px; font-size: 40px"";>מוכנים לשלם: <span id=""c_p_y""></span></p>","null","evaluation","2","30","9B","40","79","39","","","","","","","","","","","","","","","",""
"","","","","","html-keyboard-response","192","662770","0.0-21.0-2.26","4a9ce7d8-368c-43cb-9911-0b763322c6be","null","<p style=""text-align: center;"">+</p>","null","fixation","","","","","","","","","","","","","","","","","","","","","",""
"","","","","","html-slider-response","193","663782","0.0-21.0-0.27","4a9ce7d8-368c-43cb-9911-0b763322c6be","1000","
                  <p style=""text-align: center;"">₪36
                                                <br>70%</p>
                  <p id=""wtp"" style=""text-align:center; margin-top: 0px; margin-bottom: 0px; font-size: 40px"";>&ensp;</p>","-","viewing","0","13","3A,5C,10B","","","","","","","","","","","","","","","","","","",""
"","","","","","html-slider-response","194","667790","0.0-21.0-1.27","4a9ce7d8-368c-43cb-9911-0b763322c6be","null","
                  <p style=""text-align: center;"">₪36
                                                <br>70%</p>
                  <p id=""wtp"" style=""text-align:center; margin-top: 0px; margin-bottom: 0px; font-size: 40px"";>מוכנים לשלם: <span id=""c_p_y""></span></p>","null","evaluation","73","13","3A,5C,10B","70","36","66","","","","","","","","","","","","","","","",""
"","","","","","html-keyboard-response","195","668412","0.0-21.0-2.27","4a9ce7d8-368c-43cb-9911-0b763322c6be","null","<p style=""text-align: center;"">+</p>","null","fixation","","","","","","","","","","","","","","","","","","","","","",""
"","","","","","html-slider-response","196","669415","0.0-21.0-0.28","4a9ce7d8-368c-43cb-9911-0b763322c6be","1000","
                  <p style=""text-align: center;"">₪64
                                                <br>25%</p>
                  <p id=""wtp"" style=""text-align:center; margin-top: 0px; margin-bottom: 0px; font-size: 40px"";>&ensp;</p>","-","viewing","0","24","6A,21A","","","","","","","","","","","","","","","","","","",""
"","","","","","html-slider-response","197","673417","0.0-21.0-1.28","4a9ce7d8-368c-43cb-9911-0b763322c6be","null","
                  <p style=""text-align: center;"">₪64
                                                <br>25%</p>
                  <p id=""wtp"" style=""text-align:center; margin-top: 0px; margin-bottom: 0px; font-size: 40px"";>מוכנים לשלם: <span id=""c_p_y""></span></p>","null","evaluation","14","24","6A,21A","25","64","25","","","","","","","","","","","","","","","",""
"","","","","","html-keyboard-response","198","674367","0.0-21.0-2.28","4a9ce7d8-368c-43cb-9911-0b763322c6be","null","<p style=""text-align: center;"">+</p>","null","fixation","","","","","","","","","","","","","","","","","","","","","",""
"","","","","","html-slider-response","199","675376","0.0-21.0-0.29","4a9ce7d8-368c-43cb-9911-0b763322c6be","1000","
                  <p style=""text-align: center;"">₪18
                                                <br>25%</p>
                  <p id=""wtp"" style=""text-align:center; margin-top: 0px; margin-bottom: 0px; font-size: 40px"";>&ensp;</p>","-","viewing","0","9","14A,23A","","","","","","","","","","","","","","","","","","",""
"","","","","","html-slider-response","200","679390","0.0-21.0-1.29","4a9ce7d8-368c-43cb-9911-0b763322c6be","null","
                  <p style=""text-align: center;"">₪18
                                                <br>25%</p>
                  <p id=""wtp"" style=""text-align:center; margin-top: 0px; margin-bottom: 0px; font-size: 40px"";>מוכנים לשלם: <span id=""c_p_y""></span></p>","null","evaluation","40","9","14A,23A","25","18","24","","","","","","","","","","","","","","","",""
"","","","","","html-keyboard-response","201","680547","0.0-21.0-2.29","4a9ce7d8-368c-43cb-9911-0b763322c6be","null","<p style=""text-align: center;"">+</p>","null","fixation","","","","","","","","","","","","","","","","","","","","","",""
"","","","","","html-slider-response","202","681549","0.0-21.0-0.30","4a9ce7d8-368c-43cb-9911-0b763322c6be","1000","
                  <p style=""text-align: center;"">₪11
                                                <br>75%</p>
                  <p id=""wtp"" style=""text-align:center; margin-top: 0px; margin-bottom: 0px; font-size: 40px"";>&ensp;</p>","-","viewing","0","7","6B,18B,22C,24C,29A","","","","","","","","","","","","","","","","","","",""
"","","","","","html-slider-response","203","685561","0.0-21.0-1.30","4a9ce7d8-368c-43cb-9911-0b763322c6be","null","
                  <p style=""text-align: center;"">₪11
                                                <br>75%</p>
                  <p id=""wtp"" style=""text-align:center; margin-top: 0px; margin-bottom: 0px; font-size: 40px"";>מוכנים לשלם: <span id=""c_p_y""></span></p>","null","evaluation","64","7","6B,18B,22C,24C,29A","75","11","75","","","","","","","","","","","","","","","",""
"","","","","","html-keyboard-response","204","686526","0.0-21.0-2.30","4a9ce7d8-368c-43cb-9911-0b763322c6be","null","<p style=""text-align: center;"">+</p>","null","fixation","","","","","","","","","","","","","","","","","","","","","",""
"","","","","","html-keyboard-response","205","687538","0.0-22.0","4a9ce7d8-368c-43cb-9911-0b763322c6be","null","<p style=""text-align: center;"">+</p>","null","fixation","","","","","","","","","","","","","","","","","","","","","",""
"","","","","","html-keyboard-response","206","688909","0.0-23.0","4a9ce7d8-368c-43cb-9911-0b763322c6be","null","<p>הפסקה.
          <br>לחצו כדי להמשיך.</p>","1","scan_wait","","","","","","","","","","","","","","","","","","","","","",""
"","","","","","html-keyboard-response","207","689918","0.0-24.0","4a9ce7d8-368c-43cb-9911-0b763322c6be","null","<p style=""text-align: center;"">+</p>","null","fixation","","","","","","","","","","","","","","","","","","","","","",""
"","","","","","html-slider-response","208","690931","0.0-25.0-0.0","4a9ce7d8-368c-43cb-9911-0b763322c6be","1000","
                  <p style=""text-align: center;"">₪43
                                                <br>60%</p>
                  <p id=""wtp"" style=""text-align:center; margin-top: 0px; margin-bottom: 0px; font-size: 40px"";>&ensp;</p>","-","viewing","0","17","2A,7A,9A,15B","","","","","","","","","","","","","","","","","","",""
"","","","","","html-slider-response","209","694939","0.0-25.0-1.0","4a9ce7d8-368c-43cb-9911-0b763322c6be","null","
                  <p style=""text-align: center;"">₪43
                                                <br>60%</p>
                  <p id=""wtp"" style=""text-align:center; margin-top: 0px; margin-bottom: 0px; font-size: 40px"";>מוכנים לשלם: <span id=""c_p_y""></span></p>","null","evaluation","45","17","2A,7A,9A,15B","60","43","60","","","","","","","","","","","","","","","",""
"","","","","","html-keyboard-response","210","695467","0.0-25.0-2.0","4a9ce7d8-368c-43cb-9911-0b763322c6be","null","<p style=""text-align: center;"">+</p>","null","fixation","","","","","","","","","","","","","","","","","","","","","",""
"","","","","","html-slider-response","211","696483","0.0-25.0-0.1","4a9ce7d8-368c-43cb-9911-0b763322c6be","1000","
                  <p style=""text-align: center;"">₪11
                                                <br>75%</p>
                  <p id=""wtp"" style=""text-align:center; margin-top: 0px; margin-bottom: 0px; font-size: 40px"";>&ensp;</p>","-","viewing","0","7","6B,18B,22C,24C,29A","","","","","","","","","","","","","","","","","","",""
"","","","","","html-slider-response","212","700498","0.0-25.0-1.1","4a9ce7d8-368c-43cb-9911-0b763322c6be","null","
                  <p style=""text-align: center;"">₪11
                                                <br>75%</p>
                  <p id=""wtp"" style=""text-align:center; margin-top: 0px; margin-bottom: 0px; font-size: 40px"";>מוכנים לשלם: <span id=""c_p_y""></span></p>","null","evaluation","14","7","6B,18B,22C,24C,29A","75","11","75","","","","","","","","","","","","","","","",""
"","","","","","html-keyboard-response","213","701627","0.0-25.0-2.1","4a9ce7d8-368c-43cb-9911-0b763322c6be","null","<p style=""text-align: center;"">+</p>","null","fixation","","","","","","","","","","","","","","","","","","","","","",""
"","","","","","html-slider-response","214","702629","0.0-25.0-0.2","4a9ce7d8-368c-43cb-9911-0b763322c6be","1000","
                  <p style=""text-align: center;"">₪11
                                                <br>20%</p>
                  <p id=""wtp"" style=""text-align:center; margin-top: 0px; margin-bottom: 0px; font-size: 40px"";>&ensp;</p>","-","viewing","0","4","12C,17C,23C,28C","","","","","","","","","","","","","","","","","","",""
"","","","","","html-slider-response","215","706637","0.0-25.0-1.2","4a9ce7d8-368c-43cb-9911-0b763322c6be","null","
                  <p style=""text-align: center;"">₪11
                                                <br>20%</p>
                  <p id=""wtp"" style=""text-align:center; margin-top: 0px; margin-bottom: 0px; font-size: 40px"";>מוכנים לשלם: <span id=""c_p_y""></span></p>","null","evaluation","50","4","12C,17C,23C,28C","20","11","22","","","","","","","","","","","","","","","",""
"","","","","","html-keyboard-response","216","707501","0.0-25.0-2.2","4a9ce7d8-368c-43cb-9911-0b763322c6be","null","<p style=""text-align: center;"">+</p>","null","fixation","","","","","","","","","","","","","","","","","","","","","",""
"","","","","","html-slider-response","217","708507","0.0-25.0-0.3","4a9ce7d8-368c-43cb-9911-0b763322c6be","1000","
                  <p style=""text-align: center;"">₪36
                                                <br>70%</p>
                  <p id=""wtp"" style=""text-align:center; margin-top: 0px; margin-bottom: 0px; font-size: 40px"";>&ensp;</p>","-","viewing","0","13","3A,5C,10B","","","","","","","","","","","","","","","","","","",""
"","","","","","html-slider-response","218","712521","0.0-25.0-1.3","4a9ce7d8-368c-43cb-9911-0b763322c6be","null","
                  <p style=""text-align: center;"">₪36
                                                <br>70%</p>
                  <p id=""wtp"" style=""text-align:center; margin-top: 0px; margin-bottom: 0px; font-size: 40px"";>מוכנים לשלם: <span id=""c_p_y""></span></p>","null","evaluation","59","13","3A,5C,10B","70","36","70","","","","","","","","","","","","","","","",""
"","","","","","html-keyboard-response","219","713088","0.0-25.0-2.3","4a9ce7d8-368c-43cb-9911-0b763322c6be","null","<p style=""text-align: center;"">+</p>","null","fixation","","","","","","","","","","","","","","","","","","","","","",""
"","","","","","html-slider-response","220","714099","0.0-25.0-0.4","4a9ce7d8-368c-43cb-9911-0b763322c6be","1000","
                  <p style=""text-align: center;"">₪11
                                                <br>45%</p>
                  <p id=""wtp"" style=""text-align:center; margin-top: 0px; margin-bottom: 0px; font-size: 40px"";>&ensp;</p>","-","viewing","0","6","14B,21C,25C","","","","","","","","","","","","","","","","","","",""
"","","","","","html-slider-response","221","718105","0.0-25.0-1.4","4a9ce7d8-368c-43cb-9911-0b763322c6be","null","
                  <p style=""text-align: center;"">₪11
                                                <br>45%</p>
                  <p id=""wtp"" style=""text-align:center; margin-top: 0px; margin-bottom: 0px; font-size: 40px"";>מוכנים לשלם: <span id=""c_p_y""></span></p>","null","evaluation","77","6","14B,21C,25C","45","11","45","","","","","","","","","","","","","","","",""
"","","","","","html-keyboard-response","222","719322","0.0-25.0-2.4","4a9ce7d8-368c-43cb-9911-0b763322c6be","null","<p style=""text-align: center;"">+</p>","null","fixation","","","","","","","","","","","","","","","","","","","","","",""
"","","","","","html-slider-response","223","720334","0.0-25.0-0.5","4a9ce7d8-368c-43cb-9911-0b763322c6be","1000","
                  <p style=""text-align: center;"">₪36
                                                <br>30%</p>
                  <p id=""wtp"" style=""text-align:center; margin-top: 0px; margin-bottom: 0px; font-size: 40px"";>&ensp;</p>","-","viewing","0","11","3C,20A,22A","","","","","","","","","","","","","","","","","","",""
"","","","","","html-slider-response","224","724345","0.0-25.0-1.5","4a9ce7d8-368c-43cb-9911-0b763322c6be","null","
                  <p style=""text-align: center;"">₪36
                                                <br>30%</p>
                  <p id=""wtp"" style=""text-align:center; margin-top: 0px; margin-bottom: 0px; font-size: 40px"";>מוכנים לשלם: <span id=""c_p_y""></span></p>","null","evaluation","11","11","3C,20A,22A","30","36","30","","","","","","","","","","","","","","","",""
"","","","","","html-keyboard-response","225","725741","0.0-25.0-2.5","4a9ce7d8-368c-43cb-9911-0b763322c6be","null","<p style=""text-align: center;"">+</p>","null","fixation","","","","","","","","","","","","","","","","","","","","","",""
"","","","","","html-slider-response","226","726758","0.0-25.0-0.6","4a9ce7d8-368c-43cb-9911-0b763322c6be","1000","
                  <p style=""text-align: center;"">₪61
                                                <br>45%</p>
                  <p id=""wtp"" style=""text-align:center; margin-top: 0px; margin-bottom: 0px; font-size: 40px"";>&ensp;</p>","-","viewing","0","22","10A,11A","","","","","","","","","","","","","","","","","","",""
"","","","","","html-slider-response","227","730760","0.0-25.0-1.6","4a9ce7d8-368c-43cb-9911-0b763322c6be","null","
                  <p style=""text-align: center;"">₪61
                                                <br>45%</p>
                  <p id=""wtp"" style=""text-align:center; margin-top: 0px; margin-bottom: 0px; font-size: 40px"";>מוכנים לשלם: <span id=""c_p_y""></span></p>","null","evaluation","12","22","10A,11A","45","61","45","","","","","","","","","","","","","","","",""
"","","","","","html-keyboard-response","228","732163","0.0-25.0-2.6","4a9ce7d8-368c-43cb-9911-0b763322c6be","null","<p style=""text-align: center;"">+</p>","null","fixation","","","","","","","","","","","","","","","","","","","","","",""
"","","","","","html-slider-response","229","733165","0.0-25.0-0.7","4a9ce7d8-368c-43cb-9911-0b763322c6be","1000","
                  <p style=""text-align: center;"">₪64
                                                <br>25%</p>
                  <p id=""wtp"" style=""text-align:center; margin-top: 0px; margin-bottom: 0px; font-size: 40px"";>&ensp;</p>","-","viewing","0","24","6A,21A","","","","","","","","","","","","","","","","","","",""
"","","","","","html-slider-response","230","737174","0.0-25.0-1.7","4a9ce7d8-368c-43cb-9911-0b763322c6be","null","
                  <p style=""text-align: center;"">₪64
                                                <br>25%</p>
                  <p id=""wtp"" style=""text-align:center; margin-top: 0px; margin-bottom: 0px; font-size: 40px"";>מוכנים לשלם: <span id=""c_p_y""></span></p>","null","evaluation","5","24","6A,21A","25","64","25","","","","","","","","","","","","","","","",""
"","","","","","html-keyboard-response","231","738074","0.0-25.0-2.7","4a9ce7d8-368c-43cb-9911-0b763322c6be","null","<p style=""text-align: center;"">+</p>","null","fixation","","","","","","","","","","","","","","","","","","","","","",""
"","","","","","html-slider-response","232","739084","0.0-25.0-0.8","4a9ce7d8-368c-43cb-9911-0b763322c6be","1000","
                  <p style=""text-align: center;"">₪71
                                                <br>75%</p>
                  <p id=""wtp"" style=""text-align:center; margin-top: 0px; margin-bottom: 0px; font-size: 40px"";>&ensp;</p>","-","viewing","0","28","8B","","","","","","","","","","","","","","","","","","",""
"","","","","","html-slider-response","233","743087","0.0-25.0-1.8","4a9ce7d8-368c-43cb-9911-0b763322c6be","null","
                  <p style=""text-align: center;"">₪71
                                                <br>75%</p>
                  <p id=""wtp"" style=""text-align:center; margin-top: 0px; margin-bottom: 0px; font-size: 40px"";>מוכנים לשלם: <span id=""c_p_y""></span></p>","null","evaluation","29","28","8B","75","71","76","","","","","","","","","","","","","","","",""
"","","","","","html-keyboard-response","234","743760","0.0-25.0-2.8","4a9ce7d8-368c-43cb-9911-0b763322c6be","null","<p style=""text-align: center;"">+</p>","null","fixation","","","","","","","","","","","","","","","","","","","","","",""
"","","","","","html-slider-response","235","744761","0.0-25.0-0.9","4a9ce7d8-368c-43cb-9911-0b763322c6be","1000","
                  <p style=""text-align: center;"">₪61
                                                <br>55%</p>
                  <p id=""wtp"" style=""text-align:center; margin-top: 0px; margin-bottom: 0px; font-size: 40px"";>&ensp;</p>","-","viewing","0","23","7B,26B","","","","","","","","","","","","","","","","","","",""
"","","","","","html-slider-response","236","748773","0.0-25.0-1.9","4a9ce7d8-368c-43cb-9911-0b763322c6be","null","
                  <p style=""text-align: center;"">₪61
                                                <br>55%</p>
                  <p id=""wtp"" style=""text-align:center; margin-top: 0px; margin-bottom: 0px; font-size: 40px"";>מוכנים לשלם: <span id=""c_p_y""></span></p>","null","evaluation","34","23","7B,26B","55","61","50","","","","","","","","","","","","","","","",""
"","","","","","html-keyboard-response","237","749551","0.0-25.0-2.9","4a9ce7d8-368c-43cb-9911-0b763322c6be","null","<p style=""text-align: center;"">+</p>","null","fixation","","","","","","","","","","","","","","","","","","","","","",""
"","","","","","html-slider-response","238","750558","0.0-25.0-0.10","4a9ce7d8-368c-43cb-9911-0b763322c6be","1000","
                  <p style=""text-align: center;"">₪18
                                                <br>25%</p>
                  <p id=""wtp"" style=""text-align:center; margin-top: 0px; margin-bottom: 0px; font-size: 40px"";>&ensp;</p>","-","viewing","0","9","14A,23A","","","","","","","","","","","","","","","","","","",""
"","","","","","html-slider-response","239","754561","0.0-25.0-1.10","4a9ce7d8-368c-43cb-9911-0b763322c6be","null","
                  <p style=""text-align: center;"">₪18
                                                <br>25%</p>
                  <p id=""wtp"" style=""text-align:center; margin-top: 0px; margin-bottom: 0px; font-size: 40px"";>מוכנים לשלם: <span id=""c_p_y""></span></p>","null","evaluation","79","9","14A,23A","25","18","28","","","","","","","","","","","","","","","",""
"","","","","","html-keyboard-response","240","755086","0.0-25.0-2.10","4a9ce7d8-368c-43cb-9911-0b763322c6be","null","<p style=""text-align: center;"">+</p>","null","fixation","","","","","","","","","","","","","","","","","","","","","",""
"","","","","","html-slider-response","241","756099","0.0-25.0-0.11","4a9ce7d8-368c-43cb-9911-0b763322c6be","1000","
                  <p style=""text-align: center;"">₪79
                                                <br>40%</p>
                  <p id=""wtp"" style=""text-align:center; margin-top: 0px; margin-bottom: 0px; font-size: 40px"";>&ensp;</p>","-","viewing","0","30","9B","","","","","","","","","","","","","","","","","","",""
"","","","","","html-slider-response","242","760106","0.0-25.0-1.11","4a9ce7d8-368c-43cb-9911-0b763322c6be","null","
                  <p style=""text-align: center;"">₪79
                                                <br>40%</p>
                  <p id=""wtp"" style=""text-align:center; margin-top: 0px; margin-bottom: 0px; font-size: 40px"";>מוכנים לשלם: <span id=""c_p_y""></span></p>","null","evaluation","2","30","9B","40","79","36","","","","","","","","","","","","","","","",""
"","","","","","html-keyboard-response","243","761310","0.0-25.0-2.11","4a9ce7d8-368c-43cb-9911-0b763322c6be","null","<p style=""text-align: center;"">+</p>","null","fixation","","","","","","","","","","","","","","","","","","","","","",""
"","","","","","html-slider-response","244","762312","0.0-25.0-0.12","4a9ce7d8-368c-43cb-9911-0b763322c6be","1000","
                  <p style=""text-align: center;"">₪43
                                                <br>75%</p>
                  <p id=""wtp"" style=""text-align:center; margin-top: 0px; margin-bottom: 0px; font-size: 40px"";>&ensp;</p>","-","viewing","0","18","11B,19B,24A,26A","","","","","","","","","","","","","","","","","","",""
"","","","","","html-slider-response","245","766320","0.0-25.0-1.12","4a9ce7d8-368c-43cb-9911-0b763322c6be","null","
                  <p style=""text-align: center;"">₪43
                                                <br>75%</p>
                  <p id=""wtp"" style=""text-align:center; margin-top: 0px; margin-bottom: 0px; font-size: 40px"";>מוכנים לשלם: <span id=""c_p_y""></span></p>","null","evaluation","35","18","11B,19B,24A,26A","75","43","75","","","","","","","","","","","","","","","",""
"","","","","","html-keyboard-response","246","767165","0.0-25.0-2.12","4a9ce7d8-368c-43cb-9911-0b763322c6be","null","<p style=""text-align: center;"">+</p>","null","fixation","","","","","","","","","","","","","","","","","","","","","",""
"","","","","","html-slider-response","247","768168","0.0-25.0-0.13","4a9ce7d8-368c-43cb-9911-0b763322c6be","1000","
                  <p style=""text-align: center;"">₪4
                                                <br>75%</p>
                  <p id=""wtp"" style=""text-align:center; margin-top: 0px; margin-bottom: 0px; font-size: 40px"";>&ensp;</p>","-","viewing","0","3","12B,20B,23B,27C,29C","","","","","","","","","","","","","","","","","","",""
"","","","","","html-slider-response","248","772181","0.0-25.0-1.13","4a9ce7d8-368c-43cb-9911-0b763322c6be","null","
                  <p style=""text-align: center;"">₪4
                                                <br>75%</p>
                  <p id=""wtp"" style=""text-align:center; margin-top: 0px; margin-bottom: 0px; font-size: 40px"";>מוכנים לשלם: <span id=""c_p_y""></span></p>","null","evaluation","1","3","12B,20B,23B,27C,29C","75","4","75","","","","","","","","","","","","","","","",""
"","","","","","html-keyboard-response","249","773220","0.0-25.0-2.13","4a9ce7d8-368c-43cb-9911-0b763322c6be","null","<p style=""text-align: center;"">+</p>","null","fixation","","","","","","","","","","","","","","","","","","","","","",""
"","","","","","html-slider-response","250","774222","0.0-25.0-0.14","4a9ce7d8-368c-43cb-9911-0b763322c6be","1000","
                  <p style=""text-align: center;"">₪58
                                                <br>40%</p>
