"success","timeout","failed_images","failed_audio","failed_video","trial_type","trial_index","time_elapsed","internal_node_id","subject_id","rt","stimulus","response","part","slider_start","ID","set_ID","prob","amount","last_location","actual_choice","actual_EV","binary_id","trinary_id","catch","direction","A_key","S_key","D_key","choice_prob","choice_amount","chosen_part","potential_prize_prob","potential_prize_amount","won_prize","total_prize","prize_cost","remaining_budget","accuracy"
"true","false","[]","[]","[]","preload","0","85","0.0-0.0","7f07e2d3-9e78-458f-b93e-0fbedbd173fd","","","","","","","","","","","","","","","","","","","","","","","","","","","","",""
"","","","","","html-keyboard-response","1","426929","0.0-1.0","7f07e2d3-9e78-458f-b93e-0fbedbd173fd","null","
          <h1>שלום וברוכים הבאים!</h1>
          <p>לפניכם ניסוי בקבלת החלטות עם שני חלקים.
          <br><br>לחצו על העכבר כדי להמשיך.</p>","0","example","","","","","","","","","","","","","","","","","","","","","","","","",""
"","","","","","html-keyboard-response","2","516012","0.0-2.0","7f07e2d3-9e78-458f-b93e-0fbedbd173fd","null","
        <h1>חלק 1</h1>
        <p>בקרוב יוצגו בפניכם הגרלות.
        <br>עליכם לבחור את המחיר המירבי שתהיו מוכנים לשלם כדי להשתתף בהגרלה שתוצג.
        <br>יש לכם תקציב של ₪80 לכל הגרלה. 
        <br>נסו להעריך כל הגרלה בנפרד ולחשוב כמה היא שווה עבורכם, ₪80 זמינים לכל הגרלה בנפרד.
        <br><br>לחצו על העכבר כדי להמשיך.</p>","1","instructions","","","","","","","","","","","","","","","","","","","","","","","","",""
"","","","","","html-keyboard-response","3","1136982","0.0-3.0","7f07e2d3-9e78-458f-b93e-0fbedbd173fd","null","
        <p>בסוף הניסוי, המחשב יבחר את אחת ההגרלות ויקבע מחיר לכרטיס עבורה. 
        <br>במידה והמחיר שבחרתם נמוך מהמחיר שנבחר על ידי המחשב, לא תשתתפו בהגרלה ותשארו עם מלוא התקציב.
        <br>במידה והמחיר שבחרתם גבוה מהמחיר שנבחר על ידי המחשב, תשלמו את המחיר שנקבע ותשתתפו בהגרלה.
        <br><br>לחצו על העכבר כדי להמשיך.</p>","1","instructions","","","","","","","","","","","","","","","","","","","","","","","","",""
"","","","","","html-slider-response","4","1138846","0.0-4.0","7f07e2d3-9e78-458f-b93e-0fbedbd173fd","1758","
        <p style=""font-size: 42px;"">נתחיל עם דוגמא: 
        <br>ההגרלה מטה מציעה 65% סיכוי לזכות ב-₪40 
        <br>&emsp;&emsp;&emsp;&emsp;&emsp;&emsp;&emsp;&emsp;&ensp;35% סיכוי לזכות ב-₪0.
        <br><br>מה המחיר המירבי שתהיו מוכנים לשלם על כרטיס להגרלה זו בין 0 ל-₪80?
        <br>הזיזו את העכבר על פני המלבן ולחצו כדי לבצע בחירה.</p>
        
        <p style=""text-align: center;"">₪40<br>65%</p>

        <p id=""wtp"" style=""text-align:center; margin-top: 0px; margin-bottom: 0px; font-size: 40px"";>מוכנים לשלם: <span id=""c_p_y""></span></p>","80","example","53","","","","","","","","","","","","","","","","","","","","","","","",""
"","","","","","html-keyboard-response","5","1146869","0.0-5.0","7f07e2d3-9e78-458f-b93e-0fbedbd173fd","null","<p>יפה מאוד!
                <br> בחרתם שתהיו מוכנים לשלם ₪80 כדי להשתתף בהגרלה:
                <br><p style=""text-align: center;"">₪40<br>65%</p>
                <p>נשמע נכון?
                <br>נניח שהגרלה זו נבחרה בסוף הניסוי.
                <br>כעת המחשב יקבע מחיר עבורה באקראי.
                <br>לחצו על העכבר להמשך.</p>","1","example","","","","","","","","","","","","","","","","","","","","","","","","",""
"","","","","","html-keyboard-response","6","1164045","0.0-6.0","7f07e2d3-9e78-458f-b93e-0fbedbd173fd","null","<p>המחשב קבע מחיר: ₪81
                <br>ואתם בחרתם לשלם לכל היותר: ₪80
                <br><br>מכיוון שהמחיר שבחרתם נמוך מהמחיר שנקבע, לא תתשתתפו בהגרלה.
                <br>במקרה כזה, בסוף הניסוי תקבלו את כל התקציב ההתחלתי של ₪80.
                <br><br>לחצו על העכבר להמשך.</p>","1","example","","","","","","","","","","","","","","","","","","","","","","","","",""
"","","","","","html-slider-response","7","1180478","0.0-7.0","7f07e2d3-9e78-458f-b93e-0fbedbd173fd","16179","<p style=""font-size: 42px;"">הנה עוד דוגמא:
                <br>ההגרלה מטה מציעה 35% סיכוי לזכות ב-₪18 
                <br>&emsp;&emsp;&emsp;&emsp;&emsp;&emsp;&emsp;&emsp;&ensp;65% סיכוי לזכות ב-₪0.</p>
        
                <p style=""text-align: center;"">₪18<br>35%</p>
                <p id=""wtp"" style=""text-align:center; margin-top: 0px; margin-bottom: 0px; font-size: 40px"";>מוכנים לשלם: <span id=""c_p_y""></span></p>","8","example","41","","","","","","","","","","","","","","","","","","","","","","","",""
"","","","","","html-keyboard-response","8","1191293","0.0-8.0","7f07e2d3-9e78-458f-b93e-0fbedbd173fd","null","<p>הייתם מוכנים לשלם  ₪8 כדי להשתתף בהגרלה:
                <p style=""text-align: center;"">₪18<br>35%</p>
                <p>כעת נניח שהמחשב בחר את ההגרלה הזו בסוף הניסוי, וקבע עבורה מחיר.
                <br><br>לחצו על העכבר כדי להמשיך.</p>","1","instructions","","","","","","","","","","","","","","","","","","","","","","","","",""
"","","","","","html-keyboard-response","9","1214021","0.0-9.0","7f07e2d3-9e78-458f-b93e-0fbedbd173fd","null","<p>המחשב קבע מחיר להגרלה: ₪8
                <br>ואתם בחרתם לשלם לכל היותר: ₪8
                <br><br>כעת המחיר שנקבע זהה לזה שבחרתם, אז תשלמו את המחיר שקבע המחשב (₪8) ותשתתפו בהגרלה.
                <br>במקרה כזה, תסיימו את הניסוי עם תקציב של ₪72 ועם סיכוי לזכות ב-₪18 נוספים מההגרלה.
                <br>כלומר, תוכלו לקבל ₪72 אם לא תזכו בהגרלה, או ₪90 אם תזכו בהגרלה.
                <br><br>לחצו על העכבר להמשך.</p>","1","example","","","","","","","","","","","","","","","","","","","","","","","","",""
"","","","","","html-keyboard-response","10","1225390","0.0-10.0","7f07e2d3-9e78-458f-b93e-0fbedbd173fd","null","<p>במהלך הניסוי, קודם תראו את ההגרלה ורק לאחר מכן תוכלו לבחור.
                <p>כמו כן, יהיו לכם מספר שניות מוגבל להגיב.
                <p>בואו ננסה זאת עם ההגרלה הקודמת.
                <br>לחצו על העכבר כדי להמשיך.</p>","1","instructions","","","","","","","","","","","","","","","","","","","","","","","","",""
"","","","","","html-slider-response","11","1226655","0.0-11.0","7f07e2d3-9e78-458f-b93e-0fbedbd173fd","1000","
                    <p style=""text-align: center;"">₪18<br>35%</p>
                    <p id=""wtp"" style=""text-align:center; margin-top: 0px; margin-bottom: 0px; font-size: 40px"";>&ensp;</p>","80","instructions","0","","","","","","","","","","","","","","","","","","","","","","","",""
"","","","","","html-slider-response","12","1230925","0.0-12.0","7f07e2d3-9e78-458f-b93e-0fbedbd173fd","null","
                    <p style=""text-align: center;"">₪18<br>35%</p>
                    <p id=""wtp"" style=""text-align:center; margin-top: 0px; margin-bottom: 0px; font-size: 40px"";>מוכנים לשלם: <span id=""c_p_y""></span></p>","null","instructions","62","","","","","","","","","","","","","","","","","","","","","","","",""
"","","","","","html-keyboard-response","13","1236501","0.0-13.0","7f07e2d3-9e78-458f-b93e-0fbedbd173fd","null","<p>לא הגבתם בזמן המוקצב לתגובה. 
                <br>נסו להגיב מהר יותר בפעם הבאה.
                <br><br>לחצו על העכבר כדי להמשיך.</p>","1","instructions","","","","","","","","","","","","","","","","","","","","","","","","",""
"","","","","","html-slider-response","14","1239350","0.0-14.0-0.0","7f07e2d3-9e78-458f-b93e-0fbedbd173fd","2587","
                    <p style=""text-align: center;"">₪40<br>65%</p>
                    <p id=""wtp"" style=""text-align:center; margin-top: 0px; margin-bottom: 0px; font-size: 40px"";>מוכנים לשלם: <span id=""c_p_y""></span></p>","12","instructions","41","","","","","","","","","","","","","","","","","","","","","","","",""
"","","","","","html-keyboard-response","15","1243430","0.0-14.0-1.0","7f07e2d3-9e78-458f-b93e-0fbedbd173fd","null","<p>יפה. הפעם בחרתם לשלם לכל היותר ₪12.
                <br><br>לחצו על העכבר כדי להמשיך.</p>","1","instructions","","","","","","","","","","","","","","","","","","","","","","","","",""
"","","","","","html-keyboard-response","16","1256486","0.0-15.0","7f07e2d3-9e78-458f-b93e-0fbedbd173fd","null","<p>כעת נתחיל את הניסוי.
                <br><br>אתם תראו הגרלות ותתבקשו לבחור כמה תהיו מוכנים לשלם כדי להשתתף בהן.
                <br>יש לכם תקציב של ₪80 עבור כל הגרלה.
                <br>בסוף הניסוי הגרלה אחת תבחר באקראי ותשוחק.
                <br><br>לחצו על העכבר כדי להתחיל את הניסוי.</p>","1","instructions","","","","","","","","","","","","","","","","","","","","","","","","",""
"","","","","","html-keyboard-response","17","1257751","0.0-16.0","7f07e2d3-9e78-458f-b93e-0fbedbd173fd","null","<p style=""text-align: center;"">+</p>","null","fixation","","","","","","","","","","","","","","","","","","","","","","","","",""
"","","","","","html-slider-response","18","1258760","0.0-17.0-0.0","7f07e2d3-9e78-458f-b93e-0fbedbd173fd","1000","
                  <p style=""text-align: center;"">₪18
                                                <br>50%</p>
                  <p id=""wtp"" style=""text-align:center; margin-top: 0px; margin-bottom: 0px; font-size: 40px"";>&ensp;</p>","-","viewing","0","10","2C,16C,22B,28A","","","","","","","","","","","","","","","","","","","","","",""
"","","","","","html-slider-response","19","1262334","0.0-17.0-1.0","7f07e2d3-9e78-458f-b93e-0fbedbd173fd","3572","
                  <p style=""text-align: center;"">₪18
                                                <br>50%</p>
                  <p id=""wtp"" style=""text-align:center; margin-top: 0px; margin-bottom: 0px; font-size: 40px"";>מוכנים לשלם: <span id=""c_p_y""></span></p>","11","evaluation","18","10","2C,16C,22B,28A","50","18","11","","","","","","","","","","","","","","","","","","",""
"","","","","","html-keyboard-response","20","1263824","0.0-17.0-2.0","7f07e2d3-9e78-458f-b93e-0fbedbd173fd","null","<p style=""text-align: center;"">+</p>","null","fixation","","","","","","","","","","","","","","","","","","","","","","","","",""
"","","","","","html-slider-response","21","1264835","0.0-17.0-0.1","7f07e2d3-9e78-458f-b93e-0fbedbd173fd","1000","
                  <p style=""text-align: center;"">₪36
                                                <br>30%</p>
                  <p id=""wtp"" style=""text-align:center; margin-top: 0px; margin-bottom: 0px; font-size: 40px"";>&ensp;</p>","-","viewing","0","11","3C,20A,22A","","","","","","","","","","","","","","","","","","","","","",""
"","","","","","html-slider-response","22","1267751","0.0-17.0-1.1","7f07e2d3-9e78-458f-b93e-0fbedbd173fd","2914","
                  <p style=""text-align: center;"">₪36
                                                <br>30%</p>
                  <p id=""wtp"" style=""text-align:center; margin-top: 0px; margin-bottom: 0px; font-size: 40px"";>מוכנים לשלם: <span id=""c_p_y""></span></p>","14","evaluation","14","11","3C,20A,22A","30","36","14","","","","","","","","","","","","","","","","","","",""
"","","","","","html-keyboard-response","23","1268599","0.0-17.0-2.1","7f07e2d3-9e78-458f-b93e-0fbedbd173fd","null","<p style=""text-align: center;"">+</p>","null","fixation","","","","","","","","","","","","","","","","","","","","","","","","",""
"","","","","","html-slider-response","24","1269602","0.0-17.0-0.2","7f07e2d3-9e78-458f-b93e-0fbedbd173fd","1000","
                  <p style=""text-align: center;"">₪36
                                                <br>70%</p>
                  <p id=""wtp"" style=""text-align:center; margin-top: 0px; margin-bottom: 0px; font-size: 40px"";>&ensp;</p>","-","viewing","0","13","3A,5C,10B","","","","","","","","","","","","","","","","","","","","","",""
"","","","","","html-slider-response","25","1273604","0.0-17.0-1.2","7f07e2d3-9e78-458f-b93e-0fbedbd173fd","null","
                  <p style=""text-align: center;"">₪36
                                                <br>70%</p>
                  <p id=""wtp"" style=""text-align:center; margin-top: 0px; margin-bottom: 0px; font-size: 40px"";>מוכנים לשלם: <span id=""c_p_y""></span></p>","null","evaluation","27","13","3A,5C,10B","70","36","28","","","","","","","","","","","","","","","","","","",""
"","","","","","html-keyboard-response","26","1274893","0.0-17.0-2.2","7f07e2d3-9e78-458f-b93e-0fbedbd173fd","null","<p style=""text-align: center;"">+</p>","null","fixation","","","","","","","","","","","","","","","","","","","","","","","","",""
"","","","","","html-slider-response","27","1275896","0.0-17.0-0.3","7f07e2d3-9e78-458f-b93e-0fbedbd173fd","1000","
                  <p style=""text-align: center;"">₪39
                                                <br>60%</p>
                  <p id=""wtp"" style=""text-align:center; margin-top: 0px; margin-bottom: 0px; font-size: 40px"";>&ensp;</p>","-","viewing","0","15","9C,25B","","","","","","","","","","","","","","","","","","","","","",""
"","","","","","html-slider-response","28","1277439","0.0-17.0-1.3","7f07e2d3-9e78-458f-b93e-0fbedbd173fd","1542","
                  <p style=""text-align: center;"">₪39
                                                <br>60%</p>
                  <p id=""wtp"" style=""text-align:center; margin-top: 0px; margin-bottom: 0px; font-size: 40px"";>מוכנים לשלם: <span id=""c_p_y""></span></p>","24","evaluation","10","15","9C,25B","60","39","24","","","","","","","","","","","","","","","","","","",""
"","","","","","html-keyboard-response","29","1278210","0.0-17.0-2.3","7f07e2d3-9e78-458f-b93e-0fbedbd173fd","null","<p style=""text-align: center;"">+</p>","null","fixation","","","","","","","","","","","","","","","","","","","","","","","","",""
"","","","","","html-slider-response","30","1279226","0.0-17.0-0.4","7f07e2d3-9e78-458f-b93e-0fbedbd173fd","1000","
                  <p style=""text-align: center;"">₪58
                                                <br>30%</p>
                  <p id=""wtp"" style=""text-align:center; margin-top: 0px; margin-bottom: 0px; font-size: 40px"";>&ensp;</p>","-","viewing","0","19","13C,30A","","","","","","","","","","","","","","","","","","","","","",""
"","","","","","html-slider-response","31","1281423","0.0-17.0-1.4","7f07e2d3-9e78-458f-b93e-0fbedbd173fd","2195","
                  <p style=""text-align: center;"">₪58
                                                <br>30%</p>
                  <p id=""wtp"" style=""text-align:center; margin-top: 0px; margin-bottom: 0px; font-size: 40px"";>מוכנים לשלם: <span id=""c_p_y""></span></p>","11","evaluation","79","19","13C,30A","30","58","11","","","","","","","","","","","","","","","","","","",""
"","","","","","html-keyboard-response","32","1282827","0.0-17.0-2.4","7f07e2d3-9e78-458f-b93e-0fbedbd173fd","null","<p style=""text-align: center;"">+</p>","null","fixation","","","","","","","","","","","","","","","","","","","","","","","","",""
"","","","","","html-slider-response","33","1283843","0.0-17.0-0.5","7f07e2d3-9e78-458f-b93e-0fbedbd173fd","1000","
                  <p style=""text-align: center;"">₪76
                                                <br>65%</p>
                  <p id=""wtp"" style=""text-align:center; margin-top: 0px; margin-bottom: 0px; font-size: 40px"";>&ensp;</p>","-","viewing","0","29","8C,19A,24B","","","","","","","","","","","","","","","","","","","","","",""
"","","","","","html-slider-response","34","1285999","0.0-17.0-1.5","7f07e2d3-9e78-458f-b93e-0fbedbd173fd","2154","
                  <p style=""text-align: center;"">₪76
                                                <br>65%</p>
                  <p id=""wtp"" style=""text-align:center; margin-top: 0px; margin-bottom: 0px; font-size: 40px"";>מוכנים לשלם: <span id=""c_p_y""></span></p>","34","evaluation","53","29","8C,19A,24B","65","76","34","","","","","","","","","","","","","","","","","","",""
"","","","","","html-keyboard-response","35","1287450","0.0-17.0-2.5","7f07e2d3-9e78-458f-b93e-0fbedbd173fd","null","<p style=""text-align: center;"">+</p>","null","fixation","","","","","","","","","","","","","","","","","","","","","","","","",""
"","","","","","html-slider-response","36","1288458","0.0-17.0-0.6","7f07e2d3-9e78-458f-b93e-0fbedbd173fd","1000","
                  <p style=""text-align: center;"">₪18
                                                <br>25%</p>
                  <p id=""wtp"" style=""text-align:center; margin-top: 0px; margin-bottom: 0px; font-size: 40px"";>&ensp;</p>","-","viewing","0","9","14A,23A","","","","","","","","","","","","","","","","","","","","","",""
"","","","","","html-slider-response","37","1289871","0.0-17.0-1.6","7f07e2d3-9e78-458f-b93e-0fbedbd173fd","1411","
                  <p style=""text-align: center;"">₪18
                                                <br>25%</p>
                  <p id=""wtp"" style=""text-align:center; margin-top: 0px; margin-bottom: 0px; font-size: 40px"";>מוכנים לשלם: <span id=""c_p_y""></span></p>","6","evaluation","69","9","14A,23A","25","18","7","","","","","","","","","","","","","","","","","","",""
"","","","","","html-keyboard-response","38","1290551","0.0-17.0-2.6","7f07e2d3-9e78-458f-b93e-0fbedbd173fd","null","<p style=""text-align: center;"">+</p>","null","fixation","","","","","","","","","","","","","","","","","","","","","","","","",""
"","","","","","html-slider-response","39","1291558","0.0-17.0-0.7","7f07e2d3-9e78-458f-b93e-0fbedbd173fd","1000","
                  <p style=""text-align: center;"">₪79
                                                <br>40%</p>
                  <p id=""wtp"" style=""text-align:center; margin-top: 0px; margin-bottom: 0px; font-size: 40px"";>&ensp;</p>","-","viewing","0","30","9B","","","","","","","","","","","","","","","","","","","","","",""
"","","","","","html-slider-response","40","1294119","0.0-17.0-1.7","7f07e2d3-9e78-458f-b93e-0fbedbd173fd","2560","
                  <p style=""text-align: center;"">₪79
                                                <br>40%</p>
                  <p id=""wtp"" style=""text-align:center; margin-top: 0px; margin-bottom: 0px; font-size: 40px"";>מוכנים לשלם: <span id=""c_p_y""></span></p>","27","evaluation","17","30","9B","40","79","27","","","","","","","","","","","","","","","","","","",""
"","","","","","html-keyboard-response","41","1295588","0.0-17.0-2.7","7f07e2d3-9e78-458f-b93e-0fbedbd173fd","null","<p style=""text-align: center;"">+</p>","null","fixation","","","","","","","","","","","","","","","","","","","","","","","","",""
"","","","","","html-slider-response","42","1296597","0.0-17.0-0.8","7f07e2d3-9e78-458f-b93e-0fbedbd173fd","1000","
                  <p style=""text-align: center;"">₪58
                                                <br>40%</p>
                  <p id=""wtp"" style=""text-align:center; margin-top: 0px; margin-bottom: 0px; font-size: 40px"";>&ensp;</p>","-","viewing","0","20","10C,13A,19C,21B","","","","","","","","","","","","","","","","","","","","","",""
"","","","","","html-slider-response","43","1299887","0.0-17.0-1.8","7f07e2d3-9e78-458f-b93e-0fbedbd173fd","3288","
                  <p style=""text-align: center;"">₪58
                                                <br>40%</p>
                  <p id=""wtp"" style=""text-align:center; margin-top: 0px; margin-bottom: 0px; font-size: 40px"";>מוכנים לשלם: <span id=""c_p_y""></span></p>","21","evaluation","61","20","10C,13A,19C,21B","40","58","21","","","","","","","","","","","","","","","","","","",""
"","","","","","html-keyboard-response","44","1301273","0.0-17.0-2.8","7f07e2d3-9e78-458f-b93e-0fbedbd173fd","null","<p style=""text-align: center;"">+</p>","null","fixation","","","","","","","","","","","","","","","","","","","","","","","","",""
"","","","","","html-slider-response","45","1302289","0.0-17.0-0.9","7f07e2d3-9e78-458f-b93e-0fbedbd173fd","1000","
                  <p style=""text-align: center;"">₪11
                                                <br>75%</p>
                  <p id=""wtp"" style=""text-align:center; margin-top: 0px; margin-bottom: 0px; font-size: 40px"";>&ensp;</p>","-","viewing","0","7","6B,18B,22C,24C,29A","","","","","","","","","","","","","","","","","","","","","",""
"","","","","","html-slider-response","46","1306023","0.0-17.0-1.9","7f07e2d3-9e78-458f-b93e-0fbedbd173fd","3734","
                  <p style=""text-align: center;"">₪11
                                                <br>75%</p>
                  <p id=""wtp"" style=""text-align:center; margin-top: 0px; margin-bottom: 0px; font-size: 40px"";>מוכנים לשלם: <span id=""c_p_y""></span></p>","10","evaluation","66","7","6B,18B,22C,24C,29A","75","11","10","","","","","","","","","","","","","","","","","","",""
"","","","","","html-keyboard-response","47","1306688","0.0-17.0-2.9","7f07e2d3-9e78-458f-b93e-0fbedbd173fd","null","<p style=""text-align: center;"">+</p>","null","fixation","","","","","","","","","","","","","","","","","","","","","","","","",""
"","","","","","html-slider-response","48","1307696","0.0-17.0-0.10","7f07e2d3-9e78-458f-b93e-0fbedbd173fd","1000","
                  <p style=""text-align: center;"">₪36
                                                <br>75%</p>
                  <p id=""wtp"" style=""text-align:center; margin-top: 0px; margin-bottom: 0px; font-size: 40px"";>&ensp;</p>","-","viewing","0","14","4B,5A,13B,16B","","","","","","","","","","","","","","","","","","","","","",""
"","","","","","html-slider-response","49","1311704","0.0-17.0-1.10","7f07e2d3-9e78-458f-b93e-0fbedbd173fd","null","
                  <p style=""text-align: center;"">₪36
                                                <br>75%</p>
                  <p id=""wtp"" style=""text-align:center; margin-top: 0px; margin-bottom: 0px; font-size: 40px"";>מוכנים לשלם: <span id=""c_p_y""></span></p>","null","evaluation","33","14","4B,5A,13B,16B","75","36","20","","","","","","","","","","","","","","","","","","",""
"","","","","","html-keyboard-response","50","1312246","0.0-17.0-2.10","7f07e2d3-9e78-458f-b93e-0fbedbd173fd","null","<p style=""text-align: center;"">+</p>","null","fixation","","","","","","","","","","","","","","","","","","","","","","","","",""
"","","","","","html-slider-response","51","1313259","0.0-17.0-0.11","7f07e2d3-9e78-458f-b93e-0fbedbd173fd","1000","
                  <p style=""text-align: center;"">₪79
                                                <br>65%</p>
                  <p id=""wtp"" style=""text-align:center; margin-top: 0px; margin-bottom: 0px; font-size: 40px"";>&ensp;</p>","-","viewing","0","31","8A","","","","","","","","","","","","","","","","","","","","","",""
"","","","","","html-slider-response","52","1316687","0.0-17.0-1.11","7f07e2d3-9e78-458f-b93e-0fbedbd173fd","3427","
                  <p style=""text-align: center;"">₪79
                                                <br>65%</p>
                  <p id=""wtp"" style=""text-align:center; margin-top: 0px; margin-bottom: 0px; font-size: 40px"";>מוכנים לשלם: <span id=""c_p_y""></span></p>","30","evaluation","73","31","8A","65","79","30","","","","","","","","","","","","","","","","","","",""
"","","","","","html-keyboard-response","53","1317900","0.0-17.0-2.11","7f07e2d3-9e78-458f-b93e-0fbedbd173fd","null","<p style=""text-align: center;"">+</p>","null","fixation","","","","","","","","","","","","","","","","","","","","","","","","",""
"","","","","","html-slider-response","54","1318903","0.0-17.0-0.12","7f07e2d3-9e78-458f-b93e-0fbedbd173fd","1000","
                  <p style=""text-align: center;"">₪11
                                                <br>20%</p>
                  <p id=""wtp"" style=""text-align:center; margin-top: 0px; margin-bottom: 0px; font-size: 40px"";>&ensp;</p>","-","viewing","0","4","12C,17C,23C,28C","","","","","","","","","","","","","","","","","","","","","",""
"","","","","","html-slider-response","55","1321439","0.0-17.0-1.12","7f07e2d3-9e78-458f-b93e-0fbedbd173fd","2535","
                  <p style=""text-align: center;"">₪11
                                                <br>20%</p>
                  <p id=""wtp"" style=""text-align:center; margin-top: 0px; margin-bottom: 0px; font-size: 40px"";>מוכנים לשלם: <span id=""c_p_y""></span></p>","5","evaluation","61","4","12C,17C,23C,28C","20","11","5","","","","","","","","","","","","","","","","","","",""
"","","","","","html-keyboard-response","56","1322146","0.0-17.0-2.12","7f07e2d3-9e78-458f-b93e-0fbedbd173fd","null","<p style=""text-align: center;"">+</p>","null","fixation","","","","","","","","","","","","","","","","","","","","","","","","",""
"","","","","","html-slider-response","57","1323155","0.0-17.0-0.13","7f07e2d3-9e78-458f-b93e-0fbedbd173fd","1000","
                  <p style=""text-align: center;"">₪4
                                                <br>50%</p>
                  <p id=""wtp"" style=""text-align:center; margin-top: 0px; margin-bottom: 0px; font-size: 40px"";>&ensp;</p>","-","viewing","0","2","4C,17B","","","","","","","","","","","","","","","","","","","","","",""
"","","","","","html-slider-response","58","1325080","0.0-17.0-1.13","7f07e2d3-9e78-458f-b93e-0fbedbd173fd","1931","
                  <p style=""text-align: center;"">₪4
                                                <br>50%</p>
                  <p id=""wtp"" style=""text-align:center; margin-top: 0px; margin-bottom: 0px; font-size: 40px"";>מוכנים לשלם: <span id=""c_p_y""></span></p>","6","evaluation","8","2","4C,17B","50","4","6","","","","","","","","","","","","","","","","","","",""
"","","","","","html-keyboard-response","59","1326362","0.0-17.0-2.13","7f07e2d3-9e78-458f-b93e-0fbedbd173fd","null","<p style=""text-align: center;"">+</p>","null","fixation","","","","","","","","","","","","","","","","","","","","","","","","",""
"","","","","","html-slider-response","60","1327372","0.0-17.0-0.14","7f07e2d3-9e78-458f-b93e-0fbedbd173fd","1000","
                  <p style=""text-align: center;"">₪71
                                                <br>45%</p>
                  <p id=""wtp"" style=""text-align:center; margin-top: 0px; margin-bottom: 0px; font-size: 40px"";>&ensp;</p>","-","viewing","0","26","2B,16A","","","","","","","","","","","","","","","","","","","","","",""
"","","","","","html-slider-response","61","1329439","0.0-17.0-1.14","7f07e2d3-9e78-458f-b93e-0fbedbd173fd","2066","
                  <p style=""text-align: center;"">₪71
                                                <br>45%</p>
                  <p id=""wtp"" style=""text-align:center; margin-top: 0px; margin-bottom: 0px; font-size: 40px"";>מוכנים לשלם: <span id=""c_p_y""></span></p>","21","evaluation","18","26","2B,16A","45","71","21","","","","","","","","","","","","","","","","","","",""
"","","","","","html-keyboard-response","62","1330147","0.0-17.0-2.14","7f07e2d3-9e78-458f-b93e-0fbedbd173fd","null","<p style=""text-align: center;"">+</p>","null","fixation","","","","","","","","","","","","","","","","","","","","","","","","",""
"","","","","","html-slider-response","63","1331157","0.0-17.0-0.15","7f07e2d3-9e78-458f-b93e-0fbedbd173fd","1000","
                  <p style=""text-align: center;"">₪71
                                                <br>55%</p>
                  <p id=""wtp"" style=""text-align:center; margin-top: 0px; margin-bottom: 0px; font-size: 40px"";>&ensp;</p>","-","viewing","0","27","5B,18A","","","","","","","","","","","","","","","","","","","","","",""
"","","","","","html-slider-response","64","1332632","0.0-17.0-1.15","7f07e2d3-9e78-458f-b93e-0fbedbd173fd","1473","
                  <p style=""text-align: center;"">₪71
                                                <br>55%</p>
                  <p id=""wtp"" style=""text-align:center; margin-top: 0px; margin-bottom: 0px; font-size: 40px"";>מוכנים לשלם: <span id=""c_p_y""></span></p>","42","evaluation","62","27","5B,18A","55","71","42","","","","","","","","","","","","","","","","","","",""
"","","","","","html-keyboard-response","65","1333921","0.0-17.0-2.15","7f07e2d3-9e78-458f-b93e-0fbedbd173fd","null","<p style=""text-align: center;"">+</p>","null","fixation","","","","","","","","","","","","","","","","","","","","","","","","",""
"","","","","","html-slider-response","66","1334932","0.0-17.0-0.16","7f07e2d3-9e78-458f-b93e-0fbedbd173fd","1000","
                  <p style=""text-align: center;"">₪43
                                                <br>60%</p>
                  <p id=""wtp"" style=""text-align:center; margin-top: 0px; margin-bottom: 0px; font-size: 40px"";>&ensp;</p>","-","viewing","0","17","2A,7A,9A,15B","","","","","","","","","","","","","","","","","","","","","",""
"","","","","","html-slider-response","67","1337504","0.0-17.0-1.16","7f07e2d3-9e78-458f-b93e-0fbedbd173fd","2571","
                  <p style=""text-align: center;"">₪43
                                                <br>60%</p>
                  <p id=""wtp"" style=""text-align:center; margin-top: 0px; margin-bottom: 0px; font-size: 40px"";>מוכנים לשלם: <span id=""c_p_y""></span></p>","42","evaluation","7","17","2A,7A,9A,15B","60","43","42","","","","","","","","","","","","","","","","","","",""
"","","","","","html-keyboard-response","68","1338231","0.0-17.0-2.16","7f07e2d3-9e78-458f-b93e-0fbedbd173fd","null","<p style=""text-align: center;"">+</p>","null","fixation","","","","","","","","","","","","","","","","","","","","","","","","",""
"","","","","","html-slider-response","69","1339237","0.0-17.0-0.17","7f07e2d3-9e78-458f-b93e-0fbedbd173fd","1000","
                  <p style=""text-align: center;"">₪4
                                                <br>75%</p>
                  <p id=""wtp"" style=""text-align:center; margin-top: 0px; margin-bottom: 0px; font-size: 40px"";>&ensp;</p>","-","viewing","0","3","12B,20B,23B,27C,29C","","","","","","","","","","","","","","","","","","","","","",""
"","","","","","html-slider-response","70","1343248","0.0-17.0-1.17","7f07e2d3-9e78-458f-b93e-0fbedbd173fd","null","
                  <p style=""text-align: center;"">₪4
                                                <br>75%</p>
                  <p id=""wtp"" style=""text-align:center; margin-top: 0px; margin-bottom: 0px; font-size: 40px"";>מוכנים לשלם: <span id=""c_p_y""></span></p>","null","evaluation","46","3","12B,20B,23B,27C,29C","75","4","2","","","","","","","","","","","","","","","","","","",""
"","","","","","html-keyboard-response","71","1344701","0.0-17.0-2.17","7f07e2d3-9e78-458f-b93e-0fbedbd173fd","null","<p style=""text-align: center;"">+</p>","null","fixation","","","","","","","","","","","","","","","","","","","","","","","","",""
"","","","","","html-slider-response","72","1345705","0.0-17.0-0.18","7f07e2d3-9e78-458f-b93e-0fbedbd173fd","1000","
                  <p style=""text-align: center;"">₪16
                                                <br>20%</p>
                  <p id=""wtp"" style=""text-align:center; margin-top: 0px; margin-bottom: 0px; font-size: 40px"";>&ensp;</p>","-","viewing","0","8","14C,17A,20C,27A","","","","","","","","","","","","","","","","","","","","","",""
"","","","","","html-slider-response","73","1347248","0.0-17.0-1.18","7f07e2d3-9e78-458f-b93e-0fbedbd173fd","1542","
                  <p style=""text-align: center;"">₪16
                                                <br>20%</p>
                  <p id=""wtp"" style=""text-align:center; margin-top: 0px; margin-bottom: 0px; font-size: 40px"";>מוכנים לשלם: <span id=""c_p_y""></span></p>","4","evaluation","74","8","14C,17A,20C,27A","20","16","5","","","","","","","","","","","","","","","","","","",""
"","","","","","html-keyboard-response","74","1348290","0.0-17.0-2.18","7f07e2d3-9e78-458f-b93e-0fbedbd173fd","null","<p style=""text-align: center;"">+</p>","null","fixation","","","","","","","","","","","","","","","","","","","","","","","","",""
"","","","","","html-slider-response","75","1349292","0.0-17.0-0.19","7f07e2d3-9e78-458f-b93e-0fbedbd173fd","1000","
                  <p style=""text-align: center;"">₪61
                                                <br>45%</p>
                  <p id=""wtp"" style=""text-align:center; margin-top: 0px; margin-bottom: 0px; font-size: 40px"";>&ensp;</p>","-","viewing","0","22","10A,11A","","","","","","","","","","","","","","","","","","","","","",""
"","","","","","html-slider-response","76","1351256","0.0-17.0-1.19","7f07e2d3-9e78-458f-b93e-0fbedbd173fd","1962","
                  <p style=""text-align: center;"">₪61
                                                <br>45%</p>
                  <p id=""wtp"" style=""text-align:center; margin-top: 0px; margin-bottom: 0px; font-size: 40px"";>מוכנים לשלם: <span id=""c_p_y""></span></p>","13","evaluation","30","22","10A,11A","45","61","14","","","","","","","","","","","","","","","","","","",""
"","","","","","html-keyboard-response","77","1352608","0.0-17.0-2.19","7f07e2d3-9e78-458f-b93e-0fbedbd173fd","null","<p style=""text-align: center;"">+</p>","null","fixation","","","","","","","","","","","","","","","","","","","","","","","","",""
"","","","","","html-slider-response","78","1353615","0.0-17.0-0.20","7f07e2d3-9e78-458f-b93e-0fbedbd173fd","1000","
                  <p style=""text-align: center;"">₪64
                                                <br>50%</p>
                  <p id=""wtp"" style=""text-align:center; margin-top: 0px; margin-bottom: 0px; font-size: 40px"";>&ensp;</p>","-","viewing","0","25","1B,3B,4A","","","","","","","","","","","","","","","","","","","","","",""
"","","","","","html-slider-response","79","1356272","0.0-17.0-1.20","7f07e2d3-9e78-458f-b93e-0fbedbd173fd","2656","
                  <p style=""text-align: center;"">₪64
                                                <br>50%</p>
                  <p id=""wtp"" style=""text-align:center; margin-top: 0px; margin-bottom: 0px; font-size: 40px"";>מוכנים לשלם: <span id=""c_p_y""></span></p>","31","evaluation","51","25","1B,3B,4A","50","64","31","","","","","","","","","","","","","","","","","","",""
"","","","","","html-keyboard-response","80","1357596","0.0-17.0-2.20","7f07e2d3-9e78-458f-b93e-0fbedbd173fd","null","<p style=""text-align: center;"">+</p>","null","fixation","","","","","","","","","","","","","","","","","","","","","","","","",""
"","","","","","html-slider-response","81","1358605","0.0-17.0-0.21","7f07e2d3-9e78-458f-b93e-0fbedbd173fd","1000","
                  <p style=""text-align: center;"">₪11
                                                <br>45%</p>
                  <p id=""wtp"" style=""text-align:center; margin-top: 0px; margin-bottom: 0px; font-size: 40px"";>&ensp;</p>","-","viewing","0","6","14B,21C,25C","","","","","","","","","","","","","","","","","","","","","",""
"","","","","","html-slider-response","82","1360504","0.0-17.0-1.21","7f07e2d3-9e78-458f-b93e-0fbedbd173fd","1897","
                  <p style=""text-align: center;"">₪11
                                                <br>45%</p>
                  <p id=""wtp"" style=""text-align:center; margin-top: 0px; margin-bottom: 0px; font-size: 40px"";>מוכנים לשלם: <span id=""c_p_y""></span></p>","8","evaluation","44","6","14B,21C,25C","45","11","8","","","","","","","","","","","","","","","","","","",""
"","","","","","html-keyboard-response","83","1361875","0.0-17.0-2.21","7f07e2d3-9e78-458f-b93e-0fbedbd173fd","null","<p style=""text-align: center;"">+</p>","null","fixation","","","","","","","","","","","","","","","","","","","","","","","","",""
"","","","","","html-slider-response","84","1362888","0.0-17.0-0.22","7f07e2d3-9e78-458f-b93e-0fbedbd173fd","1000","
                  <p style=""text-align: center;"">₪36
                                                <br>60%</p>
                  <p id=""wtp"" style=""text-align:center; margin-top: 0px; margin-bottom: 0px; font-size: 40px"";>&ensp;</p>","-","viewing","0","12","1C,7C,15C","","","","","","","","","","","","","","","","","","","","","",""
"","","","","","html-slider-response","85","1364600","0.0-17.0-1.22","7f07e2d3-9e78-458f-b93e-0fbedbd173fd","1710","
                  <p style=""text-align: center;"">₪36
                                                <br>60%</p>
                  <p id=""wtp"" style=""text-align:center; margin-top: 0px; margin-bottom: 0px; font-size: 40px"";>מוכנים לשלם: <span id=""c_p_y""></span></p>","25","evaluation","36","12","1C,7C,15C","60","36","25","","","","","","","","","","","","","","","","","","",""
"","","","","","html-keyboard-response","86","1365566","0.0-17.0-2.22","7f07e2d3-9e78-458f-b93e-0fbedbd173fd","null","<p style=""text-align: center;"">+</p>","null","fixation","","","","","","","","","","","","","","","","","","","","","","","","",""
"","","","","","html-slider-response","87","1366573","0.0-17.0-0.23","7f07e2d3-9e78-458f-b93e-0fbedbd173fd","1000","
                  <p style=""text-align: center;"">₪61
                                                <br>55%</p>
                  <p id=""wtp"" style=""text-align:center; margin-top: 0px; margin-bottom: 0px; font-size: 40px"";>&ensp;</p>","-","viewing","0","23","7B,26B","","","","","","","","","","","","","","","","","","","","","",""
"","","","","","html-slider-response","88","1368527","0.0-17.0-1.23","7f07e2d3-9e78-458f-b93e-0fbedbd173fd","1953","
                  <p style=""text-align: center;"">₪61
                                                <br>55%</p>
                  <p id=""wtp"" style=""text-align:center; margin-top: 0px; margin-bottom: 0px; font-size: 40px"";>מוכנים לשלם: <span id=""c_p_y""></span></p>","32","evaluation","67","23","7B,26B","55","61","32","","","","","","","","","","","","","","","","","","",""
"","","","","","html-keyboard-response","89","1369158","0.0-17.0-2.23","7f07e2d3-9e78-458f-b93e-0fbedbd173fd","null","<p style=""text-align: center;"">+</p>","null","fixation","","","","","","","","","","","","","","","","","","","","","","","","",""
"","","","","","html-slider-response","90","1370160","0.0-17.0-0.24","7f07e2d3-9e78-458f-b93e-0fbedbd173fd","1000","
                  <p style=""text-align: center;"">₪58
                                                <br>45%</p>
                  <p id=""wtp"" style=""text-align:center; margin-top: 0px; margin-bottom: 0px; font-size: 40px"";>&ensp;</p>","-","viewing","0","21","11C,18C,25A","","","","","","","","","","","","","","","","","","","","","",""
"","","","","","html-slider-response","91","1372464","0.0-17.0-1.24","7f07e2d3-9e78-458f-b93e-0fbedbd173fd","2302","
                  <p style=""text-align: center;"">₪58
                                                <br>45%</p>
                  <p id=""wtp"" style=""text-align:center; margin-top: 0px; margin-bottom: 0px; font-size: 40px"";>מוכנים לשלם: <span id=""c_p_y""></span></p>","22","evaluation","69","21","11C,18C,25A","45","58","22","","","","","","","","","","","","","","","","","","",""
"","","","","","html-keyboard-response","92","1373917","0.0-17.0-2.24","7f07e2d3-9e78-458f-b93e-0fbedbd173fd","null","<p style=""text-align: center;"">+</p>","null","fixation","","","","","","","","","","","","","","","","","","","","","","","","",""
"","","","","","html-slider-response","93","1374934","0.0-17.0-0.25","7f07e2d3-9e78-458f-b93e-0fbedbd173fd","1000","
                  <p style=""text-align: center;"">₪64
                                                <br>25%</p>
                  <p id=""wtp"" style=""text-align:center; margin-top: 0px; margin-bottom: 0px; font-size: 40px"";>&ensp;</p>","-","viewing","0","24","6A,21A","","","","","","","","","","","","","","","","","","","","","",""
"","","","","","html-slider-response","94","1376304","0.0-17.0-1.25","7f07e2d3-9e78-458f-b93e-0fbedbd173fd","1368","
                  <p style=""text-align: center;"">₪64
                                                <br>25%</p>
                  <p id=""wtp"" style=""text-align:center; margin-top: 0px; margin-bottom: 0px; font-size: 40px"";>מוכנים לשלם: <span id=""c_p_y""></span></p>","8","evaluation","67","24","6A,21A","25","64","9","","","","","","","","","","","","","","","","","","",""
"","","","","","html-keyboard-response","95","1377183","0.0-17.0-2.25","7f07e2d3-9e78-458f-b93e-0fbedbd173fd","null","<p style=""text-align: center;"">+</p>","null","fixation","","","","","","","","","","","","","","","","","","","","","","","","",""
"","","","","","html-slider-response","96","1378185","0.0-17.0-0.26","7f07e2d3-9e78-458f-b93e-0fbedbd173fd","1000","
                  <p style=""text-align: center;"">₪39
                                                <br>65%</p>
                  <p id=""wtp"" style=""text-align:center; margin-top: 0px; margin-bottom: 0px; font-size: 40px"";>&ensp;</p>","-","viewing","0","16","1A,15A,26C","","","","","","","","","","","","","","","","","","","","","",""
"","","","","","html-slider-response","97","1382072","0.0-17.0-1.26","7f07e2d3-9e78-458f-b93e-0fbedbd173fd","3885","
                  <p style=""text-align: center;"">₪39
                                                <br>65%</p>
                  <p id=""wtp"" style=""text-align:center; margin-top: 0px; margin-bottom: 0px; font-size: 40px"";>מוכנים לשלם: <span id=""c_p_y""></span></p>","15","evaluation","64","16","1A,15A,26C","65","39","15","","","","","","","","","","","","","","","","","","",""
"","","","","","html-keyboard-response","98","1383248","0.0-17.0-2.26","7f07e2d3-9e78-458f-b93e-0fbedbd173fd","null","<p style=""text-align: center;"">+</p>","null","fixation","","","","","","","","","","","","","","","","","","","","","","","","",""
"","","","","","html-slider-response","99","1384248","0.0-17.0-0.27","7f07e2d3-9e78-458f-b93e-0fbedbd173fd","1000","
                  <p style=""text-align: center;"">₪71
                                                <br>75%</p>
                  <p id=""wtp"" style=""text-align:center; margin-top: 0px; margin-bottom: 0px; font-size: 40px"";>&ensp;</p>","-","viewing","0","28","8B","","","","","","","","","","","","","","","","","","","","","",""
"","","","","","html-slider-response","100","1386841","0.0-17.0-1.27","7f07e2d3-9e78-458f-b93e-0fbedbd173fd","2592","
                  <p style=""text-align: center;"">₪71
                                                <br>75%</p>
                  <p id=""wtp"" style=""text-align:center; margin-top: 0px; margin-bottom: 0px; font-size: 40px"";>מוכנים לשלם: <span id=""c_p_y""></span></p>","43","evaluation","28","28","8B","75","71","43","","","","","","","","","","","","","","","","","","",""
"","","","","","html-keyboard-response","101","1387451","0.0-17.0-2.27","7f07e2d3-9e78-458f-b93e-0fbedbd173fd","null","<p style=""text-align: center;"">+</p>","null","fixation","","","","","","","","","","","","","","","","","","","","","","","","",""
"","","","","","html-slider-response","102","1388455","0.0-17.0-0.28","7f07e2d3-9e78-458f-b93e-0fbedbd173fd","1000","
                  <p style=""text-align: center;"">₪11
                                                <br>25%</p>
                  <p id=""wtp"" style=""text-align:center; margin-top: 0px; margin-bottom: 0px; font-size: 40px"";>&ensp;</p>","-","viewing","0","5","12A,27B,28B,30B","","","","","","","","","","","","","","","","","","","","","",""
"","","","","","html-slider-response","103","1391313","0.0-17.0-1.28","7f07e2d3-9e78-458f-b93e-0fbedbd173fd","2857","
                  <p style=""text-align: center;"">₪11
                                                <br>25%</p>
                  <p id=""wtp"" style=""text-align:center; margin-top: 0px; margin-bottom: 0px; font-size: 40px"";>מוכנים לשלם: <span id=""c_p_y""></span></p>","5","evaluation","62","5","12A,27B,28B,30B","25","11","5","","","","","","","","","","","","","","","","","","",""
"","","","","","html-keyboard-response","104","1392357","0.0-17.0-2.28","7f07e2d3-9e78-458f-b93e-0fbedbd173fd","null","<p style=""text-align: center;"">+</p>","null","fixation","","","","","","","","","","","","","","","","","","","","","","","","",""
"","","","","","html-slider-response","105","1393362","0.0-17.0-0.29","7f07e2d3-9e78-458f-b93e-0fbedbd173fd","1000","
                  <p style=""text-align: center;"">₪43
                                                <br>75%</p>
                  <p id=""wtp"" style=""text-align:center; margin-top: 0px; margin-bottom: 0px; font-size: 40px"";>&ensp;</p>","-","viewing","0","18","11B,19B,24A,26A","","","","","","","","","","","","","","","","","","","","","",""
"","","","","","html-slider-response","106","1394929","0.0-17.0-1.29","7f07e2d3-9e78-458f-b93e-0fbedbd173fd","1566","
                  <p style=""text-align: center;"">₪43
                                                <br>75%</p>
                  <p id=""wtp"" style=""text-align:center; margin-top: 0px; margin-bottom: 0px; font-size: 40px"";>מוכנים לשלם: <span id=""c_p_y""></span></p>","17","evaluation","34","18","11B,19B,24A,26A","75","43","17","","","","","","","","","","","","","","","","","","",""
"","","","","","html-keyboard-response","107","1396276","0.0-17.0-2.29","7f07e2d3-9e78-458f-b93e-0fbedbd173fd","null","<p style=""text-align: center;"">+</p>","null","fixation","","","","","","","","","","","","","","","","","","","","","","","","",""
"","","","","","html-slider-response","108","1397280","0.0-17.0-0.30","7f07e2d3-9e78-458f-b93e-0fbedbd173fd","1000","
                  <p style=""text-align: center;"">₪4
                                                <br>25%</p>
                  <p id=""wtp"" style=""text-align:center; margin-top: 0px; margin-bottom: 0px; font-size: 40px"";>&ensp;</p>","-","viewing","0","1","6C,29B,30C","","","","","","","","","","","","","","","","","","","","","",""
"","","","","","html-slider-response","109","1399465","0.0-17.0-1.30","7f07e2d3-9e78-458f-b93e-0fbedbd173fd","2184","
                  <p style=""text-align: center;"">₪4
                                                <br>25%</p>
                  <p id=""wtp"" style=""text-align:center; margin-top: 0px; margin-bottom: 0px; font-size: 40px"";>מוכנים לשלם: <span id=""c_p_y""></span></p>","4","evaluation","45","1","6C,29B,30C","25","4","4","","","","","","","","","","","","","","","","","","",""
"","","","","","html-keyboard-response","110","1400877","0.0-17.0-2.30","7f07e2d3-9e78-458f-b93e-0fbedbd173fd","null","<p style=""text-align: center;"">+</p>","null","fixation","","","","","","","","","","","","","","","","","","","","","","","","",""
"","","","","","html-keyboard-response","111","1401887","0.0-18.0","7f07e2d3-9e78-458f-b93e-0fbedbd173fd","null","<p style=""text-align: center;"">+</p>","null","fixation","","","","","","","","","","","","","","","","","","","","","","","","",""
"","","","","","html-keyboard-response","112","1405057","0.0-19.0","7f07e2d3-9e78-458f-b93e-0fbedbd173fd","null","<p>הפסקה.
          <br>לחצו כדי להמשיך.</p>","1","scan_wait","","","","","","","","","","","","","","","","","","","","","","","","",""
"","","","","","html-keyboard-response","113","1406065","0.0-20.0","7f07e2d3-9e78-458f-b93e-0fbedbd173fd","null","<p style=""text-align: center;"">+</p>","null","fixation","","","","","","","","","","","","","","","","","","","","","","","","",""
"","","","","","html-slider-response","114","1407072","0.0-21.0-0.0","7f07e2d3-9e78-458f-b93e-0fbedbd173fd","1000","
                  <p style=""text-align: center;"">₪64
                                                <br>25%</p>
                  <p id=""wtp"" style=""text-align:center; margin-top: 0px; margin-bottom: 0px; font-size: 40px"";>&ensp;</p>","-","viewing","0","24","6A,21A","","","","","","","","","","","","","","","","","","","","","",""
"","","","","","html-slider-response","115","1408809","0.0-21.0-1.0","7f07e2d3-9e78-458f-b93e-0fbedbd173fd","1735","
                  <p style=""text-align: center;"">₪64
                                                <br>25%</p>
                  <p id=""wtp"" style=""text-align:center; margin-top: 0px; margin-bottom: 0px; font-size: 40px"";>מוכנים לשלם: <span id=""c_p_y""></span></p>","17","evaluation","41","24","6A,21A","25","64","17","","","","","","","","","","","","","","","","","","",""
"","","","","","html-keyboard-response","116","1409932","0.0-21.0-2.0","7f07e2d3-9e78-458f-b93e-0fbedbd173fd","null","<p style=""text-align: center;"">+</p>","null","fixation","","","","","","","","","","","","","","","","","","","","","","","","",""
"","","","","","html-slider-response","117","1410946","0.0-21.0-0.1","7f07e2d3-9e78-458f-b93e-0fbedbd173fd","1000","
                  <p style=""text-align: center;"">₪11
                                                <br>75%</p>
                  <p id=""wtp"" style=""text-align:center; margin-top: 0px; margin-bottom: 0px; font-size: 40px"";>&ensp;</p>","-","viewing","0","7","6B,18B,22C,24C,29A","","","","","","","","","","","","","","","","","","","","","",""
"","","","","","html-slider-response","118","1412529","0.0-21.0-1.1","7f07e2d3-9e78-458f-b93e-0fbedbd173fd","1582","
                  <p style=""text-align: center;"">₪11
                                                <br>75%</p>
                  <p id=""wtp"" style=""text-align:center; margin-top: 0px; margin-bottom: 0px; font-size: 40px"";>מוכנים לשלם: <span id=""c_p_y""></span></p>","5","evaluation","26","7","6B,18B,22C,24C,29A","75","11","6","","","","","","","","","","","","","","","","","","",""
"","","","","","html-keyboard-response","119","1413209","0.0-21.0-2.1","7f07e2d3-9e78-458f-b93e-0fbedbd173fd","null","<p style=""text-align: center;"">+</p>","null","fixation","","","","","","","","","","","","","","","","","","","","","","","","",""
"","","","","","html-slider-response","120","1414218","0.0-21.0-0.2","7f07e2d3-9e78-458f-b93e-0fbedbd173fd","1000","
                  <p style=""text-align: center;"">₪71
                                                <br>45%</p>
                  <p id=""wtp"" style=""text-align:center; margin-top: 0px; margin-bottom: 0px; font-size: 40px"";>&ensp;</p>","-","viewing","0","26","2B,16A","","","","","","","","","","","","","","","","","","","","","",""
"","","","","","html-slider-response","121","1416385","0.0-21.0-1.2","7f07e2d3-9e78-458f-b93e-0fbedbd173fd","2166","
                  <p style=""text-align: center;"">₪71
                                                <br>45%</p>
                  <p id=""wtp"" style=""text-align:center; margin-top: 0px; margin-bottom: 0px; font-size: 40px"";>מוכנים לשלם: <span id=""c_p_y""></span></p>","24","evaluation","34","26","2B,16A","45","71","24","","","","","","","","","","","","","","","","","","",""
"","","","","","html-keyboard-response","122","1417481","0.0-21.0-2.2","7f07e2d3-9e78-458f-b93e-0fbedbd173fd","null","<p style=""text-align: center;"">+</p>","null","fixation","","","","","","","","","","","","","","","","","","","","","","","","",""
"","","","","","html-slider-response","123","1418485","0.0-21.0-0.3","7f07e2d3-9e78-458f-b93e-0fbedbd173fd","1000","
                  <p style=""text-align: center;"">₪18
                                                <br>25%</p>
                  <p id=""wtp"" style=""text-align:center; margin-top: 0px; margin-bottom: 0px; font-size: 40px"";>&ensp;</p>","-","viewing","0","9","14A,23A","","","","","","","","","","","","","","","","","","","","","",""
"","","","","","html-slider-response","124","1419537","0.0-21.0-1.3","7f07e2d3-9e78-458f-b93e-0fbedbd173fd","1051","
                  <p style=""text-align: center;"">₪18
                                                <br>25%</p>
                  <p id=""wtp"" style=""text-align:center; margin-top: 0px; margin-bottom: 0px; font-size: 40px"";>מוכנים לשלם: <span id=""c_p_y""></span></p>","9","evaluation","24","9","14A,23A","25","18","9","","","","","","","","","","","","","","","","","","",""
"","","","","","html-keyboard-response","125","1420410","0.0-21.0-2.3","7f07e2d3-9e78-458f-b93e-0fbedbd173fd","null","<p style=""text-align: center;"">+</p>","null","fixation","","","","","","","","","","","","","","","","","","","","","","","","",""
"","","","","","html-slider-response","126","1421424","0.0-21.0-0.4","7f07e2d3-9e78-458f-b93e-0fbedbd173fd","1000","
                  <p style=""text-align: center;"">₪64
                                                <br>50%</p>
                  <p id=""wtp"" style=""text-align:center; margin-top: 0px; margin-bottom: 0px; font-size: 40px"";>&ensp;</p>","-","viewing","0","25","1B,3B,4A","","","","","","","","","","","","","","","","","","","","","",""
"","","","","","html-slider-response","127","1423489","0.0-21.0-1.4","7f07e2d3-9e78-458f-b93e-0fbedbd173fd","2063","
                  <p style=""text-align: center;"">₪64
                                                <br>50%</p>
                  <p id=""wtp"" style=""text-align:center; margin-top: 0px; margin-bottom: 0px; font-size: 40px"";>מוכנים לשלם: <span id=""c_p_y""></span></p>","37","evaluation","17","25","1B,3B,4A","50","64","37","","","","","","","","","","","","","","","","","","",""
"","","","","","html-keyboard-response","128","1424433","0.0-21.0-2.4","7f07e2d3-9e78-458f-b93e-0fbedbd173fd","null","<p style=""text-align: center;"">+</p>","null","fixation","","","","","","","","","","","","","","","","","","","","","","","","",""
"","","","","","html-slider-response","129","1425437","0.0-21.0-0.5","7f07e2d3-9e78-458f-b93e-0fbedbd173fd","1000","
                  <p style=""text-align: center;"">₪43
                                                <br>75%</p>
                  <p id=""wtp"" style=""text-align:center; margin-top: 0px; margin-bottom: 0px; font-size: 40px"";>&ensp;</p>","-","viewing","0","18","11B,19B,24A,26A","","","","","","","","","","","","","","","","","","","","","",""
"","","","","","html-slider-response","130","1427537","0.0-21.0-1.5","7f07e2d3-9e78-458f-b93e-0fbedbd173fd","2099","
                  <p style=""text-align: center;"">₪43
                                                <br>75%</p>
                  <p id=""wtp"" style=""text-align:center; margin-top: 0px; margin-bottom: 0px; font-size: 40px"";>מוכנים לשלם: <span id=""c_p_y""></span></p>","25","evaluation","10","18","11B,19B,24A,26A","75","43","25","","","","","","","","","","","","","","","","","","",""
"","","","","","html-keyboard-response","131","1428120","0.0-21.0-2.5","7f07e2d3-9e78-458f-b93e-0fbedbd173fd","null","<p style=""text-align: center;"">+</p>","null","fixation","","","","","","","","","","","","","","","","","","","","","","","","",""
"","","","","","html-slider-response","132","1429131","0.0-21.0-0.6","7f07e2d3-9e78-458f-b93e-0fbedbd173fd","1000","
                  <p style=""text-align: center;"">₪61
                                                <br>45%</p>
                  <p id=""wtp"" style=""text-align:center; margin-top: 0px; margin-bottom: 0px; font-size: 40px"";>&ensp;</p>","-","viewing","0","22","10A,11A","","","","","","","","","","","","","","","","","","","","","",""
"","","","","","html-slider-response","133","1431121","0.0-21.0-1.6","7f07e2d3-9e78-458f-b93e-0fbedbd173fd","1989","
                  <p style=""text-align: center;"">₪61
                                                <br>45%</p>
                  <p id=""wtp"" style=""text-align:center; margin-top: 0px; margin-bottom: 0px; font-size: 40px"";>מוכנים לשלם: <span id=""c_p_y""></span></p>","32","evaluation","59","22","10A,11A","45","61","32","","","","","","","","","","","","","","","","","","",""
"","","","","","html-keyboard-response","134","1432547","0.0-21.0-2.6","7f07e2d3-9e78-458f-b93e-0fbedbd173fd","null","<p style=""text-align: center;"">+</p>","null","fixation","","","","","","","","","","","","","","","","","","","","","","","","",""
"","","","","","html-slider-response","135","1433553","0.0-21.0-0.7","7f07e2d3-9e78-458f-b93e-0fbedbd173fd","1000","
                  <p style=""text-align: center;"">₪61
                                                <br>55%</p>
                  <p id=""wtp"" style=""text-align:center; margin-top: 0px; margin-bottom: 0px; font-size: 40px"";>&ensp;</p>","-","viewing","0","23","7B,26B","","","","","","","","","","","","","","","","","","","","","",""
"","","","","","html-slider-response","136","1435297","0.0-21.0-1.7","7f07e2d3-9e78-458f-b93e-0fbedbd173fd","1743","
                  <p style=""text-align: center;"">₪61
                                                <br>55%</p>
                  <p id=""wtp"" style=""text-align:center; margin-top: 0px; margin-bottom: 0px; font-size: 40px"";>מוכנים לשלם: <span id=""c_p_y""></span></p>","31","evaluation","24","23","7B,26B","55","61","31","","","","","","","","","","","","","","","","","","",""
"","","","","","html-keyboard-response","137","1435869","0.0-21.0-2.7","7f07e2d3-9e78-458f-b93e-0fbedbd173fd","null","<p style=""text-align: center;"">+</p>","null","fixation","","","","","","","","","","","","","","","","","","","","","","","","",""
"","","","","","html-slider-response","138","1436875","0.0-21.0-0.8","7f07e2d3-9e78-458f-b93e-0fbedbd173fd","1000","
                  <p style=""text-align: center;"">₪36
                                                <br>75%</p>
                  <p id=""wtp"" style=""text-align:center; margin-top: 0px; margin-bottom: 0px; font-size: 40px"";>&ensp;</p>","-","viewing","0","14","4B,5A,13B,16B","","","","","","","","","","","","","","","","","","","","","",""
"","","","","","html-slider-response","139","1439233","0.0-21.0-1.8","7f07e2d3-9e78-458f-b93e-0fbedbd173fd","2358","
                  <p style=""text-align: center;"">₪36
                                                <br>75%</p>
                  <p id=""wtp"" style=""text-align:center; margin-top: 0px; margin-bottom: 0px; font-size: 40px"";>מוכנים לשלם: <span id=""c_p_y""></span></p>","21","evaluation","64","14","4B,5A,13B,16B","75","36","21","","","","","","","","","","","","","","","","","","",""
"","","","","","html-keyboard-response","140","1440024","0.0-21.0-2.8","7f07e2d3-9e78-458f-b93e-0fbedbd173fd","null","<p style=""text-align: center;"">+</p>","null","fixation","","","","","","","","","","","","","","","","","","","","","","","","",""
"","","","","","html-slider-response","141","1441039","0.0-21.0-0.9","7f07e2d3-9e78-458f-b93e-0fbedbd173fd","1000","
                  <p style=""text-align: center;"">₪11
                                                <br>20%</p>
                  <p id=""wtp"" style=""text-align:center; margin-top: 0px; margin-bottom: 0px; font-size: 40px"";>&ensp;</p>","-","viewing","0","4","12C,17C,23C,28C","","","","","","","","","","","","","","","","","","","","","",""
"","","","","","html-slider-response","142","1442833","0.0-21.0-1.9","7f07e2d3-9e78-458f-b93e-0fbedbd173fd","1793","
                  <p style=""text-align: center;"">₪11
                                                <br>20%</p>
                  <p id=""wtp"" style=""text-align:center; margin-top: 0px; margin-bottom: 0px; font-size: 40px"";>מוכנים לשלם: <span id=""c_p_y""></span></p>","3","evaluation","64","4","12C,17C,23C,28C","20","11","3","","","","","","","","","","","","","","","","","","",""
"","","","","","html-keyboard-response","143","1443337","0.0-21.0-2.9","7f07e2d3-9e78-458f-b93e-0fbedbd173fd","null","<p style=""text-align: center;"">+</p>","null","fixation","","","","","","","","","","","","","","","","","","","","","","","","",""
"","","","","","html-slider-response","144","1444339","0.0-21.0-0.10","7f07e2d3-9e78-458f-b93e-0fbedbd173fd","1000","
                  <p style=""text-align: center;"">₪39
                                                <br>60%</p>
                  <p id=""wtp"" style=""text-align:center; margin-top: 0px; margin-bottom: 0px; font-size: 40px"";>&ensp;</p>","-","viewing","0","15","9C,25B","","","","","","","","","","","","","","","","","","","","","",""
"","","","","","html-slider-response","145","1447034","0.0-21.0-1.10","7f07e2d3-9e78-458f-b93e-0fbedbd173fd","2695","
                  <p style=""text-align: center;"">₪39
                                                <br>60%</p>
                  <p id=""wtp"" style=""text-align:center; margin-top: 0px; margin-bottom: 0px; font-size: 40px"";>מוכנים לשלם: <span id=""c_p_y""></span></p>","19","evaluation","58","15","9C,25B","60","39","19","","","","","","","","","","","","","","","","","","",""
"","","","","","html-keyboard-response","146","1447606","0.0-21.0-2.10","7f07e2d3-9e78-458f-b93e-0fbedbd173fd","null","<p style=""text-align: center;"">+</p>","null","fixation","","","","","","","","","","","","","","","","","","","","","","","","",""
"","","","","","html-slider-response","147","1448612","0.0-21.0-0.11","7f07e2d3-9e78-458f-b93e-0fbedbd173fd","1000","
                  <p style=""text-align: center;"">₪39
                                                <br>65%</p>
                  <p id=""wtp"" style=""text-align:center; margin-top: 0px; margin-bottom: 0px; font-size: 40px"";>&ensp;</p>","-","viewing","0","16","1A,15A,26C","","","","","","","","","","","","","","","","","","","","","",""
"","","","","","html-slider-response","148","1451050","0.0-21.0-1.11","7f07e2d3-9e78-458f-b93e-0fbedbd173fd","2437","
                  <p style=""text-align: center;"">₪39
                                                <br>65%</p>
                  <p id=""wtp"" style=""text-align:center; margin-top: 0px; margin-bottom: 0px; font-size: 40px"";>מוכנים לשלם: <span id=""c_p_y""></span></p>","17","evaluation","39","16","1A,15A,26C","65","39","17","","","","","","","","","","","","","","","","","","",""
"","","","","","html-keyboard-response","149","1451814","0.0-21.0-2.11","7f07e2d3-9e78-458f-b93e-0fbedbd173fd","null","<p style=""text-align: center;"">+</p>","null","fixation","","","","","","","","","","","","","","","","","","","","","","","","",""
"","","","","","html-slider-response","150","1452819","0.0-21.0-0.12","7f07e2d3-9e78-458f-b93e-0fbedbd173fd","1000","
                  <p style=""text-align: center;"">₪76
                                                <br>65%</p>
                  <p id=""wtp"" style=""text-align:center; margin-top: 0px; margin-bottom: 0px; font-size: 40px"";>&ensp;</p>","-","viewing","0","29","8C,19A,24B","","","","","","","","","","","","","","","","","","","","","",""
"","","","","","html-slider-response","151","1454546","0.0-21.0-1.12","7f07e2d3-9e78-458f-b93e-0fbedbd173fd","1726","
                  <p style=""text-align: center;"">₪76
                                                <br>65%</p>
                  <p id=""wtp"" style=""text-align:center; margin-top: 0px; margin-bottom: 0px; font-size: 40px"";>מוכנים לשלם: <span id=""c_p_y""></span></p>","32","evaluation","52","29","8C,19A,24B","65","76","32","","","","","","","","","","","","","","","","","","",""
"","","","","","html-keyboard-response","152","1455570","0.0-21.0-2.12","7f07e2d3-9e78-458f-b93e-0fbedbd173fd","null","<p style=""text-align: center;"">+</p>","null","fixation","","","","","","","","","","","","","","","","","","","","","","","","",""
"","","","","","html-slider-response","153","1456583","0.0-21.0-0.13","7f07e2d3-9e78-458f-b93e-0fbedbd173fd","1000","
                  <p style=""text-align: center;"">₪4
                                                <br>50%</p>
                  <p id=""wtp"" style=""text-align:center; margin-top: 0px; margin-bottom: 0px; font-size: 40px"";>&ensp;</p>","-","viewing","0","2","4C,17B","","","","","","","","","","","","","","","","","","","","","",""
"","","","","","html-slider-response","154","1458282","0.0-21.0-1.13","7f07e2d3-9e78-458f-b93e-0fbedbd173fd","1698","
                  <p style=""text-align: center;"">₪4
                                                <br>50%</p>
                  <p id=""wtp"" style=""text-align:center; margin-top: 0px; margin-bottom: 0px; font-size: 40px"";>מוכנים לשלם: <span id=""c_p_y""></span></p>","4","evaluation","73","2","4C,17B","50","4","4","","","","","","","","","","","","","","","","","","",""
"","","","","","html-keyboard-response","155","1459522","0.0-21.0-2.13","7f07e2d3-9e78-458f-b93e-0fbedbd173fd","null","<p style=""text-align: center;"">+</p>","null","fixation","","","","","","","","","","","","","","","","","","","","","","","","",""
"","","","","","html-slider-response","156","1460524","0.0-21.0-0.14","7f07e2d3-9e78-458f-b93e-0fbedbd173fd","1000","
                  <p style=""text-align: center;"">₪43
                                                <br>60%</p>
                  <p id=""wtp"" style=""text-align:center; margin-top: 0px; margin-bottom: 0px; font-size: 40px"";>&ensp;</p>","-","viewing","0","17","2A,7A,9A,15B","","","","","","","","","","","","","","","","","","","","","",""
"","","","","","html-slider-response","157","1463426","0.0-21.0-1.14","7f07e2d3-9e78-458f-b93e-0fbedbd173fd","2902","
                  <p style=""text-align: center;"">₪43
                                                <br>60%</p>
                  <p id=""wtp"" style=""text-align:center; margin-top: 0px; margin-bottom: 0px; font-size: 40px"";>מוכנים לשלם: <span id=""c_p_y""></span></p>","22","evaluation","9","17","2A,7A,9A,15B","60","43","22","","","","","","","","","","","","","","","","","","",""
"","","","","","html-keyboard-response","158","1464475","0.0-21.0-2.14","7f07e2d3-9e78-458f-b93e-0fbedbd173fd","null","<p style=""text-align: center;"">+</p>","null","fixation","","","","","","","","","","","","","","","","","","","","","","","","",""
"","","","","","html-slider-response","159","1465487","0.0-21.0-0.15","7f07e2d3-9e78-458f-b93e-0fbedbd173fd","1000","
                  <p style=""text-align: center;"">₪58
                                                <br>45%</p>
                  <p id=""wtp"" style=""text-align:center; margin-top: 0px; margin-bottom: 0px; font-size: 40px"";>&ensp;</p>","-","viewing","0","21","11C,18C,25A","","","","","","","","","","","","","","","","","","","","","",""
"","","","","","html-slider-response","160","1468066","0.0-21.0-1.15","7f07e2d3-9e78-458f-b93e-0fbedbd173fd","2579","
                  <p style=""text-align: center;"">₪58
                                                <br>45%</p>
                  <p id=""wtp"" style=""text-align:center; margin-top: 0px; margin-bottom: 0px; font-size: 40px"";>מוכנים לשלם: <span id=""c_p_y""></span></p>","15","evaluation","11","21","11C,18C,25A","45","58","15","","","","","","","","","","","","","","","","","","",""
"","","","","","html-keyboard-response","161","1469409","0.0-21.0-2.15","7f07e2d3-9e78-458f-b93e-0fbedbd173fd","null","<p style=""text-align: center;"">+</p>","null","fixation","","","","","","","","","","","","","","","","","","","","","","","","",""
"","","","","","html-slider-response","162","1470424","0.0-21.0-0.16","7f07e2d3-9e78-458f-b93e-0fbedbd173fd","1000","
                  <p style=""text-align: center;"">₪79
                                                <br>65%</p>
                  <p id=""wtp"" style=""text-align:center; margin-top: 0px; margin-bottom: 0px; font-size: 40px"";>&ensp;</p>","-","viewing","0","31","8A","","","","","","","","","","","","","","","","","","","","","",""
"","","","","","html-slider-response","163","1472146","0.0-21.0-1.16","7f07e2d3-9e78-458f-b93e-0fbedbd173fd","1720","
                  <p style=""text-align: center;"">₪79
                                                <br>65%</p>
                  <p id=""wtp"" style=""text-align:center; margin-top: 0px; margin-bottom: 0px; font-size: 40px"";>מוכנים לשלם: <span id=""c_p_y""></span></p>","39","evaluation","67","31","8A","65","79","39","","","","","","","","","","","","","","","","","","",""
"","","","","","html-keyboard-response","164","1472980","0.0-21.0-2.16","7f07e2d3-9e78-458f-b93e-0fbedbd173fd","null","<p style=""text-align: center;"">+</p>","null","fixation","","","","","","","","","","","","","","","","","","","","","","","","",""
"","","","","","html-slider-response","165","1473994","0.0-21.0-0.17","7f07e2d3-9e78-458f-b93e-0fbedbd173fd","1000","
                  <p style=""text-align: center;"">₪16
                                                <br>20%</p>
                  <p id=""wtp"" style=""text-align:center; margin-top: 0px; margin-bottom: 0px; font-size: 40px"";>&ensp;</p>","-","viewing","0","8","14C,17A,20C,27A","","","","","","","","","","","","","","","","","","","","","",""
"","","","","","html-slider-response","166","1476346","0.0-21.0-1.17","7f07e2d3-9e78-458f-b93e-0fbedbd173fd","2352","
                  <p style=""text-align: center;"">₪16
                                                <br>20%</p>
                  <p id=""wtp"" style=""text-align:center; margin-top: 0px; margin-bottom: 0px; font-size: 40px"";>מוכנים לשלם: <span id=""c_p_y""></span></p>","10","evaluation","18","8","14C,17A,20C,27A","20","16","10","","","","","","","","","","","","","","","","","","",""
"","","","","","html-keyboard-response","167","1477265","0.0-21.0-2.17","7f07e2d3-9e78-458f-b93e-0fbedbd173fd","null","<p style=""text-align: center;"">+</p>","null","fixation","","","","","","","","","","","","","","","","","","","","","","","","",""
"","","","","","html-slider-response","168","1478275","0.0-21.0-0.18","7f07e2d3-9e78-458f-b93e-0fbedbd173fd","1000","
                  <p style=""text-align: center;"">₪79
                                                <br>40%</p>
                  <p id=""wtp"" style=""text-align:center; margin-top: 0px; margin-bottom: 0px; font-size: 40px"";>&ensp;</p>","-","viewing","0","30","9B","","","","","","","","","","","","","","","","","","","","","",""
"","","","","","html-slider-response","169","1481258","0.0-21.0-1.18","7f07e2d3-9e78-458f-b93e-0fbedbd173fd","2982","
                  <p style=""text-align: center;"">₪79
                                                <br>40%</p>
                  <p id=""wtp"" style=""text-align:center; margin-top: 0px; margin-bottom: 0px; font-size: 40px"";>מוכנים לשלם: <span id=""c_p_y""></span></p>","28","evaluation","5","30","9B","40","79","28","","","","","","","","","","","","","","","","","","",""
"","","","","","html-keyboard-response","170","1482715","0.0-21.0-2.18","7f07e2d3-9e78-458f-b93e-0fbedbd173fd","null","<p style=""text-align: center;"">+</p>","null","fixation","","","","","","","","","","","","","","","","","","","","","","","","",""
"","","","","","html-slider-response","171","1483729","0.0-21.0-0.19","7f07e2d3-9e78-458f-b93e-0fbedbd173fd","1000","
                  <p style=""text-align: center;"">₪11
                                                <br>25%</p>
                  <p id=""wtp"" style=""text-align:center; margin-top: 0px; margin-bottom: 0px; font-size: 40px"";>&ensp;</p>","-","viewing","0","5","12A,27B,28B,30B","","","","","","","","","","","","","","","","","","","","","",""
"","","","","","html-slider-response","172","1485722","0.0-21.0-1.19","7f07e2d3-9e78-458f-b93e-0fbedbd173fd","1992","
                  <p style=""text-align: center;"">₪11
                                                <br>25%</p>
                  <p id=""wtp"" style=""text-align:center; margin-top: 0px; margin-bottom: 0px; font-size: 40px"";>מוכנים לשלם: <span id=""c_p_y""></span></p>","2","evaluation","25","5","12A,27B,28B,30B","25","11","3","","","","","","","","","","","","","","","","","","",""
"","","","","","html-keyboard-response","173","1487076","0.0-21.0-2.19","7f07e2d3-9e78-458f-b93e-0fbedbd173fd","null","<p style=""text-align: center;"">+</p>","null","fixation","","","","","","","","","","","","","","","","","","","","","","","","",""
"","","","","","html-slider-response","174","1488085","0.0-21.0-0.20","7f07e2d3-9e78-458f-b93e-0fbedbd173fd","1000","
                  <p style=""text-align: center;"">₪4
                                                <br>25%</p>
                  <p id=""wtp"" style=""text-align:center; margin-top: 0px; margin-bottom: 0px; font-size: 40px"";>&ensp;</p>","-","viewing","0","1","6C,29B,30C","","","","","","","","","","","","","","","","","","","","","",""
"","","","","","html-slider-response","175","1489642","0.0-21.0-1.20","7f07e2d3-9e78-458f-b93e-0fbedbd173fd","1556","
                  <p style=""text-align: center;"">₪4
                                                <br>25%</p>
                  <p id=""wtp"" style=""text-align:center; margin-top: 0px; margin-bottom: 0px; font-size: 40px"";>מוכנים לשלם: <span id=""c_p_y""></span></p>","1","evaluation","34","1","6C,29B,30C","25","4","1","","","","","","","","","","","","","","","","","","",""
"","","","","","html-keyboard-response","176","1490400","0.0-21.0-2.20","7f07e2d3-9e78-458f-b93e-0fbedbd173fd","null","<p style=""text-align: center;"">+</p>","null","fixation","","","","","","","","","","","","","","","","","","","","","","","","",""
"","","","","","html-slider-response","177","1491401","0.0-21.0-0.21","7f07e2d3-9e78-458f-b93e-0fbedbd173fd","1000","
                  <p style=""text-align: center;"">₪18
                                                <br>50%</p>
                  <p id=""wtp"" style=""text-align:center; margin-top: 0px; margin-bottom: 0px; font-size: 40px"";>&ensp;</p>","-","viewing","0","10","2C,16C,22B,28A","","","","","","","","","","","","","","","","","","","","","",""
"","","","","","html-slider-response","178","1493514","0.0-21.0-1.21","7f07e2d3-9e78-458f-b93e-0fbedbd173fd","2112","
                  <p style=""text-align: center;"">₪18
                                                <br>50%</p>
                  <p id=""wtp"" style=""text-align:center; margin-top: 0px; margin-bottom: 0px; font-size: 40px"";>מוכנים לשלם: <span id=""c_p_y""></span></p>","7","evaluation","13","10","2C,16C,22B,28A","50","18","7","","","","","","","","","","","","","","","","","","",""
"","","","","","html-keyboard-response","179","1494738","0.0-21.0-2.21","7f07e2d3-9e78-458f-b93e-0fbedbd173fd","null","<p style=""text-align: center;"">+</p>","null","fixation","","","","","","","","","","","","","","","","","","","","","","","","",""
"","","","","","html-slider-response","180","1495742","0.0-21.0-0.22","7f07e2d3-9e78-458f-b93e-0fbedbd173fd","1000","
                  <p style=""text-align: center;"">₪36
                                                <br>70%</p>
                  <p id=""wtp"" style=""text-align:center; margin-top: 0px; margin-bottom: 0px; font-size: 40px"";>&ensp;</p>","-","viewing","0","13","3A,5C,10B","","","","","","","","","","","","","","","","","","","","","",""
"","","","","","html-slider-response","181","1498322","0.0-21.0-1.22","7f07e2d3-9e78-458f-b93e-0fbedbd173fd","2579","
                  <p style=""text-align: center;"">₪36
                                                <br>70%</p>
                  <p id=""wtp"" style=""text-align:center; margin-top: 0px; margin-bottom: 0px; font-size: 40px"";>מוכנים לשלם: <span id=""c_p_y""></span></p>","12","evaluation","23","13","3A,5C,10B","70","36","12","","","","","","","","","","","","","","","","","","",""
"","","","","","html-keyboard-response","182","1499515","0.0-21.0-2.22","7f07e2d3-9e78-458f-b93e-0fbedbd173fd","null","<p style=""text-align: center;"">+</p>","null","fixation","","","","","","","","","","","","","","","","","","","","","","","","",""
"","","","","","html-slider-response","183","1500529","0.0-21.0-0.23","7f07e2d3-9e78-458f-b93e-0fbedbd173fd","1000","
                  <p style=""text-align: center;"">₪4
                                                <br>75%</p>
                  <p id=""wtp"" style=""text-align:center; margin-top: 0px; margin-bottom: 0px; font-size: 40px"";>&ensp;</p>","-","viewing","0","3","12B,20B,23B,27C,29C","","","","","","","","","","","","","","","","","","","","","",""
"","","","","","html-slider-response","184","1502810","0.0-21.0-1.23","7f07e2d3-9e78-458f-b93e-0fbedbd173fd","2280","
                  <p style=""text-align: center;"">₪4
                                                <br>75%</p>
                  <p id=""wtp"" style=""text-align:center; margin-top: 0px; margin-bottom: 0px; font-size: 40px"";>מוכנים לשלם: <span id=""c_p_y""></span></p>","2","evaluation","3","3","12B,20B,23B,27C,29C","75","4","2","","","","","","","","","","","","","","","","","","",""
"","","","","","html-keyboard-response","185","1503628","0.0-21.0-2.23","7f07e2d3-9e78-458f-b93e-0fbedbd173fd","null","<p style=""text-align: center;"">+</p>","null","fixation","","","","","","","","","","","","","","","","","","","","","","","","",""
"","","","","","html-slider-response","186","1504628","0.0-21.0-0.24","7f07e2d3-9e78-458f-b93e-0fbedbd173fd","1000","
                  <p style=""text-align: center;"">₪71
                                                <br>75%</p>
                  <p id=""wtp"" style=""text-align:center; margin-top: 0px; margin-bottom: 0px; font-size: 40px"";>&ensp;</p>","-","viewing","0","28","8B","","","","","","","","","","","","","","","","","","","","","",""
"","","","","","html-slider-response","187","1508642","0.0-21.0-1.24","7f07e2d3-9e78-458f-b93e-0fbedbd173fd","null","
                  <p style=""text-align: center;"">₪71
                                                <br>75%</p>
                  <p id=""wtp"" style=""text-align:center; margin-top: 0px; margin-bottom: 0px; font-size: 40px"";>מוכנים לשלם: <span id=""c_p_y""></span></p>","null","evaluation","38","28","8B","75","71","42","","","","","","","","","","","","","","","","","","",""
"","","","","","html-keyboard-response","188","1509519","0.0-21.0-2.24","7f07e2d3-9e78-458f-b93e-0fbedbd173fd","null","<p style=""text-align: center;"">+</p>","null","fixation","","","","","","","","","","","","","","","","","","","","","","","","",""
"","","","","","html-slider-response","189","1510521","0.0-21.0-0.25","7f07e2d3-9e78-458f-b93e-0fbedbd173fd","1000","
                  <p style=""text-align: center;"">₪11
                                                <br>45%</p>
                  <p id=""wtp"" style=""text-align:center; margin-top: 0px; margin-bottom: 0px; font-size: 40px"";>&ensp;</p>","-","viewing","0","6","14B,21C,25C","","","","","","","","","","","","","","","","","","","","","",""
"","","","","","html-slider-response","190","1511964","0.0-21.0-1.25","7f07e2d3-9e78-458f-b93e-0fbedbd173fd","1441","
                  <p style=""text-align: center;"">₪11
                                                <br>45%</p>
                  <p id=""wtp"" style=""text-align:center; margin-top: 0px; margin-bottom: 0px; font-size: 40px"";>מוכנים לשלם: <span id=""c_p_y""></span></p>","4","evaluation","55","6","14B,21C,25C","45","11","4","","","","","","","","","","","","","","","","","","",""
"","","","","","html-keyboard-response","191","1512565","0.0-21.0-2.25","7f07e2d3-9e78-458f-b93e-0fbedbd173fd","null","<p style=""text-align: center;"">+</p>","null","fixation","","","","","","","","","","","","","","","","","","","","","","","","",""
"","","","","","html-slider-response","192","1513579","0.0-21.0-0.26","7f07e2d3-9e78-458f-b93e-0fbedbd173fd","1000","
                  <p style=""text-align: center;"">₪36
                                                <br>60%</p>
                  <p id=""wtp"" style=""text-align:center; margin-top: 0px; margin-bottom: 0px; font-size: 40px"";>&ensp;</p>","-","viewing","0","12","1C,7C,15C","","","","","","","","","","","","","","","","","","","","","",""
"","","","","","html-slider-response","193","1515812","0.0-21.0-1.26","7f07e2d3-9e78-458f-b93e-0fbedbd173fd","2231","
                  <p style=""text-align: center;"">₪36
                                                <br>60%</p>
                  <p id=""wtp"" style=""text-align:center; margin-top: 0px; margin-bottom: 0px; font-size: 40px"";>מוכנים לשלם: <span id=""c_p_y""></span></p>","17","evaluation","15","12","1C,7C,15C","60","36","17","","","","","","","","","","","","","","","","","","",""
"","","","","","html-keyboard-response","194","1517259","0.0-21.0-2.26","7f07e2d3-9e78-458f-b93e-0fbedbd173fd","null","<p style=""text-align: center;"">+</p>","null","fixation","","","","","","","","","","","","","","","","","","","","","","","","",""
"","","","","","html-slider-response","195","1518274","0.0-21.0-0.27","7f07e2d3-9e78-458f-b93e-0fbedbd173fd","1000","
                  <p style=""text-align: center;"">₪58
                                                <br>40%</p>
                  <p id=""wtp"" style=""text-align:center; margin-top: 0px; margin-bottom: 0px; font-size: 40px"";>&ensp;</p>","-","viewing","0","20","10C,13A,19C,21B","","","","","","","","","","","","","","","","","","","","","",""
"","","","","","html-slider-response","196","1520324","0.0-21.0-1.27","7f07e2d3-9e78-458f-b93e-0fbedbd173fd","2048","
                  <p style=""text-align: center;"">₪58
                                                <br>40%</p>
                  <p id=""wtp"" style=""text-align:center; margin-top: 0px; margin-bottom: 0px; font-size: 40px"";>מוכנים לשלם: <span id=""c_p_y""></span></p>","20","evaluation","65","20","10C,13A,19C,21B","40","58","20","","","","","","","","","","","","","","","","","","",""
"","","","","","html-keyboard-response","197","1521578","0.0-21.0-2.27","7f07e2d3-9e78-458f-b93e-0fbedbd173fd","null","<p style=""text-align: center;"">+</p>","null","fixation","","","","","","","","","","","","","","","","","","","","","","","","",""
"","","","","","html-slider-response","198","1522579","0.0-21.0-0.28","7f07e2d3-9e78-458f-b93e-0fbedbd173fd","1000","
                  <p style=""text-align: center;"">₪58
                                                <br>30%</p>
                  <p id=""wtp"" style=""text-align:center; margin-top: 0px; margin-bottom: 0px; font-size: 40px"";>&ensp;</p>","-","viewing","0","19","13C,30A","","","","","","","","","","","","","","","","","","","","","",""
"","","","","","html-slider-response","199","1524427","0.0-21.0-1.28","7f07e2d3-9e78-458f-b93e-0fbedbd173fd","1848","
                  <p style=""text-align: center;"">₪58
                                                <br>30%</p>
                  <p id=""wtp"" style=""text-align:center; margin-top: 0px; margin-bottom: 0px; font-size: 40px"";>מוכנים לשלם: <span id=""c_p_y""></span></p>","22","evaluation","13","19","13C,30A","30","58","22","","","","","","","","","","","","","","","","","","",""
"","","","","","html-keyboard-response","200","1524995","0.0-21.0-2.28","7f07e2d3-9e78-458f-b93e-0fbedbd173fd","null","<p style=""text-align: center;"">+</p>","null","fixation","","","","","","","","","","","","","","","","","","","","","","","","",""
"","","","","","html-slider-response","201","1525999","0.0-21.0-0.29","7f07e2d3-9e78-458f-b93e-0fbedbd173fd","1000","
                  <p style=""text-align: center;"">₪71
                                                <br>55%</p>
                  <p id=""wtp"" style=""text-align:center; margin-top: 0px; margin-bottom: 0px; font-size: 40px"";>&ensp;</p>","-","viewing","0","27","5B,18A","","","","","","","","","","","","","","","","","","","","","",""
"","","","","","html-slider-response","202","1527588","0.0-21.0-1.29","7f07e2d3-9e78-458f-b93e-0fbedbd173fd","1588","
                  <p style=""text-align: center;"">₪71
                                                <br>55%</p>
                  <p id=""wtp"" style=""text-align:center; margin-top: 0px; margin-bottom: 0px; font-size: 40px"";>מוכנים לשלם: <span id=""c_p_y""></span></p>","32","evaluation","26","27","5B,18A","55","71","32","","","","","","","","","","","","","","","","","","",""
"","","","","","html-keyboard-response","203","1528326","0.0-21.0-2.29","7f07e2d3-9e78-458f-b93e-0fbedbd173fd","null","<p style=""text-align: center;"">+</p>","null","fixation","","","","","","","","","","","","","","","","","","","","","","","","",""
"","","","","","html-slider-response","204","1529334","0.0-21.0-0.30","7f07e2d3-9e78-458f-b93e-0fbedbd173fd","1000","
                  <p style=""text-align: center;"">₪36
                                                <br>30%</p>
                  <p id=""wtp"" style=""text-align:center; margin-top: 0px; margin-bottom: 0px; font-size: 40px"";>&ensp;</p>","-","viewing","0","11","3C,20A,22A","","","","","","","","","","","","","","","","","","","","","",""
"","","","","","html-slider-response","205","1530972","0.0-21.0-1.30","7f07e2d3-9e78-458f-b93e-0fbedbd173fd","1636","
                  <p style=""text-align: center;"">₪36
                                                <br>30%</p>
                  <p id=""wtp"" style=""text-align:center; margin-top: 0px; margin-bottom: 0px; font-size: 40px"";>מוכנים לשלם: <span id=""c_p_y""></span></p>","9","evaluation","78","11","3C,20A,22A","30","36","9","","","","","","","","","","","","","","","","","","",""
"","","","","","html-keyboard-response","206","1532034","0.0-21.0-2.30","7f07e2d3-9e78-458f-b93e-0fbedbd173fd","null","<p style=""text-align: center;"">+</p>","null","fixation","","","","","","","","","","","","","","","","","","","","","","","","",""
"","","","","","html-keyboard-response","207","1533041","0.0-22.0","7f07e2d3-9e78-458f-b93e-0fbedbd173fd","null","<p style=""text-align: center;"">+</p>","null","fixation","","","","","","","","","","","","","","","","","","","","","","","","",""
"","","","","","html-keyboard-response","208","1536107","0.0-23.0","7f07e2d3-9e78-458f-b93e-0fbedbd173fd","null","<p>הפסקה.
          <br>לחצו כדי להמשיך.</p>","1","scan_wait","","","","","","","","","","","","","","","","","","","","","","","","",""
"","","","","","html-keyboard-response","209","1537110","0.0-24.0","7f07e2d3-9e78-458f-b93e-0fbedbd173fd","null","<p style=""text-align: center;"">+</p>","null","fixation","","","","","","","","","","","","","","","","","","","","","","","","",""
"","","","","","html-slider-response","210","1538117","0.0-25.0-0.0","7f07e2d3-9e78-458f-b93e-0fbedbd173fd","1000","
                  <p style=""text-align: center;"">₪11
                                                <br>75%</p>
                  <p id=""wtp"" style=""text-align:center; margin-top: 0px; margin-bottom: 0px; font-size: 40px"";>&ensp;</p>","-","viewing","0","7","6B,18B,22C,24C,29A","","","","","","","","","","","","","","","","","","","","","",""
"","","","","","html-slider-response","211","1539236","0.0-25.0-1.0","7f07e2d3-9e78-458f-b93e-0fbedbd173fd","1118","
                  <p style=""text-align: center;"">₪11
                                                <br>75%</p>
                  <p id=""wtp"" style=""text-align:center; margin-top: 0px; margin-bottom: 0px; font-size: 40px"";>מוכנים לשלם: <span id=""c_p_y""></span></p>","3","evaluation","9","7","6B,18B,22C,24C,29A","75","11","4","","","","","","","","","","","","","","","","","","",""
"","","","","","html-keyboard-response","212","1540412","0.0-25.0-2.0","7f07e2d3-9e78-458f-b93e-0fbedbd173fd","null","<p style=""text-align: center;"">+</p>","null","fixation","","","","","","","","","","","","","","","","","","","","","","","","",""
"","","","","","html-slider-response","213","1541415","0.0-25.0-0.1","7f07e2d3-9e78-458f-b93e-0fbedbd173fd","1000","
                  <p style=""text-align: center;"">₪64
                                                <br>50%</p>
                  <p id=""wtp"" style=""text-align:center; margin-top: 0px; margin-bottom: 0px; font-size: 40px"";>&ensp;</p>","-","viewing","0","25","1B,3B,4A","","","","","","","","","","","","","","","","","","","","","",""
"","","","","","html-slider-response","214","1542420","0.0-25.0-1.1","7f07e2d3-9e78-458f-b93e-0fbedbd173fd","1003","
                  <p style=""text-align: center;"">₪64
                                                <br>50%</p>
                  <p id=""wtp"" style=""text-align:center; margin-top: 0px; margin-bottom: 0px; font-size: 40px"";>מוכנים לשלם: <span id=""c_p_y""></span></p>","22","evaluation","77","25","1B,3B,4A","50","64","22","","","","","","","","","","","","","","","","","","",""
"","","","","","html-keyboard-response","215","1543088","0.0-25.0-2.1","7f07e2d3-9e78-458f-b93e-0fbedbd173fd","null","<p style=""text-align: center;"">+</p>","null","fixation","","","","","","","","","","","","","","","","","","","","","","","","",""
"","","","","","html-slider-response","216","1544092","0.0-25.0-0.2","7f07e2d3-9e78-458f-b93e-0fbedbd173fd","1000","
                  <p style=""text-align: center;"">₪58
                                                <br>40%</p>
                  <p id=""wtp"" style=""text-align:center; margin-top: 0px; margin-bottom: 0px; font-size: 40px"";>&ensp;</p>","-","viewing","0","20","10C,13A,19C,21B","","","","","","","","","","","","","","","","","","","","","",""
"","","","","","html-slider-response","217","1546172","0.0-25.0-1.2","7f07e2d3-9e78-458f-b93e-0fbedbd173fd","2079","
                  <p style=""text-align: center;"">₪58
                                                <br>40%</p>
                  <p id=""wtp"" style=""text-align:center; margin-top: 0px; margin-bottom: 0px; font-size: 40px"";>מוכנים לשלם: <span id=""c_p_y""></span></p>","16","evaluation","34","20","10C,13A,19C,21B","40","58","16","","","","","","","","","","","","","","","","","","",""
"","","","","","html-keyboard-response","218","1547514","0.0-25.0-2.2","7f07e2d3-9e78-458f-b93e-0fbedbd173fd","null","<p style=""text-align: center;"">+</p>","null","fixation","","","","","","","","","","","","","","","","","","","","","","","","",""
"","","","","","html-slider-response","219","1548517","0.0-25.0-0.3","7f07e2d3-9e78-458f-b93e-0fbedbd173fd","1000","
                  <p style=""text-align: center;"">₪36
                                                <br>70%</p>
                  <p id=""wtp"" style=""text-align:center; margin-top: 0px; margin-bottom: 0px; font-size: 40px"";>&ensp;</p>","-","viewing","0","13","3A,5C,10B","","","","","","","","","","","","","","","","","","","","","",""
"","","","","","html-slider-response","220","1550284","0.0-25.0-1.3","7f07e2d3-9e78-458f-b93e-0fbedbd173fd","1766","
                  <p style=""text-align: center;"">₪36
                                                <br>70%</p>
                  <p id=""wtp"" style=""text-align:center; margin-top: 0px; margin-bottom: 0px; font-size: 40px"";>מוכנים לשלם: <span id=""c_p_y""></span></p>","21","evaluation","20","13","3A,5C,10B","70","36","21","","","","","","","","","","","","","","","","","","",""
"","","","","","html-keyboard-response","221","1551524","0.0-25.0-2.3","7f07e2d3-9e78-458f-b93e-0fbedbd173fd","null","<p style=""text-align: center;"">+</p>","null","fixation","","","","","","","","","","","","","","","","","","","","","","","","",""
"","","","","","html-slider-response","222","1552541","0.0-25.0-0.4","7f07e2d3-9e78-458f-b93e-0fbedbd173fd","1000","
                  <p style=""text-align: center;"">₪16
                                                <br>20%</p>
                  <p id=""wtp"" style=""text-align:center; margin-top: 0px; margin-bottom: 0px; font-size: 40px"";>&ensp;</p>","-","viewing","0","8","14C,17A,20C,27A","","","","","","","","","","","","","","","","","","","","","",""
"","","","","","html-slider-response","223","1555636","0.0-25.0-1.4","7f07e2d3-9e78-458f-b93e-0fbedbd173fd","3094","
                  <p style=""text-align: center;"">₪16
                                                <br>20%</p>
                  <p id=""wtp"" style=""text-align:center; margin-top: 0px; margin-bottom: 0px; font-size: 40px"";>מוכנים לשלם: <span id=""c_p_y""></span></p>","6","evaluation","54","8","14C,17A,20C,27A","20","16","6","","","","","","","","","","","","","","","","","","",""
"","","","","","html-keyboard-response","224","1556630","0.0-25.0-2.4","7f07e2d3-9e78-458f-b93e-0fbedbd173fd","null","<p style=""text-align: center;"">+</p>","null","fixation","","","","","","","","","","","","","","","","","","","","","","","","",""
"","","","","","html-slider-response","225","1557646","0.0-25.0-0.5","7f07e2d3-9e78-458f-b93e-0fbedbd173fd","1000","
                  <p style=""text-align: center;"">₪39
                                                <br>60%</p>
                  <p id=""wtp"" style=""text-align:center; margin-top: 0px; margin-bottom: 0px; font-size: 40px"";>&ensp;</p>","-","viewing","0","15","9C,25B","","","","","","","","","","","","","","","","","","","","","",""
"","","","","","html-slider-response","226","1560556","0.0-25.0-1.5","7f07e2d3-9e78-458f-b93e-0fbedbd173fd","2908","
                  <p style=""text-align: center;"">₪39
                                                <br>60%</p>
                  <p id=""wtp"" style=""text-align:center; margin-top: 0px; margin-bottom: 0px; font-size: 40px"";>מוכנים לשלם: <span id=""c_p_y""></span></p>","15","evaluation","50","15","9C,25B","60","39","15","","","","","","","","","","","","","","","","","","",""
"","","","","","html-keyboard-response","227","1561395","0.0-25.0-2.5","7f07e2d3-9e78-458f-b93e-0fbedbd173fd","null","<p style=""text-align: center;"">+</p>","null","fixation","","","","","","","","","","","","","","","","","","","","","","","","",""
"","","","","","html-slider-response","228","1562397","0.0-25.0-0.6","7f07e2d3-9e78-458f-b93e-0fbedbd173fd","1000","
                  <p style=""text-align: center;"">₪43
                                                <br>75%</p>
                  <p id=""wtp"" style=""text-align:center; margin-top: 0px; margin-bottom: 0px; font-size: 40px"";>&ensp;</p>","-","viewing","0","18","11B,19B,24A,26A","","","","","","","","","","","","","","","","","","","","","",""
"","","","","","html-slider-response","229","1565917","0.0-25.0-1.6","7f07e2d3-9e78-458f-b93e-0fbedbd173fd","3525","
                  <p style=""text-align: center;"">₪43
                                                <br>75%</p>
                  <p id=""wtp"" style=""text-align:center; margin-top: 0px; margin-bottom: 0px; font-size: 40px"";>מוכנים לשלם: <span id=""c_p_y""></span></p>","22","evaluation","31","18","11B,19B,24A,26A","75","43","22","","","","","","","","","","","","","","","","","","",""
"","","","","","html-keyboard-response","230","1567225","0.0-25.0-2.6","7f07e2d3-9e78-458f-b93e-0fbedbd173fd","null","<p style=""text-align: center;"">+</p>","null","fixation","","","","","","","","","","","","","","","","","","","","","","","","",""
"","","","","","html-slider-response","231","1568234","0.0-25.0-0.7","7f07e2d3-9e78-458f-b93e-0fbedbd173fd","1000","
                  <p style=""text-align: center;"">₪79
                                                <br>40%</p>
                  <p id=""wtp"" style=""text-align:center; margin-top: 0px; margin-bottom: 0px; font-size: 40px"";>&ensp;</p>","-","viewing","0","30","9B","","","","","","","","","","","","","","","","","","","","","",""
"","","","","","html-slider-response","232","1572237","0.0-25.0-1.7","7f07e2d3-9e78-458f-b93e-0fbedbd173fd","null","
                  <p style=""text-align: center;"">₪79
                                                <br>40%</p>
                  <p id=""wtp"" style=""text-align:center; margin-top: 0px; margin-bottom: 0px; font-size: 40px"";>מוכנים לשלם: <span id=""c_p_y""></span></p>","null","evaluation","30","30","9B","40","79","31","","","","","","","","","","","","","","","","","","",""
"","","","","","html-keyboard-response","233","1572819","0.0-25.0-2.7","7f07e2d3-9e78-458f-b93e-0fbedbd173fd","null","<p style=""text-align: center;"">+</p>","null","fixation","","","","","","","","","","","","","","","","","","","","","","","","",""
"","","","","","html-slider-response","234","1573822","0.0-25.0-0.8","7f07e2d3-9e78-458f-b93e-0fbedbd173fd","1000","
                  <p style=""text-align: center;"">₪11
                                                <br>25%</p>
                  <p id=""wtp"" style=""text-align:center; margin-top: 0px; margin-bottom: 0px; font-size: 40px"";>&ensp;</p>","-","viewing","0","5","12A,27B,28B,30B","","","","","","","","","","","","","","","","","","","","","",""
"","","","","","html-slider-response","235","1574741","0.0-25.0-1.8","7f07e2d3-9e78-458f-b93e-0fbedbd173fd","918","
                  <p style=""text-align: center;"">₪11
                                                <br>25%</p>
                  <p id=""wtp"" style=""text-align:center; margin-top: 0px; margin-bottom: 0px; font-size: 40px"";>מוכנים לשלם: <span id=""c_p_y""></span></p>","3","evaluation","21","5","12A,27B,28B,30B","25","11","3","","","","","","","","","","","","","","","","","","",""
"","","","","","html-keyboard-response","236","1575771","0.0-25.0-2.8","7f07e2d3-9e78-458f-b93e-0fbedbd173fd","null","<p style=""text-align: center;"">+</p>","null","fixation","","","","","","","","","","","","","","","","","","","","","","","","",""
"","","","","","html-slider-response","237","1576787","0.0-25.0-0.9","7f07e2d3-9e78-458f-b93e-0fbedbd173fd","1000","
                  <p style=""text-align: center;"">₪76
                                                <br>65%</p>
                  <p id=""wtp"" style=""text-align:center; margin-top: 0px; margin-bottom: 0px; font-size: 40px"";>&ensp;</p>","-","viewing","0","29","8C,19A,24B","","","","","","","","","","","","","","","","","","","","","",""
"","","","","","html-slider-response","238","1578733","0.0-25.0-1.9","7f07e2d3-9e78-458f-b93e-0fbedbd173fd","1944","
                  <p style=""text-align: center;"">₪76
                                                <br>65%</p>
                  <p id=""wtp"" style=""text-align:center; margin-top: 0px; margin-bottom: 0px; font-size: 40px"";>מוכנים לשלם: <span id=""c_p_y""></span></p>","32","evaluation","57","29","8C,19A,24B","65","76","32","","","","","","","","","","","","","","","","","","",""
"","","","","","html-keyboard-response","239","1579760","0.0-25.0-2.9","7f07e2d3-9e78-458f-b93e-0fbedbd173fd","null","<p style=""text-align: center;"">+</p>","null","fixation","","","","","","","","","","","","","","","","","","","","","","","","",""
"","","","","","html-slider-response","240","1580763","0.0-25.0-0.10","7f07e2d3-9e78-458f-b93e-0fbedbd173fd","1000","
                  <p style=""text-align: center;"">₪39
                                                <br>65%</p>
                  <p id=""wtp"" style=""text-align:center; margin-top: 0px; margin-bottom: 0px; font-size: 40px"";>&ensp;</p>","-","viewing","0","16","1A,15A,26C","","","","","","","","","","","","","","","","","","","","","",""
"","","","","","html-slider-response","241","1583181","0.0-25.0-1.10","7f07e2d3-9e78-458f-b93e-0fbedbd173fd","2416","
                  <p style=""text-align: center;"">₪39
                                                <br>65%</p>
                  <p id=""wtp"" style=""text-align:center; margin-top: 0px; margin-bottom: 0px; font-size: 40px"";>מוכנים לשלם: <span id=""c_p_y""></span></p>","12","evaluation","15","16","1A,15A,26C","65","39","12","","","","","","","","","","","","","","","","","","",""
"","","","","","html-keyboard-response","242","1584684","0.0-25.0-2.10","7f07e2d3-9e78-458f-b93e-0fbedbd173fd","null","<p style=""text-align: center;"">+</p>","null","fixation","","","","","","","","","","","","","","","","","","","","","","","","",""
"","","","","","html-slider-response","243","1585685","0.0-25.0-0.11","7f07e2d3-9e78-458f-b93e-0fbedbd173fd","1000","
                  <p style=""text-align: center;"">₪71
                                                <br>55%</p>
                  <p id=""wtp"" style=""text-align:center; margin-top: 0px; margin-bottom: 0px; font-size: 40px"";>&ensp;</p>","-","viewing","0","27","5B,18A","","","","","","","","","","","","","","","","","","","","","",""
"","","","","","html-slider-response","244","1587437","0.0-25.0-1.11","7f07e2d3-9e78-458f-b93e-0fbedbd173fd","1751","
                  <p style=""text-align: center;"">₪71
                                                <br>55%</p>
                  <p id=""wtp"" style=""text-align:center; margin-top: 0px; margin-bottom: 0px; font-size: 40px"";>מוכנים לשלם: <span id=""c_p_y""></span></p>","31","evaluation","80","27","5B,18A","55","71","31","","","","","","","","","","","","","","","","","","",""
