"success","timeout","failed_images","failed_audio","failed_video","trial_type","trial_index","time_elapsed","internal_node_id","subject_id","rt","stimulus","response","part","slider_start","ID","set_ID","prob","amount","last_location","actual_choice","actual_EV","binary_id","trinary_id","catch","direction","A_key","S_key","D_key","choice_prob","choice_amount","potential_prize_prob","potential_prize_amount","won_prize","total_prize","remaining_budget","accuracy"
"true","false","[]","[]","[]","preload","0","18","0.0-0.0","aee18971-c24a-40ed-ad22-93779ab57973","","","","","","","","","","","","","","","","","","","","","","","","","","",""
"","","","","","html-keyboard-response","1","17492","0.0-1.0","aee18971-c24a-40ed-ad22-93779ab57973","null","
          <h1>שלום וברוכים הבאים!</h1>
          <p>לפניכם ניסוי בקבלת החלטות עם שני חלקים.
          <br><br>לחצו על העכבר כדי להמשיך.</p>","0","example","","","","","","","","","","","","","","","","","","","","","","",""
"","","","","","html-keyboard-response","2","26932","0.0-2.0","aee18971-c24a-40ed-ad22-93779ab57973","null","
        <h1>חלק 1</h1>
        <p>בקרוב יוצגו בפניכם הגרלות.
        <br>עליכם לבחור את המחיר המירבי שתהיו מוכנים לשלם כדי להשתתף בהגרלה שתוצג.
        <br>יש לכם תקציב של ₪80 לכל הגרלה. 
        <br>נסו להעריך כל הגרלה בנפרד ולחשוב כמה היא שווה עבורכם, ₪80 זמינים לכל הגרלה בנפרד.
        <br><br>לחצו על העכבר כדי להמשיך.</p>","1","instructions","","","","","","","","","","","","","","","","","","","","","","",""
"","","","","","html-keyboard-response","3","34948","0.0-3.0","aee18971-c24a-40ed-ad22-93779ab57973","null","
        <p>בסוף הניסוי, המחשב יבחר את אחת ההגרלות ויקבע מחיר לכרטיס עבורה. 
        <br>במידה והמחיר שבחרתם נמוך מהמחיר שנבחר על ידי המחשב, לא תשתתפו בהגרלה ותשארו עם מלוא התקציב.
        <br>במידה והמחיר שבחרתם גבוה מהמחיר שנבחר על ידי המחשב, תשלמו את המחיר שנקבע ותשתתפו בהגרלה.
        <br><br>לחצו על העכבר כדי להמשיך.</p>","1","instructions","","","","","","","","","","","","","","","","","","","","","","",""
"","","","","","html-slider-response","4","47332","0.0-4.0","aee18971-c24a-40ed-ad22-93779ab57973","12281","
        <p style=""font-size: 42px;"">נתחיל עם דוגמא: 
        <br>ההגרלה מטה מציעה 65% סיכוי לזכות ב-₪40 
        <br>&emsp;&emsp;&emsp;&emsp;&emsp;&emsp;&emsp;&emsp;&ensp;35% סיכוי לזכות ב-₪0.
        <br><br>מה המחיר המירבי שתהיו מוכנים לשלם על כרטיס להגרלה זו בין 0 ל-₪80?
        <br>הזיזו את העכבר על פני המלבן ולחצו כדי לבצע בחירה.</p>
        
        <p style=""text-align: center;"">₪40<br>65%</p>

        <p id=""wtp"" style=""text-align:center; margin-top: 0px; margin-bottom: 0px; font-size: 40px"";>מוכנים לשלם: <span id=""c_p_y""></span></p>","43","example","24","","","","","","","","","","","","","","","","","","","","","",""
"","","","","","html-keyboard-response","5","54980","0.0-5.0","aee18971-c24a-40ed-ad22-93779ab57973","null","<p>יפה מאוד!
                <br> בחרתם שתהיו מוכנים לשלם ₪43 כדי להשתתף בהגרלה:
                <br><p style=""text-align: center;"">₪40<br>65%</p>
                <p>נשמע נכון?
                <br>נניח שהגרלה זו נבחרה בסוף הניסוי.
                <br>כעת המחשב יקבע מחיר עבורה באקראי.
                <br>לחצו על העכבר להמשך.</p>","1","example","","","","","","","","","","","","","","","","","","","","","","",""
"","","","","","html-keyboard-response","6","59684","0.0-6.0","aee18971-c24a-40ed-ad22-93779ab57973","null","<p>המחשב קבע מחיר: ₪59
                <br>ואתם בחרתם לשלם לכל היותר: ₪43
                <br><br>מכיוון שהמחיר שבחרתם נמוך מהמחיר שנקבע, לא תתשתתפו בהגרלה.
                <br>במקרה כזה, בסוף הניסוי תקבלו את כל התקציב ההתחלתי של ₪80.
                <br><br>לחצו על העכבר להמשך.</p>","1","example","","","","","","","","","","","","","","","","","","","","","","",""
"","","","","","html-slider-response","7","66091","0.0-7.0","aee18971-c24a-40ed-ad22-93779ab57973","6155","<p style=""font-size: 42px;"">הנה עוד דוגמא:
                <br>ההגרלה מטה מציעה 35% סיכוי לזכות ב-₪18 
                <br>&emsp;&emsp;&emsp;&emsp;&emsp;&emsp;&emsp;&emsp;&ensp;65% סיכוי לזכות ב-₪0.</p>
        
                <p style=""text-align: center;"">₪18<br>35%</p>
                <p id=""wtp"" style=""text-align:center; margin-top: 0px; margin-bottom: 0px; font-size: 40px"";>מוכנים לשלם: <span id=""c_p_y""></span></p>","28","example","30","","","","","","","","","","","","","","","","","","","","","",""
"","","","","","html-keyboard-response","8","68179","0.0-8.0","aee18971-c24a-40ed-ad22-93779ab57973","null","<p>הייתם מוכנים לשלם  ₪28 כדי להשתתף בהגרלה:
                <p style=""text-align: center;"">₪18<br>35%</p>
                <p>כעת נניח שהמחשב בחר את ההגרלה הזו בסוף הניסוי, וקבע עבורה מחיר.
                <br><br>לחצו על העכבר כדי להמשיך.</p>","1","instructions","","","","","","","","","","","","","","","","","","","","","","",""
"","","","","","html-keyboard-response","9","80611","0.0-9.0","aee18971-c24a-40ed-ad22-93779ab57973","null","<p>המחשב קבע מחיר להגרלה: ₪5<br>ואתם בחרתם לשלם לכל היותר: ₪28
                <br><br>כעת המחיר שנקבע נמוך מזה שבחרתם, אז תשלמו את המחיר שקבע המחשב (₪5) ותשתתפו בהגרלה.
                <br>במקרה כזה, תסיימו את הניסוי עם תקציב של ₪75 ועם סיכוי לזכות ב-₪18 נוספים מההגרלה.
                <br>כלומר, תוכלו לקבל ₪75 אם לא תזכו בהגרלה, או ₪93 אם תזכו בהגרלה.
                <br><br>לחצו על העכבר להמשך.</p>","1","example","","","","","","","","","","","","","","","","","","","","","","",""
"","","","","","html-keyboard-response","10","85499","0.0-10.0","aee18971-c24a-40ed-ad22-93779ab57973","null","<p>במהלך הניסוי, קודם תראו את ההגרלה ורק לאחר מכן תוכלו לבחור.
                <p>כמו כן, יהיו לכם מספר שניות מוגבל להגיב.
                <p>בואו ננסה זאת עם ההגרלה הקודמת.
                <br>לחצו על העכבר כדי להמשיך.</p>","1","instructions","","","","","","","","","","","","","","","","","","","","","","",""
"","","","","","html-slider-response","11","86759","0.0-11.0","aee18971-c24a-40ed-ad22-93779ab57973","1000","
                    <p style=""text-align: center;"">₪18<br>35%</p>
                    <p id=""wtp"" style=""text-align:center; margin-top: 0px; margin-bottom: 0px; font-size: 40px"";>&ensp;</p>","54","instructions","0","","","","","","","","","","","","","","","","","","","","","",""
"","","","","","html-slider-response","12","90388","0.0-12.0","aee18971-c24a-40ed-ad22-93779ab57973","3371","
                    <p style=""text-align: center;"">₪18<br>35%</p>
                    <p id=""wtp"" style=""text-align:center; margin-top: 0px; margin-bottom: 0px; font-size: 40px"";>מוכנים לשלם: <span id=""c_p_y""></span></p>","26","instructions","3","","","","","","","","","","","","","","","","","","","","","",""
"","","","","","html-keyboard-response","13","92443","0.0-13.0","aee18971-c24a-40ed-ad22-93779ab57973","null","<p>יפה. הפעם בחרתם לשלם לכל היותר ₪26.
                <br><br>לחצו על העכבר כדי להמשיך.</p>","1","instructions","","","","","","","","","","","","","","","","","","","","","","",""
"","","","","","html-keyboard-response","14","97291","0.0-15.0","aee18971-c24a-40ed-ad22-93779ab57973","null","<p>כעת נתחיל את הניסוי.
                <br><br>אתם תראו הגרלות ותתבקשו לבחור כמה תהיו מוכנים לשלם כדי להשתתף בהן.
                <br>יש לכם תקציב של ₪80 עבור כל הגרלה.
                <br>בסוף הניסוי הגרלה אחת תבחר באקראי ותשוחק.
                <br><br>לחצו על העכבר כדי להתחיל את הניסוי.</p>","1","instructions","","","","","","","","","","","","","","","","","","","","","","",""
"","","","","","html-keyboard-response","15","98549","0.0-16.0","aee18971-c24a-40ed-ad22-93779ab57973","null","<p style=""text-align: center;"">+</p>","null","fixation","","","","","","","","","","","","","","","","","","","","","","",""
"","","","","","html-slider-response","16","99566","0.0-17.0-0.0","aee18971-c24a-40ed-ad22-93779ab57973","1000","
                  <p style=""text-align: center;"">₪39
                                                <br>65%</p>
                  <p id=""wtp"" style=""text-align:center; margin-top: 0px; margin-bottom: 0px; font-size: 40px"";>&ensp;</p>","-","viewing","0","16","1A,15A,26C","","","","","","","","","","","","","","","","","","","",""
"","","","","","html-slider-response","17","102916","0.0-17.0-1.0","aee18971-c24a-40ed-ad22-93779ab57973","3348","
                  <p style=""text-align: center;"">₪39
                                                <br>65%</p>
                  <p id=""wtp"" style=""text-align:center; margin-top: 0px; margin-bottom: 0px; font-size: 40px"";>מוכנים לשלם: <span id=""c_p_y""></span></p>","45","evaluation","79","16","1A,15A,26C","65","39","45","","","","","","","","","","","","","","","","",""
"","","","","","html-keyboard-response","18","103517","0.0-17.0-2.0","aee18971-c24a-40ed-ad22-93779ab57973","null","<p style=""text-align: center;"">+</p>","null","fixation","","","","","","","","","","","","","","","","","","","","","","",""
"","","","","","html-slider-response","19","104520","0.0-17.0-0.1","aee18971-c24a-40ed-ad22-93779ab57973","1000","
                  <p style=""text-align: center;"">₪64
                                                <br>25%</p>
                  <p id=""wtp"" style=""text-align:center; margin-top: 0px; margin-bottom: 0px; font-size: 40px"";>&ensp;</p>","-","viewing","0","24","6A,21A","","","","","","","","","","","","","","","","","","","",""
"","","","","","html-slider-response","20","108529","0.0-17.0-1.1","aee18971-c24a-40ed-ad22-93779ab57973","null","
                  <p style=""text-align: center;"">₪64
                                                <br>25%</p>
                  <p id=""wtp"" style=""text-align:center; margin-top: 0px; margin-bottom: 0px; font-size: 40px"";>מוכנים לשלם: <span id=""c_p_y""></span></p>","null","evaluation","0","24","6A,21A","25","64","61","","","","","","","","","","","","","","","","",""
"","","","","","html-keyboard-response","21","109660","0.0-17.0-2.1","aee18971-c24a-40ed-ad22-93779ab57973","null","<p style=""text-align: center;"">+</p>","null","fixation","","","","","","","","","","","","","","","","","","","","","","",""
"","","","","","html-slider-response","22","110668","0.0-17.0-0.2","aee18971-c24a-40ed-ad22-93779ab57973","1000","
                  <p style=""text-align: center;"">₪79
                                                <br>65%</p>
                  <p id=""wtp"" style=""text-align:center; margin-top: 0px; margin-bottom: 0px; font-size: 40px"";>&ensp;</p>","-","viewing","0","31","8A","","","","","","","","","","","","","","","","","","","",""
"","","","","","html-slider-response","23","113619","0.0-17.0-1.2","aee18971-c24a-40ed-ad22-93779ab57973","2950","
                  <p style=""text-align: center;"">₪79
                                                <br>65%</p>
                  <p id=""wtp"" style=""text-align:center; margin-top: 0px; margin-bottom: 0px; font-size: 40px"";>מוכנים לשלם: <span id=""c_p_y""></span></p>","74","evaluation","39","31","8A","65","79","74","","","","","","","","","","","","","","","","",""
"","","","","","html-keyboard-response","24","114677","0.0-17.0-2.2","aee18971-c24a-40ed-ad22-93779ab57973","null","<p style=""text-align: center;"">+</p>","null","fixation","","","","","","","","","","","","","","","","","","","","","","",""
"","","","","","html-slider-response","25","115685","0.0-17.0-0.3","aee18971-c24a-40ed-ad22-93779ab57973","1000","
                  <p style=""text-align: center;"">₪4
                                                <br>25%</p>
                  <p id=""wtp"" style=""text-align:center; margin-top: 0px; margin-bottom: 0px; font-size: 40px"";>&ensp;</p>","-","viewing","0","1","6C,29B,30C","","","","","","","","","","","","","","","","","","","",""
"","","","","","html-slider-response","26","117075","0.0-17.0-1.3","aee18971-c24a-40ed-ad22-93779ab57973","1389","
                  <p style=""text-align: center;"">₪4
                                                <br>25%</p>
                  <p id=""wtp"" style=""text-align:center; margin-top: 0px; margin-bottom: 0px; font-size: 40px"";>מוכנים לשלם: <span id=""c_p_y""></span></p>","0","evaluation","34","1","6C,29B,30C","25","4","0","","","","","","","","","","","","","","","","",""
"","","","","","html-keyboard-response","27","117989","0.0-17.0-2.3","aee18971-c24a-40ed-ad22-93779ab57973","null","<p style=""text-align: center;"">+</p>","null","fixation","","","","","","","","","","","","","","","","","","","","","","",""
"","","","","","html-slider-response","28","118992","0.0-17.0-0.4","aee18971-c24a-40ed-ad22-93779ab57973","1000","
                  <p style=""text-align: center;"">₪79
                                                <br>40%</p>
                  <p id=""wtp"" style=""text-align:center; margin-top: 0px; margin-bottom: 0px; font-size: 40px"";>&ensp;</p>","-","viewing","0","30","9B","","","","","","","","","","","","","","","","","","","",""
"","","","","","html-slider-response","29","121891","0.0-17.0-1.4","aee18971-c24a-40ed-ad22-93779ab57973","2898","
                  <p style=""text-align: center;"">₪79
                                                <br>40%</p>
                  <p id=""wtp"" style=""text-align:center; margin-top: 0px; margin-bottom: 0px; font-size: 40px"";>מוכנים לשלם: <span id=""c_p_y""></span></p>","76","evaluation","45","30","9B","40","79","76","","","","","","","","","","","","","","","","",""
"","","","","","html-keyboard-response","30","122556","0.0-17.0-2.4","aee18971-c24a-40ed-ad22-93779ab57973","null","<p style=""text-align: center;"">+</p>","null","fixation","","","","","","","","","","","","","","","","","","","","","","",""
"","","","","","html-slider-response","31","123565","0.0-17.0-0.5","aee18971-c24a-40ed-ad22-93779ab57973","1000","
                  <p style=""text-align: center;"">₪36
                                                <br>75%</p>
                  <p id=""wtp"" style=""text-align:center; margin-top: 0px; margin-bottom: 0px; font-size: 40px"";>&ensp;</p>","-","viewing","0","14","4B,5A,13B,16B","","","","","","","","","","","","","","","","","","","",""
"","","","","","html-slider-response","32","126675","0.0-17.0-1.5","aee18971-c24a-40ed-ad22-93779ab57973","3108","
                  <p style=""text-align: center;"">₪36
                                                <br>75%</p>
                  <p id=""wtp"" style=""text-align:center; margin-top: 0px; margin-bottom: 0px; font-size: 40px"";>מוכנים לשלם: <span id=""c_p_y""></span></p>","60","evaluation","43","14","4B,5A,13B,16B","75","36","60","","","","","","","","","","","","","","","","",""
"","","","","","html-keyboard-response","33","127796","0.0-17.0-2.5","aee18971-c24a-40ed-ad22-93779ab57973","null","<p style=""text-align: center;"">+</p>","null","fixation","","","","","","","","","","","","","","","","","","","","","","",""
"","","","","","html-slider-response","34","128799","0.0-17.0-0.6","aee18971-c24a-40ed-ad22-93779ab57973","1000","
                  <p style=""text-align: center;"">₪58
                                                <br>30%</p>
                  <p id=""wtp"" style=""text-align:center; margin-top: 0px; margin-bottom: 0px; font-size: 40px"";>&ensp;</p>","-","viewing","0","19","13C,30A","","","","","","","","","","","","","","","","","","","",""
"","","","","","html-slider-response","35","131499","0.0-17.0-1.6","aee18971-c24a-40ed-ad22-93779ab57973","2700","
                  <p style=""text-align: center;"">₪58
                                                <br>30%</p>
                  <p id=""wtp"" style=""text-align:center; margin-top: 0px; margin-bottom: 0px; font-size: 40px"";>מוכנים לשלם: <span id=""c_p_y""></span></p>","46","evaluation","23","19","13C,30A","30","58","46","","","","","","","","","","","","","","","","",""
"","","","","","html-keyboard-response","36","132831","0.0-17.0-2.6","aee18971-c24a-40ed-ad22-93779ab57973","null","<p style=""text-align: center;"">+</p>","null","fixation","","","","","","","","","","","","","","","","","","","","","","",""
"","","","","","html-slider-response","37","133836","0.0-17.0-0.7","aee18971-c24a-40ed-ad22-93779ab57973","1000","
                  <p style=""text-align: center;"">₪4
                                                <br>50%</p>
                  <p id=""wtp"" style=""text-align:center; margin-top: 0px; margin-bottom: 0px; font-size: 40px"";>&ensp;</p>","-","viewing","0","2","4C,17B","","","","","","","","","","","","","","","","","","","",""
"","","","","","html-slider-response","38","136052","0.0-17.0-1.7","aee18971-c24a-40ed-ad22-93779ab57973","2214","
                  <p style=""text-align: center;"">₪4
                                                <br>50%</p>
                  <p id=""wtp"" style=""text-align:center; margin-top: 0px; margin-bottom: 0px; font-size: 40px"";>מוכנים לשלם: <span id=""c_p_y""></span></p>","21","evaluation","55","2","4C,17B","50","4","21","","","","","","","","","","","","","","","","",""
"","","","","","html-keyboard-response","39","136948","0.0-17.0-2.7","aee18971-c24a-40ed-ad22-93779ab57973","null","<p style=""text-align: center;"">+</p>","null","fixation","","","","","","","","","","","","","","","","","","","","","","",""
"","","","","","html-slider-response","40","137950","0.0-17.0-0.8","aee18971-c24a-40ed-ad22-93779ab57973","1000","
                  <p style=""text-align: center;"">₪71
                                                <br>75%</p>
                  <p id=""wtp"" style=""text-align:center; margin-top: 0px; margin-bottom: 0px; font-size: 40px"";>&ensp;</p>","-","viewing","0","28","8B","","","","","","","","","","","","","","","","","","","",""
"","","","","","html-slider-response","41","141963","0.0-17.0-1.8","aee18971-c24a-40ed-ad22-93779ab57973","null","
                  <p style=""text-align: center;"">₪71
                                                <br>75%</p>
                  <p id=""wtp"" style=""text-align:center; margin-top: 0px; margin-bottom: 0px; font-size: 40px"";>מוכנים לשלם: <span id=""c_p_y""></span></p>","null","evaluation","29","28","8B","75","71","72","","","","","","","","","","","","","","","","",""
"","","","","","html-keyboard-response","42","142864","0.0-17.0-2.8","aee18971-c24a-40ed-ad22-93779ab57973","null","<p style=""text-align: center;"">+</p>","null","fixation","","","","","","","","","","","","","","","","","","","","","","",""
"","","","","","html-slider-response","43","143869","0.0-17.0-0.9","aee18971-c24a-40ed-ad22-93779ab57973","1000","
                  <p style=""text-align: center;"">₪71
                                                <br>45%</p>
                  <p id=""wtp"" style=""text-align:center; margin-top: 0px; margin-bottom: 0px; font-size: 40px"";>&ensp;</p>","-","viewing","0","26","2B,16A","","","","","","","","","","","","","","","","","","","",""
"","","","","","html-slider-response","44","145579","0.0-17.0-1.9","aee18971-c24a-40ed-ad22-93779ab57973","1708","
                  <p style=""text-align: center;"">₪71
                                                <br>45%</p>
                  <p id=""wtp"" style=""text-align:center; margin-top: 0px; margin-bottom: 0px; font-size: 40px"";>מוכנים לשלם: <span id=""c_p_y""></span></p>","69","evaluation","53","26","2B,16A","45","71","69","","","","","","","","","","","","","","","","",""
"","","","","","html-keyboard-response","45","146312","0.0-17.0-2.9","aee18971-c24a-40ed-ad22-93779ab57973","null","<p style=""text-align: center;"">+</p>","null","fixation","","","","","","","","","","","","","","","","","","","","","","",""
"","","","","","html-slider-response","46","147315","0.0-17.0-0.10","aee18971-c24a-40ed-ad22-93779ab57973","1000","
                  <p style=""text-align: center;"">₪76
                                                <br>65%</p>
                  <p id=""wtp"" style=""text-align:center; margin-top: 0px; margin-bottom: 0px; font-size: 40px"";>&ensp;</p>","-","viewing","0","29","8C,19A,24B","","","","","","","","","","","","","","","","","","","",""
"","","","","","html-slider-response","47","148539","0.0-17.0-1.10","aee18971-c24a-40ed-ad22-93779ab57973","1223","
                  <p style=""text-align: center;"">₪76
                                                <br>65%</p>
                  <p id=""wtp"" style=""text-align:center; margin-top: 0px; margin-bottom: 0px; font-size: 40px"";>מוכנים לשלם: <span id=""c_p_y""></span></p>","80","evaluation","4","29","8C,19A,24B","65","76","80","","","","","","","","","","","","","","","","",""
"","","","","","html-keyboard-response","48","149872","0.0-17.0-2.10","aee18971-c24a-40ed-ad22-93779ab57973","null","<p style=""text-align: center;"">+</p>","null","fixation","","","","","","","","","","","","","","","","","","","","","","",""
"","","","","","html-slider-response","49","150882","0.0-17.0-0.11","aee18971-c24a-40ed-ad22-93779ab57973","1000","
                  <p style=""text-align: center;"">₪16
                                                <br>20%</p>
                  <p id=""wtp"" style=""text-align:center; margin-top: 0px; margin-bottom: 0px; font-size: 40px"";>&ensp;</p>","-","viewing","0","8","14C,17A,20C,27A","","","","","","","","","","","","","","","","","","","",""
"","","","","","html-slider-response","50","151627","0.0-17.0-1.11","aee18971-c24a-40ed-ad22-93779ab57973","744","
                  <p style=""text-align: center;"">₪16
                                                <br>20%</p>
                  <p id=""wtp"" style=""text-align:center; margin-top: 0px; margin-bottom: 0px; font-size: 40px"";>מוכנים לשלם: <span id=""c_p_y""></span></p>","19","evaluation","68","8","14C,17A,20C,27A","20","16","19","","","","","","","","","","","","","","","","",""
"","","","","","html-keyboard-response","51","152245","0.0-17.0-2.11","aee18971-c24a-40ed-ad22-93779ab57973","null","<p style=""text-align: center;"">+</p>","null","fixation","","","","","","","","","","","","","","","","","","","","","","",""
"","","","","","html-slider-response","52","153260","0.0-17.0-0.12","aee18971-c24a-40ed-ad22-93779ab57973","1000","
                  <p style=""text-align: center;"">₪61
                                                <br>45%</p>
                  <p id=""wtp"" style=""text-align:center; margin-top: 0px; margin-bottom: 0px; font-size: 40px"";>&ensp;</p>","-","viewing","0","22","10A,11A","","","","","","","","","","","","","","","","","","","",""
"","","","","","html-slider-response","53","154427","0.0-17.0-1.12","aee18971-c24a-40ed-ad22-93779ab57973","1167","
                  <p style=""text-align: center;"">₪61
                                                <br>45%</p>
                  <p id=""wtp"" style=""text-align:center; margin-top: 0px; margin-bottom: 0px; font-size: 40px"";>מוכנים לשלם: <span id=""c_p_y""></span></p>","42","evaluation","74","22","10A,11A","45","61","42","","","","","","","","","","","","","","","","",""
"","","","","","html-keyboard-response","54","155310","0.0-17.0-2.12","aee18971-c24a-40ed-ad22-93779ab57973","null","<p style=""text-align: center;"">+</p>","null","fixation","","","","","","","","","","","","","","","","","","","","","","",""
"","","","","","html-slider-response","55","156316","0.0-17.0-0.13","aee18971-c24a-40ed-ad22-93779ab57973","1000","
                  <p style=""text-align: center;"">₪71
                                                <br>55%</p>
                  <p id=""wtp"" style=""text-align:center; margin-top: 0px; margin-bottom: 0px; font-size: 40px"";>&ensp;</p>","-","viewing","0","27","5B,18A","","","","","","","","","","","","","","","","","","","",""
"","","","","","html-slider-response","56","157531","0.0-17.0-1.13","aee18971-c24a-40ed-ad22-93779ab57973","1214","
                  <p style=""text-align: center;"">₪71
                                                <br>55%</p>
                  <p id=""wtp"" style=""text-align:center; margin-top: 0px; margin-bottom: 0px; font-size: 40px"";>מוכנים לשלם: <span id=""c_p_y""></span></p>","56","evaluation","3","27","5B,18A","55","71","56","","","","","","","","","","","","","","","","",""
"","","","","","html-keyboard-response","57","159032","0.0-17.0-2.13","aee18971-c24a-40ed-ad22-93779ab57973","null","<p style=""text-align: center;"">+</p>","null","fixation","","","","","","","","","","","","","","","","","","","","","","",""
"","","","","","html-slider-response","58","160035","0.0-17.0-0.14","aee18971-c24a-40ed-ad22-93779ab57973","1000","
                  <p style=""text-align: center;"">₪11
                                                <br>45%</p>
                  <p id=""wtp"" style=""text-align:center; margin-top: 0px; margin-bottom: 0px; font-size: 40px"";>&ensp;</p>","-","viewing","0","6","14B,21C,25C","","","","","","","","","","","","","","","","","","","",""
"","","","","","html-slider-response","59","163171","0.0-17.0-1.14","aee18971-c24a-40ed-ad22-93779ab57973","3135","
                  <p style=""text-align: center;"">₪11
                                                <br>45%</p>
                  <p id=""wtp"" style=""text-align:center; margin-top: 0px; margin-bottom: 0px; font-size: 40px"";>מוכנים לשלם: <span id=""c_p_y""></span></p>","28","evaluation","62","6","14B,21C,25C","45","11","28","","","","","","","","","","","","","","","","",""
"","","","","","html-keyboard-response","60","164513","0.0-17.0-2.14","aee18971-c24a-40ed-ad22-93779ab57973","null","<p style=""text-align: center;"">+</p>","null","fixation","","","","","","","","","","","","","","","","","","","","","","",""
"","","","","","html-slider-response","61","165524","0.0-17.0-0.15","aee18971-c24a-40ed-ad22-93779ab57973","1000","
                  <p style=""text-align: center;"">₪36
                                                <br>30%</p>
                  <p id=""wtp"" style=""text-align:center; margin-top: 0px; margin-bottom: 0px; font-size: 40px"";>&ensp;</p>","-","viewing","0","11","3C,20A,22A","","","","","","","","","","","","","","","","","","","",""
"","","","","","html-slider-response","62","167723","0.0-17.0-1.15","aee18971-c24a-40ed-ad22-93779ab57973","2198","
                  <p style=""text-align: center;"">₪36
                                                <br>30%</p>
                  <p id=""wtp"" style=""text-align:center; margin-top: 0px; margin-bottom: 0px; font-size: 40px"";>מוכנים לשלם: <span id=""c_p_y""></span></p>","55","evaluation","71","11","3C,20A,22A","30","36","55","","","","","","","","","","","","","","","","",""
"","","","","","html-keyboard-response","63","168608","0.0-17.0-2.15","aee18971-c24a-40ed-ad22-93779ab57973","null","<p style=""text-align: center;"">+</p>","null","fixation","","","","","","","","","","","","","","","","","","","","","","",""
"","","","","","html-slider-response","64","169621","0.0-17.0-0.16","aee18971-c24a-40ed-ad22-93779ab57973","1000","
                  <p style=""text-align: center;"">₪58
                                                <br>40%</p>
                  <p id=""wtp"" style=""text-align:center; margin-top: 0px; margin-bottom: 0px; font-size: 40px"";>&ensp;</p>","-","viewing","0","20","10C,13A,19C,21B","","","","","","","","","","","","","","","","","","","",""
"","","","","","html-slider-response","65","170555","0.0-17.0-1.16","aee18971-c24a-40ed-ad22-93779ab57973","933","
                  <p style=""text-align: center;"">₪58
                                                <br>40%</p>
                  <p id=""wtp"" style=""text-align:center; margin-top: 0px; margin-bottom: 0px; font-size: 40px"";>מוכנים לשלם: <span id=""c_p_y""></span></p>","80","evaluation","38","20","10C,13A,19C,21B","40","58","80","","","","","","","","","","","","","","","","",""
"","","","","","html-keyboard-response","66","171277","0.0-17.0-2.16","aee18971-c24a-40ed-ad22-93779ab57973","null","<p style=""text-align: center;"">+</p>","null","fixation","","","","","","","","","","","","","","","","","","","","","","",""
"","","","","","html-slider-response","67","172284","0.0-17.0-0.17","aee18971-c24a-40ed-ad22-93779ab57973","1000","
                  <p style=""text-align: center;"">₪36
                                                <br>70%</p>
                  <p id=""wtp"" style=""text-align:center; margin-top: 0px; margin-bottom: 0px; font-size: 40px"";>&ensp;</p>","-","viewing","0","13","3A,5C,10B","","","","","","","","","","","","","","","","","","","",""
"","","","","","html-slider-response","68","174155","0.0-17.0-1.17","aee18971-c24a-40ed-ad22-93779ab57973","1870","
                  <p style=""text-align: center;"">₪36
                                                <br>70%</p>
                  <p id=""wtp"" style=""text-align:center; margin-top: 0px; margin-bottom: 0px; font-size: 40px"";>מוכנים לשלם: <span id=""c_p_y""></span></p>","75","evaluation","11","13","3A,5C,10B","70","36","75","","","","","","","","","","","","","","","","",""
"","","","","","html-keyboard-response","69","175266","0.0-17.0-2.17","aee18971-c24a-40ed-ad22-93779ab57973","null","<p style=""text-align: center;"">+</p>","null","fixation","","","","","","","","","","","","","","","","","","","","","","",""
"","","","","","html-slider-response","70","176275","0.0-17.0-0.18","aee18971-c24a-40ed-ad22-93779ab57973","1000","
                  <p style=""text-align: center;"">₪58
                                                <br>45%</p>
                  <p id=""wtp"" style=""text-align:center; margin-top: 0px; margin-bottom: 0px; font-size: 40px"";>&ensp;</p>","-","viewing","0","21","11C,18C,25A","","","","","","","","","","","","","","","","","","","",""
"","","","","","html-slider-response","71","177923","0.0-17.0-1.18","aee18971-c24a-40ed-ad22-93779ab57973","1647","
                  <p style=""text-align: center;"">₪58
                                                <br>45%</p>
                  <p id=""wtp"" style=""text-align:center; margin-top: 0px; margin-bottom: 0px; font-size: 40px"";>מוכנים לשלם: <span id=""c_p_y""></span></p>","71","evaluation","28","21","11C,18C,25A","45","58","71","","","","","","","","","","","","","","","","",""
"","","","","","html-keyboard-response","72","179353","0.0-17.0-2.18","aee18971-c24a-40ed-ad22-93779ab57973","null","<p style=""text-align: center;"">+</p>","null","fixation","","","","","","","","","","","","","","","","","","","","","","",""
"","","","","","html-slider-response","73","180359","0.0-17.0-0.19","aee18971-c24a-40ed-ad22-93779ab57973","1000","
                  <p style=""text-align: center;"">₪11
                                                <br>75%</p>
                  <p id=""wtp"" style=""text-align:center; margin-top: 0px; margin-bottom: 0px; font-size: 40px"";>&ensp;</p>","-","viewing","0","7","6B,18B,22C,24C,29A","","","","","","","","","","","","","","","","","","","",""
"","","","","","html-slider-response","74","182603","0.0-17.0-1.19","aee18971-c24a-40ed-ad22-93779ab57973","2243","
                  <p style=""text-align: center;"">₪11
                                                <br>75%</p>
                  <p id=""wtp"" style=""text-align:center; margin-top: 0px; margin-bottom: 0px; font-size: 40px"";>מוכנים לשלם: <span id=""c_p_y""></span></p>","48","evaluation","10","7","6B,18B,22C,24C,29A","75","11","48","","","","","","","","","","","","","","","","",""
"","","","","","html-keyboard-response","75","183809","0.0-17.0-2.19","aee18971-c24a-40ed-ad22-93779ab57973","null","<p style=""text-align: center;"">+</p>","null","fixation","","","","","","","","","","","","","","","","","","","","","","",""
"","","","","","html-slider-response","76","184815","0.0-17.0-0.20","aee18971-c24a-40ed-ad22-93779ab57973","1000","
                  <p style=""text-align: center;"">₪39
                                                <br>60%</p>
                  <p id=""wtp"" style=""text-align:center; margin-top: 0px; margin-bottom: 0px; font-size: 40px"";>&ensp;</p>","-","viewing","0","15","9C,25B","","","","","","","","","","","","","","","","","","","",""
"","","","","","html-slider-response","77","186628","0.0-17.0-1.20","aee18971-c24a-40ed-ad22-93779ab57973","1811","
                  <p style=""text-align: center;"">₪39
                                                <br>60%</p>
                  <p id=""wtp"" style=""text-align:center; margin-top: 0px; margin-bottom: 0px; font-size: 40px"";>מוכנים לשלם: <span id=""c_p_y""></span></p>","79","evaluation","56","15","9C,25B","60","39","79","","","","","","","","","","","","","","","","",""
"","","","","","html-keyboard-response","78","187865","0.0-17.0-2.20","aee18971-c24a-40ed-ad22-93779ab57973","null","<p style=""text-align: center;"">+</p>","null","fixation","","","","","","","","","","","","","","","","","","","","","","",""
"","","","","","html-slider-response","79","188878","0.0-17.0-0.21","aee18971-c24a-40ed-ad22-93779ab57973","1000","
                  <p style=""text-align: center;"">₪11
                                                <br>20%</p>
                  <p id=""wtp"" style=""text-align:center; margin-top: 0px; margin-bottom: 0px; font-size: 40px"";>&ensp;</p>","-","viewing","0","4","12C,17C,23C,28C","","","","","","","","","","","","","","","","","","","",""
"","","","","","html-slider-response","80","189572","0.0-17.0-1.21","aee18971-c24a-40ed-ad22-93779ab57973","692","
                  <p style=""text-align: center;"">₪11
                                                <br>20%</p>
                  <p id=""wtp"" style=""text-align:center; margin-top: 0px; margin-bottom: 0px; font-size: 40px"";>מוכנים לשלם: <span id=""c_p_y""></span></p>","25","evaluation","22","4","12C,17C,23C,28C","20","11","25","","","","","","","","","","","","","","","","",""
"","","","","","html-keyboard-response","81","190159","0.0-17.0-2.21","aee18971-c24a-40ed-ad22-93779ab57973","null","<p style=""text-align: center;"">+</p>","null","fixation","","","","","","","","","","","","","","","","","","","","","","",""
"","","","","","html-slider-response","82","191171","0.0-17.0-0.22","aee18971-c24a-40ed-ad22-93779ab57973","1000","
                  <p style=""text-align: center;"">₪61
                                                <br>55%</p>
                  <p id=""wtp"" style=""text-align:center; margin-top: 0px; margin-bottom: 0px; font-size: 40px"";>&ensp;</p>","-","viewing","0","23","7B,26B","","","","","","","","","","","","","","","","","","","",""
"","","","","","html-slider-response","83","193004","0.0-17.0-1.22","aee18971-c24a-40ed-ad22-93779ab57973","1832","
                  <p style=""text-align: center;"">₪61
                                                <br>55%</p>
                  <p id=""wtp"" style=""text-align:center; margin-top: 0px; margin-bottom: 0px; font-size: 40px"";>מוכנים לשלם: <span id=""c_p_y""></span></p>","77","evaluation","27","23","7B,26B","55","61","77","","","","","","","","","","","","","","","","",""
"","","","","","html-keyboard-response","84","193958","0.0-17.0-2.22","aee18971-c24a-40ed-ad22-93779ab57973","null","<p style=""text-align: center;"">+</p>","null","fixation","","","","","","","","","","","","","","","","","","","","","","",""
"","","","","","html-slider-response","85","194961","0.0-17.0-0.23","aee18971-c24a-40ed-ad22-93779ab57973","1000","
                  <p style=""text-align: center;"">₪11
                                                <br>25%</p>
                  <p id=""wtp"" style=""text-align:center; margin-top: 0px; margin-bottom: 0px; font-size: 40px"";>&ensp;</p>","-","viewing","0","5","12A,27B,28B,30B","","","","","","","","","","","","","","","","","","","",""
"","","","","","html-slider-response","86","195724","0.0-17.0-1.23","aee18971-c24a-40ed-ad22-93779ab57973","762","
                  <p style=""text-align: center;"">₪11
                                                <br>25%</p>
                  <p id=""wtp"" style=""text-align:center; margin-top: 0px; margin-bottom: 0px; font-size: 40px"";>מוכנים לשלם: <span id=""c_p_y""></span></p>","14","evaluation","48","5","12A,27B,28B,30B","25","11","14","","","","","","","","","","","","","","","","",""
"","","","","","html-keyboard-response","87","196387","0.0-17.0-2.23","aee18971-c24a-40ed-ad22-93779ab57973","null","<p style=""text-align: center;"">+</p>","null","fixation","","","","","","","","","","","","","","","","","","","","","","",""
"","","","","","html-slider-response","88","197388","0.0-17.0-0.24","aee18971-c24a-40ed-ad22-93779ab57973","1000","
                  <p style=""text-align: center;"">₪18
                                                <br>25%</p>
                  <p id=""wtp"" style=""text-align:center; margin-top: 0px; margin-bottom: 0px; font-size: 40px"";>&ensp;</p>","-","viewing","0","9","14A,23A","","","","","","","","","","","","","","","","","","","",""
"","","","","","html-slider-response","89","197915","0.0-17.0-1.24","aee18971-c24a-40ed-ad22-93779ab57973","526","
                  <p style=""text-align: center;"">₪18
                                                <br>25%</p>
                  <p id=""wtp"" style=""text-align:center; margin-top: 0px; margin-bottom: 0px; font-size: 40px"";>מוכנים לשלם: <span id=""c_p_y""></span></p>","49","evaluation","10","9","14A,23A","25","18","49","","","","","","","","","","","","","","","","",""
"","","","","","html-keyboard-response","90","199261","0.0-17.0-2.24","aee18971-c24a-40ed-ad22-93779ab57973","null","<p style=""text-align: center;"">+</p>","null","fixation","","","","","","","","","","","","","","","","","","","","","","",""
"","","","","","html-slider-response","91","200277","0.0-17.0-0.25","aee18971-c24a-40ed-ad22-93779ab57973","1000","
                  <p style=""text-align: center;"">₪64
                                                <br>50%</p>
                  <p id=""wtp"" style=""text-align:center; margin-top: 0px; margin-bottom: 0px; font-size: 40px"";>&ensp;</p>","-","viewing","0","25","1B,3B,4A","","","","","","","","","","","","","","","","","","","",""
"","","","","","html-slider-response","92","201612","0.0-17.0-1.25","aee18971-c24a-40ed-ad22-93779ab57973","1334","
                  <p style=""text-align: center;"">₪64
                                                <br>50%</p>
                  <p id=""wtp"" style=""text-align:center; margin-top: 0px; margin-bottom: 0px; font-size: 40px"";>מוכנים לשלם: <span id=""c_p_y""></span></p>","80","evaluation","65","25","1B,3B,4A","50","64","80","","","","","","","","","","","","","","","","",""
"","","","","","html-keyboard-response","93","202884","0.0-17.0-2.25","aee18971-c24a-40ed-ad22-93779ab57973","null","<p style=""text-align: center;"">+</p>","null","fixation","","","","","","","","","","","","","","","","","","","","","","",""
"","","","","","html-slider-response","94","203886","0.0-17.0-0.26","aee18971-c24a-40ed-ad22-93779ab57973","1000","
                  <p style=""text-align: center;"">₪18
                                                <br>50%</p>
                  <p id=""wtp"" style=""text-align:center; margin-top: 0px; margin-bottom: 0px; font-size: 40px"";>&ensp;</p>","-","viewing","0","10","2C,16C,22B,28A","","","","","","","","","","","","","","","","","","","",""
"","","","","","html-slider-response","95","204516","0.0-17.0-1.26","aee18971-c24a-40ed-ad22-93779ab57973","628","
                  <p style=""text-align: center;"">₪18
                                                <br>50%</p>
                  <p id=""wtp"" style=""text-align:center; margin-top: 0px; margin-bottom: 0px; font-size: 40px"";>מוכנים לשלם: <span id=""c_p_y""></span></p>","43","evaluation","60","10","2C,16C,22B,28A","50","18","43","","","","","","","","","","","","","","","","",""
"","","","","","html-keyboard-response","96","205958","0.0-17.0-2.26","aee18971-c24a-40ed-ad22-93779ab57973","null","<p style=""text-align: center;"">+</p>","null","fixation","","","","","","","","","","","","","","","","","","","","","","",""
"","","","","","html-slider-response","97","206960","0.0-17.0-0.27","aee18971-c24a-40ed-ad22-93779ab57973","1000","
                  <p style=""text-align: center;"">₪43
                                                <br>60%</p>
                  <p id=""wtp"" style=""text-align:center; margin-top: 0px; margin-bottom: 0px; font-size: 40px"";>&ensp;</p>","-","viewing","0","17","2A,7A,9A,15B","","","","","","","","","","","","","","","","","","","",""
"","","","","","html-slider-response","98","207684","0.0-17.0-1.27","aee18971-c24a-40ed-ad22-93779ab57973","723","
                  <p style=""text-align: center;"">₪43
                                                <br>60%</p>
                  <p id=""wtp"" style=""text-align:center; margin-top: 0px; margin-bottom: 0px; font-size: 40px"";>מוכנים לשלם: <span id=""c_p_y""></span></p>","50","evaluation","45","17","2A,7A,9A,15B","60","43","50","","","","","","","","","","","","","","","","",""
"","","","","","html-keyboard-response","99","208962","0.0-17.0-2.27","aee18971-c24a-40ed-ad22-93779ab57973","null","<p style=""text-align: center;"">+</p>","null","fixation","","","","","","","","","","","","","","","","","","","","","","",""
"","","","","","html-slider-response","100","209972","0.0-17.0-0.28","aee18971-c24a-40ed-ad22-93779ab57973","1000","
                  <p style=""text-align: center;"">₪4
                                                <br>75%</p>
                  <p id=""wtp"" style=""text-align:center; margin-top: 0px; margin-bottom: 0px; font-size: 40px"";>&ensp;</p>","-","viewing","0","3","12B,20B,23B,27C,29C","","","","","","","","","","","","","","","","","","","",""
"","","","","","html-slider-response","101","211468","0.0-17.0-1.28","aee18971-c24a-40ed-ad22-93779ab57973","1494","
                  <p style=""text-align: center;"">₪4
                                                <br>75%</p>
                  <p id=""wtp"" style=""text-align:center; margin-top: 0px; margin-bottom: 0px; font-size: 40px"";>מוכנים לשלם: <span id=""c_p_y""></span></p>","32","evaluation","78","3","12B,20B,23B,27C,29C","75","4","32","","","","","","","","","","","","","","","","",""
"","","","","","html-keyboard-response","102","211988","0.0-17.0-2.28","aee18971-c24a-40ed-ad22-93779ab57973","null","<p style=""text-align: center;"">+</p>","null","fixation","","","","","","","","","","","","","","","","","","","","","","",""
"","","","","","html-slider-response","103","212999","0.0-17.0-0.29","aee18971-c24a-40ed-ad22-93779ab57973","1000","
                  <p style=""text-align: center;"">₪36
                                                <br>60%</p>
                  <p id=""wtp"" style=""text-align:center; margin-top: 0px; margin-bottom: 0px; font-size: 40px"";>&ensp;</p>","-","viewing","0","12","1C,7C,15C","","","","","","","","","","","","","","","","","","","",""
"","","","","","html-slider-response","104","213788","0.0-17.0-1.29","aee18971-c24a-40ed-ad22-93779ab57973","788","
                  <p style=""text-align: center;"">₪36
                                                <br>60%</p>
                  <p id=""wtp"" style=""text-align:center; margin-top: 0px; margin-bottom: 0px; font-size: 40px"";>מוכנים לשלם: <span id=""c_p_y""></span></p>","59","evaluation","41","12","1C,7C,15C","60","36","59","","","","","","","","","","","","","","","","",""
"","","","","","html-keyboard-response","105","214561","0.0-17.0-2.29","aee18971-c24a-40ed-ad22-93779ab57973","null","<p style=""text-align: center;"">+</p>","null","fixation","","","","","","","","","","","","","","","","","","","","","","",""
"","","","","","html-slider-response","106","215563","0.0-17.0-0.30","aee18971-c24a-40ed-ad22-93779ab57973","1000","
                  <p style=""text-align: center;"">₪43
                                                <br>75%</p>
                  <p id=""wtp"" style=""text-align:center; margin-top: 0px; margin-bottom: 0px; font-size: 40px"";>&ensp;</p>","-","viewing","0","18","11B,19B,24A,26A","","","","","","","","","","","","","","","","","","","",""
"","","","","","html-slider-response","107","216164","0.0-17.0-1.30","aee18971-c24a-40ed-ad22-93779ab57973","599","
                  <p style=""text-align: center;"">₪43
                                                <br>75%</p>
                  <p id=""wtp"" style=""text-align:center; margin-top: 0px; margin-bottom: 0px; font-size: 40px"";>מוכנים לשלם: <span id=""c_p_y""></span></p>","72","evaluation","79","18","11B,19B,24A,26A","75","43","72","","","","","","","","","","","","","","","","",""
"","","","","","html-keyboard-response","108","216972","0.0-17.0-2.30","aee18971-c24a-40ed-ad22-93779ab57973","null","<p style=""text-align: center;"">+</p>","null","fixation","","","","","","","","","","","","","","","","","","","","","","",""
"","","","","","html-keyboard-response","109","217975","0.0-18.0","aee18971-c24a-40ed-ad22-93779ab57973","null","<p style=""text-align: center;"">+</p>","null","fixation","","","","","","","","","","","","","","","","","","","","","","",""
"","","","","","html-keyboard-response","110","220700","0.0-19.0","aee18971-c24a-40ed-ad22-93779ab57973","null","<p>הפסקה.
          <br>לחצו כדי להמשיך.</p>","1","scan_wait","","","","","","","","","","","","","","","","","","","","","","",""
"","","","","","html-keyboard-response","111","221708","0.0-20.0","aee18971-c24a-40ed-ad22-93779ab57973","null","<p style=""text-align: center;"">+</p>","null","fixation","","","","","","","","","","","","","","","","","","","","","","",""
"","","","","","html-slider-response","112","222714","0.0-21.0-0.0","aee18971-c24a-40ed-ad22-93779ab57973","1000","
                  <p style=""text-align: center;"">₪36
                                                <br>30%</p>
                  <p id=""wtp"" style=""text-align:center; margin-top: 0px; margin-bottom: 0px; font-size: 40px"";>&ensp;</p>","-","viewing","0","11","3C,20A,22A","","","","","","","","","","","","","","","","","","","",""
"","","","","","html-slider-response","113","224580","0.0-21.0-1.0","aee18971-c24a-40ed-ad22-93779ab57973","1864","
                  <p style=""text-align: center;"">₪36
                                                <br>30%</p>
                  <p id=""wtp"" style=""text-align:center; margin-top: 0px; margin-bottom: 0px; font-size: 40px"";>מוכנים לשלם: <span id=""c_p_y""></span></p>","57","evaluation","71","11","3C,20A,22A","30","36","57","","","","","","","","","","","","","","","","",""
"","","","","","html-keyboard-response","114","225474","0.0-21.0-2.0","aee18971-c24a-40ed-ad22-93779ab57973","null","<p style=""text-align: center;"">+</p>","null","fixation","","","","","","","","","","","","","","","","","","","","","","",""
"","","","","","html-slider-response","115","226477","0.0-21.0-0.1","aee18971-c24a-40ed-ad22-93779ab57973","1000","
                  <p style=""text-align: center;"">₪58
                                                <br>40%</p>
                  <p id=""wtp"" style=""text-align:center; margin-top: 0px; margin-bottom: 0px; font-size: 40px"";>&ensp;</p>","-","viewing","0","20","10C,13A,19C,21B","","","","","","","","","","","","","","","","","","","",""
"","","","","","html-slider-response","116","227259","0.0-21.0-1.1","aee18971-c24a-40ed-ad22-93779ab57973","781","
                  <p style=""text-align: center;"">₪58
                                                <br>40%</p>
                  <p id=""wtp"" style=""text-align:center; margin-top: 0px; margin-bottom: 0px; font-size: 40px"";>מוכנים לשלם: <span id=""c_p_y""></span></p>","43","evaluation","19","20","10C,13A,19C,21B","40","58","43","","","","","","","","","","","","","","","","",""
"","","","","","html-keyboard-response","117","228282","0.0-21.0-2.1","aee18971-c24a-40ed-ad22-93779ab57973","null","<p style=""text-align: center;"">+</p>","null","fixation","","","","","","","","","","","","","","","","","","","","","","",""
"","","","","","html-slider-response","118","229284","0.0-21.0-0.2","aee18971-c24a-40ed-ad22-93779ab57973","1000","
                  <p style=""text-align: center;"">₪4
                                                <br>25%</p>
                  <p id=""wtp"" style=""text-align:center; margin-top: 0px; margin-bottom: 0px; font-size: 40px"";>&ensp;</p>","-","viewing","0","1","6C,29B,30C","","","","","","","","","","","","","","","","","","","",""
"","","","","","html-slider-response","119","229996","0.0-21.0-1.2","aee18971-c24a-40ed-ad22-93779ab57973","710","
                  <p style=""text-align: center;"">₪4
                                                <br>25%</p>
                  <p id=""wtp"" style=""text-align:center; margin-top: 0px; margin-bottom: 0px; font-size: 40px"";>מוכנים לשלם: <span id=""c_p_y""></span></p>","17","evaluation","22","1","6C,29B,30C","25","4","17","","","","","","","","","","","","","","","","",""
"","","","","","html-keyboard-response","120","230557","0.0-21.0-2.2","aee18971-c24a-40ed-ad22-93779ab57973","null","<p style=""text-align: center;"">+</p>","null","fixation","","","","","","","","","","","","","","","","","","","","","","",""
"","","","","","html-slider-response","121","231559","0.0-21.0-0.3","aee18971-c24a-40ed-ad22-93779ab57973","1000","
                  <p style=""text-align: center;"">₪39
                                                <br>65%</p>
                  <p id=""wtp"" style=""text-align:center; margin-top: 0px; margin-bottom: 0px; font-size: 40px"";>&ensp;</p>","-","viewing","0","16","1A,15A,26C","","","","","","","","","","","","","","","","","","","",""
"","","","","","html-slider-response","122","233068","0.0-21.0-1.3","aee18971-c24a-40ed-ad22-93779ab57973","1507","
                  <p style=""text-align: center;"">₪39
                                                <br>65%</p>
                  <p id=""wtp"" style=""text-align:center; margin-top: 0px; margin-bottom: 0px; font-size: 40px"";>מוכנים לשלם: <span id=""c_p_y""></span></p>","73","evaluation","59","16","1A,15A,26C","65","39","73","","","","","","","","","","","","","","","","",""
"","","","","","html-keyboard-response","123","233938","0.0-21.0-2.3","aee18971-c24a-40ed-ad22-93779ab57973","null","<p style=""text-align: center;"">+</p>","null","fixation","","","","","","","","","","","","","","","","","","","","","","",""
"","","","","","html-slider-response","124","234940","0.0-21.0-0.4","aee18971-c24a-40ed-ad22-93779ab57973","1000","
                  <p style=""text-align: center;"">₪43
                                                <br>75%</p>
                  <p id=""wtp"" style=""text-align:center; margin-top: 0px; margin-bottom: 0px; font-size: 40px"";>&ensp;</p>","-","viewing","0","18","11B,19B,24A,26A","","","","","","","","","","","","","","","","","","","",""
"","","","","","html-slider-response","125","235684","0.0-21.0-1.4","aee18971-c24a-40ed-ad22-93779ab57973","743","
                  <p style=""text-align: center;"">₪43
                                                <br>75%</p>
                  <p id=""wtp"" style=""text-align:center; margin-top: 0px; margin-bottom: 0px; font-size: 40px"";>מוכנים לשלם: <span id=""c_p_y""></span></p>","78","evaluation","48","18","11B,19B,24A,26A","75","43","78","","","","","","","","","","","","","","","","",""
"","","","","","html-keyboard-response","126","236895","0.0-21.0-2.4","aee18971-c24a-40ed-ad22-93779ab57973","null","<p style=""text-align: center;"">+</p>","null","fixation","","","","","","","","","","","","","","","","","","","","","","",""
"","","","","","html-slider-response","127","237897","0.0-21.0-0.5","aee18971-c24a-40ed-ad22-93779ab57973","1000","
                  <p style=""text-align: center;"">₪16
                                                <br>20%</p>
                  <p id=""wtp"" style=""text-align:center; margin-top: 0px; margin-bottom: 0px; font-size: 40px"";>&ensp;</p>","-","viewing","0","8","14C,17A,20C,27A","","","","","","","","","","","","","","","","","","","",""
"","","","","","html-slider-response","128","238348","0.0-21.0-1.5","aee18971-c24a-40ed-ad22-93779ab57973","449","
                  <p style=""text-align: center;"">₪16
                                                <br>20%</p>
                  <p id=""wtp"" style=""text-align:center; margin-top: 0px; margin-bottom: 0px; font-size: 40px"";>מוכנים לשלם: <span id=""c_p_y""></span></p>","10","evaluation","72","8","14C,17A,20C,27A","20","16","11","","","","","","","","","","","","","","","","",""
"","","","","","html-keyboard-response","129","239796","0.0-21.0-2.5","aee18971-c24a-40ed-ad22-93779ab57973","null","<p style=""text-align: center;"">+</p>","null","fixation","","","","","","","","","","","","","","","","","","","","","","",""
"","","","","","html-slider-response","130","240799","0.0-21.0-0.6","aee18971-c24a-40ed-ad22-93779ab57973","1000","
                  <p style=""text-align: center;"">₪64
                                                <br>50%</p>
                  <p id=""wtp"" style=""text-align:center; margin-top: 0px; margin-bottom: 0px; font-size: 40px"";>&ensp;</p>","-","viewing","0","25","1B,3B,4A","","","","","","","","","","","","","","","","","","","",""
"","","","","","html-slider-response","131","241811","0.0-21.0-1.6","aee18971-c24a-40ed-ad22-93779ab57973","1011","
                  <p style=""text-align: center;"">₪64
                                                <br>50%</p>
                  <p id=""wtp"" style=""text-align:center; margin-top: 0px; margin-bottom: 0px; font-size: 40px"";>מוכנים לשלם: <span id=""c_p_y""></span></p>","80","evaluation","50","25","1B,3B,4A","50","64","80","","","","","","","","","","","","","","","","",""
"","","","","","html-keyboard-response","132","242921","0.0-21.0-2.6","aee18971-c24a-40ed-ad22-93779ab57973","null","<p style=""text-align: center;"">+</p>","null","fixation","","","","","","","","","","","","","","","","","","","","","","",""
"","","","","","html-slider-response","133","243933","0.0-21.0-0.7","aee18971-c24a-40ed-ad22-93779ab57973","1000","
                  <p style=""text-align: center;"">₪61
                                                <br>55%</p>
                  <p id=""wtp"" style=""text-align:center; margin-top: 0px; margin-bottom: 0px; font-size: 40px"";>&ensp;</p>","-","viewing","0","23","7B,26B","","","","","","","","","","","","","","","","","","","",""
"","","","","","html-slider-response","134","244604","0.0-21.0-1.7","aee18971-c24a-40ed-ad22-93779ab57973","669","
                  <p style=""text-align: center;"">₪61
                                                <br>55%</p>
                  <p id=""wtp"" style=""text-align:center; margin-top: 0px; margin-bottom: 0px; font-size: 40px"";>מוכנים לשלם: <span id=""c_p_y""></span></p>","61","evaluation","36","23","7B,26B","55","61","61","","","","","","","","","","","","","","","","",""
"","","","","","html-keyboard-response","135","245878","0.0-21.0-2.7","aee18971-c24a-40ed-ad22-93779ab57973","null","<p style=""text-align: center;"">+</p>","null","fixation","","","","","","","","","","","","","","","","","","","","","","",""
"","","","","","html-slider-response","136","246881","0.0-21.0-0.8","aee18971-c24a-40ed-ad22-93779ab57973","1000","
                  <p style=""text-align: center;"">₪11
                                                <br>20%</p>
                  <p id=""wtp"" style=""text-align:center; margin-top: 0px; margin-bottom: 0px; font-size: 40px"";>&ensp;</p>","-","viewing","0","4","12C,17C,23C,28C","","","","","","","","","","","","","","","","","","","",""
"","","","","","html-slider-response","137","247619","0.0-21.0-1.8","aee18971-c24a-40ed-ad22-93779ab57973","738","
                  <p style=""text-align: center;"">₪11
                                                <br>20%</p>
                  <p id=""wtp"" style=""text-align:center; margin-top: 0px; margin-bottom: 0px; font-size: 40px"";>מוכנים לשלם: <span id=""c_p_y""></span></p>","25","evaluation","41","4","12C,17C,23C,28C","20","11","26","","","","","","","","","","","","","","","","",""
"","","","","","html-keyboard-response","138","248997","0.0-21.0-2.8","aee18971-c24a-40ed-ad22-93779ab57973","null","<p style=""text-align: center;"">+</p>","null","fixation","","","","","","","","","","","","","","","","","","","","","","",""
"","","","","","html-slider-response","139","250000","0.0-21.0-0.9","aee18971-c24a-40ed-ad22-93779ab57973","1000","
                  <p style=""text-align: center;"">₪18
                                                <br>25%</p>
                  <p id=""wtp"" style=""text-align:center; margin-top: 0px; margin-bottom: 0px; font-size: 40px"";>&ensp;</p>","-","viewing","0","9","14A,23A","","","","","","","","","","","","","","","","","","","",""
"","","","","","html-slider-response","140","250668","0.0-21.0-1.9","aee18971-c24a-40ed-ad22-93779ab57973","666","
                  <p style=""text-align: center;"">₪18
                                                <br>25%</p>
                  <p id=""wtp"" style=""text-align:center; margin-top: 0px; margin-bottom: 0px; font-size: 40px"";>מוכנים לשלם: <span id=""c_p_y""></span></p>","20","evaluation","57","9","14A,23A","25","18","20","","","","","","","","","","","","","","","","",""
"","","","","","html-keyboard-response","141","251760","0.0-21.0-2.9","aee18971-c24a-40ed-ad22-93779ab57973","null","<p style=""text-align: center;"">+</p>","null","fixation","","","","","","","","","","","","","","","","","","","","","","",""
"","","","","","html-slider-response","142","252767","0.0-21.0-0.10","aee18971-c24a-40ed-ad22-93779ab57973","1000","
                  <p style=""text-align: center;"">₪4
                                                <br>50%</p>
                  <p id=""wtp"" style=""text-align:center; margin-top: 0px; margin-bottom: 0px; font-size: 40px"";>&ensp;</p>","-","viewing","0","2","4C,17B","","","","","","","","","","","","","","","","","","","",""
"","","","","","html-slider-response","143","253468","0.0-21.0-1.10","aee18971-c24a-40ed-ad22-93779ab57973","700","
                  <p style=""text-align: center;"">₪4
                                                <br>50%</p>
                  <p id=""wtp"" style=""text-align:center; margin-top: 0px; margin-bottom: 0px; font-size: 40px"";>מוכנים לשלם: <span id=""c_p_y""></span></p>","11","evaluation","5","2","4C,17B","50","4","12","","","","","","","","","","","","","","","","",""
"","","","","","html-keyboard-response","144","254281","0.0-21.0-2.10","aee18971-c24a-40ed-ad22-93779ab57973","null","<p style=""text-align: center;"">+</p>","null","fixation","","","","","","","","","","","","","","","","","","","","","","",""
"","","","","","html-slider-response","145","255283","0.0-21.0-0.11","aee18971-c24a-40ed-ad22-93779ab57973","1000","
                  <p style=""text-align: center;"">₪11
                                                <br>25%</p>
                  <p id=""wtp"" style=""text-align:center; margin-top: 0px; margin-bottom: 0px; font-size: 40px"";>&ensp;</p>","-","viewing","0","5","12A,27B,28B,30B","","","","","","","","","","","","","","","","","","","",""
"","","","","","html-slider-response","146","256100","0.0-21.0-1.11","aee18971-c24a-40ed-ad22-93779ab57973","815","
                  <p style=""text-align: center;"">₪11
                                                <br>25%</p>
                  <p id=""wtp"" style=""text-align:center; margin-top: 0px; margin-bottom: 0px; font-size: 40px"";>מוכנים לשלם: <span id=""c_p_y""></span></p>","50","evaluation","78","5","12A,27B,28B,30B","25","11","50","","","","","","","","","","","","","","","","",""
"","","","","","html-keyboard-response","147","257275","0.0-21.0-2.11","aee18971-c24a-40ed-ad22-93779ab57973","null","<p style=""text-align: center;"">+</p>","null","fixation","","","","","","","","","","","","","","","","","","","","","","",""
"","","","","","html-slider-response","148","258277","0.0-21.0-0.12","aee18971-c24a-40ed-ad22-93779ab57973","1000","
                  <p style=""text-align: center;"">₪36
                                                <br>60%</p>
                  <p id=""wtp"" style=""text-align:center; margin-top: 0px; margin-bottom: 0px; font-size: 40px"";>&ensp;</p>","-","viewing","0","12","1C,7C,15C","","","","","","","","","","","","","","","","","","","",""
"","","","","","html-slider-response","149","259108","0.0-21.0-1.12","aee18971-c24a-40ed-ad22-93779ab57973","830","
                  <p style=""text-align: center;"">₪36
                                                <br>60%</p>
                  <p id=""wtp"" style=""text-align:center; margin-top: 0px; margin-bottom: 0px; font-size: 40px"";>מוכנים לשלם: <span id=""c_p_y""></span></p>","64","evaluation","6","12","1C,7C,15C","60","36","64","","","","","","","","","","","","","","","","",""
"","","","","","html-keyboard-response","150","260466","0.0-21.0-2.12","aee18971-c24a-40ed-ad22-93779ab57973","null","<p style=""text-align: center;"">+</p>","null","fixation","","","","","","","","","","","","","","","","","","","","","","",""
"","","","","","html-slider-response","151","261468","0.0-21.0-0.13","aee18971-c24a-40ed-ad22-93779ab57973","1000","
                  <p style=""text-align: center;"">₪58
                                                <br>45%</p>
                  <p id=""wtp"" style=""text-align:center; margin-top: 0px; margin-bottom: 0px; font-size: 40px"";>&ensp;</p>","-","viewing","0","21","11C,18C,25A","","","","","","","","","","","","","","","","","","","",""
"","","","","","html-slider-response","152","262731","0.0-21.0-1.13","aee18971-c24a-40ed-ad22-93779ab57973","1262","
                  <p style=""text-align: center;"">₪58
                                                <br>45%</p>
                  <p id=""wtp"" style=""text-align:center; margin-top: 0px; margin-bottom: 0px; font-size: 40px"";>מוכנים לשלם: <span id=""c_p_y""></span></p>","54","evaluation","3","21","11C,18C,25A","45","58","54","","","","","","","","","","","","","","","","",""
"","","","","","html-keyboard-response","153","263835","0.0-21.0-2.13","aee18971-c24a-40ed-ad22-93779ab57973","null","<p style=""text-align: center;"">+</p>","null","fixation","","","","","","","","","","","","","","","","","","","","","","",""
"","","","","","html-slider-response","154","264850","0.0-21.0-0.14","aee18971-c24a-40ed-ad22-93779ab57973","1000","
                  <p style=""text-align: center;"">₪39
                                                <br>60%</p>
                  <p id=""wtp"" style=""text-align:center; margin-top: 0px; margin-bottom: 0px; font-size: 40px"";>&ensp;</p>","-","viewing","0","15","9C,25B","","","","","","","","","","","","","","","","","","","",""
"","","","","","html-slider-response","155","265844","0.0-21.0-1.14","aee18971-c24a-40ed-ad22-93779ab57973","992","
                  <p style=""text-align: center;"">₪39
                                                <br>60%</p>
                  <p id=""wtp"" style=""text-align:center; margin-top: 0px; margin-bottom: 0px; font-size: 40px"";>מוכנים לשלם: <span id=""c_p_y""></span></p>","54","evaluation","74","15","9C,25B","60","39","54","","","","","","","","","","","","","","","","",""
"","","","","","html-keyboard-response","156","266428","0.0-21.0-2.14","aee18971-c24a-40ed-ad22-93779ab57973","null","<p style=""text-align: center;"">+</p>","null","fixation","","","","","","","","","","","","","","","","","","","","","","",""
"","","","","","html-slider-response","157","267444","0.0-21.0-0.15","aee18971-c24a-40ed-ad22-93779ab57973","1000","
                  <p style=""text-align: center;"">₪11
                                                <br>45%</p>
                  <p id=""wtp"" style=""text-align:center; margin-top: 0px; margin-bottom: 0px; font-size: 40px"";>&ensp;</p>","-","viewing","0","6","14B,21C,25C","","","","","","","","","","","","","","","","","","","",""
"","","","","","html-slider-response","158","268027","0.0-21.0-1.15","aee18971-c24a-40ed-ad22-93779ab57973","581","
                  <p style=""text-align: center;"">₪11
                                                <br>45%</p>
                  <p id=""wtp"" style=""text-align:center; margin-top: 0px; margin-bottom: 0px; font-size: 40px"";>מוכנים לשלם: <span id=""c_p_y""></span></p>","29","evaluation","43","6","14B,21C,25C","45","11","29","","","","","","","","","","","","","","","","",""
"","","","","","html-keyboard-response","159","269377","0.0-21.0-2.15","aee18971-c24a-40ed-ad22-93779ab57973","null","<p style=""text-align: center;"">+</p>","null","fixation","","","","","","","","","","","","","","","","","","","","","","",""
"","","","","","html-slider-response","160","270382","0.0-21.0-0.16","aee18971-c24a-40ed-ad22-93779ab57973","1000","
                  <p style=""text-align: center;"">₪43
                                                <br>60%</p>
                  <p id=""wtp"" style=""text-align:center; margin-top: 0px; margin-bottom: 0px; font-size: 40px"";>&ensp;</p>","-","viewing","0","17","2A,7A,9A,15B","","","","","","","","","","","","","","","","","","","",""
"","","","","","html-slider-response","161","270979","0.0-21.0-1.16","aee18971-c24a-40ed-ad22-93779ab57973","597","
                  <p style=""text-align: center;"">₪43
                                                <br>60%</p>
                  <p id=""wtp"" style=""text-align:center; margin-top: 0px; margin-bottom: 0px; font-size: 40px"";>מוכנים לשלם: <span id=""c_p_y""></span></p>","56","evaluation","59","17","2A,7A,9A,15B","60","43","56","","","","","","","","","","","","","","","","",""
"","","","","","html-keyboard-response","162","271927","0.0-21.0-2.16","aee18971-c24a-40ed-ad22-93779ab57973","null","<p style=""text-align: center;"">+</p>","null","fixation","","","","","","","","","","","","","","","","","","","","","","",""
"","","","","","html-slider-response","163","272929","0.0-21.0-0.17","aee18971-c24a-40ed-ad22-93779ab57973","1000","
                  <p style=""text-align: center;"">₪79
                                                <br>40%</p>
                  <p id=""wtp"" style=""text-align:center; margin-top: 0px; margin-bottom: 0px; font-size: 40px"";>&ensp;</p>","-","viewing","0","30","9B","","","","","","","","","","","","","","","","","","","",""
"","","","","","html-slider-response","164","273756","0.0-21.0-1.17","aee18971-c24a-40ed-ad22-93779ab57973","826","
                  <p style=""text-align: center;"">₪79
                                                <br>40%</p>
                  <p id=""wtp"" style=""text-align:center; margin-top: 0px; margin-bottom: 0px; font-size: 40px"";>מוכנים לשלם: <span id=""c_p_y""></span></p>","49","evaluation","58","30","9B","40","79","49","","","","","","","","","","","","","","","","",""
"","","","","","html-keyboard-response","165","275065","0.0-21.0-2.17","aee18971-c24a-40ed-ad22-93779ab57973","null","<p style=""text-align: center;"">+</p>","null","fixation","","","","","","","","","","","","","","","","","","","","","","",""
"","","","","","html-slider-response","166","276067","0.0-21.0-0.18","aee18971-c24a-40ed-ad22-93779ab57973","1000","
                  <p style=""text-align: center;"">₪71
                                                <br>55%</p>
                  <p id=""wtp"" style=""text-align:center; margin-top: 0px; margin-bottom: 0px; font-size: 40px"";>&ensp;</p>","-","viewing","0","27","5B,18A","","","","","","","","","","","","","","","","","","","",""
"","","","","","html-slider-response","167","277683","0.0-21.0-1.18","aee18971-c24a-40ed-ad22-93779ab57973","1615","
                  <p style=""text-align: center;"">₪71
                                                <br>55%</p>
                  <p id=""wtp"" style=""text-align:center; margin-top: 0px; margin-bottom: 0px; font-size: 40px"";>מוכנים לשלם: <span id=""c_p_y""></span></p>","71","evaluation","36","27","5B,18A","55","71","71","","","","","","","","","","","","","","","","",""
"","","","","","html-keyboard-response","168","279149","0.0-21.0-2.18","aee18971-c24a-40ed-ad22-93779ab57973","null","<p style=""text-align: center;"">+</p>","null","fixation","","","","","","","","","","","","","","","","","","","","","","",""
"","","","","","html-slider-response","169","280150","0.0-21.0-0.19","aee18971-c24a-40ed-ad22-93779ab57973","1000","
                  <p style=""text-align: center;"">₪64
                                                <br>25%</p>
                  <p id=""wtp"" style=""text-align:center; margin-top: 0px; margin-bottom: 0px; font-size: 40px"";>&ensp;</p>","-","viewing","0","24","6A,21A","","","","","","","","","","","","","","","","","","","",""
"","","","","","html-slider-response","170","280765","0.0-21.0-1.19","aee18971-c24a-40ed-ad22-93779ab57973","613","
                  <p style=""text-align: center;"">₪64
                                                <br>25%</p>
                  <p id=""wtp"" style=""text-align:center; margin-top: 0px; margin-bottom: 0px; font-size: 40px"";>מוכנים לשלם: <span id=""c_p_y""></span></p>","20","evaluation","57","24","6A,21A","25","64","20","","","","","","","","","","","","","","","","",""
"","","","","","html-keyboard-response","171","281350","0.0-21.0-2.19","aee18971-c24a-40ed-ad22-93779ab57973","null","<p style=""text-align: center;"">+</p>","null","fixation","","","","","","","","","","","","","","","","","","","","","","",""
"","","","","","html-slider-response","172","282352","0.0-21.0-0.20","aee18971-c24a-40ed-ad22-93779ab57973","1000","
                  <p style=""text-align: center;"">₪11
                                                <br>75%</p>
                  <p id=""wtp"" style=""text-align:center; margin-top: 0px; margin-bottom: 0px; font-size: 40px"";>&ensp;</p>","-","viewing","0","7","6B,18B,22C,24C,29A","","","","","","","","","","","","","","","","","","","",""
"","","","","","html-slider-response","173","284083","0.0-21.0-1.20","aee18971-c24a-40ed-ad22-93779ab57973","1730","
                  <p style=""text-align: center;"">₪11
                                                <br>75%</p>
                  <p id=""wtp"" style=""text-align:center; margin-top: 0px; margin-bottom: 0px; font-size: 40px"";>מוכנים לשלם: <span id=""c_p_y""></span></p>","42","evaluation","38","7","6B,18B,22C,24C,29A","75","11","42","","","","","","","","","","","","","","","","",""
"","","","","","html-keyboard-response","174","284774","0.0-21.0-2.20","aee18971-c24a-40ed-ad22-93779ab57973","null","<p style=""text-align: center;"">+</p>","null","fixation","","","","","","","","","","","","","","","","","","","","","","",""
"","","","","","html-slider-response","175","285783","0.0-21.0-0.21","aee18971-c24a-40ed-ad22-93779ab57973","1000","
                  <p style=""text-align: center;"">₪71
                                                <br>75%</p>
                  <p id=""wtp"" style=""text-align:center; margin-top: 0px; margin-bottom: 0px; font-size: 40px"";>&ensp;</p>","-","viewing","0","28","8B","","","","","","","","","","","","","","","","","","","",""
"","","","","","html-slider-response","176","286947","0.0-21.0-1.21","aee18971-c24a-40ed-ad22-93779ab57973","1163","
                  <p style=""text-align: center;"">₪71
                                                <br>75%</p>
                  <p id=""wtp"" style=""text-align:center; margin-top: 0px; margin-bottom: 0px; font-size: 40px"";>מוכנים לשלם: <span id=""c_p_y""></span></p>","77","evaluation","35","28","8B","75","71","77","","","","","","","","","","","","","","","","",""
"","","","","","html-keyboard-response","177","287762","0.0-21.0-2.21","aee18971-c24a-40ed-ad22-93779ab57973","null","<p style=""text-align: center;"">+</p>","null","fixation","","","","","","","","","","","","","","","","","","","","","","",""
"","","","","","html-slider-response","178","288767","0.0-21.0-0.22","aee18971-c24a-40ed-ad22-93779ab57973","1000","
                  <p style=""text-align: center;"">₪36
                                                <br>75%</p>
                  <p id=""wtp"" style=""text-align:center; margin-top: 0px; margin-bottom: 0px; font-size: 40px"";>&ensp;</p>","-","viewing","0","14","4B,5A,13B,16B","","","","","","","","","","","","","","","","","","","",""
"","","","","","html-slider-response","179","289643","0.0-21.0-1.22","aee18971-c24a-40ed-ad22-93779ab57973","876","
                  <p style=""text-align: center;"">₪36
                                                <br>75%</p>
                  <p id=""wtp"" style=""text-align:center; margin-top: 0px; margin-bottom: 0px; font-size: 40px"";>מוכנים לשלם: <span id=""c_p_y""></span></p>","80","evaluation","3","14","4B,5A,13B,16B","75","36","80","","","","","","","","","","","","","","","","",""
"","","","","","html-keyboard-response","180","290316","0.0-21.0-2.22","aee18971-c24a-40ed-ad22-93779ab57973","null","<p style=""text-align: center;"">+</p>","null","fixation","","","","","","","","","","","","","","","","","","","","","","",""
"","","","","","html-slider-response","181","291318","0.0-21.0-0.23","aee18971-c24a-40ed-ad22-93779ab57973","1000","
                  <p style=""text-align: center;"">₪58
                                                <br>30%</p>
                  <p id=""wtp"" style=""text-align:center; margin-top: 0px; margin-bottom: 0px; font-size: 40px"";>&ensp;</p>","-","viewing","0","19","13C,30A","","","","","","","","","","","","","","","","","","","",""
"","","","","","html-slider-response","182","292059","0.0-21.0-1.23","aee18971-c24a-40ed-ad22-93779ab57973","740","
                  <p style=""text-align: center;"">₪58
                                                <br>30%</p>
                  <p id=""wtp"" style=""text-align:center; margin-top: 0px; margin-bottom: 0px; font-size: 40px"";>מוכנים לשלם: <span id=""c_p_y""></span></p>","53","evaluation","73","19","13C,30A","30","58","53","","","","","","","","","","","","","","","","",""
"","","","","","html-keyboard-response","183","292639","0.0-21.0-2.23","aee18971-c24a-40ed-ad22-93779ab57973","null","<p style=""text-align: center;"">+</p>","null","fixation","","","","","","","","","","","","","","","","","","","","","","",""
"","","","","","html-slider-response","184","293646","0.0-21.0-0.24","aee18971-c24a-40ed-ad22-93779ab57973","1000","
                  <p style=""text-align: center;"">₪18
                                                <br>50%</p>
                  <p id=""wtp"" style=""text-align:center; margin-top: 0px; margin-bottom: 0px; font-size: 40px"";>&ensp;</p>","-","viewing","0","10","2C,16C,22B,28A","","","","","","","","","","","","","","","","","","","",""
"","","","","","html-slider-response","185","294428","0.0-21.0-1.24","aee18971-c24a-40ed-ad22-93779ab57973","780","
                  <p style=""text-align: center;"">₪18
                                                <br>50%</p>
                  <p id=""wtp"" style=""text-align:center; margin-top: 0px; margin-bottom: 0px; font-size: 40px"";>מוכנים לשלם: <span id=""c_p_y""></span></p>","44","evaluation","31","10","2C,16C,22B,28A","50","18","44","","","","","","","","","","","","","","","","",""
"","","","","","html-keyboard-response","186","295192","0.0-21.0-2.24","aee18971-c24a-40ed-ad22-93779ab57973","null","<p style=""text-align: center;"">+</p>","null","fixation","","","","","","","","","","","","","","","","","","","","","","",""
"","","","","","html-slider-response","187","296195","0.0-21.0-0.25","aee18971-c24a-40ed-ad22-93779ab57973","1000","
                  <p style=""text-align: center;"">₪4
                                                <br>75%</p>
                  <p id=""wtp"" style=""text-align:center; margin-top: 0px; margin-bottom: 0px; font-size: 40px"";>&ensp;</p>","-","viewing","0","3","12B,20B,23B,27C,29C","","","","","","","","","","","","","","","","","","","",""
"","","","","","html-slider-response","188","296868","0.0-21.0-1.25","aee18971-c24a-40ed-ad22-93779ab57973","671","
                  <p style=""text-align: center;"">₪4
                                                <br>75%</p>
                  <p id=""wtp"" style=""text-align:center; margin-top: 0px; margin-bottom: 0px; font-size: 40px"";>מוכנים לשלם: <span id=""c_p_y""></span></p>","53","evaluation","66","3","12B,20B,23B,27C,29C","75","4","53","","","","","","","","","","","","","","","","",""
"","","","","","html-keyboard-response","189","298066","0.0-21.0-2.25","aee18971-c24a-40ed-ad22-93779ab57973","null","<p style=""text-align: center;"">+</p>","null","fixation","","","","","","","","","","","","","","","","","","","","","","",""
"","","","","","html-slider-response","190","299079","0.0-21.0-0.26","aee18971-c24a-40ed-ad22-93779ab57973","1000","
                  <p style=""text-align: center;"">₪36
                                                <br>70%</p>
                  <p id=""wtp"" style=""text-align:center; margin-top: 0px; margin-bottom: 0px; font-size: 40px"";>&ensp;</p>","-","viewing","0","13","3A,5C,10B","","","","","","","","","","","","","","","","","","","",""
"","","","","","html-slider-response","191","300012","0.0-21.0-1.26","aee18971-c24a-40ed-ad22-93779ab57973","931","
                  <p style=""text-align: center;"">₪36
                                                <br>70%</p>
                  <p id=""wtp"" style=""text-align:center; margin-top: 0px; margin-bottom: 0px; font-size: 40px"";>מוכנים לשלם: <span id=""c_p_y""></span></p>","56","evaluation","31","13","3A,5C,10B","70","36","56","","","","","","","","","","","","","","","","",""
"","","","","","html-keyboard-response","192","301109","0.0-21.0-2.26","aee18971-c24a-40ed-ad22-93779ab57973","null","<p style=""text-align: center;"">+</p>","null","fixation","","","","","","","","","","","","","","","","","","","","","","",""
"","","","","","html-slider-response","193","302111","0.0-21.0-0.27","aee18971-c24a-40ed-ad22-93779ab57973","1000","
                  <p style=""text-align: center;"">₪76
                                                <br>65%</p>
                  <p id=""wtp"" style=""text-align:center; margin-top: 0px; margin-bottom: 0px; font-size: 40px"";>&ensp;</p>","-","viewing","0","29","8C,19A,24B","","","","","","","","","","","","","","","","","","","",""
"","","","","","html-slider-response","194","302636","0.0-21.0-1.27","aee18971-c24a-40ed-ad22-93779ab57973","523","
                  <p style=""text-align: center;"">₪76
                                                <br>65%</p>
                  <p id=""wtp"" style=""text-align:center; margin-top: 0px; margin-bottom: 0px; font-size: 40px"";>מוכנים לשלם: <span id=""c_p_y""></span></p>","63","evaluation","44","29","8C,19A,24B","65","76","63","","","","","","","","","","","","","","","","",""
"","","","","","html-keyboard-response","195","303788","0.0-21.0-2.27","aee18971-c24a-40ed-ad22-93779ab57973","null","<p style=""text-align: center;"">+</p>","null","fixation","","","","","","","","","","","","","","","","","","","","","","",""
"","","","","","html-slider-response","196","304790","0.0-21.0-0.28","aee18971-c24a-40ed-ad22-93779ab57973","1000","
                  <p style=""text-align: center;"">₪61
                                                <br>45%</p>
                  <p id=""wtp"" style=""text-align:center; margin-top: 0px; margin-bottom: 0px; font-size: 40px"";>&ensp;</p>","-","viewing","0","22","10A,11A","","","","","","","","","","","","","","","","","","","",""
"","","","","","html-slider-response","197","305700","0.0-21.0-1.28","aee18971-c24a-40ed-ad22-93779ab57973","910","
                  <p style=""text-align: center;"">₪61
                                                <br>45%</p>
                  <p id=""wtp"" style=""text-align:center; margin-top: 0px; margin-bottom: 0px; font-size: 40px"";>מוכנים לשלם: <span id=""c_p_y""></span></p>","49","evaluation","2","22","10A,11A","45","61","49","","","","","","","","","","","","","","","","",""
"","","","","","html-keyboard-response","198","306915","0.0-21.0-2.28","aee18971-c24a-40ed-ad22-93779ab57973","null","<p style=""text-align: center;"">+</p>","null","fixation","","","","","","","","","","","","","","","","","","","","","","",""
"","","","","","html-slider-response","199","307918","0.0-21.0-0.29","aee18971-c24a-40ed-ad22-93779ab57973","1000","
                  <p style=""text-align: center;"">₪79
                                                <br>65%</p>
                  <p id=""wtp"" style=""text-align:center; margin-top: 0px; margin-bottom: 0px; font-size: 40px"";>&ensp;</p>","-","viewing","0","31","8A","","","","","","","","","","","","","","","","","","","",""
"","","","","","html-slider-response","200","308636","0.0-21.0-1.29","aee18971-c24a-40ed-ad22-93779ab57973","716","
                  <p style=""text-align: center;"">₪79
                                                <br>65%</p>
                  <p id=""wtp"" style=""text-align:center; margin-top: 0px; margin-bottom: 0px; font-size: 40px"";>מוכנים לשלם: <span id=""c_p_y""></span></p>","52","evaluation","15","31","8A","65","79","52","","","","","","","","","","","","","","","","",""
"","","","","","html-keyboard-response","201","309763","0.0-21.0-2.29","aee18971-c24a-40ed-ad22-93779ab57973","null","<p style=""text-align: center;"">+</p>","null","fixation","","","","","","","","","","","","","","","","","","","","","","",""
"","","","","","html-slider-response","202","310768","0.0-21.0-0.30","aee18971-c24a-40ed-ad22-93779ab57973","1000","
                  <p style=""text-align: center;"">₪71
                                                <br>45%</p>
                  <p id=""wtp"" style=""text-align:center; margin-top: 0px; margin-bottom: 0px; font-size: 40px"";>&ensp;</p>","-","viewing","0","26","2B,16A","","","","","","","","","","","","","","","","","","","",""
"","","","","","html-slider-response","203","312708","0.0-21.0-1.30","aee18971-c24a-40ed-ad22-93779ab57973","1938","
                  <p style=""text-align: center;"">₪71
                                                <br>45%</p>
                  <p id=""wtp"" style=""text-align:center; margin-top: 0px; margin-bottom: 0px; font-size: 40px"";>מוכנים לשלם: <span id=""c_p_y""></span></p>","56","evaluation","6","26","2B,16A","45","71","56","","","","","","","","","","","","","","","","",""
"","","","","","html-keyboard-response","204","313463","0.0-21.0-2.30","aee18971-c24a-40ed-ad22-93779ab57973","null","<p style=""text-align: center;"">+</p>","null","fixation","","","","","","","","","","","","","","","","","","","","","","",""
"","","","","","html-keyboard-response","205","314469","0.0-22.0","aee18971-c24a-40ed-ad22-93779ab57973","null","<p style=""text-align: center;"">+</p>","null","fixation","","","","","","","","","","","","","","","","","","","","","","",""
"","","","","","html-keyboard-response","206","315812","0.0-23.0","aee18971-c24a-40ed-ad22-93779ab57973","null","<p>הפסקה.
          <br>לחצו כדי להמשיך.</p>","1","scan_wait","","","","","","","","","","","","","","","","","","","","","","",""
"","","","","","html-keyboard-response","207","316821","0.0-24.0","aee18971-c24a-40ed-ad22-93779ab57973","null","<p style=""text-align: center;"">+</p>","null","fixation","","","","","","","","","","","","","","","","","","","","","","",""
"","","","","","html-slider-response","208","317827","0.0-25.0-0.0","aee18971-c24a-40ed-ad22-93779ab57973","1000","
                  <p style=""text-align: center;"">₪4
                                                <br>50%</p>
                  <p id=""wtp"" style=""text-align:center; margin-top: 0px; margin-bottom: 0px; font-size: 40px"";>&ensp;</p>","-","viewing","0","2","4C,17B","","","","","","","","","","","","","","","","","","","",""
"","","","","","html-slider-response","209","320052","0.0-25.0-1.0","aee18971-c24a-40ed-ad22-93779ab57973","2224","
                  <p style=""text-align: center;"">₪4
                                                <br>50%</p>
                  <p id=""wtp"" style=""text-align:center; margin-top: 0px; margin-bottom: 0px; font-size: 40px"";>מוכנים לשלם: <span id=""c_p_y""></span></p>","26","evaluation","52","2","4C,17B","50","4","26","","","","","","","","","","","","","","","","",""
"","","","","","html-keyboard-response","210","321038","0.0-25.0-2.0","aee18971-c24a-40ed-ad22-93779ab57973","null","<p style=""text-align: center;"">+</p>","null","fixation","","","","","","","","","","","","","","","","","","","","","","",""
"","","","","","html-slider-response","211","322040","0.0-25.0-0.1","aee18971-c24a-40ed-ad22-93779ab57973","1000","
                  <p style=""text-align: center;"">₪61
                                                <br>55%</p>
                  <p id=""wtp"" style=""text-align:center; margin-top: 0px; margin-bottom: 0px; font-size: 40px"";>&ensp;</p>","-","viewing","0","23","7B,26B","","","","","","","","","","","","","","","","","","","",""
"","","","","","html-slider-response","212","323996","0.0-25.0-1.1","aee18971-c24a-40ed-ad22-93779ab57973","1955","
                  <p style=""text-align: center;"">₪61
                                                <br>55%</p>
                  <p id=""wtp"" style=""text-align:center; margin-top: 0px; margin-bottom: 0px; font-size: 40px"";>מוכנים לשלם: <span id=""c_p_y""></span></p>","62","evaluation","9","23","7B,26B","55","61","62","","","","","","","","","","","","","","","","",""
"","","","","","html-keyboard-response","213","325051","0.0-25.0-2.1","aee18971-c24a-40ed-ad22-93779ab57973","null","<p style=""text-align: center;"">+</p>","null","fixation","","","","","","","","","","","","","","","","","","","","","","",""
"","","","","","html-slider-response","214","326065","0.0-25.0-0.2","aee18971-c24a-40ed-ad22-93779ab57973","1000","
                  <p style=""text-align: center;"">₪11
                                                <br>20%</p>
                  <p id=""wtp"" style=""text-align:center; margin-top: 0px; margin-bottom: 0px; font-size: 40px"";>&ensp;</p>","-","viewing","0","4","12C,17C,23C,28C","","","","","","","","","","","","","","","","","","","",""
"","","","","","html-slider-response","215","327180","0.0-25.0-1.2","aee18971-c24a-40ed-ad22-93779ab57973","1114","
                  <p style=""text-align: center;"">₪11
                                                <br>20%</p>
                  <p id=""wtp"" style=""text-align:center; margin-top: 0px; margin-bottom: 0px; font-size: 40px"";>מוכנים לשלם: <span id=""c_p_y""></span></p>","9","evaluation","20","4","12C,17C,23C,28C","20","11","9","","","","","","","","","","","","","","","","",""
"","","","","","html-keyboard-response","216","328284","0.0-25.0-2.2","aee18971-c24a-40ed-ad22-93779ab57973","null","<p style=""text-align: center;"">+</p>","null","fixation","","","","","","","","","","","","","","","","","","","","","","",""
"","","","","","html-slider-response","217","329286","0.0-25.0-0.3","aee18971-c24a-40ed-ad22-93779ab57973","1000","
                  <p style=""text-align: center;"">₪11
                                                <br>25%</p>
                  <p id=""wtp"" style=""text-align:center; margin-top: 0px; margin-bottom: 0px; font-size: 40px"";>&ensp;</p>","-","viewing","0","5","12A,27B,28B,30B","","","","","","","","","","","","","","","","","","","",""
"","","","","","html-slider-response","218","330052","0.0-25.0-1.3","aee18971-c24a-40ed-ad22-93779ab57973","765","
                  <p style=""text-align: center;"">₪11
                                                <br>25%</p>
                  <p id=""wtp"" style=""text-align:center; margin-top: 0px; margin-bottom: 0px; font-size: 40px"";>מוכנים לשלם: <span id=""c_p_y""></span></p>","9","evaluation","71","5","12A,27B,28B,30B","25","11","9","","","","","","","","","","","","","","","","",""
"","","","","","html-keyboard-response","219","331169","0.0-25.0-2.3","aee18971-c24a-40ed-ad22-93779ab57973","null","<p style=""text-align: center;"">+</p>","null","fixation","","","","","","","","","","","","","","","","","","","","","","",""
"","","","","","html-slider-response","220","332184","0.0-25.0-0.4","aee18971-c24a-40ed-ad22-93779ab57973","1000","
                  <p style=""text-align: center;"">₪43
                                                <br>75%</p>
                  <p id=""wtp"" style=""text-align:center; margin-top: 0px; margin-bottom: 0px; font-size: 40px"";>&ensp;</p>","-","viewing","0","18","11B,19B,24A,26A","","","","","","","","","","","","","","","","","","","",""
"","","","","","html-slider-response","221","333956","0.0-25.0-1.4","aee18971-c24a-40ed-ad22-93779ab57973","1771","
                  <p style=""text-align: center;"">₪43
                                                <br>75%</p>
                  <p id=""wtp"" style=""text-align:center; margin-top: 0px; margin-bottom: 0px; font-size: 40px"";>מוכנים לשלם: <span id=""c_p_y""></span></p>","40","evaluation","70","18","11B,19B,24A,26A","75","43","40","","","","","","","","","","","","","","","","",""
"","","","","","html-keyboard-response","222","335385","0.0-25.0-2.4","aee18971-c24a-40ed-ad22-93779ab57973","null","<p style=""text-align: center;"">+</p>","null","fixation","","","","","","","","","","","","","","","","","","","","","","",""
"","","","","","html-slider-response","223","336398","0.0-25.0-0.5","aee18971-c24a-40ed-ad22-93779ab57973","1000","
                  <p style=""text-align: center;"">₪4
                                                <br>25%</p>
                  <p id=""wtp"" style=""text-align:center; margin-top: 0px; margin-bottom: 0px; font-size: 40px"";>&ensp;</p>","-","viewing","0","1","6C,29B,30C","","","","","","","","","","","","","","","","","","","",""
"","","","","","html-slider-response","224","338812","0.0-25.0-1.5","aee18971-c24a-40ed-ad22-93779ab57973","2413","
                  <p style=""text-align: center;"">₪4
                                                <br>25%</p>
                  <p id=""wtp"" style=""text-align:center; margin-top: 0px; margin-bottom: 0px; font-size: 40px"";>מוכנים לשלם: <span id=""c_p_y""></span></p>","0","evaluation","41","1","6C,29B,30C","25","4","0","","","","","","","","","","","","","","","","",""
"","","","","","html-keyboard-response","225","339464","0.0-25.0-2.5","aee18971-c24a-40ed-ad22-93779ab57973","null","<p style=""text-align: center;"">+</p>","null","fixation","","","","","","","","","","","","","","","","","","","","","","",""
"","","","","","html-slider-response","226","340467","0.0-25.0-0.6","aee18971-c24a-40ed-ad22-93779ab57973","1000","
                  <p style=""text-align: center;"">₪18
                                                <br>50%</p>
                  <p id=""wtp"" style=""text-align:center; margin-top: 0px; margin-bottom: 0px; font-size: 40px"";>&ensp;</p>","-","viewing","0","10","2C,16C,22B,28A","","","","","","","","","","","","","","","","","","","",""
"","","","","","html-slider-response","227","342052","0.0-25.0-1.6","aee18971-c24a-40ed-ad22-93779ab57973","1584","
                  <p style=""text-align: center;"">₪18
                                                <br>50%</p>
                  <p id=""wtp"" style=""text-align:center; margin-top: 0px; margin-bottom: 0px; font-size: 40px"";>מוכנים לשלם: <span id=""c_p_y""></span></p>","20","evaluation","73","10","2C,16C,22B,28A","50","18","21","","","","","","","","","","","","","","","","",""
"","","","","","html-keyboard-response","228","343327","0.0-25.0-2.6","aee18971-c24a-40ed-ad22-93779ab57973","null","<p style=""text-align: center;"">+</p>","null","fixation","","","","","","","","","","","","","","","","","","","","","","",""
"","","","","","html-slider-response","229","344329","0.0-25.0-0.7","aee18971-c24a-40ed-ad22-93779ab57973","1000","
                  <p style=""text-align: center;"">₪71
                                                <br>55%</p>
                  <p id=""wtp"" style=""text-align:center; margin-top: 0px; margin-bottom: 0px; font-size: 40px"";>&ensp;</p>","-","viewing","0","27","5B,18A","","","","","","","","","","","","","","","","","","","",""
"","","","","","html-slider-response","230","347244","0.0-25.0-1.7","aee18971-c24a-40ed-ad22-93779ab57973","2913","
                  <p style=""text-align: center;"">₪71
                                                <br>55%</p>
                  <p id=""wtp"" style=""text-align:center; margin-top: 0px; margin-bottom: 0px; font-size: 40px"";>מוכנים לשלם: <span id=""c_p_y""></span></p>","64","evaluation","20","27","5B,18A","55","71","64","","","","","","","","","","","","","","","","",""
"","","","","","html-keyboard-response","231","348495","0.0-25.0-2.7","aee18971-c24a-40ed-ad22-93779ab57973","null","<p style=""text-align: center;"">+</p>","null","fixation","","","","","","","","","","","","","","","","","","","","","","",""
"","","","","","html-slider-response","232","349500","0.0-25.0-0.8","aee18971-c24a-40ed-ad22-93779ab57973","1000","
                  <p style=""text-align: center;"">₪64
                                                <br>50%</p>
                  <p id=""wtp"" style=""text-align:center; margin-top: 0px; margin-bottom: 0px; font-size: 40px"";>&ensp;</p>","-","viewing","0","25","1B,3B,4A","","","","","","","","","","","","","","","","","","","",""
"","","","","","html-slider-response","233","352332","0.0-25.0-1.8","aee18971-c24a-40ed-ad22-93779ab57973","2831","
                  <p style=""text-align: center;"">₪64
                                                <br>50%</p>
                  <p id=""wtp"" style=""text-align:center; margin-top: 0px; margin-bottom: 0px; font-size: 40px"";>מוכנים לשלם: <span id=""c_p_y""></span></p>","59","evaluation","66","25","1B,3B,4A","50","64","59","","","","","","","","","","","","","","","","",""
"","","","","","html-keyboard-response","234","353479","0.0-25.0-2.8","aee18971-c24a-40ed-ad22-93779ab57973","null","<p style=""text-align: center;"">+</p>","null","fixation","","","","","","","","","","","","","","","","","","","","","","",""
"","","","","","html-slider-response","235","354491","0.0-25.0-0.9","aee18971-c24a-40ed-ad22-93779ab57973","1000","
                  <p style=""text-align: center;"">₪64
                                                <br>25%</p>
                  <p id=""wtp"" style=""text-align:center; margin-top: 0px; margin-bottom: 0px; font-size: 40px"";>&ensp;</p>","-","viewing","0","24","6A,21A","","","","","","","","","","","","","","","","","","","",""
"","","","","","html-slider-response","236","355708","0.0-25.0-1.9","aee18971-c24a-40ed-ad22-93779ab57973","1215","
                  <p style=""text-align: center;"">₪64
                                                <br>25%</p>
                  <p id=""wtp"" style=""text-align:center; margin-top: 0px; margin-bottom: 0px; font-size: 40px"";>מוכנים לשלם: <span id=""c_p_y""></span></p>","55","evaluation","17","24","6A,21A","25","64","55","","","","","","","","","","","","","","","","",""
"","","","","","html-keyboard-response","237","356226","0.0-25.0-2.9","aee18971-c24a-40ed-ad22-93779ab57973","null","<p style=""text-align: center;"">+</p>","null","fixation","","","","","","","","","","","","","","","","","","","","","","",""
"","","","","","html-slider-response","238","357228","0.0-25.0-0.10","aee18971-c24a-40ed-ad22-93779ab57973","1000","
                  <p style=""text-align: center;"">₪79
                                                <br>65%</p>
                  <p id=""wtp"" style=""text-align:center; margin-top: 0px; margin-bottom: 0px; font-size: 40px"";>&ensp;</p>","-","viewing","0","31","8A","","","","","","","","","","","","","","","","","","","",""
"","","","","","html-slider-response","239","359180","0.0-25.0-1.10","aee18971-c24a-40ed-ad22-93779ab57973","1950","
                  <p style=""text-align: center;"">₪79
                                                <br>65%</p>
                  <p id=""wtp"" style=""text-align:center; margin-top: 0px; margin-bottom: 0px; font-size: 40px"";>מוכנים לשלם: <span id=""c_p_y""></span></p>","70","evaluation","77","31","8A","65","79","70","","","","","","","","","","","","","","","","",""
"","","","","","html-keyboard-response","240","360228","0.0-25.0-2.10","aee18971-c24a-40ed-ad22-93779ab57973","null","<p style=""text-align: center;"">+</p>","null","fixation","","","","","","","","","","","","","","","","","","","","","","",""
"","","","","","html-slider-response","241","361241","0.0-25.0-0.11","aee18971-c24a-40ed-ad22-93779ab57973","1000","
                  <p style=""text-align: center;"">₪39
                                                <br>65%</p>
                  <p id=""wtp"" style=""text-align:center; margin-top: 0px; margin-bottom: 0px; font-size: 40px"";>&ensp;</p>","-","viewing","0","16","1A,15A,26C","","","","","","","","","","","","","","","","","","","",""
"","","","","","html-slider-response","242","363868","0.0-25.0-1.11","aee18971-c24a-40ed-ad22-93779ab57973","2626","
                  <p style=""text-align: center;"">₪39
                                                <br>65%</p>
                  <p id=""wtp"" style=""text-align:center; margin-top: 0px; margin-bottom: 0px; font-size: 40px"";>מוכנים לשלם: <span id=""c_p_y""></span></p>","46","evaluation","3","16","1A,15A,26C","65","39","46","","","","","","","","","","","","","","","","",""
"","","","","","html-keyboard-response","243","365212","0.0-25.0-2.11","aee18971-c24a-40ed-ad22-93779ab57973","null","<p style=""text-align: center;"">+</p>","null","fixation","","","","","","","","","","","","","","","","","","","","","","",""
"","","","","","html-slider-response","244","366216","0.0-25.0-0.12","aee18971-c24a-40ed-ad22-93779ab57973","1000","
                  <p style=""text-align: center;"">₪79
                                                <br>40%</p>
                  <p id=""wtp"" style=""text-align:center; margin-top: 0px; margin-bottom: 0px; font-size: 40px"";>&ensp;</p>","-","viewing","0","30","9B","","","","","","","","","","","","","","","","","","","",""
"","","","","","html-slider-response","245","369260","0.0-25.0-1.12","aee18971-c24a-40ed-ad22-93779ab57973","3042","
                  <p style=""text-align: center;"">₪79
                                                <br>40%</p>
                  <p id=""wtp"" style=""text-align:center; margin-top: 0px; margin-bottom: 0px; font-size: 40px"";>מוכנים לשלם: <span id=""c_p_y""></span></p>","63","evaluation","77","30","9B","40","79","63","","","","","","","","","","","","","","","","",""
"","","","","","html-keyboard-response","246","370756","0.0-25.0-2.12","aee18971-c24a-40ed-ad22-93779ab57973","null","<p style=""text-align: center;"">+</p>","null","fixation","","","","","","","","","","","","","","","","","","","","","","",""
"","","","","","html-slider-response","247","371760","0.0-25.0-0.13","aee18971-c24a-40ed-ad22-93779ab57973","1000","
                  <p style=""text-align: center;"">₪36
                                                <br>70%</p>
                  <p id=""wtp"" style=""text-align:center; margin-top: 0px; margin-bottom: 0px; font-size: 40px"";>&ensp;</p>","-","viewing","0","13","3A,5C,10B","","","","","","","","","","","","","","","","","","","",""
"","","","","","html-slider-response","248","373412","0.0-25.0-1.13","aee18971-c24a-40ed-ad22-93779ab57973","1651","
                  <p style=""text-align: center;"">₪36
                                                <br>70%</p>
                  <p id=""wtp"" style=""text-align:center; margin-top: 0px; margin-bottom: 0px; font-size: 40px"";>מוכנים לשלם: <span id=""c_p_y""></span></p>","40","evaluation","37","13","3A,5C,10B","70","36","40","","","","","","","","","","","","","","","","",""
