"success","timeout","failed_images","failed_audio","failed_video","trial_type","trial_index","time_elapsed","internal_node_id","subject_id","rt","stimulus","response","part","slider_start","ID","set_ID","prob","amount","last_location","actual_choice","actual_EV","binary_id","trinary_id","catch","direction","A_key","S_key","D_key","choice_prob","choice_amount","won_prize","potential_prize_amount","potential_prize_prob","total_prize","accuracy"
"true","false","[]","[]","[]","preload","0","13","0.0-0.0","000a21dc-1f4d-4f9b-a337-ec28fddb1d57","","","","","","","","","","","","","","","","","","","","","","","","","",""
"","","","","","html-keyboard-response","1","13556","0.0-1.0","000a21dc-1f4d-4f9b-a337-ec28fddb1d57","null","
          <h1>שלום וברוכים הבאים!</h1>
          <p>לפניכם ניסוי בקבלת החלטות עם שני חלקים.
          <br><br>לחצו על העכבר כדי להמשיך.</p>","0","example","","","","","","","","","","","","","","","","","","","","","",""
"","","","","","html-keyboard-response","2","19460","0.0-2.0","000a21dc-1f4d-4f9b-a337-ec28fddb1d57","null","
        <h1>חלק 1</h1>
        <p>בקרוב יוצגו בפניכם הגרלות.
        <br>עליכם לבחור את המחיר המירבי שתהיו מוכנים לשלם כדי להשתתף בהגרלה שתוצג.
        <br>יש לכם תקציב של ₪80 לכל הגרלה. 
        <br>נסו להעריך כל הגרלה בנפרד ולחשוב כמה היא שווה עבורכם, ₪80 זמינים לכל הגרלה בנפרד.
        <br><br>לחצו על העכבר כדי להמשיך.</p>","1","instructions","","","","","","","","","","","","","","","","","","","","","",""
"","","","","","html-keyboard-response","3","24348","0.0-3.0","000a21dc-1f4d-4f9b-a337-ec28fddb1d57","null","
        <p>בסוף הניסוי, המחשב יבחר את אחת ההגרלות ויקבע מחיר לכרטיס עבורה. 
        <br>במידה והמחיר שבחרתם נמוך מהמחיר שנבחר על ידי המחשב, לא תשתתפו בהגרלה ותשארו עם מלוא התקציב.
        <br>במידה והמחיר שבחרתם גבוה מהמחיר שנבחר על ידי המחשב, תשלמו את המחיר שנקבע ותשתתפו בהגרלה.
        <br><br>לחצו על העכבר כדי להמשיך.</p>","1","instructions","","","","","","","","","","","","","","","","","","","","","",""
"","","","","","html-slider-response","4","57692","0.0-4.0","000a21dc-1f4d-4f9b-a337-ec28fddb1d57","33228","
        <p style=""font-size: 42px;"">נתחיל עם דוגמא: 
        <br>ההגרלה מטה מציעה 65% סיכוי לזכות ב-₪40 
        <br>&emsp;&emsp;&emsp;&emsp;&emsp;&emsp;&emsp;&emsp;&ensp;35% סיכוי לזכות ב-₪0.
        <br><br>מה המחיר המירבי שתהיו מוכנים לשלם על כרטיס להגרלה זו בין 0 ל-₪80?
        <br>הזיזו את העכבר על פני המלבן ולחצו כדי לבצע בחירה.</p>
        
        <p style=""text-align: center;"">₪40<br>65%</p>

        <p id=""wtp"" style=""text-align:center; margin-top: 0px; margin-bottom: 0px; font-size: 40px"";>מוכנים לשלם: <span id=""c_p_y""></span></p>","20","example","74","","","","","","","","","","","","","","","","","","","","",""
"","","","","","html-keyboard-response","5","65307","0.0-5.0","000a21dc-1f4d-4f9b-a337-ec28fddb1d57","null","<p>יפה מאוד!
                <br> בחרתם שתהיו מוכנים לשלם ₪20 כדי להשתתף בהגרלה:
                <br><p style=""text-align: center;"">₪40<br>65%</p>
                <p>נשמע נכון?
                <br>נניח שהגרלה זו נבחרה בסוף הניסוי.
                <br>כעת המחשב יקבע מחיר עבורה באקראי.
                <br>לחצו על העכבר להמשך.</p>","1","example","","","","","","","","","","","","","","","","","","","","","",""
"","","","","","html-keyboard-response","6","72068","0.0-6.0","000a21dc-1f4d-4f9b-a337-ec28fddb1d57","null","<p>המחשב קבע מחיר: ₪31
                <br>ואתם בחרתם לשלם לכל היותר: ₪20
                <br><br>מכיוון שהמחיר שבחרתם נמוך מהמחיר שנקבע, לא תתשתתפו בהגרלה.
                <br>במקרה כזה, בסוף הניסוי תקבלו את כל התקציב ההתחלתי של ₪80.
                <br><br>לחצו על העכבר להמשך.</p>","1","example","","","","","","","","","","","","","","","","","","","","","",""
"","","","","","html-slider-response","7","84180","0.0-7.0","000a21dc-1f4d-4f9b-a337-ec28fddb1d57","11858","<p style=""font-size: 42px;"">הנה עוד דוגמא:
                <br>ההגרלה מטה מציעה 35% סיכוי לזכות ב-₪18 
                <br>&emsp;&emsp;&emsp;&emsp;&emsp;&emsp;&emsp;&emsp;&ensp;65% סיכוי לזכות ב-₪0.</p>
        
                <p style=""text-align: center;"">₪18<br>35%</p>
                <p id=""wtp"" style=""text-align:center; margin-top: 0px; margin-bottom: 0px; font-size: 40px"";>מוכנים לשלם: <span id=""c_p_y""></span></p>","5","example","74","","","","","","","","","","","","","","","","","","","","",""
"","","","","","html-keyboard-response","8","86659","0.0-8.0","000a21dc-1f4d-4f9b-a337-ec28fddb1d57","null","<p>הייתם מוכנים לשלם  ₪5 כדי להשתתף בהגרלה:
                <p style=""text-align: center;"">₪18<br>35%</p>
                <p>כעת נניח שהמחשב בחר את ההגרלה הזו בסוף הניסוי, וקבע עבורה מחיר.
                <br><br>לחצו על העכבר כדי להמשיך.</p>","1","instructions","","","","","","","","","","","","","","","","","","","","","",""
"","","","","","html-keyboard-response","9","94740","0.0-9.0","000a21dc-1f4d-4f9b-a337-ec28fddb1d57","null","<p>המחשב קבע מחיר להגרלה: ₪0<br>ואתם בחרתם לשלם לכל היותר: ₪5
                <br><br>כעת המחיר שנקבע נמוך מזה שבחרתם, אז תשלמו את המחיר שקבע המחשב (₪0) ותשתתפו בהגרלה.
                <br>במקרה כזה, תסיימו את הניסוי עם תקציב של ₪80 ועם סיכוי לזכות ב-₪18 נוספים מההגרלה.
                <br>כלומר, תוכלו לקבל ₪80 אם לא תזכו בהגרלה, או ₪98 אם תזכו בהגרלה.
                <br><br>לחצו על העכבר להמשך.</p>","1","example","","","","","","","","","","","","","","","","","","","","","",""
"","","","","","html-keyboard-response","10","99588","0.0-10.0","000a21dc-1f4d-4f9b-a337-ec28fddb1d57","null","<p>במהלך הניסוי, קודם תראו את ההגרלה ורק לאחר מכן תוכלו לבחור.
                <p>כמו כן, יהיו לכם מספר שניות מוגבל להגיב.
                <p>בואו ננסה זאת עם ההגרלה הקודמת.
                <br>לחצו על העכבר כדי להמשיך.</p>","1","instructions","","","","","","","","","","","","","","","","","","","","","",""
"","","","","","html-slider-response","11","100869","0.0-11.0","000a21dc-1f4d-4f9b-a337-ec28fddb1d57","1000","
                    <p style=""text-align: center;"">₪18<br>35%</p>
                    <p id=""wtp"" style=""text-align:center; margin-top: 0px; margin-bottom: 0px; font-size: 40px"";>&ensp;</p>","75","instructions","0","","","","","","","","","","","","","","","","","","","","",""
"","","","","","html-slider-response","12","105125","0.0-12.0","000a21dc-1f4d-4f9b-a337-ec28fddb1d57","null","
                    <p style=""text-align: center;"">₪18<br>35%</p>
                    <p id=""wtp"" style=""text-align:center; margin-top: 0px; margin-bottom: 0px; font-size: 40px"";>מוכנים לשלם: <span id=""c_p_y""></span></p>","null","instructions","15","","","","","","","","","","","","","","","","","","","","",""
"","","","","","html-keyboard-response","13","105548","0.0-13.0","000a21dc-1f4d-4f9b-a337-ec28fddb1d57","null","<p>לא הגבתם בזמן המוקצב לתגובה. 
                <br>נסו להגיב מהר יותר בפעם הבאה.
                <br><br>לחצו על העכבר כדי להמשיך.</p>","1","instructions","","","","","","","","","","","","","","","","","","","","","",""
"","","","","","html-slider-response","14","109044","0.0-14.0-0.0","000a21dc-1f4d-4f9b-a337-ec28fddb1d57","3240","
                    <p style=""text-align: center;"">₪40<br>65%</p>
                    <p id=""wtp"" style=""text-align:center; margin-top: 0px; margin-bottom: 0px; font-size: 40px"";>מוכנים לשלם: <span id=""c_p_y""></span></p>","23","instructions","36","","","","","","","","","","","","","","","","","","","","",""
"","","","","","html-keyboard-response","15","112972","0.0-14.0-1.0","000a21dc-1f4d-4f9b-a337-ec28fddb1d57","null","<p>יפה. הפעם בחרתם לשלם לכל היותר ₪23.
                <br><br>לחצו על העכבר כדי להמשיך.</p>","1","instructions","","","","","","","","","","","","","","","","","","","","","",""
"","","","","","html-keyboard-response","16","119756","0.0-15.0","000a21dc-1f4d-4f9b-a337-ec28fddb1d57","null","<p>כעת נתחיל את הניסוי.
                <br><br>אתם תראו הגרלות ותתבקשו לבחור כמה תהיו מוכנים לשלם כדי להשתתף בהן.
                <br>יש לכם תקציב של ₪80 עבור כל הגרלה.
                <br>בסוף הניסוי הגרלה אחת תבחר באקראי ותשוחק.
                <br><br>לחצו על העכבר כדי להתחיל את הניסוי.</p>","1","instructions","","","","","","","","","","","","","","","","","","","","","",""
"","","","","","html-keyboard-response","17","121032","0.0-16.0","000a21dc-1f4d-4f9b-a337-ec28fddb1d57","null","<p style=""text-align: center;"">+</p>","null","fixation","","","","","","","","","","","","","","","","","","","","","",""
"","","","","","html-slider-response","18","122042","0.0-17.0-0.0","000a21dc-1f4d-4f9b-a337-ec28fddb1d57","1000","
                  <p style=""text-align: center;"">₪79
                                                <br>65%</p>
                  <p id=""wtp"" style=""text-align:center; margin-top: 0px; margin-bottom: 0px; font-size: 40px"";>&ensp;</p>","-","viewing","0","31","8A","","","","","","","","","","","","","","","","","","",""
"","","","","","html-slider-response","19","125516","0.0-17.0-1.0","000a21dc-1f4d-4f9b-a337-ec28fddb1d57","3472","
                  <p style=""text-align: center;"">₪79
                                                <br>65%</p>
                  <p id=""wtp"" style=""text-align:center; margin-top: 0px; margin-bottom: 0px; font-size: 40px"";>מוכנים לשלם: <span id=""c_p_y""></span></p>","30","evaluation","2","31","8A","65","79","30","","","","","","","","","","","","","","","",""
"","","","","","html-keyboard-response","20","126216","0.0-17.0-2.0","000a21dc-1f4d-4f9b-a337-ec28fddb1d57","null","<p style=""text-align: center;"">+</p>","null","fixation","","","","","","","","","","","","","","","","","","","","","",""
"","","","","","html-slider-response","21","127221","0.0-17.0-0.1","000a21dc-1f4d-4f9b-a337-ec28fddb1d57","1000","
                  <p style=""text-align: center;"">₪58
                                                <br>45%</p>
                  <p id=""wtp"" style=""text-align:center; margin-top: 0px; margin-bottom: 0px; font-size: 40px"";>&ensp;</p>","-","viewing","0","21","11C,18C,25A","","","","","","","","","","","","","","","","","","",""
"","","","","","html-slider-response","22","131232","0.0-17.0-1.1","000a21dc-1f4d-4f9b-a337-ec28fddb1d57","null","
                  <p style=""text-align: center;"">₪58
                                                <br>45%</p>
                  <p id=""wtp"" style=""text-align:center; margin-top: 0px; margin-bottom: 0px; font-size: 40px"";>מוכנים לשלם: <span id=""c_p_y""></span></p>","null","evaluation","11","21","11C,18C,25A","45","58","20","","","","","","","","","","","","","","","",""
"","","","","","html-keyboard-response","23","132373","0.0-17.0-2.1","000a21dc-1f4d-4f9b-a337-ec28fddb1d57","null","<p style=""text-align: center;"">+</p>","null","fixation","","","","","","","","","","","","","","","","","","","","","",""
"","","","","","html-slider-response","24","133382","0.0-17.0-0.2","000a21dc-1f4d-4f9b-a337-ec28fddb1d57","1000","
                  <p style=""text-align: center;"">₪36
                                                <br>30%</p>
                  <p id=""wtp"" style=""text-align:center; margin-top: 0px; margin-bottom: 0px; font-size: 40px"";>&ensp;</p>","-","viewing","0","11","3C,20A,22A","","","","","","","","","","","","","","","","","","",""
"","","","","","html-slider-response","25","136748","0.0-17.0-1.2","000a21dc-1f4d-4f9b-a337-ec28fddb1d57","3364","
                  <p style=""text-align: center;"">₪36
                                                <br>30%</p>
                  <p id=""wtp"" style=""text-align:center; margin-top: 0px; margin-bottom: 0px; font-size: 40px"";>מוכנים לשלם: <span id=""c_p_y""></span></p>","7","evaluation","22","11","3C,20A,22A","30","36","7","","","","","","","","","","","","","","","",""
"","","","","","html-keyboard-response","26","137486","0.0-17.0-2.2","000a21dc-1f4d-4f9b-a337-ec28fddb1d57","null","<p style=""text-align: center;"">+</p>","null","fixation","","","","","","","","","","","","","","","","","","","","","",""
"","","","","","html-slider-response","27","138489","0.0-17.0-0.3","000a21dc-1f4d-4f9b-a337-ec28fddb1d57","1000","
                  <p style=""text-align: center;"">₪18
                                                <br>50%</p>
                  <p id=""wtp"" style=""text-align:center; margin-top: 0px; margin-bottom: 0px; font-size: 40px"";>&ensp;</p>","-","viewing","0","10","2C,16C,22B,28A","","","","","","","","","","","","","","","","","","",""
"","","","","","html-slider-response","28","142324","0.0-17.0-1.3","000a21dc-1f4d-4f9b-a337-ec28fddb1d57","3834","
                  <p style=""text-align: center;"">₪18
                                                <br>50%</p>
                  <p id=""wtp"" style=""text-align:center; margin-top: 0px; margin-bottom: 0px; font-size: 40px"";>מוכנים לשלם: <span id=""c_p_y""></span></p>","8","evaluation","7","10","2C,16C,22B,28A","50","18","8","","","","","","","","","","","","","","","",""
"","","","","","html-keyboard-response","29","143482","0.0-17.0-2.3","000a21dc-1f4d-4f9b-a337-ec28fddb1d57","null","<p style=""text-align: center;"">+</p>","null","fixation","","","","","","","","","","","","","","","","","","","","","",""
"","","","","","html-slider-response","30","144487","0.0-17.0-0.4","000a21dc-1f4d-4f9b-a337-ec28fddb1d57","1000","
                  <p style=""text-align: center;"">₪43
                                                <br>60%</p>
                  <p id=""wtp"" style=""text-align:center; margin-top: 0px; margin-bottom: 0px; font-size: 40px"";>&ensp;</p>","-","viewing","0","17","2A,7A,9A,15B","","","","","","","","","","","","","","","","","","",""
"","","","","","html-slider-response","31","148504","0.0-17.0-1.4","000a21dc-1f4d-4f9b-a337-ec28fddb1d57","null","
                  <p style=""text-align: center;"">₪43
                                                <br>60%</p>
                  <p id=""wtp"" style=""text-align:center; margin-top: 0px; margin-bottom: 0px; font-size: 40px"";>מוכנים לשלם: <span id=""c_p_y""></span></p>","null","evaluation","28","17","2A,7A,9A,15B","60","43","20","","","","","","","","","","","","","","","",""
"","","","","","html-keyboard-response","32","149126","0.0-17.0-2.4","000a21dc-1f4d-4f9b-a337-ec28fddb1d57","null","<p style=""text-align: center;"">+</p>","null","fixation","","","","","","","","","","","","","","","","","","","","","",""
"","","","","","html-slider-response","33","150137","0.0-17.0-0.5","000a21dc-1f4d-4f9b-a337-ec28fddb1d57","1000","
                  <p style=""text-align: center;"">₪4
                                                <br>75%</p>
                  <p id=""wtp"" style=""text-align:center; margin-top: 0px; margin-bottom: 0px; font-size: 40px"";>&ensp;</p>","-","viewing","0","3","12B,20B,23B,27C,29C","","","","","","","","","","","","","","","","","","",""
"","","","","","html-slider-response","34","154143","0.0-17.0-1.5","000a21dc-1f4d-4f9b-a337-ec28fddb1d57","null","
                  <p style=""text-align: center;"">₪4
                                                <br>75%</p>
                  <p id=""wtp"" style=""text-align:center; margin-top: 0px; margin-bottom: 0px; font-size: 40px"";>מוכנים לשלם: <span id=""c_p_y""></span></p>","null","evaluation","62","3","12B,20B,23B,27C,29C","75","4","4","","","","","","","","","","","","","","","",""
"","","","","","html-keyboard-response","35","155535","0.0-17.0-2.5","000a21dc-1f4d-4f9b-a337-ec28fddb1d57","null","<p style=""text-align: center;"">+</p>","null","fixation","","","","","","","","","","","","","","","","","","","","","",""
"","","","","","html-slider-response","36","156547","0.0-17.0-0.6","000a21dc-1f4d-4f9b-a337-ec28fddb1d57","1000","
                  <p style=""text-align: center;"">₪58
                                                <br>30%</p>
                  <p id=""wtp"" style=""text-align:center; margin-top: 0px; margin-bottom: 0px; font-size: 40px"";>&ensp;</p>","-","viewing","0","19","13C,30A","","","","","","","","","","","","","","","","","","",""
"","","","","","html-slider-response","37","159380","0.0-17.0-1.6","000a21dc-1f4d-4f9b-a337-ec28fddb1d57","2833","
                  <p style=""text-align: center;"">₪58
                                                <br>30%</p>
                  <p id=""wtp"" style=""text-align:center; margin-top: 0px; margin-bottom: 0px; font-size: 40px"";>מוכנים לשלם: <span id=""c_p_y""></span></p>","10","evaluation","78","19","13C,30A","30","58","10","","","","","","","","","","","","","","","",""
"","","","","","html-keyboard-response","38","160667","0.0-17.0-2.6","000a21dc-1f4d-4f9b-a337-ec28fddb1d57","null","<p style=""text-align: center;"">+</p>","null","fixation","","","","","","","","","","","","","","","","","","","","","",""
"","","","","","html-slider-response","39","161668","0.0-17.0-0.7","000a21dc-1f4d-4f9b-a337-ec28fddb1d57","1000","
                  <p style=""text-align: center;"">₪4
                                                <br>50%</p>
                  <p id=""wtp"" style=""text-align:center; margin-top: 0px; margin-bottom: 0px; font-size: 40px"";>&ensp;</p>","-","viewing","0","2","4C,17B","","","","","","","","","","","","","","","","","","",""
"","","","","","html-slider-response","40","164372","0.0-17.0-1.7","000a21dc-1f4d-4f9b-a337-ec28fddb1d57","2702","
                  <p style=""text-align: center;"">₪4
                                                <br>50%</p>
                  <p id=""wtp"" style=""text-align:center; margin-top: 0px; margin-bottom: 0px; font-size: 40px"";>מוכנים לשלם: <span id=""c_p_y""></span></p>","3","evaluation","68","2","4C,17B","50","4","3","","","","","","","","","","","","","","","",""
"","","","","","html-keyboard-response","41","165136","0.0-17.0-2.7","000a21dc-1f4d-4f9b-a337-ec28fddb1d57","null","<p style=""text-align: center;"">+</p>","null","fixation","","","","","","","","","","","","","","","","","","","","","",""
"","","","","","html-slider-response","42","166142","0.0-17.0-0.8","000a21dc-1f4d-4f9b-a337-ec28fddb1d57","1000","
                  <p style=""text-align: center;"">₪36
                                                <br>60%</p>
                  <p id=""wtp"" style=""text-align:center; margin-top: 0px; margin-bottom: 0px; font-size: 40px"";>&ensp;</p>","-","viewing","0","12","1C,7C,15C","","","","","","","","","","","","","","","","","","",""
"","","","","","html-slider-response","43","168404","0.0-17.0-1.8","000a21dc-1f4d-4f9b-a337-ec28fddb1d57","2261","
                  <p style=""text-align: center;"">₪36
                                                <br>60%</p>
                  <p id=""wtp"" style=""text-align:center; margin-top: 0px; margin-bottom: 0px; font-size: 40px"";>מוכנים לשלם: <span id=""c_p_y""></span></p>","9","evaluation","72","12","1C,7C,15C","60","36","10","","","","","","","","","","","","","","","",""
"","","","","","html-keyboard-response","44","169389","0.0-17.0-2.8","000a21dc-1f4d-4f9b-a337-ec28fddb1d57","null","<p style=""text-align: center;"">+</p>","null","fixation","","","","","","","","","","","","","","","","","","","","","",""
"","","","","","html-slider-response","45","170393","0.0-17.0-0.9","000a21dc-1f4d-4f9b-a337-ec28fddb1d57","1000","
                  <p style=""text-align: center;"">₪39
                                                <br>60%</p>
                  <p id=""wtp"" style=""text-align:center; margin-top: 0px; margin-bottom: 0px; font-size: 40px"";>&ensp;</p>","-","viewing","0","15","9C,25B","","","","","","","","","","","","","","","","","","",""
"","","","","","html-slider-response","46","173284","0.0-17.0-1.9","000a21dc-1f4d-4f9b-a337-ec28fddb1d57","2890","
                  <p style=""text-align: center;"">₪39
                                                <br>60%</p>
                  <p id=""wtp"" style=""text-align:center; margin-top: 0px; margin-bottom: 0px; font-size: 40px"";>מוכנים לשלם: <span id=""c_p_y""></span></p>","12","evaluation","68","15","9C,25B","60","39","12","","","","","","","","","","","","","","","",""
"","","","","","html-keyboard-response","47","174162","0.0-17.0-2.9","000a21dc-1f4d-4f9b-a337-ec28fddb1d57","null","<p style=""text-align: center;"">+</p>","null","fixation","","","","","","","","","","","","","","","","","","","","","",""
"","","","","","html-slider-response","48","175177","0.0-17.0-0.10","000a21dc-1f4d-4f9b-a337-ec28fddb1d57","1000","
                  <p style=""text-align: center;"">₪61
                                                <br>55%</p>
                  <p id=""wtp"" style=""text-align:center; margin-top: 0px; margin-bottom: 0px; font-size: 40px"";>&ensp;</p>","-","viewing","0","23","7B,26B","","","","","","","","","","","","","","","","","","",""
"","","","","","html-slider-response","49","179140","0.0-17.0-1.10","000a21dc-1f4d-4f9b-a337-ec28fddb1d57","3962","
                  <p style=""text-align: center;"">₪61
                                                <br>55%</p>
                  <p id=""wtp"" style=""text-align:center; margin-top: 0px; margin-bottom: 0px; font-size: 40px"";>מוכנים לשלם: <span id=""c_p_y""></span></p>","20","evaluation","80","23","7B,26B","55","61","20","","","","","","","","","","","","","","","",""
"","","","","","html-keyboard-response","50","179871","0.0-17.0-2.10","000a21dc-1f4d-4f9b-a337-ec28fddb1d57","null","<p style=""text-align: center;"">+</p>","null","fixation","","","","","","","","","","","","","","","","","","","","","",""
"","","","","","html-slider-response","51","180881","0.0-17.0-0.11","000a21dc-1f4d-4f9b-a337-ec28fddb1d57","1000","
                  <p style=""text-align: center;"">₪64
                                                <br>25%</p>
                  <p id=""wtp"" style=""text-align:center; margin-top: 0px; margin-bottom: 0px; font-size: 40px"";>&ensp;</p>","-","viewing","0","24","6A,21A","","","","","","","","","","","","","","","","","","",""
"","","","","","html-slider-response","52","184604","0.0-17.0-1.11","000a21dc-1f4d-4f9b-a337-ec28fddb1d57","3722","
                  <p style=""text-align: center;"">₪64
                                                <br>25%</p>
                  <p id=""wtp"" style=""text-align:center; margin-top: 0px; margin-bottom: 0px; font-size: 40px"";>מוכנים לשלם: <span id=""c_p_y""></span></p>","5","evaluation","42","24","6A,21A","25","64","5","","","","","","","","","","","","","","","",""
"","","","","","html-keyboard-response","53","185408","0.0-17.0-2.11","000a21dc-1f4d-4f9b-a337-ec28fddb1d57","null","<p style=""text-align: center;"">+</p>","null","fixation","","","","","","","","","","","","","","","","","","","","","",""
"","","","","","html-slider-response","54","186416","0.0-17.0-0.12","000a21dc-1f4d-4f9b-a337-ec28fddb1d57","1000","
                  <p style=""text-align: center;"">₪11
                                                <br>20%</p>
                  <p id=""wtp"" style=""text-align:center; margin-top: 0px; margin-bottom: 0px; font-size: 40px"";>&ensp;</p>","-","viewing","0","4","12C,17C,23C,28C","","","","","","","","","","","","","","","","","","",""
"","","","","","html-slider-response","55","190418","0.0-17.0-1.12","000a21dc-1f4d-4f9b-a337-ec28fddb1d57","null","
                  <p style=""text-align: center;"">₪11
                                                <br>20%</p>
                  <p id=""wtp"" style=""text-align:center; margin-top: 0px; margin-bottom: 0px; font-size: 40px"";>מוכנים לשלם: <span id=""c_p_y""></span></p>","null","evaluation","80","4","12C,17C,23C,28C","20","11","3","","","","","","","","","","","","","","","",""
"","","","","","html-keyboard-response","56","191465","0.0-17.0-2.12","000a21dc-1f4d-4f9b-a337-ec28fddb1d57","null","<p style=""text-align: center;"">+</p>","null","fixation","","","","","","","","","","","","","","","","","","","","","",""
"","","","","","html-slider-response","57","192482","0.0-17.0-0.13","000a21dc-1f4d-4f9b-a337-ec28fddb1d57","1000","
                  <p style=""text-align: center;"">₪79
                                                <br>40%</p>
                  <p id=""wtp"" style=""text-align:center; margin-top: 0px; margin-bottom: 0px; font-size: 40px"";>&ensp;</p>","-","viewing","0","30","9B","","","","","","","","","","","","","","","","","","",""
"","","","","","html-slider-response","58","196493","0.0-17.0-1.13","000a21dc-1f4d-4f9b-a337-ec28fddb1d57","null","
                  <p style=""text-align: center;"">₪79
                                                <br>40%</p>
                  <p id=""wtp"" style=""text-align:center; margin-top: 0px; margin-bottom: 0px; font-size: 40px"";>מוכנים לשלם: <span id=""c_p_y""></span></p>","null","evaluation","40","30","9B","40","79","8","","","","","","","","","","","","","","","",""
"","","","","","html-keyboard-response","59","197391","0.0-17.0-2.13","000a21dc-1f4d-4f9b-a337-ec28fddb1d57","null","<p style=""text-align: center;"">+</p>","null","fixation","","","","","","","","","","","","","","","","","","","","","",""
"","","","","","html-slider-response","60","198393","0.0-17.0-0.14","000a21dc-1f4d-4f9b-a337-ec28fddb1d57","1000","
                  <p style=""text-align: center;"">₪39
                                                <br>65%</p>
                  <p id=""wtp"" style=""text-align:center; margin-top: 0px; margin-bottom: 0px; font-size: 40px"";>&ensp;</p>","-","viewing","0","16","1A,15A,26C","","","","","","","","","","","","","","","","","","",""
"","","","","","html-slider-response","61","201220","0.0-17.0-1.14","000a21dc-1f4d-4f9b-a337-ec28fddb1d57","2825","
                  <p style=""text-align: center;"">₪39
                                                <br>65%</p>
                  <p id=""wtp"" style=""text-align:center; margin-top: 0px; margin-bottom: 0px; font-size: 40px"";>מוכנים לשלם: <span id=""c_p_y""></span></p>","19","evaluation","60","16","1A,15A,26C","65","39","19","","","","","","","","","","","","","","","",""
"","","","","","html-keyboard-response","62","202657","0.0-17.0-2.14","000a21dc-1f4d-4f9b-a337-ec28fddb1d57","null","<p style=""text-align: center;"">+</p>","null","fixation","","","","","","","","","","","","","","","","","","","","","",""
"","","","","","html-slider-response","63","203659","0.0-17.0-0.15","000a21dc-1f4d-4f9b-a337-ec28fddb1d57","1000","
                  <p style=""text-align: center;"">₪16
                                                <br>20%</p>
                  <p id=""wtp"" style=""text-align:center; margin-top: 0px; margin-bottom: 0px; font-size: 40px"";>&ensp;</p>","-","viewing","0","8","14C,17A,20C,27A","","","","","","","","","","","","","","","","","","",""
"","","","","","html-slider-response","64","206508","0.0-17.0-1.15","000a21dc-1f4d-4f9b-a337-ec28fddb1d57","2847","
                  <p style=""text-align: center;"">₪16
                                                <br>20%</p>
                  <p id=""wtp"" style=""text-align:center; margin-top: 0px; margin-bottom: 0px; font-size: 40px"";>מוכנים לשלם: <span id=""c_p_y""></span></p>","4","evaluation","63","8","14C,17A,20C,27A","20","16","4","","","","","","","","","","","","","","","",""
"","","","","","html-keyboard-response","65","207609","0.0-17.0-2.15","000a21dc-1f4d-4f9b-a337-ec28fddb1d57","null","<p style=""text-align: center;"">+</p>","null","fixation","","","","","","","","","","","","","","","","","","","","","",""
"","","","","","html-slider-response","66","208622","0.0-17.0-0.16","000a21dc-1f4d-4f9b-a337-ec28fddb1d57","1000","
                  <p style=""text-align: center;"">₪76
                                                <br>65%</p>
                  <p id=""wtp"" style=""text-align:center; margin-top: 0px; margin-bottom: 0px; font-size: 40px"";>&ensp;</p>","-","viewing","0","29","8C,19A,24B","","","","","","","","","","","","","","","","","","",""
"","","","","","html-slider-response","67","211340","0.0-17.0-1.16","000a21dc-1f4d-4f9b-a337-ec28fddb1d57","2717","
                  <p style=""text-align: center;"">₪76
                                                <br>65%</p>
                  <p id=""wtp"" style=""text-align:center; margin-top: 0px; margin-bottom: 0px; font-size: 40px"";>מוכנים לשלם: <span id=""c_p_y""></span></p>","30","evaluation","46","29","8C,19A,24B","65","76","30","","","","","","","","","","","","","","","",""
"","","","","","html-keyboard-response","68","212359","0.0-17.0-2.16","000a21dc-1f4d-4f9b-a337-ec28fddb1d57","null","<p style=""text-align: center;"">+</p>","null","fixation","","","","","","","","","","","","","","","","","","","","","",""
"","","","","","html-slider-response","69","213363","0.0-17.0-0.17","000a21dc-1f4d-4f9b-a337-ec28fddb1d57","1000","
                  <p style=""text-align: center;"">₪11
                                                <br>45%</p>
                  <p id=""wtp"" style=""text-align:center; margin-top: 0px; margin-bottom: 0px; font-size: 40px"";>&ensp;</p>","-","viewing","0","6","14B,21C,25C","","","","","","","","","","","","","","","","","","",""
"","","","","","html-slider-response","70","217108","0.0-17.0-1.17","000a21dc-1f4d-4f9b-a337-ec28fddb1d57","3743","
                  <p style=""text-align: center;"">₪11
                                                <br>45%</p>
                  <p id=""wtp"" style=""text-align:center; margin-top: 0px; margin-bottom: 0px; font-size: 40px"";>מוכנים לשלם: <span id=""c_p_y""></span></p>","2","evaluation","62","6","14B,21C,25C","45","11","2","","","","","","","","","","","","","","","",""
"","","","","","html-keyboard-response","71","218592","0.0-17.0-2.17","000a21dc-1f4d-4f9b-a337-ec28fddb1d57","null","<p style=""text-align: center;"">+</p>","null","fixation","","","","","","","","","","","","","","","","","","","","","",""
"","","","","","html-slider-response","72","219599","0.0-17.0-0.18","000a21dc-1f4d-4f9b-a337-ec28fddb1d57","1000","
                  <p style=""text-align: center;"">₪58
                                                <br>40%</p>
                  <p id=""wtp"" style=""text-align:center; margin-top: 0px; margin-bottom: 0px; font-size: 40px"";>&ensp;</p>","-","viewing","0","20","10C,13A,19C,21B","","","","","","","","","","","","","","","","","","",""
"","","","","","html-slider-response","73","223607","0.0-17.0-1.18","000a21dc-1f4d-4f9b-a337-ec28fddb1d57","null","
                  <p style=""text-align: center;"">₪58
                                                <br>40%</p>
                  <p id=""wtp"" style=""text-align:center; margin-top: 0px; margin-bottom: 0px; font-size: 40px"";>מוכנים לשלם: <span id=""c_p_y""></span></p>","null","evaluation","49","20","10C,13A,19C,21B","40","58","12","","","","","","","","","","","","","","","",""
"","","","","","html-keyboard-response","74","224811","0.0-17.0-2.18","000a21dc-1f4d-4f9b-a337-ec28fddb1d57","null","<p style=""text-align: center;"">+</p>","null","fixation","","","","","","","","","","","","","","","","","","","","","",""
"","","","","","html-slider-response","75","225820","0.0-17.0-0.19","000a21dc-1f4d-4f9b-a337-ec28fddb1d57","1000","
                  <p style=""text-align: center;"">₪36
                                                <br>75%</p>
                  <p id=""wtp"" style=""text-align:center; margin-top: 0px; margin-bottom: 0px; font-size: 40px"";>&ensp;</p>","-","viewing","0","14","4B,5A,13B,16B","","","","","","","","","","","","","","","","","","",""
"","","","","","html-slider-response","76","228676","0.0-17.0-1.19","000a21dc-1f4d-4f9b-a337-ec28fddb1d57","2855","
                  <p style=""text-align: center;"">₪36
                                                <br>75%</p>
                  <p id=""wtp"" style=""text-align:center; margin-top: 0px; margin-bottom: 0px; font-size: 40px"";>מוכנים לשלם: <span id=""c_p_y""></span></p>","15","evaluation","46","14","4B,5A,13B,16B","75","36","15","","","","","","","","","","","","","","","",""
"","","","","","html-keyboard-response","77","229902","0.0-17.0-2.19","000a21dc-1f4d-4f9b-a337-ec28fddb1d57","null","<p style=""text-align: center;"">+</p>","null","fixation","","","","","","","","","","","","","","","","","","","","","",""
"","","","","","html-slider-response","78","230905","0.0-17.0-0.20","000a21dc-1f4d-4f9b-a337-ec28fddb1d57","1000","
                  <p style=""text-align: center;"">₪61
                                                <br>45%</p>
                  <p id=""wtp"" style=""text-align:center; margin-top: 0px; margin-bottom: 0px; font-size: 40px"";>&ensp;</p>","-","viewing","0","22","10A,11A","","","","","","","","","","","","","","","","","","",""
"","","","","","html-slider-response","79","233452","0.0-17.0-1.20","000a21dc-1f4d-4f9b-a337-ec28fddb1d57","2545","
                  <p style=""text-align: center;"">₪61
                                                <br>45%</p>
                  <p id=""wtp"" style=""text-align:center; margin-top: 0px; margin-bottom: 0px; font-size: 40px"";>מוכנים לשלם: <span id=""c_p_y""></span></p>","15","evaluation","35","22","10A,11A","45","61","15","","","","","","","","","","","","","","","",""
"","","","","","html-keyboard-response","80","234750","0.0-17.0-2.20","000a21dc-1f4d-4f9b-a337-ec28fddb1d57","null","<p style=""text-align: center;"">+</p>","null","fixation","","","","","","","","","","","","","","","","","","","","","",""
"","","","","","html-slider-response","81","235764","0.0-17.0-0.21","000a21dc-1f4d-4f9b-a337-ec28fddb1d57","1000","
                  <p style=""text-align: center;"">₪36
                                                <br>70%</p>
                  <p id=""wtp"" style=""text-align:center; margin-top: 0px; margin-bottom: 0px; font-size: 40px"";>&ensp;</p>","-","viewing","0","13","3A,5C,10B","","","","","","","","","","","","","","","","","","",""
"","","","","","html-slider-response","82","239708","0.0-17.0-1.21","000a21dc-1f4d-4f9b-a337-ec28fddb1d57","3943","
                  <p style=""text-align: center;"">₪36
                                                <br>70%</p>
                  <p id=""wtp"" style=""text-align:center; margin-top: 0px; margin-bottom: 0px; font-size: 40px"";>מוכנים לשלם: <span id=""c_p_y""></span></p>","19","evaluation","25","13","3A,5C,10B","70","36","19","","","","","","","","","","","","","","","",""
"","","","","","html-keyboard-response","83","240427","0.0-17.0-2.21","000a21dc-1f4d-4f9b-a337-ec28fddb1d57","null","<p style=""text-align: center;"">+</p>","null","fixation","","","","","","","","","","","","","","","","","","","","","",""
"","","","","","html-slider-response","84","241433","0.0-17.0-0.22","000a21dc-1f4d-4f9b-a337-ec28fddb1d57","1000","
                  <p style=""text-align: center;"">₪71
                                                <br>45%</p>
                  <p id=""wtp"" style=""text-align:center; margin-top: 0px; margin-bottom: 0px; font-size: 40px"";>&ensp;</p>","-","viewing","0","26","2B,16A","","","","","","","","","","","","","","","","","","",""
"","","","","","html-slider-response","85","245140","0.0-17.0-1.22","000a21dc-1f4d-4f9b-a337-ec28fddb1d57","3706","
                  <p style=""text-align: center;"">₪71
                                                <br>45%</p>
                  <p id=""wtp"" style=""text-align:center; margin-top: 0px; margin-bottom: 0px; font-size: 40px"";>מוכנים לשלם: <span id=""c_p_y""></span></p>","15","evaluation","6","26","2B,16A","45","71","15","","","","","","","","","","","","","","","",""
"","","","","","html-keyboard-response","86","246617","0.0-17.0-2.22","000a21dc-1f4d-4f9b-a337-ec28fddb1d57","null","<p style=""text-align: center;"">+</p>","null","fixation","","","","","","","","","","","","","","","","","","","","","",""
"","","","","","html-slider-response","87","247621","0.0-17.0-0.23","000a21dc-1f4d-4f9b-a337-ec28fddb1d57","1000","
                  <p style=""text-align: center;"">₪4
                                                <br>25%</p>
                  <p id=""wtp"" style=""text-align:center; margin-top: 0px; margin-bottom: 0px; font-size: 40px"";>&ensp;</p>","-","viewing","0","1","6C,29B,30C","","","","","","","","","","","","","","","","","","",""
"","","","","","html-slider-response","88","250004","0.0-17.0-1.23","000a21dc-1f4d-4f9b-a337-ec28fddb1d57","2382","
                  <p style=""text-align: center;"">₪4
                                                <br>25%</p>
                  <p id=""wtp"" style=""text-align:center; margin-top: 0px; margin-bottom: 0px; font-size: 40px"";>מוכנים לשלם: <span id=""c_p_y""></span></p>","1","evaluation","10","1","6C,29B,30C","25","4","2","","","","","","","","","","","","","","","",""
"","","","","","html-keyboard-response","89","250844","0.0-17.0-2.23","000a21dc-1f4d-4f9b-a337-ec28fddb1d57","null","<p style=""text-align: center;"">+</p>","null","fixation","","","","","","","","","","","","","","","","","","","","","",""
"","","","","","html-slider-response","90","251860","0.0-17.0-0.24","000a21dc-1f4d-4f9b-a337-ec28fddb1d57","1000","
                  <p style=""text-align: center;"">₪11
                                                <br>25%</p>
                  <p id=""wtp"" style=""text-align:center; margin-top: 0px; margin-bottom: 0px; font-size: 40px"";>&ensp;</p>","-","viewing","0","5","12A,27B,28B,30B","","","","","","","","","","","","","","","","","","",""
"","","","","","html-slider-response","91","254196","0.0-17.0-1.24","000a21dc-1f4d-4f9b-a337-ec28fddb1d57","2336","
                  <p style=""text-align: center;"">₪11
                                                <br>25%</p>
                  <p id=""wtp"" style=""text-align:center; margin-top: 0px; margin-bottom: 0px; font-size: 40px"";>מוכנים לשלם: <span id=""c_p_y""></span></p>","1","evaluation","6","5","12A,27B,28B,30B","25","11","2","","","","","","","","","","","","","","","",""
"","","","","","html-keyboard-response","92","254954","0.0-17.0-2.24","000a21dc-1f4d-4f9b-a337-ec28fddb1d57","null","<p style=""text-align: center;"">+</p>","null","fixation","","","","","","","","","","","","","","","","","","","","","",""
"","","","","","html-slider-response","93","255958","0.0-17.0-0.25","000a21dc-1f4d-4f9b-a337-ec28fddb1d57","1000","
                  <p style=""text-align: center;"">₪11
                                                <br>75%</p>
                  <p id=""wtp"" style=""text-align:center; margin-top: 0px; margin-bottom: 0px; font-size: 40px"";>&ensp;</p>","-","viewing","0","7","6B,18B,22C,24C,29A","","","","","","","","","","","","","","","","","","",""
"","","","","","html-slider-response","94","259228","0.0-17.0-1.25","000a21dc-1f4d-4f9b-a337-ec28fddb1d57","3269","
                  <p style=""text-align: center;"">₪11
                                                <br>75%</p>
                  <p id=""wtp"" style=""text-align:center; margin-top: 0px; margin-bottom: 0px; font-size: 40px"";>מוכנים לשלם: <span id=""c_p_y""></span></p>","7","evaluation","54","7","6B,18B,22C,24C,29A","75","11","7","","","","","","","","","","","","","","","",""
"","","","","","html-keyboard-response","95","259810","0.0-17.0-2.25","000a21dc-1f4d-4f9b-a337-ec28fddb1d57","null","<p style=""text-align: center;"">+</p>","null","fixation","","","","","","","","","","","","","","","","","","","","","",""
"","","","","","html-slider-response","96","260824","0.0-17.0-0.26","000a21dc-1f4d-4f9b-a337-ec28fddb1d57","1000","
                  <p style=""text-align: center;"">₪43
                                                <br>75%</p>
                  <p id=""wtp"" style=""text-align:center; margin-top: 0px; margin-bottom: 0px; font-size: 40px"";>&ensp;</p>","-","viewing","0","18","11B,19B,24A,26A","","","","","","","","","","","","","","","","","","",""
"","","","","","html-slider-response","97","264716","0.0-17.0-1.26","000a21dc-1f4d-4f9b-a337-ec28fddb1d57","3891","
                  <p style=""text-align: center;"">₪43
                                                <br>75%</p>
                  <p id=""wtp"" style=""text-align:center; margin-top: 0px; margin-bottom: 0px; font-size: 40px"";>מוכנים לשלם: <span id=""c_p_y""></span></p>","27","evaluation","28","18","11B,19B,24A,26A","75","43","27","","","","","","","","","","","","","","","",""
"","","","","","html-keyboard-response","98","265893","0.0-17.0-2.26","000a21dc-1f4d-4f9b-a337-ec28fddb1d57","null","<p style=""text-align: center;"">+</p>","null","fixation","","","","","","","","","","","","","","","","","","","","","",""
"","","","","","html-slider-response","99","266899","0.0-17.0-0.27","000a21dc-1f4d-4f9b-a337-ec28fddb1d57","1000","
                  <p style=""text-align: center;"">₪18
                                                <br>25%</p>
                  <p id=""wtp"" style=""text-align:center; margin-top: 0px; margin-bottom: 0px; font-size: 40px"";>&ensp;</p>","-","viewing","0","9","14A,23A","","","","","","","","","","","","","","","","","","",""
"","","","","","html-slider-response","100","269564","0.0-17.0-1.27","000a21dc-1f4d-4f9b-a337-ec28fddb1d57","2664","
                  <p style=""text-align: center;"">₪18
                                                <br>25%</p>
                  <p id=""wtp"" style=""text-align:center; margin-top: 0px; margin-bottom: 0px; font-size: 40px"";>מוכנים לשלם: <span id=""c_p_y""></span></p>","1","evaluation","31","9","14A,23A","25","18","2","","","","","","","","","","","","","","","",""
"","","","","","html-keyboard-response","101","270211","0.0-17.0-2.27","000a21dc-1f4d-4f9b-a337-ec28fddb1d57","null","<p style=""text-align: center;"">+</p>","null","fixation","","","","","","","","","","","","","","","","","","","","","",""
"","","","","","html-slider-response","102","271214","0.0-17.0-0.28","000a21dc-1f4d-4f9b-a337-ec28fddb1d57","1000","
                  <p style=""text-align: center;"">₪71
                                                <br>55%</p>
                  <p id=""wtp"" style=""text-align:center; margin-top: 0px; margin-bottom: 0px; font-size: 40px"";>&ensp;</p>","-","viewing","0","27","5B,18A","","","","","","","","","","","","","","","","","","",""
"","","","","","html-slider-response","103","274652","0.0-17.0-1.28","000a21dc-1f4d-4f9b-a337-ec28fddb1d57","3437","
                  <p style=""text-align: center;"">₪71
                                                <br>55%</p>
                  <p id=""wtp"" style=""text-align:center; margin-top: 0px; margin-bottom: 0px; font-size: 40px"";>מוכנים לשלם: <span id=""c_p_y""></span></p>","25","evaluation","59","27","5B,18A","55","71","25","","","","","","","","","","","","","","","",""
"","","","","","html-keyboard-response","104","275217","0.0-17.0-2.28","000a21dc-1f4d-4f9b-a337-ec28fddb1d57","null","<p style=""text-align: center;"">+</p>","null","fixation","","","","","","","","","","","","","","","","","","","","","",""
"","","","","","html-slider-response","105","276222","0.0-17.0-0.29","000a21dc-1f4d-4f9b-a337-ec28fddb1d57","1000","
                  <p style=""text-align: center;"">₪64
                                                <br>50%</p>
                  <p id=""wtp"" style=""text-align:center; margin-top: 0px; margin-bottom: 0px; font-size: 40px"";>&ensp;</p>","-","viewing","0","25","1B,3B,4A","","","","","","","","","","","","","","","","","","",""
"","","","","","html-slider-response","106","279852","0.0-17.0-1.29","000a21dc-1f4d-4f9b-a337-ec28fddb1d57","3629","
                  <p style=""text-align: center;"">₪64
                                                <br>50%</p>
                  <p id=""wtp"" style=""text-align:center; margin-top: 0px; margin-bottom: 0px; font-size: 40px"";>מוכנים לשלם: <span id=""c_p_y""></span></p>","20","evaluation","5","25","1B,3B,4A","50","64","20","","","","","","","","","","","","","","","",""
"","","","","","html-keyboard-response","107","280723","0.0-17.0-2.29","000a21dc-1f4d-4f9b-a337-ec28fddb1d57","null","<p style=""text-align: center;"">+</p>","null","fixation","","","","","","","","","","","","","","","","","","","","","",""
"","","","","","html-slider-response","108","281737","0.0-17.0-0.30","000a21dc-1f4d-4f9b-a337-ec28fddb1d57","1000","
                  <p style=""text-align: center;"">₪71
                                                <br>75%</p>
                  <p id=""wtp"" style=""text-align:center; margin-top: 0px; margin-bottom: 0px; font-size: 40px"";>&ensp;</p>","-","viewing","0","28","8B","","","","","","","","","","","","","","","","","","",""
"","","","","","html-slider-response","109","285444","0.0-17.0-1.30","000a21dc-1f4d-4f9b-a337-ec28fddb1d57","3706","
                  <p style=""text-align: center;"">₪71
                                                <br>75%</p>
                  <p id=""wtp"" style=""text-align:center; margin-top: 0px; margin-bottom: 0px; font-size: 40px"";>מוכנים לשלם: <span id=""c_p_y""></span></p>","37","evaluation","71","28","8B","75","71","37","","","","","","","","","","","","","","","",""
"","","","","","html-keyboard-response","110","286051","0.0-17.0-2.30","000a21dc-1f4d-4f9b-a337-ec28fddb1d57","null","<p style=""text-align: center;"">+</p>","null","fixation","","","","","","","","","","","","","","","","","","","","","",""
"","","","","","html-keyboard-response","111","287053","0.0-18.0","000a21dc-1f4d-4f9b-a337-ec28fddb1d57","null","<p style=""text-align: center;"">+</p>","null","fixation","","","","","","","","","","","","","","","","","","","","","",""
"","","","","","html-keyboard-response","112","290292","0.0-19.0","000a21dc-1f4d-4f9b-a337-ec28fddb1d57","null","<p>הפסקה.
          <br>לחצו כדי להמשיך.</p>","1","scan_wait","","","","","","","","","","","","","","","","","","","","","",""
"","","","","","html-keyboard-response","113","291304","0.0-20.0","000a21dc-1f4d-4f9b-a337-ec28fddb1d57","null","<p style=""text-align: center;"">+</p>","null","fixation","","","","","","","","","","","","","","","","","","","","","",""
"","","","","","html-slider-response","114","292305","0.0-21.0-0.0","000a21dc-1f4d-4f9b-a337-ec28fddb1d57","1000","
                  <p style=""text-align: center;"">₪11
                                                <br>75%</p>
                  <p id=""wtp"" style=""text-align:center; margin-top: 0px; margin-bottom: 0px; font-size: 40px"";>&ensp;</p>","-","viewing","0","7","6B,18B,22C,24C,29A","","","","","","","","","","","","","","","","","","",""
"","","","","","html-slider-response","115","295780","0.0-21.0-1.0","000a21dc-1f4d-4f9b-a337-ec28fddb1d57","3473","
                  <p style=""text-align: center;"">₪11
                                                <br>75%</p>
                  <p id=""wtp"" style=""text-align:center; margin-top: 0px; margin-bottom: 0px; font-size: 40px"";>מוכנים לשלם: <span id=""c_p_y""></span></p>","6","evaluation","9","7","6B,18B,22C,24C,29A","75","11","6","","","","","","","","","","","","","","","",""
"","","","","","html-keyboard-response","116","297234","0.0-21.0-2.0","000a21dc-1f4d-4f9b-a337-ec28fddb1d57","null","<p style=""text-align: center;"">+</p>","null","fixation","","","","","","","","","","","","","","","","","","","","","",""
"","","","","","html-slider-response","117","298248","0.0-21.0-0.1","000a21dc-1f4d-4f9b-a337-ec28fddb1d57","1000","
                  <p style=""text-align: center;"">₪36
                                                <br>75%</p>
                  <p id=""wtp"" style=""text-align:center; margin-top: 0px; margin-bottom: 0px; font-size: 40px"";>&ensp;</p>","-","viewing","0","14","4B,5A,13B,16B","","","","","","","","","","","","","","","","","","",""
"","","","","","html-slider-response","118","301541","0.0-21.0-1.1","000a21dc-1f4d-4f9b-a337-ec28fddb1d57","3290","
                  <p style=""text-align: center;"">₪36
                                                <br>75%</p>
                  <p id=""wtp"" style=""text-align:center; margin-top: 0px; margin-bottom: 0px; font-size: 40px"";>מוכנים לשלם: <span id=""c_p_y""></span></p>","16","evaluation","79","14","4B,5A,13B,16B","75","36","16","","","","","","","","","","","","","","","",""
"","","","","","html-keyboard-response","119","302053","0.0-21.0-2.1","000a21dc-1f4d-4f9b-a337-ec28fddb1d57","null","<p style=""text-align: center;"">+</p>","null","fixation","","","","","","","","","","","","","","","","","","","","","",""
"","","","","","html-slider-response","120","303061","0.0-21.0-0.2","000a21dc-1f4d-4f9b-a337-ec28fddb1d57","1000","
                  <p style=""text-align: center;"">₪61
                                                <br>55%</p>
                  <p id=""wtp"" style=""text-align:center; margin-top: 0px; margin-bottom: 0px; font-size: 40px"";>&ensp;</p>","-","viewing","0","23","7B,26B","","","","","","","","","","","","","","","","","","",""
"","","","","","html-slider-response","121","307063","0.0-21.0-1.2","000a21dc-1f4d-4f9b-a337-ec28fddb1d57","null","
                  <p style=""text-align: center;"">₪61
                                                <br>55%</p>
                  <p id=""wtp"" style=""text-align:center; margin-top: 0px; margin-bottom: 0px; font-size: 40px"";>מוכנים לשלם: <span id=""c_p_y""></span></p>","null","evaluation","70","23","7B,26B","55","61","20","","","","","","","","","","","","","","","",""
"","","","","","html-keyboard-response","122","307680","0.0-21.0-2.2","000a21dc-1f4d-4f9b-a337-ec28fddb1d57","null","<p style=""text-align: center;"">+</p>","null","fixation","","","","","","","","","","","","","","","","","","","","","",""
"","","","","","html-slider-response","123","308683","0.0-21.0-0.3","000a21dc-1f4d-4f9b-a337-ec28fddb1d57","1000","
                  <p style=""text-align: center;"">₪39
                                                <br>65%</p>
                  <p id=""wtp"" style=""text-align:center; margin-top: 0px; margin-bottom: 0px; font-size: 40px"";>&ensp;</p>","-","viewing","0","16","1A,15A,26C","","","","","","","","","","","","","","","","","","",""
"","","","","","html-slider-response","124","310845","0.0-21.0-1.3","000a21dc-1f4d-4f9b-a337-ec28fddb1d57","2160","
                  <p style=""text-align: center;"">₪39
                                                <br>65%</p>
                  <p id=""wtp"" style=""text-align:center; margin-top: 0px; margin-bottom: 0px; font-size: 40px"";>מוכנים לשלם: <span id=""c_p_y""></span></p>","18","evaluation","54","16","1A,15A,26C","65","39","18","","","","","","","","","","","","","","","",""
"","","","","","html-keyboard-response","125","312077","0.0-21.0-2.3","000a21dc-1f4d-4f9b-a337-ec28fddb1d57","null","<p style=""text-align: center;"">+</p>","null","fixation","","","","","","","","","","","","","","","","","","","","","",""
"","","","","","html-slider-response","126","313084","0.0-21.0-0.4","000a21dc-1f4d-4f9b-a337-ec28fddb1d57","1000","
                  <p style=""text-align: center;"">₪36
                                                <br>60%</p>
                  <p id=""wtp"" style=""text-align:center; margin-top: 0px; margin-bottom: 0px; font-size: 40px"";>&ensp;</p>","-","viewing","0","12","1C,7C,15C","","","","","","","","","","","","","","","","","","",""
"","","","","","html-slider-response","127","315461","0.0-21.0-1.4","000a21dc-1f4d-4f9b-a337-ec28fddb1d57","2374","
                  <p style=""text-align: center;"">₪36
                                                <br>60%</p>
                  <p id=""wtp"" style=""text-align:center; margin-top: 0px; margin-bottom: 0px; font-size: 40px"";>מוכנים לשלם: <span id=""c_p_y""></span></p>","20","evaluation","47","12","1C,7C,15C","60","36","20","","","","","","","","","","","","","","","",""
"","","","","","html-keyboard-response","128","316047","0.0-21.0-2.4","000a21dc-1f4d-4f9b-a337-ec28fddb1d57","null","<p style=""text-align: center;"">+</p>","null","fixation","","","","","","","","","","","","","","","","","","","","","",""
"","","","","","html-slider-response","129","317049","0.0-21.0-0.5","000a21dc-1f4d-4f9b-a337-ec28fddb1d57","1000","
                  <p style=""text-align: center;"">₪61
                                                <br>45%</p>
                  <p id=""wtp"" style=""text-align:center; margin-top: 0px; margin-bottom: 0px; font-size: 40px"";>&ensp;</p>","-","viewing","0","22","10A,11A","","","","","","","","","","","","","","","","","","",""
"","","","","","html-slider-response","130","320661","0.0-21.0-1.5","000a21dc-1f4d-4f9b-a337-ec28fddb1d57","3610","
                  <p style=""text-align: center;"">₪61
                                                <br>45%</p>
                  <p id=""wtp"" style=""text-align:center; margin-top: 0px; margin-bottom: 0px; font-size: 40px"";>מוכנים לשלם: <span id=""c_p_y""></span></p>","26","evaluation","77","22","10A,11A","45","61","26","","","","","","","","","","","","","","","",""
"","","","","","html-keyboard-response","131","321308","0.0-21.0-2.5","000a21dc-1f4d-4f9b-a337-ec28fddb1d57","null","<p style=""text-align: center;"">+</p>","null","fixation","","","","","","","","","","","","","","","","","","","","","",""
"","","","","","html-slider-response","132","322321","0.0-21.0-0.6","000a21dc-1f4d-4f9b-a337-ec28fddb1d57","1000","
                  <p style=""text-align: center;"">₪43
                                                <br>75%</p>
                  <p id=""wtp"" style=""text-align:center; margin-top: 0px; margin-bottom: 0px; font-size: 40px"";>&ensp;</p>","-","viewing","0","18","11B,19B,24A,26A","","","","","","","","","","","","","","","","","","",""
"","","","","","html-slider-response","133","325077","0.0-21.0-1.6","000a21dc-1f4d-4f9b-a337-ec28fddb1d57","2754","
                  <p style=""text-align: center;"">₪43
                                                <br>75%</p>
                  <p id=""wtp"" style=""text-align:center; margin-top: 0px; margin-bottom: 0px; font-size: 40px"";>מוכנים לשלם: <span id=""c_p_y""></span></p>","22","evaluation","1","18","11B,19B,24A,26A","75","43","22","","","","","","","","","","","","","","","",""
"","","","","","html-keyboard-response","134","325758","0.0-21.0-2.6","000a21dc-1f4d-4f9b-a337-ec28fddb1d57","null","<p style=""text-align: center;"">+</p>","null","fixation","","","","","","","","","","","","","","","","","","","","","",""
"","","","","","html-slider-response","135","326761","0.0-21.0-0.7","000a21dc-1f4d-4f9b-a337-ec28fddb1d57","1000","
                  <p style=""text-align: center;"">₪71
                                                <br>55%</p>
                  <p id=""wtp"" style=""text-align:center; margin-top: 0px; margin-bottom: 0px; font-size: 40px"";>&ensp;</p>","-","viewing","0","27","5B,18A","","","","","","","","","","","","","","","","","","",""
"","","","","","html-slider-response","136","329045","0.0-21.0-1.7","000a21dc-1f4d-4f9b-a337-ec28fddb1d57","2282","
                  <p style=""text-align: center;"">₪71
                                                <br>55%</p>
                  <p id=""wtp"" style=""text-align:center; margin-top: 0px; margin-bottom: 0px; font-size: 40px"";>מוכנים לשלם: <span id=""c_p_y""></span></p>","24","evaluation","26","27","5B,18A","55","71","24","","","","","","","","","","","","","","","",""
"","","","","","html-keyboard-response","137","330478","0.0-21.0-2.7","000a21dc-1f4d-4f9b-a337-ec28fddb1d57","null","<p style=""text-align: center;"">+</p>","null","fixation","","","","","","","","","","","","","","","","","","","","","",""
"","","","","","html-slider-response","138","331487","0.0-21.0-0.8","000a21dc-1f4d-4f9b-a337-ec28fddb1d57","1000","
                  <p style=""text-align: center;"">₪43
                                                <br>60%</p>
                  <p id=""wtp"" style=""text-align:center; margin-top: 0px; margin-bottom: 0px; font-size: 40px"";>&ensp;</p>","-","viewing","0","17","2A,7A,9A,15B","","","","","","","","","","","","","","","","","","",""
"","","","","","html-slider-response","139","334293","0.0-21.0-1.8","000a21dc-1f4d-4f9b-a337-ec28fddb1d57","2804","
                  <p style=""text-align: center;"">₪43
                                                <br>60%</p>
                  <p id=""wtp"" style=""text-align:center; margin-top: 0px; margin-bottom: 0px; font-size: 40px"";>מוכנים לשלם: <span id=""c_p_y""></span></p>","18","evaluation","52","17","2A,7A,9A,15B","60","43","18","","","","","","","","","","","","","","","",""
"","","","","","html-keyboard-response","140","335306","0.0-21.0-2.8","000a21dc-1f4d-4f9b-a337-ec28fddb1d57","null","<p style=""text-align: center;"">+</p>","null","fixation","","","","","","","","","","","","","","","","","","","","","",""
"","","","","","html-slider-response","141","336310","0.0-21.0-0.9","000a21dc-1f4d-4f9b-a337-ec28fddb1d57","1000","
                  <p style=""text-align: center;"">₪4
                                                <br>75%</p>
                  <p id=""wtp"" style=""text-align:center; margin-top: 0px; margin-bottom: 0px; font-size: 40px"";>&ensp;</p>","-","viewing","0","3","12B,20B,23B,27C,29C","","","","","","","","","","","","","","","","","","",""
"","","","","","html-slider-response","142","339028","0.0-21.0-1.9","000a21dc-1f4d-4f9b-a337-ec28fddb1d57","2718","
                  <p style=""text-align: center;"">₪4
                                                <br>75%</p>
                  <p id=""wtp"" style=""text-align:center; margin-top: 0px; margin-bottom: 0px; font-size: 40px"";>מוכנים לשלם: <span id=""c_p_y""></span></p>","2","evaluation","50","3","12B,20B,23B,27C,29C","75","4","2","","","","","","","","","","","","","","","",""
"","","","","","html-keyboard-response","143","339862","0.0-21.0-2.9","000a21dc-1f4d-4f9b-a337-ec28fddb1d57","null","<p style=""text-align: center;"">+</p>","null","fixation","","","","","","","","","","","","","","","","","","","","","",""
"","","","","","html-slider-response","144","340873","0.0-21.0-0.10","000a21dc-1f4d-4f9b-a337-ec28fddb1d57","1000","
                  <p style=""text-align: center;"">₪71
                                                <br>45%</p>
                  <p id=""wtp"" style=""text-align:center; margin-top: 0px; margin-bottom: 0px; font-size: 40px"";>&ensp;</p>","-","viewing","0","26","2B,16A","","","","","","","","","","","","","","","","","","",""
"","","","","","html-slider-response","145","344874","0.0-21.0-1.10","000a21dc-1f4d-4f9b-a337-ec28fddb1d57","null","
                  <p style=""text-align: center;"">₪71
                                                <br>45%</p>
                  <p id=""wtp"" style=""text-align:center; margin-top: 0px; margin-bottom: 0px; font-size: 40px"";>מוכנים לשלם: <span id=""c_p_y""></span></p>","null","evaluation","67","26","2B,16A","45","71","2","","","","","","","","","","","","","","","",""
"","","","","","html-keyboard-response","146","346225","0.0-21.0-2.10","000a21dc-1f4d-4f9b-a337-ec28fddb1d57","null","<p style=""text-align: center;"">+</p>","null","fixation","","","","","","","","","","","","","","","","","","","","","",""
"","","","","","html-slider-response","147","347232","0.0-21.0-0.11","000a21dc-1f4d-4f9b-a337-ec28fddb1d57","1000","
                  <p style=""text-align: center;"">₪36
                                                <br>30%</p>
                  <p id=""wtp"" style=""text-align:center; margin-top: 0px; margin-bottom: 0px; font-size: 40px"";>&ensp;</p>","-","viewing","0","11","3C,20A,22A","","","","","","","","","","","","","","","","","","",""
"","","","","","html-slider-response","148","349813","0.0-21.0-1.11","000a21dc-1f4d-4f9b-a337-ec28fddb1d57","2579","
                  <p style=""text-align: center;"">₪36
                                                <br>30%</p>
                  <p id=""wtp"" style=""text-align:center; margin-top: 0px; margin-bottom: 0px; font-size: 40px"";>מוכנים לשלם: <span id=""c_p_y""></span></p>","6","evaluation","80","11","3C,20A,22A","30","36","6","","","","","","","","","","","","","","","",""
"","","","","","html-keyboard-response","149","350816","0.0-21.0-2.11","000a21dc-1f4d-4f9b-a337-ec28fddb1d57","null","<p style=""text-align: center;"">+</p>","null","fixation","","","","","","","","","","","","","","","","","","","","","",""
"","","","","","html-slider-response","150","351829","0.0-21.0-0.12","000a21dc-1f4d-4f9b-a337-ec28fddb1d57","1000","
                  <p style=""text-align: center;"">₪11
                                                <br>25%</p>
                  <p id=""wtp"" style=""text-align:center; margin-top: 0px; margin-bottom: 0px; font-size: 40px"";>&ensp;</p>","-","viewing","0","5","12A,27B,28B,30B","","","","","","","","","","","","","","","","","","",""
"","","","","","html-slider-response","151","354125","0.0-21.0-1.12","000a21dc-1f4d-4f9b-a337-ec28fddb1d57","2294","
                  <p style=""text-align: center;"">₪11
                                                <br>25%</p>
                  <p id=""wtp"" style=""text-align:center; margin-top: 0px; margin-bottom: 0px; font-size: 40px"";>מוכנים לשלם: <span id=""c_p_y""></span></p>","1","evaluation","61","5","12A,27B,28B,30B","25","11","1","","","","","","","","","","","","","","","",""
"","","","","","html-keyboard-response","152","355518","0.0-21.0-2.12","000a21dc-1f4d-4f9b-a337-ec28fddb1d57","null","<p style=""text-align: center;"">+</p>","null","fixation","","","","","","","","","","","","","","","","","","","","","",""
"","","","","","html-slider-response","153","356534","0.0-21.0-0.13","000a21dc-1f4d-4f9b-a337-ec28fddb1d57","1000","
                  <p style=""text-align: center;"">₪79
                                                <br>65%</p>
                  <p id=""wtp"" style=""text-align:center; margin-top: 0px; margin-bottom: 0px; font-size: 40px"";>&ensp;</p>","-","viewing","0","31","8A","","","","","","","","","","","","","","","","","","",""
"","","","","","html-slider-response","154","359172","0.0-21.0-1.13","000a21dc-1f4d-4f9b-a337-ec28fddb1d57","2637","
                  <p style=""text-align: center;"">₪79
                                                <br>65%</p>
                  <p id=""wtp"" style=""text-align:center; margin-top: 0px; margin-bottom: 0px; font-size: 40px"";>מוכנים לשלם: <span id=""c_p_y""></span></p>","30","evaluation","40","31","8A","65","79","30","","","","","","","","","","","","","","","",""
"","","","","","html-keyboard-response","155","360259","0.0-21.0-2.13","000a21dc-1f4d-4f9b-a337-ec28fddb1d57","null","<p style=""text-align: center;"">+</p>","null","fixation","","","","","","","","","","","","","","","","","","","","","",""
"","","","","","html-slider-response","156","361267","0.0-21.0-0.14","000a21dc-1f4d-4f9b-a337-ec28fddb1d57","1000","
                  <p style=""text-align: center;"">₪58
                                                <br>40%</p>
                  <p id=""wtp"" style=""text-align:center; margin-top: 0px; margin-bottom: 0px; font-size: 40px"";>&ensp;</p>","-","viewing","0","20","10C,13A,19C,21B","","","","","","","","","","","","","","","","","","",""
"","","","","","html-slider-response","157","363909","0.0-21.0-1.14","000a21dc-1f4d-4f9b-a337-ec28fddb1d57","2639","
                  <p style=""text-align: center;"">₪58
                                                <br>40%</p>
                  <p id=""wtp"" style=""text-align:center; margin-top: 0px; margin-bottom: 0px; font-size: 40px"";>מוכנים לשלם: <span id=""c_p_y""></span></p>","6","evaluation","24","20","10C,13A,19C,21B","40","58","6","","","","","","","","","","","","","","","",""
"","","","","","html-keyboard-response","158","364677","0.0-21.0-2.14","000a21dc-1f4d-4f9b-a337-ec28fddb1d57","null","<p style=""text-align: center;"">+</p>","null","fixation","","","","","","","","","","","","","","","","","","","","","",""
"","","","","","html-slider-response","159","365679","0.0-21.0-0.15","000a21dc-1f4d-4f9b-a337-ec28fddb1d57","1000","
                  <p style=""text-align: center;"">₪58
                                                <br>45%</p>
                  <p id=""wtp"" style=""text-align:center; margin-top: 0px; margin-bottom: 0px; font-size: 40px"";>&ensp;</p>","-","viewing","0","21","11C,18C,25A","","","","","","","","","","","","","","","","","","",""
"","","","","","html-slider-response","160","367853","0.0-21.0-1.15","000a21dc-1f4d-4f9b-a337-ec28fddb1d57","2172","
                  <p style=""text-align: center;"">₪58
                                                <br>45%</p>
                  <p id=""wtp"" style=""text-align:center; margin-top: 0px; margin-bottom: 0px; font-size: 40px"";>מוכנים לשלם: <span id=""c_p_y""></span></p>","12","evaluation","66","21","11C,18C,25A","45","58","12","","","","","","","","","","","","","","","",""
"","","","","","html-keyboard-response","161","369259","0.0-21.0-2.15","000a21dc-1f4d-4f9b-a337-ec28fddb1d57","null","<p style=""text-align: center;"">+</p>","null","fixation","","","","","","","","","","","","","","","","","","","","","",""
"","","","","","html-slider-response","162","370261","0.0-21.0-0.16","000a21dc-1f4d-4f9b-a337-ec28fddb1d57","1000","
                  <p style=""text-align: center;"">₪4
                                                <br>50%</p>
                  <p id=""wtp"" style=""text-align:center; margin-top: 0px; margin-bottom: 0px; font-size: 40px"";>&ensp;</p>","-","viewing","0","2","4C,17B","","","","","","","","","","","","","","","","","","",""
"","","","","","html-slider-response","163","372829","0.0-21.0-1.16","000a21dc-1f4d-4f9b-a337-ec28fddb1d57","2566","
                  <p style=""text-align: center;"">₪4
                                                <br>50%</p>
                  <p id=""wtp"" style=""text-align:center; margin-top: 0px; margin-bottom: 0px; font-size: 40px"";>מוכנים לשלם: <span id=""c_p_y""></span></p>","1","evaluation","72","2","4C,17B","50","4","2","","","","","","","","","","","","","","","",""
"","","","","","html-keyboard-response","164","373469","0.0-21.0-2.16","000a21dc-1f4d-4f9b-a337-ec28fddb1d57","null","<p style=""text-align: center;"">+</p>","null","fixation","","","","","","","","","","","","","","","","","","","","","",""
"","","","","","html-slider-response","165","374484","0.0-21.0-0.17","000a21dc-1f4d-4f9b-a337-ec28fddb1d57","1000","
                  <p style=""text-align: center;"">₪79
                                                <br>40%</p>
                  <p id=""wtp"" style=""text-align:center; margin-top: 0px; margin-bottom: 0px; font-size: 40px"";>&ensp;</p>","-","viewing","0","30","9B","","","","","","","","","","","","","","","","","","",""
"","","","","","html-slider-response","166","377077","0.0-21.0-1.17","000a21dc-1f4d-4f9b-a337-ec28fddb1d57","2591","
                  <p style=""text-align: center;"">₪79
                                                <br>40%</p>
                  <p id=""wtp"" style=""text-align:center; margin-top: 0px; margin-bottom: 0px; font-size: 40px"";>מוכנים לשלם: <span id=""c_p_y""></span></p>","12","evaluation","75","30","9B","40","79","13","","","","","","","","","","","","","","","",""
"","","","","","html-keyboard-response","167","377935","0.0-21.0-2.17","000a21dc-1f4d-4f9b-a337-ec28fddb1d57","null","<p style=""text-align: center;"">+</p>","null","fixation","","","","","","","","","","","","","","","","","","","","","",""
"","","","","","html-slider-response","168","378943","0.0-21.0-0.18","000a21dc-1f4d-4f9b-a337-ec28fddb1d57","1000","
                  <p style=""text-align: center;"">₪64
                                                <br>25%</p>
                  <p id=""wtp"" style=""text-align:center; margin-top: 0px; margin-bottom: 0px; font-size: 40px"";>&ensp;</p>","-","viewing","0","24","6A,21A","","","","","","","","","","","","","","","","","","",""
"","","","","","html-slider-response","169","381549","0.0-21.0-1.18","000a21dc-1f4d-4f9b-a337-ec28fddb1d57","2604","
                  <p style=""text-align: center;"">₪64
                                                <br>25%</p>
                  <p id=""wtp"" style=""text-align:center; margin-top: 0px; margin-bottom: 0px; font-size: 40px"";>מוכנים לשלם: <span id=""c_p_y""></span></p>","9","evaluation","49","24","6A,21A","25","64","10","","","","","","","","","","","","","","","",""
"","","","","","html-keyboard-response","170","382878","0.0-21.0-2.18","000a21dc-1f4d-4f9b-a337-ec28fddb1d57","null","<p style=""text-align: center;"">+</p>","null","fixation","","","","","","","","","","","","","","","","","","","","","",""
"","","","","","html-slider-response","171","383893","0.0-21.0-0.19","000a21dc-1f4d-4f9b-a337-ec28fddb1d57","1000","
                  <p style=""text-align: center;"">₪11
                                                <br>20%</p>
                  <p id=""wtp"" style=""text-align:center; margin-top: 0px; margin-bottom: 0px; font-size: 40px"";>&ensp;</p>","-","viewing","0","4","12C,17C,23C,28C","","","","","","","","","","","","","","","","","","",""
"","","","","","html-slider-response","172","385461","0.0-21.0-1.19","000a21dc-1f4d-4f9b-a337-ec28fddb1d57","1566","
                  <p style=""text-align: center;"">₪11
                                                <br>20%</p>
                  <p id=""wtp"" style=""text-align:center; margin-top: 0px; margin-bottom: 0px; font-size: 40px"";>מוכנים לשלם: <span id=""c_p_y""></span></p>","1","evaluation","71","4","12C,17C,23C,28C","20","11","2","","","","","","","","","","","","","","","",""
"","","","","","html-keyboard-response","173","386843","0.0-21.0-2.19","000a21dc-1f4d-4f9b-a337-ec28fddb1d57","null","<p style=""text-align: center;"">+</p>","null","fixation","","","","","","","","","","","","","","","","","","","","","",""
"","","","","","html-slider-response","174","387856","0.0-21.0-0.20","000a21dc-1f4d-4f9b-a337-ec28fddb1d57","1000","
                  <p style=""text-align: center;"">₪36
                                                <br>70%</p>
                  <p id=""wtp"" style=""text-align:center; margin-top: 0px; margin-bottom: 0px; font-size: 40px"";>&ensp;</p>","-","viewing","0","13","3A,5C,10B","","","","","","","","","","","","","","","","","","",""
"","","","","","html-slider-response","175","390141","0.0-21.0-1.20","000a21dc-1f4d-4f9b-a337-ec28fddb1d57","2283","
                  <p style=""text-align: center;"">₪36
                                                <br>70%</p>
                  <p id=""wtp"" style=""text-align:center; margin-top: 0px; margin-bottom: 0px; font-size: 40px"";>מוכנים לשלם: <span id=""c_p_y""></span></p>","19","evaluation","80","13","3A,5C,10B","70","36","20","","","","","","","","","","","","","","","",""
"","","","","","html-keyboard-response","176","390914","0.0-21.0-2.20","000a21dc-1f4d-4f9b-a337-ec28fddb1d57","null","<p style=""text-align: center;"">+</p>","null","fixation","","","","","","","","","","","","","","","","","","","","","",""
"","","","","","html-slider-response","177","391916","0.0-21.0-0.21","000a21dc-1f4d-4f9b-a337-ec28fddb1d57","1000","
                  <p style=""text-align: center;"">₪58
                                                <br>30%</p>
                  <p id=""wtp"" style=""text-align:center; margin-top: 0px; margin-bottom: 0px; font-size: 40px"";>&ensp;</p>","-","viewing","0","19","13C,30A","","","","","","","","","","","","","","","","","","",""
"","","","","","html-slider-response","178","395573","0.0-21.0-1.21","000a21dc-1f4d-4f9b-a337-ec28fddb1d57","3654","
                  <p style=""text-align: center;"">₪58
                                                <br>30%</p>
                  <p id=""wtp"" style=""text-align:center; margin-top: 0px; margin-bottom: 0px; font-size: 40px"";>מוכנים לשלם: <span id=""c_p_y""></span></p>","14","evaluation","69","19","13C,30A","30","58","14","","","","","","","","","","","","","","","",""
"","","","","","html-keyboard-response","179","396083","0.0-21.0-2.21","000a21dc-1f4d-4f9b-a337-ec28fddb1d57","null","<p style=""text-align: center;"">+</p>","null","fixation","","","","","","","","","","","","","","","","","","","","","",""
"","","","","","html-slider-response","180","397089","0.0-21.0-0.22","000a21dc-1f4d-4f9b-a337-ec28fddb1d57","1000","
                  <p style=""text-align: center;"">₪64
                                                <br>50%</p>
                  <p id=""wtp"" style=""text-align:center; margin-top: 0px; margin-bottom: 0px; font-size: 40px"";>&ensp;</p>","-","viewing","0","25","1B,3B,4A","","","","","","","","","","","","","","","","","","",""
"","","","","","html-slider-response","181","401091","0.0-21.0-1.22","000a21dc-1f4d-4f9b-a337-ec28fddb1d57","null","
                  <p style=""text-align: center;"">₪64
                                                <br>50%</p>
                  <p id=""wtp"" style=""text-align:center; margin-top: 0px; margin-bottom: 0px; font-size: 40px"";>מוכנים לשלם: <span id=""c_p_y""></span></p>","null","evaluation","69","25","1B,3B,4A","50","64","13","","","","","","","","","","","","","","","",""
"","","","","","html-keyboard-response","182","401889","0.0-21.0-2.22","000a21dc-1f4d-4f9b-a337-ec28fddb1d57","null","<p style=""text-align: center;"">+</p>","null","fixation","","","","","","","","","","","","","","","","","","","","","",""
"","","","","","html-slider-response","183","402905","0.0-21.0-0.23","000a21dc-1f4d-4f9b-a337-ec28fddb1d57","1000","
                  <p style=""text-align: center;"">₪18
                                                <br>25%</p>
                  <p id=""wtp"" style=""text-align:center; margin-top: 0px; margin-bottom: 0px; font-size: 40px"";>&ensp;</p>","-","viewing","0","9","14A,23A","","","","","","","","","","","","","","","","","","",""
"","","","","","html-slider-response","184","406749","0.0-21.0-1.23","000a21dc-1f4d-4f9b-a337-ec28fddb1d57","3843","
                  <p style=""text-align: center;"">₪18
                                                <br>25%</p>
                  <p id=""wtp"" style=""text-align:center; margin-top: 0px; margin-bottom: 0px; font-size: 40px"";>מוכנים לשלם: <span id=""c_p_y""></span></p>","14","evaluation","76","9","14A,23A","25","18","14","","","","","","","","","","","","","","","",""
"","","","","","html-keyboard-response","185","407409","0.0-21.0-2.23","000a21dc-1f4d-4f9b-a337-ec28fddb1d57","null","<p style=""text-align: center;"">+</p>","null","fixation","","","","","","","","","","","","","","","","","","","","","",""
"","","","","","html-slider-response","186","408426","0.0-21.0-0.24","000a21dc-1f4d-4f9b-a337-ec28fddb1d57","1000","
                  <p style=""text-align: center;"">₪76
                                                <br>65%</p>
                  <p id=""wtp"" style=""text-align:center; margin-top: 0px; margin-bottom: 0px; font-size: 40px"";>&ensp;</p>","-","viewing","0","29","8C,19A,24B","","","","","","","","","","","","","","","","","","",""
"","","","","","html-slider-response","187","412428","0.0-21.0-1.24","000a21dc-1f4d-4f9b-a337-ec28fddb1d57","null","
                  <p style=""text-align: center;"">₪76
                                                <br>65%</p>
                  <p id=""wtp"" style=""text-align:center; margin-top: 0px; margin-bottom: 0px; font-size: 40px"";>מוכנים לשלם: <span id=""c_p_y""></span></p>","null","evaluation","16","29","8C,19A,24B","65","76","19","","","","","","","","","","","","","","","",""
"","","","","","html-keyboard-response","188","413508","0.0-21.0-2.24","000a21dc-1f4d-4f9b-a337-ec28fddb1d57","null","<p style=""text-align: center;"">+</p>","null","fixation","","","","","","","","","","","","","","","","","","","","","",""
"","","","","","html-slider-response","189","414510","0.0-21.0-0.25","000a21dc-1f4d-4f9b-a337-ec28fddb1d57","1000","
                  <p style=""text-align: center;"">₪4
                                                <br>25%</p>
                  <p id=""wtp"" style=""text-align:center; margin-top: 0px; margin-bottom: 0px; font-size: 40px"";>&ensp;</p>","-","viewing","0","1","6C,29B,30C","","","","","","","","","","","","","","","","","","",""
"","","","","","html-slider-response","190","417461","0.0-21.0-1.25","000a21dc-1f4d-4f9b-a337-ec28fddb1d57","2949","
                  <p style=""text-align: center;"">₪4
                                                <br>25%</p>
                  <p id=""wtp"" style=""text-align:center; margin-top: 0px; margin-bottom: 0px; font-size: 40px"";>מוכנים לשלם: <span id=""c_p_y""></span></p>","0","evaluation","28","1","6C,29B,30C","25","4","0","","","","","","","","","","","","","","","",""
"","","","","","html-keyboard-response","191","418494","0.0-21.0-2.25","000a21dc-1f4d-4f9b-a337-ec28fddb1d57","null","<p style=""text-align: center;"">+</p>","null","fixation","","","","","","","","","","","","","","","","","","","","","",""
"","","","","","html-slider-response","192","419511","0.0-21.0-0.26","000a21dc-1f4d-4f9b-a337-ec28fddb1d57","1000","
                  <p style=""text-align: center;"">₪18
                                                <br>50%</p>
                  <p id=""wtp"" style=""text-align:center; margin-top: 0px; margin-bottom: 0px; font-size: 40px"";>&ensp;</p>","-","viewing","0","10","2C,16C,22B,28A","","","","","","","","","","","","","","","","","","",""
"","","","","","html-slider-response","193","421180","0.0-21.0-1.26","000a21dc-1f4d-4f9b-a337-ec28fddb1d57","1668","
                  <p style=""text-align: center;"">₪18
                                                <br>50%</p>
                  <p id=""wtp"" style=""text-align:center; margin-top: 0px; margin-bottom: 0px; font-size: 40px"";>מוכנים לשלם: <span id=""c_p_y""></span></p>","4","evaluation","20","10","2C,16C,22B,28A","50","18","5","","","","","","","","","","","","","","","",""
"","","","","","html-keyboard-response","194","422139","0.0-21.0-2.26","000a21dc-1f4d-4f9b-a337-ec28fddb1d57","null","<p style=""text-align: center;"">+</p>","null","fixation","","","","","","","","","","","","","","","","","","","","","",""
"","","","","","html-slider-response","195","423149","0.0-21.0-0.27","000a21dc-1f4d-4f9b-a337-ec28fddb1d57","1000","
                  <p style=""text-align: center;"">₪71
                                                <br>75%</p>
                  <p id=""wtp"" style=""text-align:center; margin-top: 0px; margin-bottom: 0px; font-size: 40px"";>&ensp;</p>","-","viewing","0","28","8B","","","","","","","","","","","","","","","","","","",""
"","","","","","html-slider-response","196","427060","0.0-21.0-1.27","000a21dc-1f4d-4f9b-a337-ec28fddb1d57","3910","
                  <p style=""text-align: center;"">₪71
                                                <br>75%</p>
                  <p id=""wtp"" style=""text-align:center; margin-top: 0px; margin-bottom: 0px; font-size: 40px"";>מוכנים לשלם: <span id=""c_p_y""></span></p>","33","evaluation","43","28","8B","75","71","33","","","","","","","","","","","","","","","",""
"","","","","","html-keyboard-response","197","428106","0.0-21.0-2.27","000a21dc-1f4d-4f9b-a337-ec28fddb1d57","null","<p style=""text-align: center;"">+</p>","null","fixation","","","","","","","","","","","","","","","","","","","","","",""
"","","","","","html-slider-response","198","429116","0.0-21.0-0.28","000a21dc-1f4d-4f9b-a337-ec28fddb1d57","1000","
                  <p style=""text-align: center;"">₪39
                                                <br>60%</p>
                  <p id=""wtp"" style=""text-align:center; margin-top: 0px; margin-bottom: 0px; font-size: 40px"";>&ensp;</p>","-","viewing","0","15","9C,25B","","","","","","","","","","","","","","","","","","",""
"","","","","","html-slider-response","199","431932","0.0-21.0-1.28","000a21dc-1f4d-4f9b-a337-ec28fddb1d57","2815","
                  <p style=""text-align: center;"">₪39
                                                <br>60%</p>
                  <p id=""wtp"" style=""text-align:center; margin-top: 0px; margin-bottom: 0px; font-size: 40px"";>מוכנים לשלם: <span id=""c_p_y""></span></p>","20","evaluation","69","15","9C,25B","60","39","20","","","","","","","","","","","","","","","",""
"","","","","","html-keyboard-response","200","432699","0.0-21.0-2.28","000a21dc-1f4d-4f9b-a337-ec28fddb1d57","null","<p style=""text-align: center;"">+</p>","null","fixation","","","","","","","","","","","","","","","","","","","","","",""
"","","","","","html-slider-response","201","433705","0.0-21.0-0.29","000a21dc-1f4d-4f9b-a337-ec28fddb1d57","1000","
                  <p style=""text-align: center;"">₪16
                                                <br>20%</p>
                  <p id=""wtp"" style=""text-align:center; margin-top: 0px; margin-bottom: 0px; font-size: 40px"";>&ensp;</p>","-","viewing","0","8","14C,17A,20C,27A","","","","","","","","","","","","","","","","","","",""
"","","","","","html-slider-response","202","437707","0.0-21.0-1.29","000a21dc-1f4d-4f9b-a337-ec28fddb1d57","null","
                  <p style=""text-align: center;"">₪16
                                                <br>20%</p>
                  <p id=""wtp"" style=""text-align:center; margin-top: 0px; margin-bottom: 0px; font-size: 40px"";>מוכנים לשלם: <span id=""c_p_y""></span></p>","null","evaluation","16","8","14C,17A,20C,27A","20","16","10","","","","","","","","","","","","","","","",""
"","","","","","html-keyboard-response","203","438716","0.0-21.0-2.29","000a21dc-1f4d-4f9b-a337-ec28fddb1d57","null","<p style=""text-align: center;"">+</p>","null","fixation","","","","","","","","","","","","","","","","","","","","","",""
"","","","","","html-slider-response","204","439721","0.0-21.0-0.30","000a21dc-1f4d-4f9b-a337-ec28fddb1d57","1000","
                  <p style=""text-align: center;"">₪11
                                                <br>45%</p>
                  <p id=""wtp"" style=""text-align:center; margin-top: 0px; margin-bottom: 0px; font-size: 40px"";>&ensp;</p>","-","viewing","0","6","14B,21C,25C","","","","","","","","","","","","","","","","","","",""
"","","","","","html-slider-response","205","442204","0.0-21.0-1.30","000a21dc-1f4d-4f9b-a337-ec28fddb1d57","2482","
                  <p style=""text-align: center;"">₪11
                                                <br>45%</p>
                  <p id=""wtp"" style=""text-align:center; margin-top: 0px; margin-bottom: 0px; font-size: 40px"";>מוכנים לשלם: <span id=""c_p_y""></span></p>","2","evaluation","64","6","14B,21C,25C","45","11","3","","","","","","","","","","","","","","","",""
"","","","","","html-keyboard-response","206","442708","0.0-21.0-2.30","000a21dc-1f4d-4f9b-a337-ec28fddb1d57","null","<p style=""text-align: center;"">+</p>","null","fixation","","","","","","","","","","","","","","","","","","","","","",""
"","","","","","html-keyboard-response","207","443719","0.0-22.0","000a21dc-1f4d-4f9b-a337-ec28fddb1d57","null","<p style=""text-align: center;"">+</p>","null","fixation","","","","","","","","","","","","","","","","","","","","","",""
"","","","","","html-keyboard-response","208","444980","0.0-23.0","000a21dc-1f4d-4f9b-a337-ec28fddb1d57","null","<p>הפסקה.
          <br>לחצו כדי להמשיך.</p>","1","scan_wait","","","","","","","","","","","","","","","","","","","","","",""
"","","","","","html-keyboard-response","209","445989","0.0-24.0","000a21dc-1f4d-4f9b-a337-ec28fddb1d57","null","<p style=""text-align: center;"">+</p>","null","fixation","","","","","","","","","","","","","","","","","","","","","",""
"","","","","","html-slider-response","210","446995","0.0-25.0-0.0","000a21dc-1f4d-4f9b-a337-ec28fddb1d57","1000","
                  <p style=""text-align: center;"">₪11
                                                <br>75%</p>
                  <p id=""wtp"" style=""text-align:center; margin-top: 0px; margin-bottom: 0px; font-size: 40px"";>&ensp;</p>","-","viewing","0","7","6B,18B,22C,24C,29A","","","","","","","","","","","","","","","","","","",""
"","","","","","html-slider-response","211","450999","0.0-25.0-1.0","000a21dc-1f4d-4f9b-a337-ec28fddb1d57","null","
                  <p style=""text-align: center;"">₪11
                                                <br>75%</p>
                  <p id=""wtp"" style=""text-align:center; margin-top: 0px; margin-bottom: 0px; font-size: 40px"";>מוכנים לשלם: <span id=""c_p_y""></span></p>","null","evaluation","30","7","6B,18B,22C,24C,29A","75","11","6","","","","","","","","","","","","","","","",""
"","","","","","html-keyboard-response","212","451723","0.0-25.0-2.0","000a21dc-1f4d-4f9b-a337-ec28fddb1d57","null","<p style=""text-align: center;"">+</p>","null","fixation","","","","","","","","","","","","","","","","","","","","","",""
"","","","","","html-slider-response","213","452731","0.0-25.0-0.1","000a21dc-1f4d-4f9b-a337-ec28fddb1d57","1000","
                  <p style=""text-align: center;"">₪79
                                                <br>65%</p>
                  <p id=""wtp"" style=""text-align:center; margin-top: 0px; margin-bottom: 0px; font-size: 40px"";>&ensp;</p>","-","viewing","0","31","8A","","","","","","","","","","","","","","","","","","",""
"","","","","","html-slider-response","214","456213","0.0-25.0-1.1","000a21dc-1f4d-4f9b-a337-ec28fddb1d57","3480","
                  <p style=""text-align: center;"">₪79
                                                <br>65%</p>
                  <p id=""wtp"" style=""text-align:center; margin-top: 0px; margin-bottom: 0px; font-size: 40px"";>מוכנים לשלם: <span id=""c_p_y""></span></p>","40","evaluation","2","31","8A","65","79","40","","","","","","","","","","","","","","","",""
"","","","","","html-keyboard-response","215","457430","0.0-25.0-2.1","000a21dc-1f4d-4f9b-a337-ec28fddb1d57","null","<p style=""text-align: center;"">+</p>","null","fixation","","","","","","","","","","","","","","","","","","","","","",""
"","","","","","html-slider-response","216","458431","0.0-25.0-0.2","000a21dc-1f4d-4f9b-a337-ec28fddb1d57","1000","
                  <p style=""text-align: center;"">₪58
                                                <br>30%</p>
                  <p id=""wtp"" style=""text-align:center; margin-top: 0px; margin-bottom: 0px; font-size: 40px"";>&ensp;</p>","-","viewing","0","19","13C,30A","","","","","","","","","","","","","","","","","","",""
"","","","","","html-slider-response","217","460660","0.0-25.0-1.2","000a21dc-1f4d-4f9b-a337-ec28fddb1d57","2228","
                  <p style=""text-align: center;"">₪58
                                                <br>30%</p>
                  <p id=""wtp"" style=""text-align:center; margin-top: 0px; margin-bottom: 0px; font-size: 40px"";>מוכנים לשלם: <span id=""c_p_y""></span></p>","16","evaluation","73","19","13C,30A","30","58","16","","","","","","","","","","","","","","","",""
"","","","","","html-keyboard-response","218","461283","0.0-25.0-2.2","000a21dc-1f4d-4f9b-a337-ec28fddb1d57","null","<p style=""text-align: center;"">+</p>","null","fixation","","","","","","","","","","","","","","","","","","","","","",""
"","","","","","html-slider-response","219","462292","0.0-25.0-0.3","000a21dc-1f4d-4f9b-a337-ec28fddb1d57","1000","
                  <p style=""text-align: center;"">₪11
                                                <br>25%</p>
                  <p id=""wtp"" style=""text-align:center; margin-top: 0px; margin-bottom: 0px; font-size: 40px"";>&ensp;</p>","-","viewing","0","5","12A,27B,28B,30B","","","","","","","","","","","","","","","","","","",""
"","","","","","html-slider-response","220","464340","0.0-25.0-1.3","000a21dc-1f4d-4f9b-a337-ec28fddb1d57","2047","
                  <p style=""text-align: center;"">₪11
                                                <br>25%</p>
                  <p id=""wtp"" style=""text-align:center; margin-top: 0px; margin-bottom: 0px; font-size: 40px"";>מוכנים לשלם: <span id=""c_p_y""></span></p>","0","evaluation","19","5","12A,27B,28B,30B","25","11","1","","","","","","","","","","","","","","","",""
"","","","","","html-keyboard-response","221","465694","0.0-25.0-2.3","000a21dc-1f4d-4f9b-a337-ec28fddb1d57","null","<p style=""text-align: center;"">+</p>","null","fixation","","","","","","","","","","","","","","","","","","","","","",""
"","","","","","html-slider-response","222","466699","0.0-25.0-0.4","000a21dc-1f4d-4f9b-a337-ec28fddb1d57","1000","
                  <p style=""text-align: center;"">₪61
                                                <br>45%</p>
                  <p id=""wtp"" style=""text-align:center; margin-top: 0px; margin-bottom: 0px; font-size: 40px"";>&ensp;</p>","-","viewing","0","22","10A,11A","","","","","","","","","","","","","","","","","","",""
"","","","","","html-slider-response","223","468676","0.0-25.0-1.4","000a21dc-1f4d-4f9b-a337-ec28fddb1d57","1976","
                  <p style=""text-align: center;"">₪61
                                                <br>45%</p>
                  <p id=""wtp"" style=""text-align:center; margin-top: 0px; margin-bottom: 0px; font-size: 40px"";>מוכנים לשלם: <span id=""c_p_y""></span></p>","15","evaluation","7","22","10A,11A","45","61","15","","","","","","","","","","","","","","","",""
"","","","","","html-keyboard-response","224","470163","0.0-25.0-2.4","000a21dc-1f4d-4f9b-a337-ec28fddb1d57","null","<p style=""text-align: center;"">+</p>","null","fixation","","","","","","","","","","","","","","","","","","","","","",""
"","","","","","html-slider-response","225","471176","0.0-25.0-0.5","000a21dc-1f4d-4f9b-a337-ec28fddb1d57","1000","
                  <p style=""text-align: center;"">₪76
                                                <br>65%</p>
                  <p id=""wtp"" style=""text-align:center; margin-top: 0px; margin-bottom: 0px; font-size: 40px"";>&ensp;</p>","-","viewing","0","29","8C,19A,24B","","","","","","","","","","","","","","","","","","",""
"","","","","","html-slider-response","226","474116","0.0-25.0-1.5","000a21dc-1f4d-4f9b-a337-ec28fddb1d57","2939","
                  <p style=""text-align: center;"">₪76
                                                <br>65%</p>
                  <p id=""wtp"" style=""text-align:center; margin-top: 0px; margin-bottom: 0px; font-size: 40px"";>מוכנים לשלם: <span id=""c_p_y""></span></p>","30","evaluation","10","29","8C,19A,24B","65","76","30","","","","","","","","","","","","","","","",""
"","","","","","html-keyboard-response","227","475148","0.0-25.0-2.5","000a21dc-1f4d-4f9b-a337-ec28fddb1d57","null","<p style=""text-align: center;"">+</p>","null","fixation","","","","","","","","","","","","","","","","","","","","","",""
"","","","","","html-slider-response","228","476165","0.0-25.0-0.6","000a21dc-1f4d-4f9b-a337-ec28fddb1d57","1000","
                  <p style=""text-align: center;"">₪11
                                                <br>45%</p>
                  <p id=""wtp"" style=""text-align:center; margin-top: 0px; margin-bottom: 0px; font-size: 40px"";>&ensp;</p>","-","viewing","0","6","14B,21C,25C","","","","","","","","","","","","","","","","","","",""
"","","","","","html-slider-response","229","477661","0.0-25.0-1.6","000a21dc-1f4d-4f9b-a337-ec28fddb1d57","1495","
                  <p style=""text-align: center;"">₪11
                                                <br>45%</p>
                  <p id=""wtp"" style=""text-align:center; margin-top: 0px; margin-bottom: 0px; font-size: 40px"";>מוכנים לשלם: <span id=""c_p_y""></span></p>","1","evaluation","46","6","14B,21C,25C","45","11","1","","","","","","","","","","","","","","","",""
"","","","","","html-keyboard-response","230","478602","0.0-25.0-2.6","000a21dc-1f4d-4f9b-a337-ec28fddb1d57","null","<p style=""text-align: center;"">+</p>","null","fixation","","","","","","","","","","","","","","","","","","","","","",""
"","","","","","html-slider-response","231","479611","0.0-25.0-0.7","000a21dc-1f4d-4f9b-a337-ec28fddb1d57","1000","
                  <p style=""text-align: center;"">₪43
                                                <br>75%</p>
                  <p id=""wtp"" style=""text-align:center; margin-top: 0px; margin-bottom: 0px; font-size: 40px"";>&ensp;</p>","-","viewing","0","18","11B,19B,24A,26A","","","","","","","","","","","","","","","","","","",""
"","","","","","html-slider-response","232","481708","0.0-25.0-1.7","000a21dc-1f4d-4f9b-a337-ec28fddb1d57","2096","
                  <p style=""text-align: center;"">₪43
                                                <br>75%</p>
                  <p id=""wtp"" style=""text-align:center; margin-top: 0px; margin-bottom: 0px; font-size: 40px"";>מוכנים לשלם: <span id=""c_p_y""></span></p>","23","evaluation","78","18","11B,19B,24A,26A","75","43","23","","","","","","","","","","","","","","","",""
"","","","","","html-keyboard-response","233","482778","0.0-25.0-2.7","000a21dc-1f4d-4f9b-a337-ec28fddb1d57","null","<p style=""text-align: center;"">+</p>","null","fixation","","","","","","","","","","","","","","","","","","","","","",""
"","","","","","html-slider-response","234","483789","0.0-25.0-0.8","000a21dc-1f4d-4f9b-a337-ec28fddb1d57","1000","
                  <p style=""text-align: center;"">₪36
                                                <br>30%</p>
                  <p id=""wtp"" style=""text-align:center; margin-top: 0px; margin-bottom: 0px; font-size: 40px"";>&ensp;</p>","-","viewing","0","11","3C,20A,22A","","","","","","","","","","","","","","","","","","",""
"","","","","","html-slider-response","235","486756","0.0-25.0-1.8","000a21dc-1f4d-4f9b-a337-ec28fddb1d57","2965","
                  <p style=""text-align: center;"">₪36
                                                <br>30%</p>
                  <p id=""wtp"" style=""text-align:center; margin-top: 0px; margin-bottom: 0px; font-size: 40px"";>מוכנים לשלם: <span id=""c_p_y""></span></p>","9","evaluation","46","11","3C,20A,22A","30","36","10","","","","","","","","","","","","","","","",""
"","","","","","html-keyboard-response","236","487725","0.0-25.0-2.8","000a21dc-1f4d-4f9b-a337-ec28fddb1d57","null","<p style=""text-align: center;"">+</p>","null","fixation","","","","","","","","","","","","","","","","","","","","","",""
"","","","","","html-slider-response","237","488740","0.0-25.0-0.9","000a21dc-1f4d-4f9b-a337-ec28fddb1d57","1000","
                  <p style=""text-align: center;"">₪79
                                                <br>40%</p>
                  <p id=""wtp"" style=""text-align:center; margin-top: 0px; margin-bottom: 0px; font-size: 40px"";>&ensp;</p>","-","viewing","0","30","9B","","","","","","","","","","","","","","","","","","",""
"","","","","","html-slider-response","238","492204","0.0-25.0-1.9","000a21dc-1f4d-4f9b-a337-ec28fddb1d57","3462","
                  <p style=""text-align: center;"">₪79
                                                <br>40%</p>
                  <p id=""wtp"" style=""text-align:center; margin-top: 0px; margin-bottom: 0px; font-size: 40px"";>מוכנים לשלם: <span id=""c_p_y""></span></p>","19","evaluation","20","30","9B","40","79","19","","","","","","","","","","","","","","","",""
"","","","","","html-keyboard-response","239","492807","0.0-25.0-2.9","000a21dc-1f4d-4f9b-a337-ec28fddb1d57","null","<p style=""text-align: center;"">+</p>","null","fixation","","","","","","","","","","","","","","","","","","","","","",""
"","","","","","html-slider-response","240","493811","0.0-25.0-0.10","000a21dc-1f4d-4f9b-a337-ec28fddb1d57","1000","
                  <p style=""text-align: center;"">₪11
                                                <br>20%</p>
                  <p id=""wtp"" style=""text-align:center; margin-top: 0px; margin-bottom: 0px; font-size: 40px"";>&ensp;</p>","-","viewing","0","4","12C,17C,23C,28C","","","","","","","","","","","","","","","","","","",""
"","","","","","html-slider-response","241","496588","0.0-25.0-1.10","000a21dc-1f4d-4f9b-a337-ec28fddb1d57","2774","
                  <p style=""text-align: center;"">₪11
                                                <br>20%</p>
                  <p id=""wtp"" style=""text-align:center; margin-top: 0px; margin-bottom: 0px; font-size: 40px"";>מוכנים לשלם: <span id=""c_p_y""></span></p>","1","evaluation","62","4","12C,17C,23C,28C","20","11","1","","","","","","","","","","","","","","","",""
"","","","","","html-keyboard-response","242","497672","0.0-25.0-2.10","000a21dc-1f4d-4f9b-a337-ec28fddb1d57","null","<p style=""text-align: center;"">+</p>","null","fixation","","","","","","","","","","","","","","","","","","","","","",""
"","","","","","html-slider-response","243","498685","0.0-25.0-0.11","000a21dc-1f4d-4f9b-a337-ec28fddb1d57","1000","
                  <p style=""text-align: center;"">₪36
                                                <br>75%</p>
                  <p id=""wtp"" style=""text-align:center; margin-top: 0px; margin-bottom: 0px; font-size: 40px"";>&ensp;</p>","-","viewing","0","14","4B,5A,13B,16B","","","","","","","","","","","","","","","","","","",""
"","","","","","html-slider-response","244","501132","0.0-25.0-1.11","000a21dc-1f4d-4f9b-a337-ec28fddb1d57","2446","
                  <p style=""text-align: center;"">₪36
                                                <br>75%</p>
                  <p id=""wtp"" style=""text-align:center; margin-top: 0px; margin-bottom: 0px; font-size: 40px"";>מוכנים לשלם: <span id=""c_p_y""></span></p>","20","evaluation","78","14","4B,5A,13B,16B","75","36","20","","","","","","","","","","","","","","","",""
"","","","","","html-keyboard-response","245","502177","0.0-25.0-2.11","000a21dc-1f4d-4f9b-a337-ec28fddb1d57","null","<p style=""text-align: center;"">+</p>","null","fixation","","","","","","","","","","","","","","","","","","","","","",""
"","","","","","html-slider-response","246","503179","0.0-25.0-0.12","000a21dc-1f4d-4f9b-a337-ec28fddb1d57","1000","
                  <p style=""text-align: center;"">₪58
                                                <br>45%</p>
                  <p id=""wtp"" style=""text-align:center; margin-top: 0px; margin-bottom: 0px; font-size: 40px"";>&ensp;</p>","-","viewing","0","21","11C,18C,25A","","","","","","","","","","","","","","","","","","",""
"","","","","","html-slider-response","247","504764","0.0-25.0-1.12","000a21dc-1f4d-4f9b-a337-ec28fddb1d57","1584","
                  <p style=""text-align: center;"">₪58
                                                <br>45%</p>
                  <p id=""wtp"" style=""text-align:center; margin-top: 0px; margin-bottom: 0px; font-size: 40px"";>מוכנים לשלם: <span id=""c_p_y""></span></p>","20","evaluation","6","21","11C,18C,25A","45","58","20","","","","","","","","","","","","","","","",""
"","","","","","html-keyboard-response","248","505714","0.0-25.0-2.12","000a21dc-1f4d-4f9b-a337-ec28fddb1d57","null","<p style=""text-align: center;"">+</p>","null","fixation","","","","","","","","","","","","","","","","","","","","","",""
"","","","","","html-slider-response","249","506724","0.0-25.0-0.13","000a21dc-1f4d-4f9b-a337-ec28fddb1d57","1000","
                  <p style=""text-align: center;"">₪39
                                                <br>65%</p>
                  <p id=""wtp"" style=""text-align:center; margin-top: 0px; margin-bottom: 0px; font-size: 40px"";>&ensp;</p>","-","viewing","0","16","1A,15A,26C","","","","","","","","","","","","","","","","","","",""
"","","","","","html-slider-response","250","508916","0.0-25.0-1.13","000a21dc-1f4d-4f9b-a337-ec28fddb1d57","2191","
                  <p style=""text-align: center;"">₪39
                                                <br>65%</p>
