"success","timeout","failed_images","failed_audio","failed_video","trial_type","trial_index","time_elapsed","internal_node_id","subject_id","rt","stimulus","response","part","slider_start","ID","set_ID","prob","amount","last_location","actual_choice","actual_EV","binary_id","trinary_id","catch","direction","A_key","S_key","D_key","choice_prob","choice_amount","chosen_part","potential_prize_prob","potential_prize_amount","won_prize","total_prize","prize_cost","remaining_budget","accuracy"
"true","false","[]","[]","[]","preload","0","84","0.0-0.0","2a7304d9-c216-4321-aa66-c518fc27cf7a","","","","","","","","","","","","","","","","","","","","","","","","","","","","",""
"","","","","","html-keyboard-response","1","3176922","0.0-1.0","2a7304d9-c216-4321-aa66-c518fc27cf7a","null","
          <h1>שלום וברוכים הבאים!</h1>
          <p>לפניכם ניסוי בקבלת החלטות עם שני חלקים.
          <br><br>לחצו על העכבר כדי להמשיך.</p>","0","example","","","","","","","","","","","","","","","","","","","","","","","","",""
"","","","","","html-keyboard-response","2","3184874","0.0-2.0","2a7304d9-c216-4321-aa66-c518fc27cf7a","null","
        <h1>חלק 1</h1>
        <p>בקרוב יוצגו בפניכם הגרלות.
        <br>עליכם לבחור את המחיר המירבי שתהיו מוכנים לשלם כדי להשתתף בהגרלה שתוצג.
        <br>יש לכם תקציב של ₪80 לכל הגרלה. 
        <br>נסו להעריך כל הגרלה בנפרד ולחשוב כמה היא שווה עבורכם, ₪80 זמינים לכל הגרלה בנפרד.
        <br><br>לחצו על העכבר כדי להמשיך.</p>","1","instructions","","","","","","","","","","","","","","","","","","","","","","","","",""
"","","","","","html-keyboard-response","3","3192074","0.0-3.0","2a7304d9-c216-4321-aa66-c518fc27cf7a","null","
        <p>בסוף הניסוי, המחשב יבחר את אחת ההגרלות ויקבע מחיר לכרטיס עבורה. 
        <br>במידה והמחיר שבחרתם נמוך מהמחיר שנבחר על ידי המחשב, לא תשתתפו בהגרלה ותשארו עם מלוא התקציב.
        <br>במידה והמחיר שבחרתם גבוה מהמחיר שנבחר על ידי המחשב, תשלמו את המחיר שנקבע ותשתתפו בהגרלה.
        <br><br>לחצו על העכבר כדי להמשיך.</p>","1","instructions","","","","","","","","","","","","","","","","","","","","","","","","",""
"","","","","","html-slider-response","4","3211186","0.0-4.0","2a7304d9-c216-4321-aa66-c518fc27cf7a","19009","
        <p style=""font-size: 42px;"">נתחיל עם דוגמא: 
        <br>ההגרלה מטה מציעה 65% סיכוי לזכות ב-₪40 
        <br>&emsp;&emsp;&emsp;&emsp;&emsp;&emsp;&emsp;&emsp;&ensp;35% סיכוי לזכות ב-₪0.
        <br><br>מה המחיר המירבי שתהיו מוכנים לשלם על כרטיס להגרלה זו בין 0 ל-₪80?
        <br>הזיזו את העכבר על פני המלבן ולחצו כדי לבצע בחירה.</p>
        
        <p style=""text-align: center;"">₪40<br>65%</p>

        <p id=""wtp"" style=""text-align:center; margin-top: 0px; margin-bottom: 0px; font-size: 40px"";>מוכנים לשלם: <span id=""c_p_y""></span></p>","24","example","17","","","","","","","","","","","","","","","","","","","","","","","",""
"","","","","","html-keyboard-response","5","3217842","0.0-5.0","2a7304d9-c216-4321-aa66-c518fc27cf7a","null","<p>יפה מאוד!
                <br> בחרתם שתהיו מוכנים לשלם ₪24 כדי להשתתף בהגרלה:
                <br><p style=""text-align: center;"">₪40<br>65%</p>
                <p>נשמע נכון?
                <br>נניח שהגרלה זו נבחרה בסוף הניסוי.
                <br>כעת המחשב יקבע מחיר עבורה באקראי.
                <br>לחצו על העכבר להמשך.</p>","1","example","","","","","","","","","","","","","","","","","","","","","","","","",""
"","","","","","html-keyboard-response","6","3223914","0.0-6.0","2a7304d9-c216-4321-aa66-c518fc27cf7a","null","<p>המחשב קבע מחיר: ₪31
                <br>ואתם בחרתם לשלם לכל היותר: ₪24
                <br><br>מכיוון שהמחיר שבחרתם נמוך מהמחיר שנקבע, לא תתשתתפו בהגרלה.
                <br>במקרה כזה, בסוף הניסוי תקבלו את כל התקציב ההתחלתי של ₪80.
                <br><br>לחצו על העכבר להמשך.</p>","1","example","","","","","","","","","","","","","","","","","","","","","","","","",""
"","","","","","html-slider-response","7","3231162","0.0-7.0","2a7304d9-c216-4321-aa66-c518fc27cf7a","6995","<p style=""font-size: 42px;"">הנה עוד דוגמא:
                <br>ההגרלה מטה מציעה 35% סיכוי לזכות ב-₪18 
                <br>&emsp;&emsp;&emsp;&emsp;&emsp;&emsp;&emsp;&emsp;&ensp;65% סיכוי לזכות ב-₪0.</p>
        
                <p style=""text-align: center;"">₪18<br>35%</p>
                <p id=""wtp"" style=""text-align:center; margin-top: 0px; margin-bottom: 0px; font-size: 40px"";>מוכנים לשלם: <span id=""c_p_y""></span></p>","5","example","45","","","","","","","","","","","","","","","","","","","","","","","",""
"","","","","","html-keyboard-response","8","3236282","0.0-8.0","2a7304d9-c216-4321-aa66-c518fc27cf7a","null","<p>הייתם מוכנים לשלם  ₪5 כדי להשתתף בהגרלה:
                <p style=""text-align: center;"">₪18<br>35%</p>
                <p>כעת נניח שהמחשב בחר את ההגרלה הזו בסוף הניסוי, וקבע עבורה מחיר.
                <br><br>לחצו על העכבר כדי להמשיך.</p>","1","instructions","","","","","","","","","","","","","","","","","","","","","","","","",""
"","","","","","html-keyboard-response","9","3240097","0.0-9.0","2a7304d9-c216-4321-aa66-c518fc27cf7a","null","<p>המחשב קבע מחיר להגרלה: ₪4<br>ואתם בחרתם לשלם לכל היותר: ₪5
                <br><br>כעת המחיר שנקבע נמוך מזה שבחרתם, אז תשלמו את המחיר שקבע המחשב (₪4) ותשתתפו בהגרלה.
                <br>במקרה כזה, תסיימו את הניסוי עם תקציב של ₪76 ועם סיכוי לזכות ב-₪18 נוספים מההגרלה.
                <br>כלומר, תוכלו לקבל ₪76 אם לא תזכו בהגרלה, או ₪94 אם תזכו בהגרלה.
                <br><br>לחצו על העכבר להמשך.</p>","1","example","","","","","","","","","","","","","","","","","","","","","","","","",""
"","","","","","html-keyboard-response","10","3245802","0.0-10.0","2a7304d9-c216-4321-aa66-c518fc27cf7a","null","<p>במהלך הניסוי, קודם תראו את ההגרלה ורק לאחר מכן תוכלו לבחור.
                <p>כמו כן, יהיו לכם מספר שניות מוגבל להגיב.
                <p>בואו ננסה זאת עם ההגרלה הקודמת.
                <br>לחצו על העכבר כדי להמשיך.</p>","1","instructions","","","","","","","","","","","","","","","","","","","","","","","","",""
"","","","","","html-slider-response","11","3247068","0.0-11.0","2a7304d9-c216-4321-aa66-c518fc27cf7a","1000","
                    <p style=""text-align: center;"">₪18<br>35%</p>
                    <p id=""wtp"" style=""text-align:center; margin-top: 0px; margin-bottom: 0px; font-size: 40px"";>&ensp;</p>","43","instructions","0","","","","","","","","","","","","","","","","","","","","","","","",""
"","","","","","html-slider-response","12","3251338","0.0-12.0","2a7304d9-c216-4321-aa66-c518fc27cf7a","null","
                    <p style=""text-align: center;"">₪18<br>35%</p>
                    <p id=""wtp"" style=""text-align:center; margin-top: 0px; margin-bottom: 0px; font-size: 40px"";>מוכנים לשלם: <span id=""c_p_y""></span></p>","null","instructions","79","","","","","","","","","","","","","","","","","","","","","","","",""
"","","","","","html-keyboard-response","13","3254577","0.0-13.0","2a7304d9-c216-4321-aa66-c518fc27cf7a","null","<p>לא הגבתם בזמן המוקצב לתגובה. 
                <br>נסו להגיב מהר יותר בפעם הבאה.
                <br><br>לחצו על העכבר כדי להמשיך.</p>","1","instructions","","","","","","","","","","","","","","","","","","","","","","","","",""
"","","","","","html-slider-response","14","3257273","0.0-14.0-0.0","2a7304d9-c216-4321-aa66-c518fc27cf7a","2435","
                    <p style=""text-align: center;"">₪40<br>65%</p>
                    <p id=""wtp"" style=""text-align:center; margin-top: 0px; margin-bottom: 0px; font-size: 40px"";>מוכנים לשלם: <span id=""c_p_y""></span></p>","11","instructions","30","","","","","","","","","","","","","","","","","","","","","","","",""
"","","","","","html-keyboard-response","15","3259641","0.0-14.0-1.0","2a7304d9-c216-4321-aa66-c518fc27cf7a","null","<p>יפה. הפעם בחרתם לשלם לכל היותר ₪11.
                <br><br>לחצו על העכבר כדי להמשיך.</p>","1","instructions","","","","","","","","","","","","","","","","","","","","","","","","",""
"","","","","","html-keyboard-response","16","3265585","0.0-15.0","2a7304d9-c216-4321-aa66-c518fc27cf7a","null","<p>כעת נתחיל את הניסוי.
                <br><br>אתם תראו הגרלות ותתבקשו לבחור כמה תהיו מוכנים לשלם כדי להשתתף בהן.
                <br>יש לכם תקציב של ₪80 עבור כל הגרלה.
                <br>בסוף הניסוי הגרלה אחת תבחר באקראי ותשוחק.
                <br><br>לחצו על העכבר כדי להתחיל את הניסוי.</p>","1","instructions","","","","","","","","","","","","","","","","","","","","","","","","",""
"","","","","","html-keyboard-response","17","3266852","0.0-16.0","2a7304d9-c216-4321-aa66-c518fc27cf7a","null","<p style=""text-align: center;"">+</p>","null","fixation","","","","","","","","","","","","","","","","","","","","","","","","",""
"","","","","","html-slider-response","18","3267854","0.0-17.0-0.0","2a7304d9-c216-4321-aa66-c518fc27cf7a","1000","
                  <p style=""text-align: center;"">₪18
                                                <br>50%</p>
                  <p id=""wtp"" style=""text-align:center; margin-top: 0px; margin-bottom: 0px; font-size: 40px"";>&ensp;</p>","-","viewing","0","10","2C,16C,22B,28A","","","","","","","","","","","","","","","","","","","","","",""
"","","","","","html-slider-response","19","3269257","0.0-17.0-1.0","2a7304d9-c216-4321-aa66-c518fc27cf7a","1402","
                  <p style=""text-align: center;"">₪18
                                                <br>50%</p>
                  <p id=""wtp"" style=""text-align:center; margin-top: 0px; margin-bottom: 0px; font-size: 40px"";>מוכנים לשלם: <span id=""c_p_y""></span></p>","15","evaluation","69","10","2C,16C,22B,28A","50","18","15","","","","","","","","","","","","","","","","","","",""
"","","","","","html-keyboard-response","20","3270555","0.0-17.0-2.0","2a7304d9-c216-4321-aa66-c518fc27cf7a","null","<p style=""text-align: center;"">+</p>","null","fixation","","","","","","","","","","","","","","","","","","","","","","","","",""
"","","","","","html-slider-response","21","3271571","0.0-17.0-0.1","2a7304d9-c216-4321-aa66-c518fc27cf7a","1000","
                  <p style=""text-align: center;"">₪4
                                                <br>25%</p>
                  <p id=""wtp"" style=""text-align:center; margin-top: 0px; margin-bottom: 0px; font-size: 40px"";>&ensp;</p>","-","viewing","0","1","6C,29B,30C","","","","","","","","","","","","","","","","","","","","","",""
"","","","","","html-slider-response","22","3273713","0.0-17.0-1.1","2a7304d9-c216-4321-aa66-c518fc27cf7a","2141","
                  <p style=""text-align: center;"">₪4
                                                <br>25%</p>
                  <p id=""wtp"" style=""text-align:center; margin-top: 0px; margin-bottom: 0px; font-size: 40px"";>מוכנים לשלם: <span id=""c_p_y""></span></p>","0","evaluation","7","1","6C,29B,30C","25","4","0","","","","","","","","","","","","","","","","","","",""
"","","","","","html-keyboard-response","23","3274856","0.0-17.0-2.1","2a7304d9-c216-4321-aa66-c518fc27cf7a","null","<p style=""text-align: center;"">+</p>","null","fixation","","","","","","","","","","","","","","","","","","","","","","","","",""
"","","","","","html-slider-response","24","3275862","0.0-17.0-0.2","2a7304d9-c216-4321-aa66-c518fc27cf7a","1000","
                  <p style=""text-align: center;"">₪58
                                                <br>45%</p>
                  <p id=""wtp"" style=""text-align:center; margin-top: 0px; margin-bottom: 0px; font-size: 40px"";>&ensp;</p>","-","viewing","0","21","11C,18C,25A","","","","","","","","","","","","","","","","","","","","","",""
"","","","","","html-slider-response","25","3278241","0.0-17.0-1.2","2a7304d9-c216-4321-aa66-c518fc27cf7a","2378","
                  <p style=""text-align: center;"">₪58
                                                <br>45%</p>
                  <p id=""wtp"" style=""text-align:center; margin-top: 0px; margin-bottom: 0px; font-size: 40px"";>מוכנים לשלם: <span id=""c_p_y""></span></p>","18","evaluation","40","21","11C,18C,25A","45","58","18","","","","","","","","","","","","","","","","","","",""
"","","","","","html-keyboard-response","26","3279447","0.0-17.0-2.2","2a7304d9-c216-4321-aa66-c518fc27cf7a","null","<p style=""text-align: center;"">+</p>","null","fixation","","","","","","","","","","","","","","","","","","","","","","","","",""
"","","","","","html-slider-response","27","3280453","0.0-17.0-0.3","2a7304d9-c216-4321-aa66-c518fc27cf7a","1000","
                  <p style=""text-align: center;"">₪58
                                                <br>40%</p>
                  <p id=""wtp"" style=""text-align:center; margin-top: 0px; margin-bottom: 0px; font-size: 40px"";>&ensp;</p>","-","viewing","0","20","10C,13A,19C,21B","","","","","","","","","","","","","","","","","","","","","",""
"","","","","","html-slider-response","28","3284153","0.0-17.0-1.3","2a7304d9-c216-4321-aa66-c518fc27cf7a","3700","
                  <p style=""text-align: center;"">₪58
                                                <br>40%</p>
                  <p id=""wtp"" style=""text-align:center; margin-top: 0px; margin-bottom: 0px; font-size: 40px"";>מוכנים לשלם: <span id=""c_p_y""></span></p>","23","evaluation","37","20","10C,13A,19C,21B","40","58","23","","","","","","","","","","","","","","","","","","",""
"","","","","","html-keyboard-response","29","3285594","0.0-17.0-2.3","2a7304d9-c216-4321-aa66-c518fc27cf7a","null","<p style=""text-align: center;"">+</p>","null","fixation","","","","","","","","","","","","","","","","","","","","","","","","",""
"","","","","","html-slider-response","30","3286603","0.0-17.0-0.4","2a7304d9-c216-4321-aa66-c518fc27cf7a","1000","
                  <p style=""text-align: center;"">₪36
                                                <br>60%</p>
                  <p id=""wtp"" style=""text-align:center; margin-top: 0px; margin-bottom: 0px; font-size: 40px"";>&ensp;</p>","-","viewing","0","12","1C,7C,15C","","","","","","","","","","","","","","","","","","","","","",""
"","","","","","html-slider-response","31","3290218","0.0-17.0-1.4","2a7304d9-c216-4321-aa66-c518fc27cf7a","3613","
                  <p style=""text-align: center;"">₪36
                                                <br>60%</p>
                  <p id=""wtp"" style=""text-align:center; margin-top: 0px; margin-bottom: 0px; font-size: 40px"";>מוכנים לשלם: <span id=""c_p_y""></span></p>","23","evaluation","44","12","1C,7C,15C","60","36","23","","","","","","","","","","","","","","","","","","",""
"","","","","","html-keyboard-response","32","3291105","0.0-17.0-2.4","2a7304d9-c216-4321-aa66-c518fc27cf7a","null","<p style=""text-align: center;"">+</p>","null","fixation","","","","","","","","","","","","","","","","","","","","","","","","",""
"","","","","","html-slider-response","33","3292114","0.0-17.0-0.5","2a7304d9-c216-4321-aa66-c518fc27cf7a","1000","
                  <p style=""text-align: center;"">₪79
                                                <br>65%</p>
                  <p id=""wtp"" style=""text-align:center; margin-top: 0px; margin-bottom: 0px; font-size: 40px"";>&ensp;</p>","-","viewing","0","31","8A","","","","","","","","","","","","","","","","","","","","","",""
"","","","","","html-slider-response","34","3294617","0.0-17.0-1.5","2a7304d9-c216-4321-aa66-c518fc27cf7a","2502","
                  <p style=""text-align: center;"">₪79
                                                <br>65%</p>
                  <p id=""wtp"" style=""text-align:center; margin-top: 0px; margin-bottom: 0px; font-size: 40px"";>מוכנים לשלם: <span id=""c_p_y""></span></p>","32","evaluation","49","31","8A","65","79","32","","","","","","","","","","","","","","","","","","",""
"","","","","","html-keyboard-response","35","3295961","0.0-17.0-2.5","2a7304d9-c216-4321-aa66-c518fc27cf7a","null","<p style=""text-align: center;"">+</p>","null","fixation","","","","","","","","","","","","","","","","","","","","","","","","",""
"","","","","","html-slider-response","36","3296968","0.0-17.0-0.6","2a7304d9-c216-4321-aa66-c518fc27cf7a","1000","
                  <p style=""text-align: center;"">₪39
                                                <br>65%</p>
                  <p id=""wtp"" style=""text-align:center; margin-top: 0px; margin-bottom: 0px; font-size: 40px"";>&ensp;</p>","-","viewing","0","16","1A,15A,26C","","","","","","","","","","","","","","","","","","","","","",""
"","","","","","html-slider-response","37","3300706","0.0-17.0-1.6","2a7304d9-c216-4321-aa66-c518fc27cf7a","3736","
                  <p style=""text-align: center;"">₪39
                                                <br>65%</p>
                  <p id=""wtp"" style=""text-align:center; margin-top: 0px; margin-bottom: 0px; font-size: 40px"";>מוכנים לשלם: <span id=""c_p_y""></span></p>","15","evaluation","41","16","1A,15A,26C","65","39","15","","","","","","","","","","","","","","","","","","",""
"","","","","","html-keyboard-response","38","3302082","0.0-17.0-2.6","2a7304d9-c216-4321-aa66-c518fc27cf7a","null","<p style=""text-align: center;"">+</p>","null","fixation","","","","","","","","","","","","","","","","","","","","","","","","",""
"","","","","","html-slider-response","39","3303092","0.0-17.0-0.7","2a7304d9-c216-4321-aa66-c518fc27cf7a","1000","
                  <p style=""text-align: center;"">₪11
                                                <br>20%</p>
                  <p id=""wtp"" style=""text-align:center; margin-top: 0px; margin-bottom: 0px; font-size: 40px"";>&ensp;</p>","-","viewing","0","4","12C,17C,23C,28C","","","","","","","","","","","","","","","","","","","","","",""
"","","","","","html-slider-response","40","3305994","0.0-17.0-1.7","2a7304d9-c216-4321-aa66-c518fc27cf7a","2900","
                  <p style=""text-align: center;"">₪11
                                                <br>20%</p>
                  <p id=""wtp"" style=""text-align:center; margin-top: 0px; margin-bottom: 0px; font-size: 40px"";>מוכנים לשלם: <span id=""c_p_y""></span></p>","0","evaluation","55","4","12C,17C,23C,28C","20","11","1","","","","","","","","","","","","","","","","","","",""
"","","","","","html-keyboard-response","41","3307458","0.0-17.0-2.7","2a7304d9-c216-4321-aa66-c518fc27cf7a","null","<p style=""text-align: center;"">+</p>","null","fixation","","","","","","","","","","","","","","","","","","","","","","","","",""
"","","","","","html-slider-response","42","3308465","0.0-17.0-0.8","2a7304d9-c216-4321-aa66-c518fc27cf7a","1000","
                  <p style=""text-align: center;"">₪11
                                                <br>45%</p>
                  <p id=""wtp"" style=""text-align:center; margin-top: 0px; margin-bottom: 0px; font-size: 40px"";>&ensp;</p>","-","viewing","0","6","14B,21C,25C","","","","","","","","","","","","","","","","","","","","","",""
"","","","","","html-slider-response","43","3310906","0.0-17.0-1.8","2a7304d9-c216-4321-aa66-c518fc27cf7a","2439","
                  <p style=""text-align: center;"">₪11
                                                <br>45%</p>
                  <p id=""wtp"" style=""text-align:center; margin-top: 0px; margin-bottom: 0px; font-size: 40px"";>מוכנים לשלם: <span id=""c_p_y""></span></p>","2","evaluation","45","6","14B,21C,25C","45","11","3","","","","","","","","","","","","","","","","","","",""
"","","","","","html-keyboard-response","44","3311686","0.0-17.0-2.8","2a7304d9-c216-4321-aa66-c518fc27cf7a","null","<p style=""text-align: center;"">+</p>","null","fixation","","","","","","","","","","","","","","","","","","","","","","","","",""
"","","","","","html-slider-response","45","3312701","0.0-17.0-0.9","2a7304d9-c216-4321-aa66-c518fc27cf7a","1000","
                  <p style=""text-align: center;"">₪4
                                                <br>50%</p>
                  <p id=""wtp"" style=""text-align:center; margin-top: 0px; margin-bottom: 0px; font-size: 40px"";>&ensp;</p>","-","viewing","0","2","4C,17B","","","","","","","","","","","","","","","","","","","","","",""
"","","","","","html-slider-response","46","3314946","0.0-17.0-1.9","2a7304d9-c216-4321-aa66-c518fc27cf7a","2244","
                  <p style=""text-align: center;"">₪4
                                                <br>50%</p>
                  <p id=""wtp"" style=""text-align:center; margin-top: 0px; margin-bottom: 0px; font-size: 40px"";>מוכנים לשלם: <span id=""c_p_y""></span></p>","3","evaluation","18","2","4C,17B","50","4","4","","","","","","","","","","","","","","","","","","",""
"","","","","","html-keyboard-response","47","3315825","0.0-17.0-2.9","2a7304d9-c216-4321-aa66-c518fc27cf7a","null","<p style=""text-align: center;"">+</p>","null","fixation","","","","","","","","","","","","","","","","","","","","","","","","",""
"","","","","","html-slider-response","48","3316838","0.0-17.0-0.10","2a7304d9-c216-4321-aa66-c518fc27cf7a","1000","
                  <p style=""text-align: center;"">₪36
                                                <br>75%</p>
                  <p id=""wtp"" style=""text-align:center; margin-top: 0px; margin-bottom: 0px; font-size: 40px"";>&ensp;</p>","-","viewing","0","14","4B,5A,13B,16B","","","","","","","","","","","","","","","","","","","","","",""
"","","","","","html-slider-response","49","3319777","0.0-17.0-1.10","2a7304d9-c216-4321-aa66-c518fc27cf7a","2938","
                  <p style=""text-align: center;"">₪36
                                                <br>75%</p>
                  <p id=""wtp"" style=""text-align:center; margin-top: 0px; margin-bottom: 0px; font-size: 40px"";>מוכנים לשלם: <span id=""c_p_y""></span></p>","10","evaluation","9","14","4B,5A,13B,16B","75","36","10","","","","","","","","","","","","","","","","","","",""
"","","","","","html-keyboard-response","50","3321213","0.0-17.0-2.10","2a7304d9-c216-4321-aa66-c518fc27cf7a","null","<p style=""text-align: center;"">+</p>","null","fixation","","","","","","","","","","","","","","","","","","","","","","","","",""
"","","","","","html-slider-response","51","3322227","0.0-17.0-0.11","2a7304d9-c216-4321-aa66-c518fc27cf7a","1000","
                  <p style=""text-align: center;"">₪61
                                                <br>55%</p>
                  <p id=""wtp"" style=""text-align:center; margin-top: 0px; margin-bottom: 0px; font-size: 40px"";>&ensp;</p>","-","viewing","0","23","7B,26B","","","","","","","","","","","","","","","","","","","","","",""
"","","","","","html-slider-response","52","3325922","0.0-17.0-1.11","2a7304d9-c216-4321-aa66-c518fc27cf7a","3694","
                  <p style=""text-align: center;"">₪61
                                                <br>55%</p>
                  <p id=""wtp"" style=""text-align:center; margin-top: 0px; margin-bottom: 0px; font-size: 40px"";>מוכנים לשלם: <span id=""c_p_y""></span></p>","25","evaluation","68","23","7B,26B","55","61","25","","","","","","","","","","","","","","","","","","",""
"","","","","","html-keyboard-response","53","3326728","0.0-17.0-2.11","2a7304d9-c216-4321-aa66-c518fc27cf7a","null","<p style=""text-align: center;"">+</p>","null","fixation","","","","","","","","","","","","","","","","","","","","","","","","",""
"","","","","","html-slider-response","54","3327743","0.0-17.0-0.12","2a7304d9-c216-4321-aa66-c518fc27cf7a","1000","
                  <p style=""text-align: center;"">₪76
                                                <br>65%</p>
                  <p id=""wtp"" style=""text-align:center; margin-top: 0px; margin-bottom: 0px; font-size: 40px"";>&ensp;</p>","-","viewing","0","29","8C,19A,24B","","","","","","","","","","","","","","","","","","","","","",""
"","","","","","html-slider-response","55","3330922","0.0-17.0-1.12","2a7304d9-c216-4321-aa66-c518fc27cf7a","3177","
                  <p style=""text-align: center;"">₪76
                                                <br>65%</p>
                  <p id=""wtp"" style=""text-align:center; margin-top: 0px; margin-bottom: 0px; font-size: 40px"";>מוכנים לשלם: <span id=""c_p_y""></span></p>","30","evaluation","9","29","8C,19A,24B","65","76","30","","","","","","","","","","","","","","","","","","",""
"","","","","","html-keyboard-response","56","3332256","0.0-17.0-2.12","2a7304d9-c216-4321-aa66-c518fc27cf7a","null","<p style=""text-align: center;"">+</p>","null","fixation","","","","","","","","","","","","","","","","","","","","","","","","",""
"","","","","","html-slider-response","57","3333263","0.0-17.0-0.13","2a7304d9-c216-4321-aa66-c518fc27cf7a","1000","
                  <p style=""text-align: center;"">₪61
                                                <br>45%</p>
                  <p id=""wtp"" style=""text-align:center; margin-top: 0px; margin-bottom: 0px; font-size: 40px"";>&ensp;</p>","-","viewing","0","22","10A,11A","","","","","","","","","","","","","","","","","","","","","",""
"","","","","","html-slider-response","58","3336585","0.0-17.0-1.13","2a7304d9-c216-4321-aa66-c518fc27cf7a","3321","
                  <p style=""text-align: center;"">₪61
                                                <br>45%</p>
                  <p id=""wtp"" style=""text-align:center; margin-top: 0px; margin-bottom: 0px; font-size: 40px"";>מוכנים לשלם: <span id=""c_p_y""></span></p>","22","evaluation","18","22","10A,11A","45","61","22","","","","","","","","","","","","","","","","","","",""
"","","","","","html-keyboard-response","59","3337592","0.0-17.0-2.13","2a7304d9-c216-4321-aa66-c518fc27cf7a","null","<p style=""text-align: center;"">+</p>","null","fixation","","","","","","","","","","","","","","","","","","","","","","","","",""
"","","","","","html-slider-response","60","3338608","0.0-17.0-0.14","2a7304d9-c216-4321-aa66-c518fc27cf7a","1000","
                  <p style=""text-align: center;"">₪71
                                                <br>75%</p>
                  <p id=""wtp"" style=""text-align:center; margin-top: 0px; margin-bottom: 0px; font-size: 40px"";>&ensp;</p>","-","viewing","0","28","8B","","","","","","","","","","","","","","","","","","","","","",""
"","","","","","html-slider-response","61","3340818","0.0-17.0-1.14","2a7304d9-c216-4321-aa66-c518fc27cf7a","2208","
                  <p style=""text-align: center;"">₪71
                                                <br>75%</p>
                  <p id=""wtp"" style=""text-align:center; margin-top: 0px; margin-bottom: 0px; font-size: 40px"";>מוכנים לשלם: <span id=""c_p_y""></span></p>","50","evaluation","51","28","8B","75","71","50","","","","","","","","","","","","","","","","","","",""
"","","","","","html-keyboard-response","62","3341471","0.0-17.0-2.14","2a7304d9-c216-4321-aa66-c518fc27cf7a","null","<p style=""text-align: center;"">+</p>","null","fixation","","","","","","","","","","","","","","","","","","","","","","","","",""
"","","","","","html-slider-response","63","3342479","0.0-17.0-0.15","2a7304d9-c216-4321-aa66-c518fc27cf7a","1000","
                  <p style=""text-align: center;"">₪58
                                                <br>30%</p>
                  <p id=""wtp"" style=""text-align:center; margin-top: 0px; margin-bottom: 0px; font-size: 40px"";>&ensp;</p>","-","viewing","0","19","13C,30A","","","","","","","","","","","","","","","","","","","","","",""
"","","","","","html-slider-response","64","3344906","0.0-17.0-1.15","2a7304d9-c216-4321-aa66-c518fc27cf7a","2425","
                  <p style=""text-align: center;"">₪58
                                                <br>30%</p>
                  <p id=""wtp"" style=""text-align:center; margin-top: 0px; margin-bottom: 0px; font-size: 40px"";>מוכנים לשלם: <span id=""c_p_y""></span></p>","15","evaluation","28","19","13C,30A","30","58","15","","","","","","","","","","","","","","","","","","",""
"","","","","","html-keyboard-response","65","3345433","0.0-17.0-2.15","2a7304d9-c216-4321-aa66-c518fc27cf7a","null","<p style=""text-align: center;"">+</p>","null","fixation","","","","","","","","","","","","","","","","","","","","","","","","",""
"","","","","","html-slider-response","66","3346435","0.0-17.0-0.16","2a7304d9-c216-4321-aa66-c518fc27cf7a","1000","
                  <p style=""text-align: center;"">₪36
                                                <br>70%</p>
                  <p id=""wtp"" style=""text-align:center; margin-top: 0px; margin-bottom: 0px; font-size: 40px"";>&ensp;</p>","-","viewing","0","13","3A,5C,10B","","","","","","","","","","","","","","","","","","","","","",""
"","","","","","html-slider-response","67","3349970","0.0-17.0-1.16","2a7304d9-c216-4321-aa66-c518fc27cf7a","3533","
                  <p style=""text-align: center;"">₪36
                                                <br>70%</p>
                  <p id=""wtp"" style=""text-align:center; margin-top: 0px; margin-bottom: 0px; font-size: 40px"";>מוכנים לשלם: <span id=""c_p_y""></span></p>","24","evaluation","68","13","3A,5C,10B","70","36","24","","","","","","","","","","","","","","","","","","",""
"","","","","","html-keyboard-response","68","3350535","0.0-17.0-2.16","2a7304d9-c216-4321-aa66-c518fc27cf7a","null","<p style=""text-align: center;"">+</p>","null","fixation","","","","","","","","","","","","","","","","","","","","","","","","",""
"","","","","","html-slider-response","69","3351551","0.0-17.0-0.17","2a7304d9-c216-4321-aa66-c518fc27cf7a","1000","
                  <p style=""text-align: center;"">₪43
                                                <br>75%</p>
                  <p id=""wtp"" style=""text-align:center; margin-top: 0px; margin-bottom: 0px; font-size: 40px"";>&ensp;</p>","-","viewing","0","18","11B,19B,24A,26A","","","","","","","","","","","","","","","","","","","","","",""
"","","","","","html-slider-response","70","3354314","0.0-17.0-1.17","2a7304d9-c216-4321-aa66-c518fc27cf7a","2761","
                  <p style=""text-align: center;"">₪43
                                                <br>75%</p>
                  <p id=""wtp"" style=""text-align:center; margin-top: 0px; margin-bottom: 0px; font-size: 40px"";>מוכנים לשלם: <span id=""c_p_y""></span></p>","29","evaluation","0","18","11B,19B,24A,26A","75","43","29","","","","","","","","","","","","","","","","","","",""
"","","","","","html-keyboard-response","71","3355295","0.0-17.0-2.17","2a7304d9-c216-4321-aa66-c518fc27cf7a","null","<p style=""text-align: center;"">+</p>","null","fixation","","","","","","","","","","","","","","","","","","","","","","","","",""
"","","","","","html-slider-response","72","3356311","0.0-17.0-0.18","2a7304d9-c216-4321-aa66-c518fc27cf7a","1000","
                  <p style=""text-align: center;"">₪39
                                                <br>60%</p>
                  <p id=""wtp"" style=""text-align:center; margin-top: 0px; margin-bottom: 0px; font-size: 40px"";>&ensp;</p>","-","viewing","0","15","9C,25B","","","","","","","","","","","","","","","","","","","","","",""
"","","","","","html-slider-response","73","3360033","0.0-17.0-1.18","2a7304d9-c216-4321-aa66-c518fc27cf7a","3721","
                  <p style=""text-align: center;"">₪39
                                                <br>60%</p>
                  <p id=""wtp"" style=""text-align:center; margin-top: 0px; margin-bottom: 0px; font-size: 40px"";>מוכנים לשלם: <span id=""c_p_y""></span></p>","26","evaluation","77","15","9C,25B","60","39","26","","","","","","","","","","","","","","","","","","",""
"","","","","","html-keyboard-response","74","3361341","0.0-17.0-2.18","2a7304d9-c216-4321-aa66-c518fc27cf7a","null","<p style=""text-align: center;"">+</p>","null","fixation","","","","","","","","","","","","","","","","","","","","","","","","",""
"","","","","","html-slider-response","75","3362353","0.0-17.0-0.19","2a7304d9-c216-4321-aa66-c518fc27cf7a","1000","
                  <p style=""text-align: center;"">₪64
                                                <br>50%</p>
                  <p id=""wtp"" style=""text-align:center; margin-top: 0px; margin-bottom: 0px; font-size: 40px"";>&ensp;</p>","-","viewing","0","25","1B,3B,4A","","","","","","","","","","","","","","","","","","","","","",""
"","","","","","html-slider-response","76","3366356","0.0-17.0-1.19","2a7304d9-c216-4321-aa66-c518fc27cf7a","null","
                  <p style=""text-align: center;"">₪64
                                                <br>50%</p>
                  <p id=""wtp"" style=""text-align:center; margin-top: 0px; margin-bottom: 0px; font-size: 40px"";>מוכנים לשלם: <span id=""c_p_y""></span></p>","null","evaluation","66","25","1B,3B,4A","50","64","59","","","","","","","","","","","","","","","","","","",""
"","","","","","html-keyboard-response","77","3367131","0.0-17.0-2.19","2a7304d9-c216-4321-aa66-c518fc27cf7a","null","<p style=""text-align: center;"">+</p>","null","fixation","","","","","","","","","","","","","","","","","","","","","","","","",""
"","","","","","html-slider-response","78","3368133","0.0-17.0-0.20","2a7304d9-c216-4321-aa66-c518fc27cf7a","1000","
                  <p style=""text-align: center;"">₪43
                                                <br>60%</p>
                  <p id=""wtp"" style=""text-align:center; margin-top: 0px; margin-bottom: 0px; font-size: 40px"";>&ensp;</p>","-","viewing","0","17","2A,7A,9A,15B","","","","","","","","","","","","","","","","","","","","","",""
"","","","","","html-slider-response","79","3371553","0.0-17.0-1.20","2a7304d9-c216-4321-aa66-c518fc27cf7a","3419","
                  <p style=""text-align: center;"">₪43
                                                <br>60%</p>
                  <p id=""wtp"" style=""text-align:center; margin-top: 0px; margin-bottom: 0px; font-size: 40px"";>מוכנים לשלם: <span id=""c_p_y""></span></p>","31","evaluation","45","17","2A,7A,9A,15B","60","43","31","","","","","","","","","","","","","","","","","","",""
"","","","","","html-keyboard-response","80","3372958","0.0-17.0-2.20","2a7304d9-c216-4321-aa66-c518fc27cf7a","null","<p style=""text-align: center;"">+</p>","null","fixation","","","","","","","","","","","","","","","","","","","","","","","","",""
"","","","","","html-slider-response","81","3373973","0.0-17.0-0.21","2a7304d9-c216-4321-aa66-c518fc27cf7a","1000","
                  <p style=""text-align: center;"">₪11
                                                <br>75%</p>
                  <p id=""wtp"" style=""text-align:center; margin-top: 0px; margin-bottom: 0px; font-size: 40px"";>&ensp;</p>","-","viewing","0","7","6B,18B,22C,24C,29A","","","","","","","","","","","","","","","","","","","","","",""
"","","","","","html-slider-response","82","3376674","0.0-17.0-1.21","2a7304d9-c216-4321-aa66-c518fc27cf7a","2699","
                  <p style=""text-align: center;"">₪11
                                                <br>75%</p>
                  <p id=""wtp"" style=""text-align:center; margin-top: 0px; margin-bottom: 0px; font-size: 40px"";>מוכנים לשלם: <span id=""c_p_y""></span></p>","10","evaluation","0","7","6B,18B,22C,24C,29A","75","11","10","","","","","","","","","","","","","","","","","","",""
"","","","","","html-keyboard-response","83","3378018","0.0-17.0-2.21","2a7304d9-c216-4321-aa66-c518fc27cf7a","null","<p style=""text-align: center;"">+</p>","null","fixation","","","","","","","","","","","","","","","","","","","","","","","","",""
"","","","","","html-slider-response","84","3379033","0.0-17.0-0.22","2a7304d9-c216-4321-aa66-c518fc27cf7a","1000","
                  <p style=""text-align: center;"">₪71
                                                <br>45%</p>
                  <p id=""wtp"" style=""text-align:center; margin-top: 0px; margin-bottom: 0px; font-size: 40px"";>&ensp;</p>","-","viewing","0","26","2B,16A","","","","","","","","","","","","","","","","","","","","","",""
"","","","","","html-slider-response","85","3382657","0.0-17.0-1.22","2a7304d9-c216-4321-aa66-c518fc27cf7a","3623","
                  <p style=""text-align: center;"">₪71
                                                <br>45%</p>
                  <p id=""wtp"" style=""text-align:center; margin-top: 0px; margin-bottom: 0px; font-size: 40px"";>מוכנים לשלם: <span id=""c_p_y""></span></p>","26","evaluation","1","26","2B,16A","45","71","26","","","","","","","","","","","","","","","","","","",""
"","","","","","html-keyboard-response","86","3383699","0.0-17.0-2.22","2a7304d9-c216-4321-aa66-c518fc27cf7a","null","<p style=""text-align: center;"">+</p>","null","fixation","","","","","","","","","","","","","","","","","","","","","","","","",""
"","","","","","html-slider-response","87","3384712","0.0-17.0-0.23","2a7304d9-c216-4321-aa66-c518fc27cf7a","1000","
                  <p style=""text-align: center;"">₪11
                                                <br>25%</p>
                  <p id=""wtp"" style=""text-align:center; margin-top: 0px; margin-bottom: 0px; font-size: 40px"";>&ensp;</p>","-","viewing","0","5","12A,27B,28B,30B","","","","","","","","","","","","","","","","","","","","","",""
"","","","","","html-slider-response","88","3386785","0.0-17.0-1.23","2a7304d9-c216-4321-aa66-c518fc27cf7a","2072","
                  <p style=""text-align: center;"">₪11
                                                <br>25%</p>
                  <p id=""wtp"" style=""text-align:center; margin-top: 0px; margin-bottom: 0px; font-size: 40px"";>מוכנים לשלם: <span id=""c_p_y""></span></p>","2","evaluation","41","5","12A,27B,28B,30B","25","11","2","","","","","","","","","","","","","","","","","","",""
"","","","","","html-keyboard-response","89","3387448","0.0-17.0-2.23","2a7304d9-c216-4321-aa66-c518fc27cf7a","null","<p style=""text-align: center;"">+</p>","null","fixation","","","","","","","","","","","","","","","","","","","","","","","","",""
"","","","","","html-slider-response","90","3388465","0.0-17.0-0.24","2a7304d9-c216-4321-aa66-c518fc27cf7a","1000","
                  <p style=""text-align: center;"">₪18
                                                <br>25%</p>
                  <p id=""wtp"" style=""text-align:center; margin-top: 0px; margin-bottom: 0px; font-size: 40px"";>&ensp;</p>","-","viewing","0","9","14A,23A","","","","","","","","","","","","","","","","","","","","","",""
"","","","","","html-slider-response","91","3391106","0.0-17.0-1.24","2a7304d9-c216-4321-aa66-c518fc27cf7a","2640","
                  <p style=""text-align: center;"">₪18
                                                <br>25%</p>
                  <p id=""wtp"" style=""text-align:center; margin-top: 0px; margin-bottom: 0px; font-size: 40px"";>מוכנים לשלם: <span id=""c_p_y""></span></p>","5","evaluation","62","9","14A,23A","25","18","5","","","","","","","","","","","","","","","","","","",""
"","","","","","html-keyboard-response","92","3391660","0.0-17.0-2.24","2a7304d9-c216-4321-aa66-c518fc27cf7a","null","<p style=""text-align: center;"">+</p>","null","fixation","","","","","","","","","","","","","","","","","","","","","","","","",""
"","","","","","html-slider-response","93","3392676","0.0-17.0-0.25","2a7304d9-c216-4321-aa66-c518fc27cf7a","1000","
                  <p style=""text-align: center;"">₪36
                                                <br>30%</p>
                  <p id=""wtp"" style=""text-align:center; margin-top: 0px; margin-bottom: 0px; font-size: 40px"";>&ensp;</p>","-","viewing","0","11","3C,20A,22A","","","","","","","","","","","","","","","","","","","","","",""
"","","","","","html-slider-response","94","3395425","0.0-17.0-1.25","2a7304d9-c216-4321-aa66-c518fc27cf7a","2747","
                  <p style=""text-align: center;"">₪36
                                                <br>30%</p>
                  <p id=""wtp"" style=""text-align:center; margin-top: 0px; margin-bottom: 0px; font-size: 40px"";>מוכנים לשלם: <span id=""c_p_y""></span></p>","11","evaluation","52","11","3C,20A,22A","30","36","12","","","","","","","","","","","","","","","","","","",""
"","","","","","html-keyboard-response","95","3396016","0.0-17.0-2.25","2a7304d9-c216-4321-aa66-c518fc27cf7a","null","<p style=""text-align: center;"">+</p>","null","fixation","","","","","","","","","","","","","","","","","","","","","","","","",""
"","","","","","html-slider-response","96","3397027","0.0-17.0-0.26","2a7304d9-c216-4321-aa66-c518fc27cf7a","1000","
                  <p style=""text-align: center;"">₪4
                                                <br>75%</p>
                  <p id=""wtp"" style=""text-align:center; margin-top: 0px; margin-bottom: 0px; font-size: 40px"";>&ensp;</p>","-","viewing","0","3","12B,20B,23B,27C,29C","","","","","","","","","","","","","","","","","","","","","",""
"","","","","","html-slider-response","97","3400225","0.0-17.0-1.26","2a7304d9-c216-4321-aa66-c518fc27cf7a","3197","
                  <p style=""text-align: center;"">₪4
                                                <br>75%</p>
                  <p id=""wtp"" style=""text-align:center; margin-top: 0px; margin-bottom: 0px; font-size: 40px"";>מוכנים לשלם: <span id=""c_p_y""></span></p>","3","evaluation","31","3","12B,20B,23B,27C,29C","75","4","4","","","","","","","","","","","","","","","","","","",""
"","","","","","html-keyboard-response","98","3401195","0.0-17.0-2.26","2a7304d9-c216-4321-aa66-c518fc27cf7a","null","<p style=""text-align: center;"">+</p>","null","fixation","","","","","","","","","","","","","","","","","","","","","","","","",""
"","","","","","html-slider-response","99","3402205","0.0-17.0-0.27","2a7304d9-c216-4321-aa66-c518fc27cf7a","1000","
                  <p style=""text-align: center;"">₪64
                                                <br>25%</p>
                  <p id=""wtp"" style=""text-align:center; margin-top: 0px; margin-bottom: 0px; font-size: 40px"";>&ensp;</p>","-","viewing","0","24","6A,21A","","","","","","","","","","","","","","","","","","","","","",""
"","","","","","html-slider-response","100","3405129","0.0-17.0-1.27","2a7304d9-c216-4321-aa66-c518fc27cf7a","2924","
                  <p style=""text-align: center;"">₪64
                                                <br>25%</p>
                  <p id=""wtp"" style=""text-align:center; margin-top: 0px; margin-bottom: 0px; font-size: 40px"";>מוכנים לשלם: <span id=""c_p_y""></span></p>","14","evaluation","5","24","6A,21A","25","64","14","","","","","","","","","","","","","","","","","","",""
"","","","","","html-keyboard-response","101","3405862","0.0-17.0-2.27","2a7304d9-c216-4321-aa66-c518fc27cf7a","null","<p style=""text-align: center;"">+</p>","null","fixation","","","","","","","","","","","","","","","","","","","","","","","","",""
"","","","","","html-slider-response","102","3406866","0.0-17.0-0.28","2a7304d9-c216-4321-aa66-c518fc27cf7a","1000","
                  <p style=""text-align: center;"">₪71
                                                <br>55%</p>
                  <p id=""wtp"" style=""text-align:center; margin-top: 0px; margin-bottom: 0px; font-size: 40px"";>&ensp;</p>","-","viewing","0","27","5B,18A","","","","","","","","","","","","","","","","","","","","","",""
"","","","","","html-slider-response","103","3408265","0.0-17.0-1.28","2a7304d9-c216-4321-aa66-c518fc27cf7a","1398","
                  <p style=""text-align: center;"">₪71
                                                <br>55%</p>
                  <p id=""wtp"" style=""text-align:center; margin-top: 0px; margin-bottom: 0px; font-size: 40px"";>מוכנים לשלם: <span id=""c_p_y""></span></p>","31","evaluation","13","27","5B,18A","55","71","31","","","","","","","","","","","","","","","","","","",""
"","","","","","html-keyboard-response","104","3409307","0.0-17.0-2.28","2a7304d9-c216-4321-aa66-c518fc27cf7a","null","<p style=""text-align: center;"">+</p>","null","fixation","","","","","","","","","","","","","","","","","","","","","","","","",""
"","","","","","html-slider-response","105","3410324","0.0-17.0-0.29","2a7304d9-c216-4321-aa66-c518fc27cf7a","1000","
                  <p style=""text-align: center;"">₪16
                                                <br>20%</p>
                  <p id=""wtp"" style=""text-align:center; margin-top: 0px; margin-bottom: 0px; font-size: 40px"";>&ensp;</p>","-","viewing","0","8","14C,17A,20C,27A","","","","","","","","","","","","","","","","","","","","","",""
"","","","","","html-slider-response","106","3411529","0.0-17.0-1.29","2a7304d9-c216-4321-aa66-c518fc27cf7a","1204","
                  <p style=""text-align: center;"">₪16
                                                <br>20%</p>
                  <p id=""wtp"" style=""text-align:center; margin-top: 0px; margin-bottom: 0px; font-size: 40px"";>מוכנים לשלם: <span id=""c_p_y""></span></p>","7","evaluation","69","8","14C,17A,20C,27A","20","16","8","","","","","","","","","","","","","","","","","","",""
"","","","","","html-keyboard-response","107","3412723","0.0-17.0-2.29","2a7304d9-c216-4321-aa66-c518fc27cf7a","null","<p style=""text-align: center;"">+</p>","null","fixation","","","","","","","","","","","","","","","","","","","","","","","","",""
"","","","","","html-slider-response","108","3413734","0.0-17.0-0.30","2a7304d9-c216-4321-aa66-c518fc27cf7a","1000","
                  <p style=""text-align: center;"">₪79
                                                <br>40%</p>
                  <p id=""wtp"" style=""text-align:center; margin-top: 0px; margin-bottom: 0px; font-size: 40px"";>&ensp;</p>","-","viewing","0","30","9B","","","","","","","","","","","","","","","","","","","","","",""
"","","","","","html-slider-response","109","3416065","0.0-17.0-1.30","2a7304d9-c216-4321-aa66-c518fc27cf7a","2330","
                  <p style=""text-align: center;"">₪79
                                                <br>40%</p>
                  <p id=""wtp"" style=""text-align:center; margin-top: 0px; margin-bottom: 0px; font-size: 40px"";>מוכנים לשלם: <span id=""c_p_y""></span></p>","20","evaluation","45","30","9B","40","79","20","","","","","","","","","","","","","","","","","","",""
"","","","","","html-keyboard-response","110","3417243","0.0-17.0-2.30","2a7304d9-c216-4321-aa66-c518fc27cf7a","null","<p style=""text-align: center;"">+</p>","null","fixation","","","","","","","","","","","","","","","","","","","","","","","","",""
"","","","","","html-keyboard-response","111","3418251","0.0-18.0","2a7304d9-c216-4321-aa66-c518fc27cf7a","null","<p style=""text-align: center;"">+</p>","null","fixation","","","","","","","","","","","","","","","","","","","","","","","","",""
"","","","","","html-keyboard-response","112","3419889","0.0-19.0","2a7304d9-c216-4321-aa66-c518fc27cf7a","null","<p>הפסקה.
          <br>לחצו כדי להמשיך.</p>","1","scan_wait","","","","","","","","","","","","","","","","","","","","","","","","",""
"","","","","","html-keyboard-response","113","3420892","0.0-20.0","2a7304d9-c216-4321-aa66-c518fc27cf7a","null","<p style=""text-align: center;"">+</p>","null","fixation","","","","","","","","","","","","","","","","","","","","","","","","",""
"","","","","","html-slider-response","114","3421905","0.0-21.0-0.0","2a7304d9-c216-4321-aa66-c518fc27cf7a","1000","
                  <p style=""text-align: center;"">₪71
                                                <br>45%</p>
                  <p id=""wtp"" style=""text-align:center; margin-top: 0px; margin-bottom: 0px; font-size: 40px"";>&ensp;</p>","-","viewing","0","26","2B,16A","","","","","","","","","","","","","","","","","","","","","",""
"","","","","","html-slider-response","115","3424129","0.0-21.0-1.0","2a7304d9-c216-4321-aa66-c518fc27cf7a","2224","
                  <p style=""text-align: center;"">₪71
                                                <br>45%</p>
                  <p id=""wtp"" style=""text-align:center; margin-top: 0px; margin-bottom: 0px; font-size: 40px"";>מוכנים לשלם: <span id=""c_p_y""></span></p>","25","evaluation","19","26","2B,16A","45","71","25","","","","","","","","","","","","","","","","","","",""
"","","","","","html-keyboard-response","116","3425149","0.0-21.0-2.0","2a7304d9-c216-4321-aa66-c518fc27cf7a","null","<p style=""text-align: center;"">+</p>","null","fixation","","","","","","","","","","","","","","","","","","","","","","","","",""
"","","","","","html-slider-response","117","3426161","0.0-21.0-0.1","2a7304d9-c216-4321-aa66-c518fc27cf7a","1000","
                  <p style=""text-align: center;"">₪79
                                                <br>40%</p>
                  <p id=""wtp"" style=""text-align:center; margin-top: 0px; margin-bottom: 0px; font-size: 40px"";>&ensp;</p>","-","viewing","0","30","9B","","","","","","","","","","","","","","","","","","","","","",""
"","","","","","html-slider-response","118","3428521","0.0-21.0-1.1","2a7304d9-c216-4321-aa66-c518fc27cf7a","2359","
                  <p style=""text-align: center;"">₪79
                                                <br>40%</p>
                  <p id=""wtp"" style=""text-align:center; margin-top: 0px; margin-bottom: 0px; font-size: 40px"";>מוכנים לשלם: <span id=""c_p_y""></span></p>","25","evaluation","55","30","9B","40","79","25","","","","","","","","","","","","","","","","","","",""
"","","","","","html-keyboard-response","119","3429248","0.0-21.0-2.1","2a7304d9-c216-4321-aa66-c518fc27cf7a","null","<p style=""text-align: center;"">+</p>","null","fixation","","","","","","","","","","","","","","","","","","","","","","","","",""
"","","","","","html-slider-response","120","3430252","0.0-21.0-0.2","2a7304d9-c216-4321-aa66-c518fc27cf7a","1000","
                  <p style=""text-align: center;"">₪4
                                                <br>50%</p>
                  <p id=""wtp"" style=""text-align:center; margin-top: 0px; margin-bottom: 0px; font-size: 40px"";>&ensp;</p>","-","viewing","0","2","4C,17B","","","","","","","","","","","","","","","","","","","","","",""
"","","","","","html-slider-response","121","3432545","0.0-21.0-1.2","2a7304d9-c216-4321-aa66-c518fc27cf7a","2292","
                  <p style=""text-align: center;"">₪4
                                                <br>50%</p>
                  <p id=""wtp"" style=""text-align:center; margin-top: 0px; margin-bottom: 0px; font-size: 40px"";>מוכנים לשלם: <span id=""c_p_y""></span></p>","3","evaluation","74","2","4C,17B","50","4","4","","","","","","","","","","","","","","","","","","",""
"","","","","","html-keyboard-response","122","3433150","0.0-21.0-2.2","2a7304d9-c216-4321-aa66-c518fc27cf7a","null","<p style=""text-align: center;"">+</p>","null","fixation","","","","","","","","","","","","","","","","","","","","","","","","",""
"","","","","","html-slider-response","123","3434158","0.0-21.0-0.3","2a7304d9-c216-4321-aa66-c518fc27cf7a","1000","
                  <p style=""text-align: center;"">₪11
                                                <br>25%</p>
                  <p id=""wtp"" style=""text-align:center; margin-top: 0px; margin-bottom: 0px; font-size: 40px"";>&ensp;</p>","-","viewing","0","5","12A,27B,28B,30B","","","","","","","","","","","","","","","","","","","","","",""
"","","","","","html-slider-response","124","3436577","0.0-21.0-1.3","2a7304d9-c216-4321-aa66-c518fc27cf7a","2418","
                  <p style=""text-align: center;"">₪11
                                                <br>25%</p>
                  <p id=""wtp"" style=""text-align:center; margin-top: 0px; margin-bottom: 0px; font-size: 40px"";>מוכנים לשלם: <span id=""c_p_y""></span></p>","6","evaluation","15","5","12A,27B,28B,30B","25","11","7","","","","","","","","","","","","","","","","","","",""
"","","","","","html-keyboard-response","125","3437622","0.0-21.0-2.3","2a7304d9-c216-4321-aa66-c518fc27cf7a","null","<p style=""text-align: center;"">+</p>","null","fixation","","","","","","","","","","","","","","","","","","","","","","","","",""
"","","","","","html-slider-response","126","3438637","0.0-21.0-0.4","2a7304d9-c216-4321-aa66-c518fc27cf7a","1000","
                  <p style=""text-align: center;"">₪36
                                                <br>30%</p>
                  <p id=""wtp"" style=""text-align:center; margin-top: 0px; margin-bottom: 0px; font-size: 40px"";>&ensp;</p>","-","viewing","0","11","3C,20A,22A","","","","","","","","","","","","","","","","","","","","","",""
"","","","","","html-slider-response","127","3441089","0.0-21.0-1.4","2a7304d9-c216-4321-aa66-c518fc27cf7a","2451","
                  <p style=""text-align: center;"">₪36
                                                <br>30%</p>
                  <p id=""wtp"" style=""text-align:center; margin-top: 0px; margin-bottom: 0px; font-size: 40px"";>מוכנים לשלם: <span id=""c_p_y""></span></p>","10","evaluation","54","11","3C,20A,22A","30","36","10","","","","","","","","","","","","","","","","","","",""
"","","","","","html-keyboard-response","128","3442408","0.0-21.0-2.4","2a7304d9-c216-4321-aa66-c518fc27cf7a","null","<p style=""text-align: center;"">+</p>","null","fixation","","","","","","","","","","","","","","","","","","","","","","","","",""
"","","","","","html-slider-response","129","3443412","0.0-21.0-0.5","2a7304d9-c216-4321-aa66-c518fc27cf7a","1000","
                  <p style=""text-align: center;"">₪76
                                                <br>65%</p>
                  <p id=""wtp"" style=""text-align:center; margin-top: 0px; margin-bottom: 0px; font-size: 40px"";>&ensp;</p>","-","viewing","0","29","8C,19A,24B","","","","","","","","","","","","","","","","","","","","","",""
"","","","","","html-slider-response","130","3446625","0.0-21.0-1.5","2a7304d9-c216-4321-aa66-c518fc27cf7a","3212","
                  <p style=""text-align: center;"">₪76
                                                <br>65%</p>
                  <p id=""wtp"" style=""text-align:center; margin-top: 0px; margin-bottom: 0px; font-size: 40px"";>מוכנים לשלם: <span id=""c_p_y""></span></p>","49","evaluation","11","29","8C,19A,24B","65","76","48","","","","","","","","","","","","","","","","","","",""
"","","","","","html-keyboard-response","131","3447803","0.0-21.0-2.5","2a7304d9-c216-4321-aa66-c518fc27cf7a","null","<p style=""text-align: center;"">+</p>","null","fixation","","","","","","","","","","","","","","","","","","","","","","","","",""
"","","","","","html-slider-response","132","3448814","0.0-21.0-0.6","2a7304d9-c216-4321-aa66-c518fc27cf7a","1000","
                  <p style=""text-align: center;"">₪39
                                                <br>60%</p>
                  <p id=""wtp"" style=""text-align:center; margin-top: 0px; margin-bottom: 0px; font-size: 40px"";>&ensp;</p>","-","viewing","0","15","9C,25B","","","","","","","","","","","","","","","","","","","","","",""
"","","","","","html-slider-response","133","3450481","0.0-21.0-1.6","2a7304d9-c216-4321-aa66-c518fc27cf7a","1666","
                  <p style=""text-align: center;"">₪39
                                                <br>60%</p>
                  <p id=""wtp"" style=""text-align:center; margin-top: 0px; margin-bottom: 0px; font-size: 40px"";>מוכנים לשלם: <span id=""c_p_y""></span></p>","25","evaluation","77","15","9C,25B","60","39","25","","","","","","","","","","","","","","","","","","",""
"","","","","","html-keyboard-response","134","3451917","0.0-21.0-2.6","2a7304d9-c216-4321-aa66-c518fc27cf7a","null","<p style=""text-align: center;"">+</p>","null","fixation","","","","","","","","","","","","","","","","","","","","","","","","",""
"","","","","","html-slider-response","135","3452923","0.0-21.0-0.7","2a7304d9-c216-4321-aa66-c518fc27cf7a","1000","
                  <p style=""text-align: center;"">₪61
                                                <br>55%</p>
                  <p id=""wtp"" style=""text-align:center; margin-top: 0px; margin-bottom: 0px; font-size: 40px"";>&ensp;</p>","-","viewing","0","23","7B,26B","","","","","","","","","","","","","","","","","","","","","",""
"","","","","","html-slider-response","136","3456697","0.0-21.0-1.7","2a7304d9-c216-4321-aa66-c518fc27cf7a","3773","
                  <p style=""text-align: center;"">₪61
                                                <br>55%</p>
                  <p id=""wtp"" style=""text-align:center; margin-top: 0px; margin-bottom: 0px; font-size: 40px"";>מוכנים לשלם: <span id=""c_p_y""></span></p>","31","evaluation","56","23","7B,26B","55","61","31","","","","","","","","","","","","","","","","","","",""
"","","","","","html-keyboard-response","137","3457212","0.0-21.0-2.7","2a7304d9-c216-4321-aa66-c518fc27cf7a","null","<p style=""text-align: center;"">+</p>","null","fixation","","","","","","","","","","","","","","","","","","","","","","","","",""
"","","","","","html-slider-response","138","3458229","0.0-21.0-0.8","2a7304d9-c216-4321-aa66-c518fc27cf7a","1000","
                  <p style=""text-align: center;"">₪58
                                                <br>30%</p>
                  <p id=""wtp"" style=""text-align:center; margin-top: 0px; margin-bottom: 0px; font-size: 40px"";>&ensp;</p>","-","viewing","0","19","13C,30A","","","","","","","","","","","","","","","","","","","","","",""
"","","","","","html-slider-response","139","3461401","0.0-21.0-1.8","2a7304d9-c216-4321-aa66-c518fc27cf7a","3171","
                  <p style=""text-align: center;"">₪58
                                                <br>30%</p>
                  <p id=""wtp"" style=""text-align:center; margin-top: 0px; margin-bottom: 0px; font-size: 40px"";>מוכנים לשלם: <span id=""c_p_y""></span></p>","11","evaluation","75","19","13C,30A","30","58","11","","","","","","","","","","","","","","","","","","",""
"","","","","","html-keyboard-response","140","3462119","0.0-21.0-2.8","2a7304d9-c216-4321-aa66-c518fc27cf7a","null","<p style=""text-align: center;"">+</p>","null","fixation","","","","","","","","","","","","","","","","","","","","","","","","",""
"","","","","","html-slider-response","141","3463128","0.0-21.0-0.9","2a7304d9-c216-4321-aa66-c518fc27cf7a","1000","
                  <p style=""text-align: center;"">₪58
                                                <br>45%</p>
                  <p id=""wtp"" style=""text-align:center; margin-top: 0px; margin-bottom: 0px; font-size: 40px"";>&ensp;</p>","-","viewing","0","21","11C,18C,25A","","","","","","","","","","","","","","","","","","","","","",""
"","","","","","html-slider-response","142","3466641","0.0-21.0-1.9","2a7304d9-c216-4321-aa66-c518fc27cf7a","3512","
                  <p style=""text-align: center;"">₪58
                                                <br>45%</p>
                  <p id=""wtp"" style=""text-align:center; margin-top: 0px; margin-bottom: 0px; font-size: 40px"";>מוכנים לשלם: <span id=""c_p_y""></span></p>","15","evaluation","39","21","11C,18C,25A","45","58","16","","","","","","","","","","","","","","","","","","",""
"","","","","","html-keyboard-response","143","3468069","0.0-21.0-2.9","2a7304d9-c216-4321-aa66-c518fc27cf7a","null","<p style=""text-align: center;"">+</p>","null","fixation","","","","","","","","","","","","","","","","","","","","","","","","",""
"","","","","","html-slider-response","144","3469074","0.0-21.0-0.10","2a7304d9-c216-4321-aa66-c518fc27cf7a","1000","
                  <p style=""text-align: center;"">₪4
                                                <br>75%</p>
                  <p id=""wtp"" style=""text-align:center; margin-top: 0px; margin-bottom: 0px; font-size: 40px"";>&ensp;</p>","-","viewing","0","3","12B,20B,23B,27C,29C","","","","","","","","","","","","","","","","","","","","","",""
"","","","","","html-slider-response","145","3472001","0.0-21.0-1.10","2a7304d9-c216-4321-aa66-c518fc27cf7a","2926","
                  <p style=""text-align: center;"">₪4
                                                <br>75%</p>
                  <p id=""wtp"" style=""text-align:center; margin-top: 0px; margin-bottom: 0px; font-size: 40px"";>מוכנים לשלם: <span id=""c_p_y""></span></p>","4","evaluation","10","3","12B,20B,23B,27C,29C","75","4","4","","","","","","","","","","","","","","","","","","",""
"","","","","","html-keyboard-response","146","3472651","0.0-21.0-2.10","2a7304d9-c216-4321-aa66-c518fc27cf7a","null","<p style=""text-align: center;"">+</p>","null","fixation","","","","","","","","","","","","","","","","","","","","","","","","",""
"","","","","","html-slider-response","147","3473653","0.0-21.0-0.11","2a7304d9-c216-4321-aa66-c518fc27cf7a","1000","
                  <p style=""text-align: center;"">₪64
                                                <br>25%</p>
                  <p id=""wtp"" style=""text-align:center; margin-top: 0px; margin-bottom: 0px; font-size: 40px"";>&ensp;</p>","-","viewing","0","24","6A,21A","","","","","","","","","","","","","","","","","","","","","",""
"","","","","","html-slider-response","148","3475633","0.0-21.0-1.11","2a7304d9-c216-4321-aa66-c518fc27cf7a","1979","
                  <p style=""text-align: center;"">₪64
                                                <br>25%</p>
                  <p id=""wtp"" style=""text-align:center; margin-top: 0px; margin-bottom: 0px; font-size: 40px"";>מוכנים לשלם: <span id=""c_p_y""></span></p>","10","evaluation","58","24","6A,21A","25","64","10","","","","","","","","","","","","","","","","","","",""
"","","","","","html-keyboard-response","149","3476894","0.0-21.0-2.11","2a7304d9-c216-4321-aa66-c518fc27cf7a","null","<p style=""text-align: center;"">+</p>","null","fixation","","","","","","","","","","","","","","","","","","","","","","","","",""
"","","","","","html-slider-response","150","3477903","0.0-21.0-0.12","2a7304d9-c216-4321-aa66-c518fc27cf7a","1000","
                  <p style=""text-align: center;"">₪39
                                                <br>65%</p>
                  <p id=""wtp"" style=""text-align:center; margin-top: 0px; margin-bottom: 0px; font-size: 40px"";>&ensp;</p>","-","viewing","0","16","1A,15A,26C","","","","","","","","","","","","","","","","","","","","","",""
"","","","","","html-slider-response","151","3480489","0.0-21.0-1.12","2a7304d9-c216-4321-aa66-c518fc27cf7a","2585","
                  <p style=""text-align: center;"">₪39
                                                <br>65%</p>
                  <p id=""wtp"" style=""text-align:center; margin-top: 0px; margin-bottom: 0px; font-size: 40px"";>מוכנים לשלם: <span id=""c_p_y""></span></p>","35","evaluation","49","16","1A,15A,26C","65","39","35","","","","","","","","","","","","","","","","","","",""
"","","","","","html-keyboard-response","152","3481366","0.0-21.0-2.12","2a7304d9-c216-4321-aa66-c518fc27cf7a","null","<p style=""text-align: center;"">+</p>","null","fixation","","","","","","","","","","","","","","","","","","","","","","","","",""
"","","","","","html-slider-response","153","3482370","0.0-21.0-0.13","2a7304d9-c216-4321-aa66-c518fc27cf7a","1000","
                  <p style=""text-align: center;"">₪43
                                                <br>75%</p>
                  <p id=""wtp"" style=""text-align:center; margin-top: 0px; margin-bottom: 0px; font-size: 40px"";>&ensp;</p>","-","viewing","0","18","11B,19B,24A,26A","","","","","","","","","","","","","","","","","","","","","",""
"","","","","","html-slider-response","154","3484153","0.0-21.0-1.13","2a7304d9-c216-4321-aa66-c518fc27cf7a","1781","
                  <p style=""text-align: center;"">₪43
                                                <br>75%</p>
                  <p id=""wtp"" style=""text-align:center; margin-top: 0px; margin-bottom: 0px; font-size: 40px"";>מוכנים לשלם: <span id=""c_p_y""></span></p>","50","evaluation","52","18","11B,19B,24A,26A","75","43","49","","","","","","","","","","","","","","","","","","",""
"","","","","","html-keyboard-response","155","3484921","0.0-21.0-2.13","2a7304d9-c216-4321-aa66-c518fc27cf7a","null","<p style=""text-align: center;"">+</p>","null","fixation","","","","","","","","","","","","","","","","","","","","","","","","",""
"","","","","","html-slider-response","156","3485928","0.0-21.0-0.14","2a7304d9-c216-4321-aa66-c518fc27cf7a","1000","
                  <p style=""text-align: center;"">₪43
                                                <br>60%</p>
                  <p id=""wtp"" style=""text-align:center; margin-top: 0px; margin-bottom: 0px; font-size: 40px"";>&ensp;</p>","-","viewing","0","17","2A,7A,9A,15B","","","","","","","","","","","","","","","","","","","","","",""
"","","","","","html-slider-response","157","3487713","0.0-21.0-1.14","2a7304d9-c216-4321-aa66-c518fc27cf7a","1783","
                  <p style=""text-align: center;"">₪43
                                                <br>60%</p>
                  <p id=""wtp"" style=""text-align:center; margin-top: 0px; margin-bottom: 0px; font-size: 40px"";>מוכנים לשלם: <span id=""c_p_y""></span></p>","30","evaluation","38","17","2A,7A,9A,15B","60","43","30","","","","","","","","","","","","","","","","","","",""
"","","","","","html-keyboard-response","158","3488975","0.0-21.0-2.14","2a7304d9-c216-4321-aa66-c518fc27cf7a","null","<p style=""text-align: center;"">+</p>","null","fixation","","","","","","","","","","","","","","","","","","","","","","","","",""
"","","","","","html-slider-response","159","3489993","0.0-21.0-0.15","2a7304d9-c216-4321-aa66-c518fc27cf7a","1000","
                  <p style=""text-align: center;"">₪11
                                                <br>75%</p>
                  <p id=""wtp"" style=""text-align:center; margin-top: 0px; margin-bottom: 0px; font-size: 40px"";>&ensp;</p>","-","viewing","0","7","6B,18B,22C,24C,29A","","","","","","","","","","","","","","","","","","","","","",""
"","","","","","html-slider-response","160","3491664","0.0-21.0-1.15","2a7304d9-c216-4321-aa66-c518fc27cf7a","1671","
                  <p style=""text-align: center;"">₪11
                                                <br>75%</p>
                  <p id=""wtp"" style=""text-align:center; margin-top: 0px; margin-bottom: 0px; font-size: 40px"";>מוכנים לשלם: <span id=""c_p_y""></span></p>","11","evaluation","44","7","6B,18B,22C,24C,29A","75","11","11","","","","","","","","","","","","","","","","","","",""
"","","","","","html-keyboard-response","161","3492851","0.0-21.0-2.15","2a7304d9-c216-4321-aa66-c518fc27cf7a","null","<p style=""text-align: center;"">+</p>","null","fixation","","","","","","","","","","","","","","","","","","","","","","","","",""
"","","","","","html-slider-response","162","3493858","0.0-21.0-0.16","2a7304d9-c216-4321-aa66-c518fc27cf7a","1000","
                  <p style=""text-align: center;"">₪11
                                                <br>45%</p>
                  <p id=""wtp"" style=""text-align:center; margin-top: 0px; margin-bottom: 0px; font-size: 40px"";>&ensp;</p>","-","viewing","0","6","14B,21C,25C","","","","","","","","","","","","","","","","","","","","","",""
"","","","","","html-slider-response","163","3496192","0.0-21.0-1.16","2a7304d9-c216-4321-aa66-c518fc27cf7a","2333","
                  <p style=""text-align: center;"">₪11
                                                <br>45%</p>
                  <p id=""wtp"" style=""text-align:center; margin-top: 0px; margin-bottom: 0px; font-size: 40px"";>מוכנים לשלם: <span id=""c_p_y""></span></p>","8","evaluation","3","6","14B,21C,25C","45","11","8","","","","","","","","","","","","","","","","","","",""
"","","","","","html-keyboard-response","164","3497048","0.0-21.0-2.16","2a7304d9-c216-4321-aa66-c518fc27cf7a","null","<p style=""text-align: center;"">+</p>","null","fixation","","","","","","","","","","","","","","","","","","","","","","","","",""
"","","","","","html-slider-response","165","3498053","0.0-21.0-0.17","2a7304d9-c216-4321-aa66-c518fc27cf7a","1000","
                  <p style=""text-align: center;"">₪18
                                                <br>25%</p>
                  <p id=""wtp"" style=""text-align:center; margin-top: 0px; margin-bottom: 0px; font-size: 40px"";>&ensp;</p>","-","viewing","0","9","14A,23A","","","","","","","","","","","","","","","","","","","","","",""
"","","","","","html-slider-response","166","3500225","0.0-21.0-1.17","2a7304d9-c216-4321-aa66-c518fc27cf7a","2171","
                  <p style=""text-align: center;"">₪18
                                                <br>25%</p>
                  <p id=""wtp"" style=""text-align:center; margin-top: 0px; margin-bottom: 0px; font-size: 40px"";>מוכנים לשלם: <span id=""c_p_y""></span></p>","5","evaluation","10","9","14A,23A","25","18","5","","","","","","","","","","","","","","","","","","",""
"","","","","","html-keyboard-response","167","3501144","0.0-21.0-2.17","2a7304d9-c216-4321-aa66-c518fc27cf7a","null","<p style=""text-align: center;"">+</p>","null","fixation","","","","","","","","","","","","","","","","","","","","","","","","",""
"","","","","","html-slider-response","168","3502155","0.0-21.0-0.18","2a7304d9-c216-4321-aa66-c518fc27cf7a","1000","
                  <p style=""text-align: center;"">₪16
                                                <br>20%</p>
                  <p id=""wtp"" style=""text-align:center; margin-top: 0px; margin-bottom: 0px; font-size: 40px"";>&ensp;</p>","-","viewing","0","8","14C,17A,20C,27A","","","","","","","","","","","","","","","","","","","","","",""
"","","","","","html-slider-response","169","3504424","0.0-21.0-1.18","2a7304d9-c216-4321-aa66-c518fc27cf7a","2269","
                  <p style=""text-align: center;"">₪16
                                                <br>20%</p>
                  <p id=""wtp"" style=""text-align:center; margin-top: 0px; margin-bottom: 0px; font-size: 40px"";>מוכנים לשלם: <span id=""c_p_y""></span></p>","6","evaluation","48","8","14C,17A,20C,27A","20","16","6","","","","","","","","","","","","","","","","","","",""
"","","","","","html-keyboard-response","170","3505442","0.0-21.0-2.18","2a7304d9-c216-4321-aa66-c518fc27cf7a","null","<p style=""text-align: center;"">+</p>","null","fixation","","","","","","","","","","","","","","","","","","","","","","","","",""
"","","","","","html-slider-response","171","3506443","0.0-21.0-0.19","2a7304d9-c216-4321-aa66-c518fc27cf7a","1000","
                  <p style=""text-align: center;"">₪58
                                                <br>40%</p>
                  <p id=""wtp"" style=""text-align:center; margin-top: 0px; margin-bottom: 0px; font-size: 40px"";>&ensp;</p>","-","viewing","0","20","10C,13A,19C,21B","","","","","","","","","","","","","","","","","","","","","",""
"","","","","","html-slider-response","172","3508489","0.0-21.0-1.19","2a7304d9-c216-4321-aa66-c518fc27cf7a","2044","
                  <p style=""text-align: center;"">₪58
                                                <br>40%</p>
                  <p id=""wtp"" style=""text-align:center; margin-top: 0px; margin-bottom: 0px; font-size: 40px"";>מוכנים לשלם: <span id=""c_p_y""></span></p>","23","evaluation","8","20","10C,13A,19C,21B","40","58","23","","","","","","","","","","","","","","","","","","",""
"","","","","","html-keyboard-response","173","3509880","0.0-21.0-2.19","2a7304d9-c216-4321-aa66-c518fc27cf7a","null","<p style=""text-align: center;"">+</p>","null","fixation","","","","","","","","","","","","","","","","","","","","","","","","",""
"","","","","","html-slider-response","174","3510890","0.0-21.0-0.20","2a7304d9-c216-4321-aa66-c518fc27cf7a","1000","
                  <p style=""text-align: center;"">₪64
                                                <br>50%</p>
                  <p id=""wtp"" style=""text-align:center; margin-top: 0px; margin-bottom: 0px; font-size: 40px"";>&ensp;</p>","-","viewing","0","25","1B,3B,4A","","","","","","","","","","","","","","","","","","","","","",""
"","","","","","html-slider-response","175","3512633","0.0-21.0-1.20","2a7304d9-c216-4321-aa66-c518fc27cf7a","1742","
                  <p style=""text-align: center;"">₪64
                                                <br>50%</p>
                  <p id=""wtp"" style=""text-align:center; margin-top: 0px; margin-bottom: 0px; font-size: 40px"";>מוכנים לשלם: <span id=""c_p_y""></span></p>","33","evaluation","24","25","1B,3B,4A","50","64","33","","","","","","","","","","","","","","","","","","",""
"","","","","","html-keyboard-response","176","3513782","0.0-21.0-2.20","2a7304d9-c216-4321-aa66-c518fc27cf7a","null","<p style=""text-align: center;"">+</p>","null","fixation","","","","","","","","","","","","","","","","","","","","","","","","",""
"","","","","","html-slider-response","177","3514786","0.0-21.0-0.21","2a7304d9-c216-4321-aa66-c518fc27cf7a","1000","
                  <p style=""text-align: center;"">₪36
                                                <br>75%</p>
                  <p id=""wtp"" style=""text-align:center; margin-top: 0px; margin-bottom: 0px; font-size: 40px"";>&ensp;</p>","-","viewing","0","14","4B,5A,13B,16B","","","","","","","","","","","","","","","","","","","","","",""
"","","","","","html-slider-response","178","3518057","0.0-21.0-1.21","2a7304d9-c216-4321-aa66-c518fc27cf7a","3268","
                  <p style=""text-align: center;"">₪36
                                                <br>75%</p>
                  <p id=""wtp"" style=""text-align:center; margin-top: 0px; margin-bottom: 0px; font-size: 40px"";>מוכנים לשלם: <span id=""c_p_y""></span></p>","32","evaluation","39","14","4B,5A,13B,16B","75","36","32","","","","","","","","","","","","","","","","","","",""
"","","","","","html-keyboard-response","179","3519119","0.0-21.0-2.21","2a7304d9-c216-4321-aa66-c518fc27cf7a","null","<p style=""text-align: center;"">+</p>","null","fixation","","","","","","","","","","","","","","","","","","","","","","","","",""
"","","","","","html-slider-response","180","3520132","0.0-21.0-0.22","2a7304d9-c216-4321-aa66-c518fc27cf7a","1000","
                  <p style=""text-align: center;"">₪4
                                                <br>25%</p>
                  <p id=""wtp"" style=""text-align:center; margin-top: 0px; margin-bottom: 0px; font-size: 40px"";>&ensp;</p>","-","viewing","0","1","6C,29B,30C","","","","","","","","","","","","","","","","","","","","","",""
"","","","","","html-slider-response","181","3521562","0.0-21.0-1.22","2a7304d9-c216-4321-aa66-c518fc27cf7a","1428","
                  <p style=""text-align: center;"">₪4
                                                <br>25%</p>
                  <p id=""wtp"" style=""text-align:center; margin-top: 0px; margin-bottom: 0px; font-size: 40px"";>מוכנים לשלם: <span id=""c_p_y""></span></p>","0","evaluation","40","1","6C,29B,30C","25","4","0","","","","","","","","","","","","","","","","","","",""
"","","","","","html-keyboard-response","182","3522759","0.0-21.0-2.22","2a7304d9-c216-4321-aa66-c518fc27cf7a","null","<p style=""text-align: center;"">+</p>","null","fixation","","","","","","","","","","","","","","","","","","","","","","","","",""
"","","","","","html-slider-response","183","3523768","0.0-21.0-0.23","2a7304d9-c216-4321-aa66-c518fc27cf7a","1000","
                  <p style=""text-align: center;"">₪36
                                                <br>60%</p>
                  <p id=""wtp"" style=""text-align:center; margin-top: 0px; margin-bottom: 0px; font-size: 40px"";>&ensp;</p>","-","viewing","0","12","1C,7C,15C","","","","","","","","","","","","","","","","","","","","","",""
"","","","","","html-slider-response","184","3526785","0.0-21.0-1.23","2a7304d9-c216-4321-aa66-c518fc27cf7a","3016","
                  <p style=""text-align: center;"">₪36
                                                <br>60%</p>
                  <p id=""wtp"" style=""text-align:center; margin-top: 0px; margin-bottom: 0px; font-size: 40px"";>מוכנים לשלם: <span id=""c_p_y""></span></p>","27","evaluation","24","12","1C,7C,15C","60","36","27","","","","","","","","","","","","","","","","","","",""
"","","","","","html-keyboard-response","185","3527657","0.0-21.0-2.23","2a7304d9-c216-4321-aa66-c518fc27cf7a","null","<p style=""text-align: center;"">+</p>","null","fixation","","","","","","","","","","","","","","","","","","","","","","","","",""
"","","","","","html-slider-response","186","3528665","0.0-21.0-0.24","2a7304d9-c216-4321-aa66-c518fc27cf7a","1000","
                  <p style=""text-align: center;"">₪71
                                                <br>55%</p>
                  <p id=""wtp"" style=""text-align:center; margin-top: 0px; margin-bottom: 0px; font-size: 40px"";>&ensp;</p>","-","viewing","0","27","5B,18A","","","","","","","","","","","","","","","","","","","","","",""
"","","","","","html-slider-response","187","3531233","0.0-21.0-1.24","2a7304d9-c216-4321-aa66-c518fc27cf7a","2567","
                  <p style=""text-align: center;"">₪71
                                                <br>55%</p>
                  <p id=""wtp"" style=""text-align:center; margin-top: 0px; margin-bottom: 0px; font-size: 40px"";>מוכנים לשלם: <span id=""c_p_y""></span></p>","41","evaluation","70","27","5B,18A","55","71","41","","","","","","","","","","","","","","","","","","",""
"","","","","","html-keyboard-response","188","3532346","0.0-21.0-2.24","2a7304d9-c216-4321-aa66-c518fc27cf7a","null","<p style=""text-align: center;"">+</p>","null","fixation","","","","","","","","","","","","","","","","","","","","","","","","",""
"","","","","","html-slider-response","189","3533354","0.0-21.0-0.25","2a7304d9-c216-4321-aa66-c518fc27cf7a","1000","
                  <p style=""text-align: center;"">₪71
                                                <br>75%</p>
                  <p id=""wtp"" style=""text-align:center; margin-top: 0px; margin-bottom: 0px; font-size: 40px"";>&ensp;</p>","-","viewing","0","28","8B","","","","","","","","","","","","","","","","","","","","","",""
"","","","","","html-slider-response","190","3536025","0.0-21.0-1.25","2a7304d9-c216-4321-aa66-c518fc27cf7a","2670","
                  <p style=""text-align: center;"">₪71
                                                <br>75%</p>
                  <p id=""wtp"" style=""text-align:center; margin-top: 0px; margin-bottom: 0px; font-size: 40px"";>מוכנים לשלם: <span id=""c_p_y""></span></p>","60","evaluation","72","28","8B","75","71","60","","","","","","","","","","","","","","","","","","",""
"","","","","","html-keyboard-response","191","3537273","0.0-21.0-2.25","2a7304d9-c216-4321-aa66-c518fc27cf7a","null","<p style=""text-align: center;"">+</p>","null","fixation","","","","","","","","","","","","","","","","","","","","","","","","",""
"","","","","","html-slider-response","192","3538280","0.0-21.0-0.26","2a7304d9-c216-4321-aa66-c518fc27cf7a","1000","
                  <p style=""text-align: center;"">₪36
                                                <br>70%</p>
                  <p id=""wtp"" style=""text-align:center; margin-top: 0px; margin-bottom: 0px; font-size: 40px"";>&ensp;</p>","-","viewing","0","13","3A,5C,10B","","","","","","","","","","","","","","","","","","","","","",""
"","","","","","html-slider-response","193","3540904","0.0-21.0-1.26","2a7304d9-c216-4321-aa66-c518fc27cf7a","2623","
                  <p style=""text-align: center;"">₪36
                                                <br>70%</p>
                  <p id=""wtp"" style=""text-align:center; margin-top: 0px; margin-bottom: 0px; font-size: 40px"";>מוכנים לשלם: <span id=""c_p_y""></span></p>","20","evaluation","21","13","3A,5C,10B","70","36","20","","","","","","","","","","","","","","","","","","",""
"","","","","","html-keyboard-response","194","3542192","0.0-21.0-2.26","2a7304d9-c216-4321-aa66-c518fc27cf7a","null","<p style=""text-align: center;"">+</p>","null","fixation","","","","","","","","","","","","","","","","","","","","","","","","",""
"","","","","","html-slider-response","195","3543197","0.0-21.0-0.27","2a7304d9-c216-4321-aa66-c518fc27cf7a","1000","
                  <p style=""text-align: center;"">₪79
                                                <br>65%</p>
                  <p id=""wtp"" style=""text-align:center; margin-top: 0px; margin-bottom: 0px; font-size: 40px"";>&ensp;</p>","-","viewing","0","31","8A","","","","","","","","","","","","","","","","","","","","","",""
"","","","","","html-slider-response","196","3546600","0.0-21.0-1.27","2a7304d9-c216-4321-aa66-c518fc27cf7a","3402","
                  <p style=""text-align: center;"">₪79
                                                <br>65%</p>
                  <p id=""wtp"" style=""text-align:center; margin-top: 0px; margin-bottom: 0px; font-size: 40px"";>מוכנים לשלם: <span id=""c_p_y""></span></p>","46","evaluation","7","31","8A","65","79","45","","","","","","","","","","","","","","","","","","",""
"","","","","","html-keyboard-response","197","3547304","0.0-21.0-2.27","2a7304d9-c216-4321-aa66-c518fc27cf7a","null","<p style=""text-align: center;"">+</p>","null","fixation","","","","","","","","","","","","","","","","","","","","","","","","",""
"","","","","","html-slider-response","198","3548318","0.0-21.0-0.28","2a7304d9-c216-4321-aa66-c518fc27cf7a","1000","
                  <p style=""text-align: center;"">₪18
                                                <br>50%</p>
                  <p id=""wtp"" style=""text-align:center; margin-top: 0px; margin-bottom: 0px; font-size: 40px"";>&ensp;</p>","-","viewing","0","10","2C,16C,22B,28A","","","","","","","","","","","","","","","","","","","","","",""
"","","","","","html-slider-response","199","3551200","0.0-21.0-1.28","2a7304d9-c216-4321-aa66-c518fc27cf7a","2881","
                  <p style=""text-align: center;"">₪18
                                                <br>50%</p>
                  <p id=""wtp"" style=""text-align:center; margin-top: 0px; margin-bottom: 0px; font-size: 40px"";>מוכנים לשלם: <span id=""c_p_y""></span></p>","18","evaluation","23","10","2C,16C,22B,28A","50","18","18","","","","","","","","","","","","","","","","","","",""
"","","","","","html-keyboard-response","200","3551771","0.0-21.0-2.28","2a7304d9-c216-4321-aa66-c518fc27cf7a","null","<p style=""text-align: center;"">+</p>","null","fixation","","","","","","","","","","","","","","","","","","","","","","","","",""
"","","","","","html-slider-response","201","3552780","0.0-21.0-0.29","2a7304d9-c216-4321-aa66-c518fc27cf7a","1000","
                  <p style=""text-align: center;"">₪11
                                                <br>20%</p>
                  <p id=""wtp"" style=""text-align:center; margin-top: 0px; margin-bottom: 0px; font-size: 40px"";>&ensp;</p>","-","viewing","0","4","12C,17C,23C,28C","","","","","","","","","","","","","","","","","","","","","",""
"","","","","","html-slider-response","202","3554945","0.0-21.0-1.29","2a7304d9-c216-4321-aa66-c518fc27cf7a","2163","
                  <p style=""text-align: center;"">₪11
                                                <br>20%</p>
                  <p id=""wtp"" style=""text-align:center; margin-top: 0px; margin-bottom: 0px; font-size: 40px"";>מוכנים לשלם: <span id=""c_p_y""></span></p>","5","evaluation","80","4","12C,17C,23C,28C","20","11","5","","","","","","","","","","","","","","","","","","",""
"","","","","","html-keyboard-response","203","3555479","0.0-21.0-2.29","2a7304d9-c216-4321-aa66-c518fc27cf7a","null","<p style=""text-align: center;"">+</p>","null","fixation","","","","","","","","","","","","","","","","","","","","","","","","",""
"","","","","","html-slider-response","204","3556485","0.0-21.0-0.30","2a7304d9-c216-4321-aa66-c518fc27cf7a","1000","
                  <p style=""text-align: center;"">₪61
                                                <br>45%</p>
                  <p id=""wtp"" style=""text-align:center; margin-top: 0px; margin-bottom: 0px; font-size: 40px"";>&ensp;</p>","-","viewing","0","22","10A,11A","","","","","","","","","","","","","","","","","","","","","",""
"","","","","","html-slider-response","205","3558801","0.0-21.0-1.30","2a7304d9-c216-4321-aa66-c518fc27cf7a","2314","
                  <p style=""text-align: center;"">₪61
                                                <br>45%</p>
                  <p id=""wtp"" style=""text-align:center; margin-top: 0px; margin-bottom: 0px; font-size: 40px"";>מוכנים לשלם: <span id=""c_p_y""></span></p>","24","evaluation","15","22","10A,11A","45","61","24","","","","","","","","","","","","","","","","","","",""
"","","","","","html-keyboard-response","206","3559704","0.0-21.0-2.30","2a7304d9-c216-4321-aa66-c518fc27cf7a","null","<p style=""text-align: center;"">+</p>","null","fixation","","","","","","","","","","","","","","","","","","","","","","","","",""
"","","","","","html-keyboard-response","207","3560709","0.0-22.0","2a7304d9-c216-4321-aa66-c518fc27cf7a","null","<p style=""text-align: center;"">+</p>","null","fixation","","","","","","","","","","","","","","","","","","","","","","","","",""
"","","","","","html-keyboard-response","208","3567272","0.0-23.0","2a7304d9-c216-4321-aa66-c518fc27cf7a","null","<p>הפסקה.
          <br>לחצו כדי להמשיך.</p>","1","scan_wait","","","","","","","","","","","","","","","","","","","","","","","","",""
"","","","","","html-keyboard-response","209","3568273","0.0-24.0","2a7304d9-c216-4321-aa66-c518fc27cf7a","null","<p style=""text-align: center;"">+</p>","null","fixation","","","","","","","","","","","","","","","","","","","","","","","","",""
"","","","","","html-slider-response","210","3569281","0.0-25.0-0.0","2a7304d9-c216-4321-aa66-c518fc27cf7a","1000","
                  <p style=""text-align: center;"">₪76
                                                <br>65%</p>
                  <p id=""wtp"" style=""text-align:center; margin-top: 0px; margin-bottom: 0px; font-size: 40px"";>&ensp;</p>","-","viewing","0","29","8C,19A,24B","","","","","","","","","","","","","","","","","","","","","",""
"","","","","","html-slider-response","211","3571569","0.0-25.0-1.0","2a7304d9-c216-4321-aa66-c518fc27cf7a","2286","
                  <p style=""text-align: center;"">₪76
                                                <br>65%</p>
                  <p id=""wtp"" style=""text-align:center; margin-top: 0px; margin-bottom: 0px; font-size: 40px"";>מוכנים לשלם: <span id=""c_p_y""></span></p>","40","evaluation","58","29","8C,19A,24B","65","76","40","","","","","","","","","","","","","","","","","","",""
"","","","","","html-keyboard-response","212","3572392","0.0-25.0-2.0","2a7304d9-c216-4321-aa66-c518fc27cf7a","null","<p style=""text-align: center;"">+</p>","null","fixation","","","","","","","","","","","","","","","","","","","","","","","","",""
"","","","","","html-slider-response","213","3573394","0.0-25.0-0.1","2a7304d9-c216-4321-aa66-c518fc27cf7a","1000","
                  <p style=""text-align: center;"">₪11
                                                <br>25%</p>
                  <p id=""wtp"" style=""text-align:center; margin-top: 0px; margin-bottom: 0px; font-size: 40px"";>&ensp;</p>","-","viewing","0","5","12A,27B,28B,30B","","","","","","","","","","","","","","","","","","","","","",""
"","","","","","html-slider-response","214","3575961","0.0-25.0-1.1","2a7304d9-c216-4321-aa66-c518fc27cf7a","2566","
                  <p style=""text-align: center;"">₪11
                                                <br>25%</p>
                  <p id=""wtp"" style=""text-align:center; margin-top: 0px; margin-bottom: 0px; font-size: 40px"";>מוכנים לשלם: <span id=""c_p_y""></span></p>","5","evaluation","67","5","12A,27B,28B,30B","25","11","6","","","","","","","","","","","","","","","","","","",""
"","","","","","html-keyboard-response","215","3577461","0.0-25.0-2.1","2a7304d9-c216-4321-aa66-c518fc27cf7a","null","<p style=""text-align: center;"">+</p>","null","fixation","","","","","","","","","","","","","","","","","","","","","","","","",""
"","","","","","html-slider-response","216","3578466","0.0-25.0-0.2","2a7304d9-c216-4321-aa66-c518fc27cf7a","1000","
                  <p style=""text-align: center;"">₪4
                                                <br>25%</p>
                  <p id=""wtp"" style=""text-align:center; margin-top: 0px; margin-bottom: 0px; font-size: 40px"";>&ensp;</p>","-","viewing","0","1","6C,29B,30C","","","","","","","","","","","","","","","","","","","","","",""
"","","","","","html-slider-response","217","3581121","0.0-25.0-1.2","2a7304d9-c216-4321-aa66-c518fc27cf7a","2654","
                  <p style=""text-align: center;"">₪4
                                                <br>25%</p>
                  <p id=""wtp"" style=""text-align:center; margin-top: 0px; margin-bottom: 0px; font-size: 40px"";>מוכנים לשלם: <span id=""c_p_y""></span></p>","0","evaluation","77","1","6C,29B,30C","25","4","0","","","","","","","","","","","","","","","","","","",""
"","","","","","html-keyboard-response","218","3581956","0.0-25.0-2.2","2a7304d9-c216-4321-aa66-c518fc27cf7a","null","<p style=""text-align: center;"">+</p>","null","fixation","","","","","","","","","","","","","","","","","","","","","","","","",""
"","","","","","html-slider-response","219","3582963","0.0-25.0-0.3","2a7304d9-c216-4321-aa66-c518fc27cf7a","1000","
                  <p style=""text-align: center;"">₪18
                                                <br>50%</p>
                  <p id=""wtp"" style=""text-align:center; margin-top: 0px; margin-bottom: 0px; font-size: 40px"";>&ensp;</p>","-","viewing","0","10","2C,16C,22B,28A","","","","","","","","","","","","","","","","","","","","","",""
"","","","","","html-slider-response","220","3585368","0.0-25.0-1.3","2a7304d9-c216-4321-aa66-c518fc27cf7a","2405","
                  <p style=""text-align: center;"">₪18
                                                <br>50%</p>
                  <p id=""wtp"" style=""text-align:center; margin-top: 0px; margin-bottom: 0px; font-size: 40px"";>מוכנים לשלם: <span id=""c_p_y""></span></p>","18","evaluation","21","10","2C,16C,22B,28A","50","18","18","","","","","","","","","","","","","","","","","","",""
"","","","","","html-keyboard-response","221","3586541","0.0-25.0-2.3","2a7304d9-c216-4321-aa66-c518fc27cf7a","null","<p style=""text-align: center;"">+</p>","null","fixation","","","","","","","","","","","","","","","","","","","","","","","","",""
"","","","","","html-slider-response","222","3587553","0.0-25.0-0.4","2a7304d9-c216-4321-aa66-c518fc27cf7a","1000","
                  <p style=""text-align: center;"">₪64
                                                <br>50%</p>
                  <p id=""wtp"" style=""text-align:center; margin-top: 0px; margin-bottom: 0px; font-size: 40px"";>&ensp;</p>","-","viewing","0","25","1B,3B,4A","","","","","","","","","","","","","","","","","","","","","",""
"","","","","","html-slider-response","223","3591176","0.0-25.0-1.4","2a7304d9-c216-4321-aa66-c518fc27cf7a","3623","
                  <p style=""text-align: center;"">₪64
                                                <br>50%</p>
                  <p id=""wtp"" style=""text-align:center; margin-top: 0px; margin-bottom: 0px; font-size: 40px"";>מוכנים לשלם: <span id=""c_p_y""></span></p>","64","evaluation","12","25","1B,3B,4A","50","64","64","","","","","","","","","","","","","","","","","","",""
"","","","","","html-keyboard-response","224","3592088","0.0-25.0-2.4","2a7304d9-c216-4321-aa66-c518fc27cf7a","null","<p style=""text-align: center;"">+</p>","null","fixation","","","","","","","","","","","","","","","","","","","","","","","","",""
"","","","","","html-slider-response","225","3593096","0.0-25.0-0.5","2a7304d9-c216-4321-aa66-c518fc27cf7a","1000","
                  <p style=""text-align: center;"">₪71
                                                <br>45%</p>
                  <p id=""wtp"" style=""text-align:center; margin-top: 0px; margin-bottom: 0px; font-size: 40px"";>&ensp;</p>","-","viewing","0","26","2B,16A","","","","","","","","","","","","","","","","","","","","","",""
"","","","","","html-slider-response","226","3596320","0.0-25.0-1.5","2a7304d9-c216-4321-aa66-c518fc27cf7a","3223","
                  <p style=""text-align: center;"">₪71
                                                <br>45%</p>
                  <p id=""wtp"" style=""text-align:center; margin-top: 0px; margin-bottom: 0px; font-size: 40px"";>מוכנים לשלם: <span id=""c_p_y""></span></p>","31","evaluation","27","26","2B,16A","45","71","31","","","","","","","","","","","","","","","","","","",""
"","","","","","html-keyboard-response","227","3597798","0.0-25.0-2.5","2a7304d9-c216-4321-aa66-c518fc27cf7a","null","<p style=""text-align: center;"">+</p>","null","fixation","","","","","","","","","","","","","","","","","","","","","","","","",""
"","","","","","html-slider-response","228","3598811","0.0-25.0-0.6","2a7304d9-c216-4321-aa66-c518fc27cf7a","1000","
                  <p style=""text-align: center;"">₪36
                                                <br>60%</p>
                  <p id=""wtp"" style=""text-align:center; margin-top: 0px; margin-bottom: 0px; font-size: 40px"";>&ensp;</p>","-","viewing","0","12","1C,7C,15C","","","","","","","","","","","","","","","","","","","","","",""
"","","","","","html-slider-response","229","3601520","0.0-25.0-1.6","2a7304d9-c216-4321-aa66-c518fc27cf7a","2708","
                  <p style=""text-align: center;"">₪36
                                                <br>60%</p>
                  <p id=""wtp"" style=""text-align:center; margin-top: 0px; margin-bottom: 0px; font-size: 40px"";>מוכנים לשלם: <span id=""c_p_y""></span></p>","30","evaluation","3","12","1C,7C,15C","60","36","30","","","","","","","","","","","","","","","","","","",""
"","","","","","html-keyboard-response","230","3602211","0.0-25.0-2.6","2a7304d9-c216-4321-aa66-c518fc27cf7a","null","<p style=""text-align: center;"">+</p>","null","fixation","","","","","","","","","","","","","","","","","","","","","","","","",""
"","","","","","html-slider-response","231","3603222","0.0-25.0-0.7","2a7304d9-c216-4321-aa66-c518fc27cf7a","1000","
                  <p style=""text-align: center;"">₪11
                                                <br>45%</p>
                  <p id=""wtp"" style=""text-align:center; margin-top: 0px; margin-bottom: 0px; font-size: 40px"";>&ensp;</p>","-","viewing","0","6","14B,21C,25C","","","","","","","","","","","","","","","","","","","","","",""
"","","","","","html-slider-response","232","3607226","0.0-25.0-1.7","2a7304d9-c216-4321-aa66-c518fc27cf7a","null","
                  <p style=""text-align: center;"">₪11
                                                <br>45%</p>
                  <p id=""wtp"" style=""text-align:center; margin-top: 0px; margin-bottom: 0px; font-size: 40px"";>מוכנים לשלם: <span id=""c_p_y""></span></p>","null","evaluation","40","6","14B,21C,25C","45","11","9","","","","","","","","","","","","","","","","","","",""
"","","","","","html-keyboard-response","233","3607784","0.0-25.0-2.7","2a7304d9-c216-4321-aa66-c518fc27cf7a","null","<p style=""text-align: center;"">+</p>","null","fixation","","","","","","","","","","","","","","","","","","","","","","","","",""
"","","","","","html-slider-response","234","3608792","0.0-25.0-0.8","2a7304d9-c216-4321-aa66-c518fc27cf7a","1000","
                  <p style=""text-align: center;"">₪18
                                                <br>25%</p>
                  <p id=""wtp"" style=""text-align:center; margin-top: 0px; margin-bottom: 0px; font-size: 40px"";>&ensp;</p>","-","viewing","0","9","14A,23A","","","","","","","","","","","","","","","","","","","","","",""
"","","","","","html-slider-response","235","3611040","0.0-25.0-1.8","2a7304d9-c216-4321-aa66-c518fc27cf7a","2247","
                  <p style=""text-align: center;"">₪18
                                                <br>25%</p>
                  <p id=""wtp"" style=""text-align:center; margin-top: 0px; margin-bottom: 0px; font-size: 40px"";>מוכנים לשלם: <span id=""c_p_y""></span></p>","12","evaluation","2","9","14A,23A","25","18","12","","","","","","","","","","","","","","","","","","",""
"","","","","","html-keyboard-response","236","3611830","0.0-25.0-2.8","2a7304d9-c216-4321-aa66-c518fc27cf7a","null","<p style=""text-align: center;"">+</p>","null","fixation","","","","","","","","","","","","","","","","","","","","","","","","",""
"","","","","","html-slider-response","237","3612846","0.0-25.0-0.9","2a7304d9-c216-4321-aa66-c518fc27cf7a","1000","
                  <p style=""text-align: center;"">₪4
                                                <br>75%</p>
                  <p id=""wtp"" style=""text-align:center; margin-top: 0px; margin-bottom: 0px; font-size: 40px"";>&ensp;</p>","-","viewing","0","3","12B,20B,23B,27C,29C","","","","","","","","","","","","","","","","","","","","","",""
"","","","","","html-slider-response","238","3615040","0.0-25.0-1.9","2a7304d9-c216-4321-aa66-c518fc27cf7a","2193","
                  <p style=""text-align: center;"">₪4
                                                <br>75%</p>
                  <p id=""wtp"" style=""text-align:center; margin-top: 0px; margin-bottom: 0px; font-size: 40px"";>מוכנים לשלם: <span id=""c_p_y""></span></p>","4","evaluation","51","3","12B,20B,23B,27C,29C","75","4","4","","","","","","","","","","","","","","","","","","",""
"","","","","","html-keyboard-response","239","3616410","0.0-25.0-2.9","2a7304d9-c216-4321-aa66-c518fc27cf7a","null","<p style=""text-align: center;"">+</p>","null","fixation","","","","","","","","","","","","","","","","","","","","","","","","",""
"","","","","","html-slider-response","240","3617414","0.0-25.0-0.10","2a7304d9-c216-4321-aa66-c518fc27cf7a","1000","
                  <p style=""text-align: center;"">₪36
                                                <br>70%</p>
                  <p id=""wtp"" style=""text-align:center; margin-top: 0px; margin-bottom: 0px; font-size: 40px"";>&ensp;</p>","-","viewing","0","13","3A,5C,10B","","","","","","","","","","","","","","","","","","","","","",""
"","","","","","html-slider-response","241","3619528","0.0-25.0-1.10","2a7304d9-c216-4321-aa66-c518fc27cf7a","2113","
                  <p style=""text-align: center;"">₪36
                                                <br>70%</p>
                  <p id=""wtp"" style=""text-align:center; margin-top: 0px; margin-bottom: 0px; font-size: 40px"";>מוכנים לשלם: <span id=""c_p_y""></span></p>","30","evaluation","40","13","3A,5C,10B","70","36","30","","","","","","","","","","","","","","","","","","",""
"","","","","","html-keyboard-response","242","3620351","0.0-25.0-2.10","2a7304d9-c216-4321-aa66-c518fc27cf7a","null","<p style=""text-align: center;"">+</p>","null","fixation","","","","","","","","","","","","","","","","","","","","","","","","",""
"","","","","","html-slider-response","243","3621366","0.0-25.0-0.11","2a7304d9-c216-4321-aa66-c518fc27cf7a","1000","
                  <p style=""text-align: center;"">₪71
                                                <br>55%</p>
                  <p id=""wtp"" style=""text-align:center; margin-top: 0px; margin-bottom: 0px; font-size: 40px"";>&ensp;</p>","-","viewing","0","27","5B,18A","","","","","","","","","","","","","","","","","","","","","",""
"","","","","","html-slider-response","244","3624200","0.0-25.0-1.11","2a7304d9-c216-4321-aa66-c518fc27cf7a","2833","
                  <p style=""text-align: center;"">₪71
                                                <br>55%</p>
                  <p id=""wtp"" style=""text-align:center; margin-top: 0px; margin-bottom: 0px; font-size: 40px"";>מוכנים לשלם: <span id=""c_p_y""></span></p>","50","evaluation","26","27","5B,18A","55","71","50","","","","","","","","","","","","","","","","","","",""
