"success","timeout","failed_images","failed_audio","failed_video","trial_type","trial_index","time_elapsed","internal_node_id","subject_id","rt","stimulus","response","part","slider_start","ID","set_ID","prob","amount","last_location","actual_choice","actual_EV","binary_id","trinary_id","catch","direction","A_key","S_key","D_key","choice_prob","choice_amount","won_prize","potential_prize_amount","potential_prize_prob","total_prize","accuracy"
"true","false","[]","[]","[]","preload","0","14","0.0-0.0","0f6778e2-6340-4412-acd5-159d88da9370","","","","","","","","","","","","","","","","","","","","","","","","","",""
"","","","","","html-keyboard-response","1","13384","0.0-1.0","0f6778e2-6340-4412-acd5-159d88da9370","null","
          <h1>שלום וברוכים הבאים!</h1>
          <p>לפניכם ניסוי בקבלת החלטות עם שני חלקים.
          <br><br>לחצו על העכבר כדי להמשיך.</p>","0","example","","","","","","","","","","","","","","","","","","","","","",""
"","","","","","html-keyboard-response","2","30327","0.0-2.0","0f6778e2-6340-4412-acd5-159d88da9370","null","
        <h1>חלק 1</h1>
        <p>בקרוב יוצגו בפניכם הגרלות.
        <br>עליכם לבחור את המחיר המירבי שתהיו מוכנים לשלם כדי להשתתף בהגרלה שתוצג.
        <br>יש לכם תקציב של ₪80 לכל הגרלה. 
        <br>נסו להעריך כל הגרלה בנפרד ולחשוב כמה היא שווה עבורכם, ₪80 זמינים לכל הגרלה בנפרד.
        <br><br>לחצו על העכבר כדי להמשיך.</p>","1","instructions","","","","","","","","","","","","","","","","","","","","","",""
"","","","","","html-keyboard-response","3","48911","0.0-3.0","0f6778e2-6340-4412-acd5-159d88da9370","null","
        <p>בסוף הניסוי, המחשב יבחר את אחת ההגרלות ויקבע מחיר לכרטיס עבורה. 
        <br>במידה והמחיר שבחרתם נמוך מהמחיר שנבחר על ידי המחשב, לא תשתתפו בהגרלה ותשארו עם מלוא התקציב.
        <br>במידה והמחיר שבחרתם גבוה מהמחיר שנבחר על ידי המחשב, תשלמו את המחיר שנקבע ותשתתפו בהגרלה.
        <br><br>לחצו על העכבר כדי להמשיך.</p>","1","instructions","","","","","","","","","","","","","","","","","","","","","",""
"","","","","","html-slider-response","4","73007","0.0-4.0","0f6778e2-6340-4412-acd5-159d88da9370","23989","
        <p style=""font-size: 42px;"">נתחיל עם דוגמא: 
        <br>ההגרלה מטה מציעה 65% סיכוי לזכות ב-₪40 
        <br>&emsp;&emsp;&emsp;&emsp;&emsp;&emsp;&emsp;&emsp;&ensp;35% סיכוי לזכות ב-₪0.
        <br><br>מה המחיר המירבי שתהיו מוכנים לשלם על כרטיס להגרלה זו בין 0 ל-₪80?
        <br>הזיזו את העכבר על פני המלבן ולחצו כדי לבצע בחירה.</p>
        
        <p style=""text-align: center;"">₪40<br>65%</p>

        <p id=""wtp"" style=""text-align:center; margin-top: 0px; margin-bottom: 0px; font-size: 40px"";>מוכנים לשלם: <span id=""c_p_y""></span></p>","30","example","16","","","","","","","","","","","","","","","","","","","","",""
"","","","","","html-keyboard-response","5","78959","0.0-5.0","0f6778e2-6340-4412-acd5-159d88da9370","null","<p>יפה מאוד!
                <br> בחרתם שתהיו מוכנים לשלם ₪30 כדי להשתתף בהגרלה:
                <br><p style=""text-align: center;"">₪40<br>65%</p>
                <p>נשמע נכון?
                <br>נניח שהגרלה זו נבחרה בסוף הניסוי.
                <br>כעת המחשב יקבע מחיר עבורה באקראי.
                <br>לחצו על העכבר להמשך.</p>","1","example","","","","","","","","","","","","","","","","","","","","","",""
"","","","","","html-keyboard-response","6","88446","0.0-6.0","0f6778e2-6340-4412-acd5-159d88da9370","null","<p>המחשב קבע מחיר: ₪72
                <br>ואתם בחרתם לשלם לכל היותר: ₪30
                <br><br>מכיוון שהמחיר שבחרתם נמוך מהמחיר שנקבע, לא תתשתתפו בהגרלה.
                <br>במקרה כזה, בסוף הניסוי תקבלו את כל התקציב ההתחלתי של ₪80.
                <br><br>לחצו על העכבר להמשך.</p>","1","example","","","","","","","","","","","","","","","","","","","","","",""
"","","","","","html-slider-response","7","96031","0.0-7.0","0f6778e2-6340-4412-acd5-159d88da9370","7326","<p style=""font-size: 42px;"">הנה עוד דוגמא:
                <br>ההגרלה מטה מציעה 35% סיכוי לזכות ב-₪18 
                <br>&emsp;&emsp;&emsp;&emsp;&emsp;&emsp;&emsp;&emsp;&ensp;65% סיכוי לזכות ב-₪0.</p>
        
                <p style=""text-align: center;"">₪18<br>35%</p>
                <p id=""wtp"" style=""text-align:center; margin-top: 0px; margin-bottom: 0px; font-size: 40px"";>מוכנים לשלם: <span id=""c_p_y""></span></p>","40","example","39","","","","","","","","","","","","","","","","","","","","",""
"","","","","","html-keyboard-response","8","104734","0.0-8.0","0f6778e2-6340-4412-acd5-159d88da9370","null","<p>הייתם מוכנים לשלם  ₪40 כדי להשתתף בהגרלה:
                <p style=""text-align: center;"">₪18<br>35%</p>
                <p>כעת נניח שהמחשב בחר את ההגרלה הזו בסוף הניסוי, וקבע עבורה מחיר.
                <br><br>לחצו על העכבר כדי להמשיך.</p>","1","instructions","","","","","","","","","","","","","","","","","","","","","",""
"","","","","","html-keyboard-response","9","123943","0.0-9.0","0f6778e2-6340-4412-acd5-159d88da9370","null","<p>המחשב קבע מחיר להגרלה: ₪24<br>ואתם בחרתם לשלם לכל היותר: ₪40
                <br><br>כעת המחיר שנקבע נמוך מזה שבחרתם, אז תשלמו את המחיר שקבע המחשב (₪24) ותשתתפו בהגרלה.
                <br>במקרה כזה, תסיימו את הניסוי עם תקציב של ₪56 ועם סיכוי לזכות ב-₪18 נוספים מההגרלה.
                <br>כלומר, תוכלו לקבל ₪56 אם לא תזכו בהגרלה, או ₪74 אם תזכו בהגרלה.
                <br><br>לחצו על העכבר להמשך.</p>","1","example","","","","","","","","","","","","","","","","","","","","","",""
"","","","","","html-keyboard-response","10","134175","0.0-10.0","0f6778e2-6340-4412-acd5-159d88da9370","null","<p>במהלך הניסוי, קודם תראו את ההגרלה ורק לאחר מכן תוכלו לבחור.
                <p>כמו כן, יהיו לכם מספר שניות מוגבל להגיב.
                <p>בואו ננסה זאת עם ההגרלה הקודמת.
                <br>לחצו על העכבר כדי להמשיך.</p>","1","instructions","","","","","","","","","","","","","","","","","","","","","",""
"","","","","","html-slider-response","11","135443","0.0-11.0","0f6778e2-6340-4412-acd5-159d88da9370","1000","
                    <p style=""text-align: center;"">₪18<br>35%</p>
                    <p id=""wtp"" style=""text-align:center; margin-top: 0px; margin-bottom: 0px; font-size: 40px"";>&ensp;</p>","42","instructions","0","","","","","","","","","","","","","","","","","","","","",""
"","","","","","html-slider-response","12","139713","0.0-12.0","0f6778e2-6340-4412-acd5-159d88da9370","null","
                    <p style=""text-align: center;"">₪18<br>35%</p>
                    <p id=""wtp"" style=""text-align:center; margin-top: 0px; margin-bottom: 0px; font-size: 40px"";>מוכנים לשלם: <span id=""c_p_y""></span></p>","null","instructions","65","","","","","","","","","","","","","","","","","","","","",""
"","","","","","html-keyboard-response","13","141095","0.0-13.0","0f6778e2-6340-4412-acd5-159d88da9370","null","<p>לא הגבתם בזמן המוקצב לתגובה. 
                <br>נסו להגיב מהר יותר בפעם הבאה.
                <br><br>לחצו על העכבר כדי להמשיך.</p>","1","instructions","","","","","","","","","","","","","","","","","","","","","",""
"","","","","","html-slider-response","14","143759","0.0-14.0-0.0","0f6778e2-6340-4412-acd5-159d88da9370","2405","
                    <p style=""text-align: center;"">₪40<br>65%</p>
                    <p id=""wtp"" style=""text-align:center; margin-top: 0px; margin-bottom: 0px; font-size: 40px"";>מוכנים לשלם: <span id=""c_p_y""></span></p>","45","instructions","47","","","","","","","","","","","","","","","","","","","","",""
"","","","","","html-keyboard-response","15","145535","0.0-14.0-1.0","0f6778e2-6340-4412-acd5-159d88da9370","null","<p>יפה. הפעם בחרתם לשלם לכל היותר ₪45.
                <br><br>לחצו על העכבר כדי להמשיך.</p>","1","instructions","","","","","","","","","","","","","","","","","","","","","",""
"","","","","","html-keyboard-response","16","147199","0.0-15.0","0f6778e2-6340-4412-acd5-159d88da9370","null","<p>כעת נתחיל את הניסוי.
                <br><br>אתם תראו הגרלות ותתבקשו לבחור כמה תהיו מוכנים לשלם כדי להשתתף בהן.
                <br>יש לכם תקציב של ₪80 עבור כל הגרלה.
                <br>בסוף הניסוי הגרלה אחת תבחר באקראי ותשוחק.
                <br><br>לחצו על העכבר כדי להתחיל את הניסוי.</p>","1","instructions","","","","","","","","","","","","","","","","","","","","","",""
"","","","","","html-keyboard-response","17","148462","0.0-16.0","0f6778e2-6340-4412-acd5-159d88da9370","null","<p style=""text-align: center;"">+</p>","null","fixation","","","","","","","","","","","","","","","","","","","","","",""
"","","","","","html-slider-response","18","149466","0.0-17.0-0.0","0f6778e2-6340-4412-acd5-159d88da9370","1000","
                  <p style=""text-align: center;"">₪18
                                                <br>25%</p>
                  <p id=""wtp"" style=""text-align:center; margin-top: 0px; margin-bottom: 0px; font-size: 40px"";>&ensp;</p>","-","viewing","0","9","14A,23A","","","","","","","","","","","","","","","","","","",""
"","","","","","html-slider-response","19","151632","0.0-17.0-1.0","0f6778e2-6340-4412-acd5-159d88da9370","2163","
                  <p style=""text-align: center;"">₪18
                                                <br>25%</p>
                  <p id=""wtp"" style=""text-align:center; margin-top: 0px; margin-bottom: 0px; font-size: 40px"";>מוכנים לשלם: <span id=""c_p_y""></span></p>","31","evaluation","52","9","14A,23A","25","18","31","","","","","","","","","","","","","","","",""
"","","","","","html-keyboard-response","20","152264","0.0-17.0-2.0","0f6778e2-6340-4412-acd5-159d88da9370","null","<p style=""text-align: center;"">+</p>","null","fixation","","","","","","","","","","","","","","","","","","","","","",""
"","","","","","html-slider-response","21","153273","0.0-17.0-0.1","0f6778e2-6340-4412-acd5-159d88da9370","1000","
                  <p style=""text-align: center;"">₪16
                                                <br>20%</p>
                  <p id=""wtp"" style=""text-align:center; margin-top: 0px; margin-bottom: 0px; font-size: 40px"";>&ensp;</p>","-","viewing","0","8","14C,17A,20C,27A","","","","","","","","","","","","","","","","","","",""
"","","","","","html-slider-response","22","156335","0.0-17.0-1.1","0f6778e2-6340-4412-acd5-159d88da9370","3061","
                  <p style=""text-align: center;"">₪16
                                                <br>20%</p>
                  <p id=""wtp"" style=""text-align:center; margin-top: 0px; margin-bottom: 0px; font-size: 40px"";>מוכנים לשלם: <span id=""c_p_y""></span></p>","17","evaluation","36","8","14C,17A,20C,27A","20","16","17","","","","","","","","","","","","","","","",""
"","","","","","html-keyboard-response","23","157604","0.0-17.0-2.1","0f6778e2-6340-4412-acd5-159d88da9370","null","<p style=""text-align: center;"">+</p>","null","fixation","","","","","","","","","","","","","","","","","","","","","",""
"","","","","","html-slider-response","24","158614","0.0-17.0-0.2","0f6778e2-6340-4412-acd5-159d88da9370","1000","
                  <p style=""text-align: center;"">₪39
                                                <br>60%</p>
                  <p id=""wtp"" style=""text-align:center; margin-top: 0px; margin-bottom: 0px; font-size: 40px"";>&ensp;</p>","-","viewing","0","15","9C,25B","","","","","","","","","","","","","","","","","","",""
"","","","","","html-slider-response","25","161647","0.0-17.0-1.2","0f6778e2-6340-4412-acd5-159d88da9370","3031","
                  <p style=""text-align: center;"">₪39
                                                <br>60%</p>
                  <p id=""wtp"" style=""text-align:center; margin-top: 0px; margin-bottom: 0px; font-size: 40px"";>מוכנים לשלם: <span id=""c_p_y""></span></p>","44","evaluation","28","15","9C,25B","60","39","44","","","","","","","","","","","","","","","",""
"","","","","","html-keyboard-response","26","163090","0.0-17.0-2.2","0f6778e2-6340-4412-acd5-159d88da9370","null","<p style=""text-align: center;"">+</p>","null","fixation","","","","","","","","","","","","","","","","","","","","","",""
"","","","","","html-slider-response","27","164103","0.0-17.0-0.3","0f6778e2-6340-4412-acd5-159d88da9370","1000","
                  <p style=""text-align: center;"">₪71
                                                <br>55%</p>
                  <p id=""wtp"" style=""text-align:center; margin-top: 0px; margin-bottom: 0px; font-size: 40px"";>&ensp;</p>","-","viewing","0","27","5B,18A","","","","","","","","","","","","","","","","","","",""
"","","","","","html-slider-response","28","166743","0.0-17.0-1.3","0f6778e2-6340-4412-acd5-159d88da9370","2638","
                  <p style=""text-align: center;"">₪71
                                                <br>55%</p>
                  <p id=""wtp"" style=""text-align:center; margin-top: 0px; margin-bottom: 0px; font-size: 40px"";>מוכנים לשלם: <span id=""c_p_y""></span></p>","73","evaluation","24","27","5B,18A","55","71","73","","","","","","","","","","","","","","","",""
"","","","","","html-keyboard-response","29","168085","0.0-17.0-2.3","0f6778e2-6340-4412-acd5-159d88da9370","null","<p style=""text-align: center;"">+</p>","null","fixation","","","","","","","","","","","","","","","","","","","","","",""
"","","","","","html-slider-response","30","169088","0.0-17.0-0.4","0f6778e2-6340-4412-acd5-159d88da9370","1000","
                  <p style=""text-align: center;"">₪39
                                                <br>65%</p>
                  <p id=""wtp"" style=""text-align:center; margin-top: 0px; margin-bottom: 0px; font-size: 40px"";>&ensp;</p>","-","viewing","0","16","1A,15A,26C","","","","","","","","","","","","","","","","","","",""
"","","","","","html-slider-response","31","171663","0.0-17.0-1.4","0f6778e2-6340-4412-acd5-159d88da9370","2573","
                  <p style=""text-align: center;"">₪39
                                                <br>65%</p>
                  <p id=""wtp"" style=""text-align:center; margin-top: 0px; margin-bottom: 0px; font-size: 40px"";>מוכנים לשלם: <span id=""c_p_y""></span></p>","43","evaluation","27","16","1A,15A,26C","65","39","43","","","","","","","","","","","","","","","",""
"","","","","","html-keyboard-response","32","172571","0.0-17.0-2.4","0f6778e2-6340-4412-acd5-159d88da9370","null","<p style=""text-align: center;"">+</p>","null","fixation","","","","","","","","","","","","","","","","","","","","","",""
"","","","","","html-slider-response","33","173583","0.0-17.0-0.5","0f6778e2-6340-4412-acd5-159d88da9370","1000","
                  <p style=""text-align: center;"">₪58
                                                <br>45%</p>
                  <p id=""wtp"" style=""text-align:center; margin-top: 0px; margin-bottom: 0px; font-size: 40px"";>&ensp;</p>","-","viewing","0","21","11C,18C,25A","","","","","","","","","","","","","","","","","","",""
"","","","","","html-slider-response","34","175455","0.0-17.0-1.5","0f6778e2-6340-4412-acd5-159d88da9370","1871","
                  <p style=""text-align: center;"">₪58
                                                <br>45%</p>
                  <p id=""wtp"" style=""text-align:center; margin-top: 0px; margin-bottom: 0px; font-size: 40px"";>מוכנים לשלם: <span id=""c_p_y""></span></p>","57","evaluation","35","21","11C,18C,25A","45","58","57","","","","","","","","","","","","","","","",""
"","","","","","html-keyboard-response","35","176778","0.0-17.0-2.5","0f6778e2-6340-4412-acd5-159d88da9370","null","<p style=""text-align: center;"">+</p>","null","fixation","","","","","","","","","","","","","","","","","","","","","",""
"","","","","","html-slider-response","36","177792","0.0-17.0-0.6","0f6778e2-6340-4412-acd5-159d88da9370","1000","
                  <p style=""text-align: center;"">₪4
                                                <br>25%</p>
                  <p id=""wtp"" style=""text-align:center; margin-top: 0px; margin-bottom: 0px; font-size: 40px"";>&ensp;</p>","-","viewing","0","1","6C,29B,30C","","","","","","","","","","","","","","","","","","",""
"","","","","","html-slider-response","37","179087","0.0-17.0-1.6","0f6778e2-6340-4412-acd5-159d88da9370","1295","
                  <p style=""text-align: center;"">₪4
                                                <br>25%</p>
                  <p id=""wtp"" style=""text-align:center; margin-top: 0px; margin-bottom: 0px; font-size: 40px"";>מוכנים לשלם: <span id=""c_p_y""></span></p>","3","evaluation","20","1","6C,29B,30C","25","4","3","","","","","","","","","","","","","","","",""
"","","","","","html-keyboard-response","38","180226","0.0-17.0-2.6","0f6778e2-6340-4412-acd5-159d88da9370","null","<p style=""text-align: center;"">+</p>","null","fixation","","","","","","","","","","","","","","","","","","","","","",""
"","","","","","html-slider-response","39","181235","0.0-17.0-0.7","0f6778e2-6340-4412-acd5-159d88da9370","1000","
                  <p style=""text-align: center;"">₪79
                                                <br>40%</p>
                  <p id=""wtp"" style=""text-align:center; margin-top: 0px; margin-bottom: 0px; font-size: 40px"";>&ensp;</p>","-","viewing","0","30","9B","","","","","","","","","","","","","","","","","","",""
"","","","","","html-slider-response","40","183319","0.0-17.0-1.7","0f6778e2-6340-4412-acd5-159d88da9370","2082","
                  <p style=""text-align: center;"">₪79
                                                <br>40%</p>
                  <p id=""wtp"" style=""text-align:center; margin-top: 0px; margin-bottom: 0px; font-size: 40px"";>מוכנים לשלם: <span id=""c_p_y""></span></p>","73","evaluation","60","30","9B","40","79","73","","","","","","","","","","","","","","","",""
"","","","","","html-keyboard-response","41","184300","0.0-17.0-2.7","0f6778e2-6340-4412-acd5-159d88da9370","null","<p style=""text-align: center;"">+</p>","null","fixation","","","","","","","","","","","","","","","","","","","","","",""
"","","","","","html-slider-response","42","185302","0.0-17.0-0.8","0f6778e2-6340-4412-acd5-159d88da9370","1000","
                  <p style=""text-align: center;"">₪4
                                                <br>75%</p>
                  <p id=""wtp"" style=""text-align:center; margin-top: 0px; margin-bottom: 0px; font-size: 40px"";>&ensp;</p>","-","viewing","0","3","12B,20B,23B,27C,29C","","","","","","","","","","","","","","","","","","",""
"","","","","","html-slider-response","43","186559","0.0-17.0-1.8","0f6778e2-6340-4412-acd5-159d88da9370","1256","
                  <p style=""text-align: center;"">₪4
                                                <br>75%</p>
                  <p id=""wtp"" style=""text-align:center; margin-top: 0px; margin-bottom: 0px; font-size: 40px"";>מוכנים לשלם: <span id=""c_p_y""></span></p>","8","evaluation","68","3","12B,20B,23B,27C,29C","75","4","8","","","","","","","","","","","","","","","",""
"","","","","","html-keyboard-response","44","187910","0.0-17.0-2.8","0f6778e2-6340-4412-acd5-159d88da9370","null","<p style=""text-align: center;"">+</p>","null","fixation","","","","","","","","","","","","","","","","","","","","","",""
"","","","","","html-slider-response","45","188912","0.0-17.0-0.9","0f6778e2-6340-4412-acd5-159d88da9370","1000","
                  <p style=""text-align: center;"">₪58
                                                <br>40%</p>
                  <p id=""wtp"" style=""text-align:center; margin-top: 0px; margin-bottom: 0px; font-size: 40px"";>&ensp;</p>","-","viewing","0","20","10C,13A,19C,21B","","","","","","","","","","","","","","","","","","",""
"","","","","","html-slider-response","46","190775","0.0-17.0-1.9","0f6778e2-6340-4412-acd5-159d88da9370","1862","
                  <p style=""text-align: center;"">₪58
                                                <br>40%</p>
                  <p id=""wtp"" style=""text-align:center; margin-top: 0px; margin-bottom: 0px; font-size: 40px"";>מוכנים לשלם: <span id=""c_p_y""></span></p>","42","evaluation","1","20","10C,13A,19C,21B","40","58","42","","","","","","","","","","","","","","","",""
"","","","","","html-keyboard-response","47","192273","0.0-17.0-2.9","0f6778e2-6340-4412-acd5-159d88da9370","null","<p style=""text-align: center;"">+</p>","null","fixation","","","","","","","","","","","","","","","","","","","","","",""
"","","","","","html-slider-response","48","193284","0.0-17.0-0.10","0f6778e2-6340-4412-acd5-159d88da9370","1000","
                  <p style=""text-align: center;"">₪79
                                                <br>65%</p>
                  <p id=""wtp"" style=""text-align:center; margin-top: 0px; margin-bottom: 0px; font-size: 40px"";>&ensp;</p>","-","viewing","0","31","8A","","","","","","","","","","","","","","","","","","",""
"","","","","","html-slider-response","49","195342","0.0-17.0-1.10","0f6778e2-6340-4412-acd5-159d88da9370","2058","
                  <p style=""text-align: center;"">₪79
                                                <br>65%</p>
                  <p id=""wtp"" style=""text-align:center; margin-top: 0px; margin-bottom: 0px; font-size: 40px"";>מוכנים לשלם: <span id=""c_p_y""></span></p>","78","evaluation","76","31","8A","65","79","77","","","","","","","","","","","","","","","",""
"","","","","","html-keyboard-response","50","196664","0.0-17.0-2.10","0f6778e2-6340-4412-acd5-159d88da9370","null","<p style=""text-align: center;"">+</p>","null","fixation","","","","","","","","","","","","","","","","","","","","","",""
"","","","","","html-slider-response","51","197669","0.0-17.0-0.11","0f6778e2-6340-4412-acd5-159d88da9370","1000","
                  <p style=""text-align: center;"">₪11
                                                <br>20%</p>
                  <p id=""wtp"" style=""text-align:center; margin-top: 0px; margin-bottom: 0px; font-size: 40px"";>&ensp;</p>","-","viewing","0","4","12C,17C,23C,28C","","","","","","","","","","","","","","","","","","",""
"","","","","","html-slider-response","52","198998","0.0-17.0-1.11","0f6778e2-6340-4412-acd5-159d88da9370","1328","
                  <p style=""text-align: center;"">₪11
                                                <br>20%</p>
                  <p id=""wtp"" style=""text-align:center; margin-top: 0px; margin-bottom: 0px; font-size: 40px"";>מוכנים לשלם: <span id=""c_p_y""></span></p>","20","evaluation","22","4","12C,17C,23C,28C","20","11","20","","","","","","","","","","","","","","","",""
"","","","","","html-keyboard-response","53","199689","0.0-17.0-2.11","0f6778e2-6340-4412-acd5-159d88da9370","null","<p style=""text-align: center;"">+</p>","null","fixation","","","","","","","","","","","","","","","","","","","","","",""
"","","","","","html-slider-response","54","200697","0.0-17.0-0.12","0f6778e2-6340-4412-acd5-159d88da9370","1000","
                  <p style=""text-align: center;"">₪43
                                                <br>60%</p>
                  <p id=""wtp"" style=""text-align:center; margin-top: 0px; margin-bottom: 0px; font-size: 40px"";>&ensp;</p>","-","viewing","0","17","2A,7A,9A,15B","","","","","","","","","","","","","","","","","","",""
"","","","","","html-slider-response","55","203558","0.0-17.0-1.12","0f6778e2-6340-4412-acd5-159d88da9370","2860","
                  <p style=""text-align: center;"">₪43
                                                <br>60%</p>
                  <p id=""wtp"" style=""text-align:center; margin-top: 0px; margin-bottom: 0px; font-size: 40px"";>מוכנים לשלם: <span id=""c_p_y""></span></p>","43","evaluation","76","17","2A,7A,9A,15B","60","43","43","","","","","","","","","","","","","","","",""
"","","","","","html-keyboard-response","56","204946","0.0-17.0-2.12","0f6778e2-6340-4412-acd5-159d88da9370","null","<p style=""text-align: center;"">+</p>","null","fixation","","","","","","","","","","","","","","","","","","","","","",""
"","","","","","html-slider-response","57","205953","0.0-17.0-0.13","0f6778e2-6340-4412-acd5-159d88da9370","1000","
                  <p style=""text-align: center;"">₪11
                                                <br>45%</p>
                  <p id=""wtp"" style=""text-align:center; margin-top: 0px; margin-bottom: 0px; font-size: 40px"";>&ensp;</p>","-","viewing","0","6","14B,21C,25C","","","","","","","","","","","","","","","","","","",""
"","","","","","html-slider-response","58","208454","0.0-17.0-1.13","0f6778e2-6340-4412-acd5-159d88da9370","2500","
                  <p style=""text-align: center;"">₪11
                                                <br>45%</p>
                  <p id=""wtp"" style=""text-align:center; margin-top: 0px; margin-bottom: 0px; font-size: 40px"";>מוכנים לשלם: <span id=""c_p_y""></span></p>","15","evaluation","40","6","14B,21C,25C","45","11","15","","","","","","","","","","","","","","","",""
"","","","","","html-keyboard-response","59","209555","0.0-17.0-2.13","0f6778e2-6340-4412-acd5-159d88da9370","null","<p style=""text-align: center;"">+</p>","null","fixation","","","","","","","","","","","","","","","","","","","","","",""
"","","","","","html-slider-response","60","210572","0.0-17.0-0.14","0f6778e2-6340-4412-acd5-159d88da9370","1000","
                  <p style=""text-align: center;"">₪71
                                                <br>45%</p>
                  <p id=""wtp"" style=""text-align:center; margin-top: 0px; margin-bottom: 0px; font-size: 40px"";>&ensp;</p>","-","viewing","0","26","2B,16A","","","","","","","","","","","","","","","","","","",""
"","","","","","html-slider-response","61","212854","0.0-17.0-1.14","0f6778e2-6340-4412-acd5-159d88da9370","2281","
                  <p style=""text-align: center;"">₪71
                                                <br>45%</p>
                  <p id=""wtp"" style=""text-align:center; margin-top: 0px; margin-bottom: 0px; font-size: 40px"";>מוכנים לשלם: <span id=""c_p_y""></span></p>","47","evaluation","59","26","2B,16A","45","71","47","","","","","","","","","","","","","","","",""
"","","","","","html-keyboard-response","62","214089","0.0-17.0-2.14","0f6778e2-6340-4412-acd5-159d88da9370","null","<p style=""text-align: center;"">+</p>","null","fixation","","","","","","","","","","","","","","","","","","","","","",""
"","","","","","html-slider-response","63","215103","0.0-17.0-0.15","0f6778e2-6340-4412-acd5-159d88da9370","1000","
                  <p style=""text-align: center;"">₪36
                                                <br>30%</p>
                  <p id=""wtp"" style=""text-align:center; margin-top: 0px; margin-bottom: 0px; font-size: 40px"";>&ensp;</p>","-","viewing","0","11","3C,20A,22A","","","","","","","","","","","","","","","","","","",""
"","","","","","html-slider-response","64","217006","0.0-17.0-1.15","0f6778e2-6340-4412-acd5-159d88da9370","1902","
                  <p style=""text-align: center;"">₪36
                                                <br>30%</p>
                  <p id=""wtp"" style=""text-align:center; margin-top: 0px; margin-bottom: 0px; font-size: 40px"";>מוכנים לשלם: <span id=""c_p_y""></span></p>","34","evaluation","12","11","3C,20A,22A","30","36","34","","","","","","","","","","","","","","","",""
"","","","","","html-keyboard-response","65","217510","0.0-17.0-2.15","0f6778e2-6340-4412-acd5-159d88da9370","null","<p style=""text-align: center;"">+</p>","null","fixation","","","","","","","","","","","","","","","","","","","","","",""
"","","","","","html-slider-response","66","218515","0.0-17.0-0.16","0f6778e2-6340-4412-acd5-159d88da9370","1000","
                  <p style=""text-align: center;"">₪36
                                                <br>70%</p>
                  <p id=""wtp"" style=""text-align:center; margin-top: 0px; margin-bottom: 0px; font-size: 40px"";>&ensp;</p>","-","viewing","0","13","3A,5C,10B","","","","","","","","","","","","","","","","","","",""
"","","","","","html-slider-response","67","220390","0.0-17.0-1.16","0f6778e2-6340-4412-acd5-159d88da9370","1874","
                  <p style=""text-align: center;"">₪36
                                                <br>70%</p>
                  <p id=""wtp"" style=""text-align:center; margin-top: 0px; margin-bottom: 0px; font-size: 40px"";>מוכנים לשלם: <span id=""c_p_y""></span></p>","40","evaluation","29","13","3A,5C,10B","70","36","40","","","","","","","","","","","","","","","",""
"","","","","","html-keyboard-response","68","221132","0.0-17.0-2.16","0f6778e2-6340-4412-acd5-159d88da9370","null","<p style=""text-align: center;"">+</p>","null","fixation","","","","","","","","","","","","","","","","","","","","","",""
"","","","","","html-slider-response","69","222147","0.0-17.0-0.17","0f6778e2-6340-4412-acd5-159d88da9370","1000","
                  <p style=""text-align: center;"">₪43
                                                <br>75%</p>
                  <p id=""wtp"" style=""text-align:center; margin-top: 0px; margin-bottom: 0px; font-size: 40px"";>&ensp;</p>","-","viewing","0","18","11B,19B,24A,26A","","","","","","","","","","","","","","","","","","",""
"","","","","","html-slider-response","70","223166","0.0-17.0-1.17","0f6778e2-6340-4412-acd5-159d88da9370","1018","
                  <p style=""text-align: center;"">₪43
                                                <br>75%</p>
                  <p id=""wtp"" style=""text-align:center; margin-top: 0px; margin-bottom: 0px; font-size: 40px"";>מוכנים לשלם: <span id=""c_p_y""></span></p>","45","evaluation","19","18","11B,19B,24A,26A","75","43","45","","","","","","","","","","","","","","","",""
"","","","","","html-keyboard-response","71","223942","0.0-17.0-2.17","0f6778e2-6340-4412-acd5-159d88da9370","null","<p style=""text-align: center;"">+</p>","null","fixation","","","","","","","","","","","","","","","","","","","","","",""
"","","","","","html-slider-response","72","224949","0.0-17.0-0.18","0f6778e2-6340-4412-acd5-159d88da9370","1000","
                  <p style=""text-align: center;"">₪18
                                                <br>50%</p>
                  <p id=""wtp"" style=""text-align:center; margin-top: 0px; margin-bottom: 0px; font-size: 40px"";>&ensp;</p>","-","viewing","0","10","2C,16C,22B,28A","","","","","","","","","","","","","","","","","","",""
"","","","","","html-slider-response","73","226686","0.0-17.0-1.18","0f6778e2-6340-4412-acd5-159d88da9370","1735","
                  <p style=""text-align: center;"">₪18
                                                <br>50%</p>
                  <p id=""wtp"" style=""text-align:center; margin-top: 0px; margin-bottom: 0px; font-size: 40px"";>מוכנים לשלם: <span id=""c_p_y""></span></p>","20","evaluation","21","10","2C,16C,22B,28A","50","18","20","","","","","","","","","","","","","","","",""
"","","","","","html-keyboard-response","74","227738","0.0-17.0-2.18","0f6778e2-6340-4412-acd5-159d88da9370","null","<p style=""text-align: center;"">+</p>","null","fixation","","","","","","","","","","","","","","","","","","","","","",""
"","","","","","html-slider-response","75","228754","0.0-17.0-0.19","0f6778e2-6340-4412-acd5-159d88da9370","1000","
                  <p style=""text-align: center;"">₪36
                                                <br>75%</p>
                  <p id=""wtp"" style=""text-align:center; margin-top: 0px; margin-bottom: 0px; font-size: 40px"";>&ensp;</p>","-","viewing","0","14","4B,5A,13B,16B","","","","","","","","","","","","","","","","","","",""
"","","","","","html-slider-response","76","230854","0.0-17.0-1.19","0f6778e2-6340-4412-acd5-159d88da9370","2099","
                  <p style=""text-align: center;"">₪36
                                                <br>75%</p>
                  <p id=""wtp"" style=""text-align:center; margin-top: 0px; margin-bottom: 0px; font-size: 40px"";>מוכנים לשלם: <span id=""c_p_y""></span></p>","55","evaluation","40","14","4B,5A,13B,16B","75","36","55","","","","","","","","","","","","","","","",""
"","","","","","html-keyboard-response","77","231923","0.0-17.0-2.19","0f6778e2-6340-4412-acd5-159d88da9370","null","<p style=""text-align: center;"">+</p>","null","fixation","","","","","","","","","","","","","","","","","","","","","",""
"","","","","","html-slider-response","78","232925","0.0-17.0-0.20","0f6778e2-6340-4412-acd5-159d88da9370","1000","
                  <p style=""text-align: center;"">₪71
                                                <br>75%</p>
                  <p id=""wtp"" style=""text-align:center; margin-top: 0px; margin-bottom: 0px; font-size: 40px"";>&ensp;</p>","-","viewing","0","28","8B","","","","","","","","","","","","","","","","","","",""
"","","","","","html-slider-response","79","235126","0.0-17.0-1.20","0f6778e2-6340-4412-acd5-159d88da9370","2200","
                  <p style=""text-align: center;"">₪71
                                                <br>75%</p>
                  <p id=""wtp"" style=""text-align:center; margin-top: 0px; margin-bottom: 0px; font-size: 40px"";>מוכנים לשלם: <span id=""c_p_y""></span></p>","71","evaluation","34","28","8B","75","71","71","","","","","","","","","","","","","","","",""
"","","","","","html-keyboard-response","80","236264","0.0-17.0-2.20","0f6778e2-6340-4412-acd5-159d88da9370","null","<p style=""text-align: center;"">+</p>","null","fixation","","","","","","","","","","","","","","","","","","","","","",""
"","","","","","html-slider-response","81","237271","0.0-17.0-0.21","0f6778e2-6340-4412-acd5-159d88da9370","1000","
                  <p style=""text-align: center;"">₪76
                                                <br>65%</p>
                  <p id=""wtp"" style=""text-align:center; margin-top: 0px; margin-bottom: 0px; font-size: 40px"";>&ensp;</p>","-","viewing","0","29","8C,19A,24B","","","","","","","","","","","","","","","","","","",""
"","","","","","html-slider-response","82","238790","0.0-17.0-1.21","0f6778e2-6340-4412-acd5-159d88da9370","1518","
                  <p style=""text-align: center;"">₪76
                                                <br>65%</p>
                  <p id=""wtp"" style=""text-align:center; margin-top: 0px; margin-bottom: 0px; font-size: 40px"";>מוכנים לשלם: <span id=""c_p_y""></span></p>","71","evaluation","78","29","8C,19A,24B","65","76","70","","","","","","","","","","","","","","","",""
"","","","","","html-keyboard-response","83","239397","0.0-17.0-2.21","0f6778e2-6340-4412-acd5-159d88da9370","null","<p style=""text-align: center;"">+</p>","null","fixation","","","","","","","","","","","","","","","","","","","","","",""
"","","","","","html-slider-response","84","240402","0.0-17.0-0.22","0f6778e2-6340-4412-acd5-159d88da9370","1000","
                  <p style=""text-align: center;"">₪4
                                                <br>50%</p>
                  <p id=""wtp"" style=""text-align:center; margin-top: 0px; margin-bottom: 0px; font-size: 40px"";>&ensp;</p>","-","viewing","0","2","4C,17B","","","","","","","","","","","","","","","","","","",""
"","","","","","html-slider-response","85","242806","0.0-17.0-1.22","0f6778e2-6340-4412-acd5-159d88da9370","2403","
                  <p style=""text-align: center;"">₪4
                                                <br>50%</p>
                  <p id=""wtp"" style=""text-align:center; margin-top: 0px; margin-bottom: 0px; font-size: 40px"";>מוכנים לשלם: <span id=""c_p_y""></span></p>","60","evaluation","69","2","4C,17B","50","4","60","","","","","","","","","","","","","","","",""
"","","","","","html-keyboard-response","86","244028","0.0-17.0-2.22","0f6778e2-6340-4412-acd5-159d88da9370","null","<p style=""text-align: center;"">+</p>","null","fixation","","","","","","","","","","","","","","","","","","","","","",""
"","","","","","html-slider-response","87","245030","0.0-17.0-0.23","0f6778e2-6340-4412-acd5-159d88da9370","1000","
                  <p style=""text-align: center;"">₪64
                                                <br>50%</p>
                  <p id=""wtp"" style=""text-align:center; margin-top: 0px; margin-bottom: 0px; font-size: 40px"";>&ensp;</p>","-","viewing","0","25","1B,3B,4A","","","","","","","","","","","","","","","","","","",""
"","","","","","html-slider-response","88","246094","0.0-17.0-1.23","0f6778e2-6340-4412-acd5-159d88da9370","1063","
                  <p style=""text-align: center;"">₪64
                                                <br>50%</p>
                  <p id=""wtp"" style=""text-align:center; margin-top: 0px; margin-bottom: 0px; font-size: 40px"";>מוכנים לשלם: <span id=""c_p_y""></span></p>","65","evaluation","79","25","1B,3B,4A","50","64","65","","","","","","","","","","","","","","","",""
"","","","","","html-keyboard-response","89","246920","0.0-17.0-2.23","0f6778e2-6340-4412-acd5-159d88da9370","null","<p style=""text-align: center;"">+</p>","null","fixation","","","","","","","","","","","","","","","","","","","","","",""
"","","","","","html-slider-response","90","247927","0.0-17.0-0.24","0f6778e2-6340-4412-acd5-159d88da9370","1000","
                  <p style=""text-align: center;"">₪36
                                                <br>60%</p>
                  <p id=""wtp"" style=""text-align:center; margin-top: 0px; margin-bottom: 0px; font-size: 40px"";>&ensp;</p>","-","viewing","0","12","1C,7C,15C","","","","","","","","","","","","","","","","","","",""
"","","","","","html-slider-response","91","249630","0.0-17.0-1.24","0f6778e2-6340-4412-acd5-159d88da9370","1702","
                  <p style=""text-align: center;"">₪36
                                                <br>60%</p>
                  <p id=""wtp"" style=""text-align:center; margin-top: 0px; margin-bottom: 0px; font-size: 40px"";>מוכנים לשלם: <span id=""c_p_y""></span></p>","40","evaluation","60","12","1C,7C,15C","60","36","40","","","","","","","","","","","","","","","",""
"","","","","","html-keyboard-response","92","250463","0.0-17.0-2.24","0f6778e2-6340-4412-acd5-159d88da9370","null","<p style=""text-align: center;"">+</p>","null","fixation","","","","","","","","","","","","","","","","","","","","","",""
"","","","","","html-slider-response","93","251470","0.0-17.0-0.25","0f6778e2-6340-4412-acd5-159d88da9370","1000","
                  <p style=""text-align: center;"">₪61
                                                <br>45%</p>
                  <p id=""wtp"" style=""text-align:center; margin-top: 0px; margin-bottom: 0px; font-size: 40px"";>&ensp;</p>","-","viewing","0","22","10A,11A","","","","","","","","","","","","","","","","","","",""
"","","","","","html-slider-response","94","254143","0.0-17.0-1.25","0f6778e2-6340-4412-acd5-159d88da9370","2671","
                  <p style=""text-align: center;"">₪61
                                                <br>45%</p>
                  <p id=""wtp"" style=""text-align:center; margin-top: 0px; margin-bottom: 0px; font-size: 40px"";>מוכנים לשלם: <span id=""c_p_y""></span></p>","37","evaluation","76","22","10A,11A","45","61","37","","","","","","","","","","","","","","","",""
"","","","","","html-keyboard-response","95","255428","0.0-17.0-2.25","0f6778e2-6340-4412-acd5-159d88da9370","null","<p style=""text-align: center;"">+</p>","null","fixation","","","","","","","","","","","","","","","","","","","","","",""
"","","","","","html-slider-response","96","256441","0.0-17.0-0.26","0f6778e2-6340-4412-acd5-159d88da9370","1000","
                  <p style=""text-align: center;"">₪11
                                                <br>25%</p>
                  <p id=""wtp"" style=""text-align:center; margin-top: 0px; margin-bottom: 0px; font-size: 40px"";>&ensp;</p>","-","viewing","0","5","12A,27B,28B,30B","","","","","","","","","","","","","","","","","","",""
"","","","","","html-slider-response","97","257631","0.0-17.0-1.26","0f6778e2-6340-4412-acd5-159d88da9370","1188","
                  <p style=""text-align: center;"">₪11
                                                <br>25%</p>
                  <p id=""wtp"" style=""text-align:center; margin-top: 0px; margin-bottom: 0px; font-size: 40px"";>מוכנים לשלם: <span id=""c_p_y""></span></p>","3","evaluation","22","5","12A,27B,28B,30B","25","11","3","","","","","","","","","","","","","","","",""
"","","","","","html-keyboard-response","98","258935","0.0-17.0-2.26","0f6778e2-6340-4412-acd5-159d88da9370","null","<p style=""text-align: center;"">+</p>","null","fixation","","","","","","","","","","","","","","","","","","","","","",""
"","","","","","html-slider-response","99","259941","0.0-17.0-0.27","0f6778e2-6340-4412-acd5-159d88da9370","1000","
                  <p style=""text-align: center;"">₪61
                                                <br>55%</p>
                  <p id=""wtp"" style=""text-align:center; margin-top: 0px; margin-bottom: 0px; font-size: 40px"";>&ensp;</p>","-","viewing","0","23","7B,26B","","","","","","","","","","","","","","","","","","",""
"","","","","","html-slider-response","100","261407","0.0-17.0-1.27","0f6778e2-6340-4412-acd5-159d88da9370","1464","
                  <p style=""text-align: center;"">₪61
                                                <br>55%</p>
                  <p id=""wtp"" style=""text-align:center; margin-top: 0px; margin-bottom: 0px; font-size: 40px"";>מוכנים לשלם: <span id=""c_p_y""></span></p>","60","evaluation","80","23","7B,26B","55","61","60","","","","","","","","","","","","","","","",""
"","","","","","html-keyboard-response","101","262551","0.0-17.0-2.27","0f6778e2-6340-4412-acd5-159d88da9370","null","<p style=""text-align: center;"">+</p>","null","fixation","","","","","","","","","","","","","","","","","","","","","",""
"","","","","","html-slider-response","102","263566","0.0-17.0-0.28","0f6778e2-6340-4412-acd5-159d88da9370","1000","
                  <p style=""text-align: center;"">₪11
                                                <br>75%</p>
                  <p id=""wtp"" style=""text-align:center; margin-top: 0px; margin-bottom: 0px; font-size: 40px"";>&ensp;</p>","-","viewing","0","7","6B,18B,22C,24C,29A","","","","","","","","","","","","","","","","","","",""
"","","","","","html-slider-response","103","266095","0.0-17.0-1.28","0f6778e2-6340-4412-acd5-159d88da9370","2528","
                  <p style=""text-align: center;"">₪11
                                                <br>75%</p>
                  <p id=""wtp"" style=""text-align:center; margin-top: 0px; margin-bottom: 0px; font-size: 40px"";>מוכנים לשלם: <span id=""c_p_y""></span></p>","27","evaluation","13","7","6B,18B,22C,24C,29A","75","11","27","","","","","","","","","","","","","","","",""
"","","","","","html-keyboard-response","104","266652","0.0-17.0-2.28","0f6778e2-6340-4412-acd5-159d88da9370","null","<p style=""text-align: center;"">+</p>","null","fixation","","","","","","","","","","","","","","","","","","","","","",""
"","","","","","html-slider-response","105","267659","0.0-17.0-0.29","0f6778e2-6340-4412-acd5-159d88da9370","1000","
                  <p style=""text-align: center;"">₪58
                                                <br>30%</p>
                  <p id=""wtp"" style=""text-align:center; margin-top: 0px; margin-bottom: 0px; font-size: 40px"";>&ensp;</p>","-","viewing","0","19","13C,30A","","","","","","","","","","","","","","","","","","",""
"","","","","","html-slider-response","106","270399","0.0-17.0-1.29","0f6778e2-6340-4412-acd5-159d88da9370","2738","
                  <p style=""text-align: center;"">₪58
                                                <br>30%</p>
                  <p id=""wtp"" style=""text-align:center; margin-top: 0px; margin-bottom: 0px; font-size: 40px"";>מוכנים לשלם: <span id=""c_p_y""></span></p>","28","evaluation","56","19","13C,30A","30","58","28","","","","","","","","","","","","","","","",""
"","","","","","html-keyboard-response","107","271464","0.0-17.0-2.29","0f6778e2-6340-4412-acd5-159d88da9370","null","<p style=""text-align: center;"">+</p>","null","fixation","","","","","","","","","","","","","","","","","","","","","",""
"","","","","","html-slider-response","108","272470","0.0-17.0-0.30","0f6778e2-6340-4412-acd5-159d88da9370","1000","
                  <p style=""text-align: center;"">₪64
                                                <br>25%</p>
                  <p id=""wtp"" style=""text-align:center; margin-top: 0px; margin-bottom: 0px; font-size: 40px"";>&ensp;</p>","-","viewing","0","24","6A,21A","","","","","","","","","","","","","","","","","","",""
"","","","","","html-slider-response","109","274983","0.0-17.0-1.30","0f6778e2-6340-4412-acd5-159d88da9370","2512","
                  <p style=""text-align: center;"">₪64
                                                <br>25%</p>
                  <p id=""wtp"" style=""text-align:center; margin-top: 0px; margin-bottom: 0px; font-size: 40px"";>מוכנים לשלם: <span id=""c_p_y""></span></p>","39","evaluation","64","24","6A,21A","25","64","39","","","","","","","","","","","","","","","",""
"","","","","","html-keyboard-response","110","275895","0.0-17.0-2.30","0f6778e2-6340-4412-acd5-159d88da9370","null","<p style=""text-align: center;"">+</p>","null","fixation","","","","","","","","","","","","","","","","","","","","","",""
"","","","","","html-keyboard-response","111","276904","0.0-18.0","0f6778e2-6340-4412-acd5-159d88da9370","null","<p style=""text-align: center;"">+</p>","null","fixation","","","","","","","","","","","","","","","","","","","","","",""
"","","","","","html-keyboard-response","112","279023","0.0-19.0","0f6778e2-6340-4412-acd5-159d88da9370","null","<p>הפסקה.
          <br>לחצו כדי להמשיך.</p>","1","scan_wait","","","","","","","","","","","","","","","","","","","","","",""
"","","","","","html-keyboard-response","113","280038","0.0-20.0","0f6778e2-6340-4412-acd5-159d88da9370","null","<p style=""text-align: center;"">+</p>","null","fixation","","","","","","","","","","","","","","","","","","","","","",""
"","","","","","html-slider-response","114","281050","0.0-21.0-0.0","0f6778e2-6340-4412-acd5-159d88da9370","1000","
                  <p style=""text-align: center;"">₪43
                                                <br>60%</p>
                  <p id=""wtp"" style=""text-align:center; margin-top: 0px; margin-bottom: 0px; font-size: 40px"";>&ensp;</p>","-","viewing","0","17","2A,7A,9A,15B","","","","","","","","","","","","","","","","","","",""
"","","","","","html-slider-response","115","282439","0.0-21.0-1.0","0f6778e2-6340-4412-acd5-159d88da9370","1388","
                  <p style=""text-align: center;"">₪43
                                                <br>60%</p>
                  <p id=""wtp"" style=""text-align:center; margin-top: 0px; margin-bottom: 0px; font-size: 40px"";>מוכנים לשלם: <span id=""c_p_y""></span></p>","51","evaluation","0","17","2A,7A,9A,15B","60","43","51","","","","","","","","","","","","","","","",""
"","","","","","html-keyboard-response","116","283802","0.0-21.0-2.0","0f6778e2-6340-4412-acd5-159d88da9370","null","<p style=""text-align: center;"">+</p>","null","fixation","","","","","","","","","","","","","","","","","","","","","",""
"","","","","","html-slider-response","117","284813","0.0-21.0-0.1","0f6778e2-6340-4412-acd5-159d88da9370","1000","
                  <p style=""text-align: center;"">₪79
                                                <br>40%</p>
                  <p id=""wtp"" style=""text-align:center; margin-top: 0px; margin-bottom: 0px; font-size: 40px"";>&ensp;</p>","-","viewing","0","30","9B","","","","","","","","","","","","","","","","","","",""
"","","","","","html-slider-response","118","285455","0.0-21.0-1.1","0f6778e2-6340-4412-acd5-159d88da9370","640","
                  <p style=""text-align: center;"">₪79
                                                <br>40%</p>
                  <p id=""wtp"" style=""text-align:center; margin-top: 0px; margin-bottom: 0px; font-size: 40px"";>מוכנים לשלם: <span id=""c_p_y""></span></p>","33","evaluation","13","30","9B","40","79","33","","","","","","","","","","","","","","","",""
"","","","","","html-keyboard-response","119","286519","0.0-21.0-2.1","0f6778e2-6340-4412-acd5-159d88da9370","null","<p style=""text-align: center;"">+</p>","null","fixation","","","","","","","","","","","","","","","","","","","","","",""
"","","","","","html-slider-response","120","287536","0.0-21.0-0.2","0f6778e2-6340-4412-acd5-159d88da9370","1000","
                  <p style=""text-align: center;"">₪43
                                                <br>75%</p>
                  <p id=""wtp"" style=""text-align:center; margin-top: 0px; margin-bottom: 0px; font-size: 40px"";>&ensp;</p>","-","viewing","0","18","11B,19B,24A,26A","","","","","","","","","","","","","","","","","","",""
"","","","","","html-slider-response","121","288655","0.0-21.0-1.2","0f6778e2-6340-4412-acd5-159d88da9370","1118","
                  <p style=""text-align: center;"">₪43
                                                <br>75%</p>
                  <p id=""wtp"" style=""text-align:center; margin-top: 0px; margin-bottom: 0px; font-size: 40px"";>מוכנים לשלם: <span id=""c_p_y""></span></p>","62","evaluation","20","18","11B,19B,24A,26A","75","43","62","","","","","","","","","","","","","","","",""
"","","","","","html-keyboard-response","122","289248","0.0-21.0-2.2","0f6778e2-6340-4412-acd5-159d88da9370","null","<p style=""text-align: center;"">+</p>","null","fixation","","","","","","","","","","","","","","","","","","","","","",""
"","","","","","html-slider-response","123","290252","0.0-21.0-0.3","0f6778e2-6340-4412-acd5-159d88da9370","1000","
                  <p style=""text-align: center;"">₪71
                                                <br>45%</p>
                  <p id=""wtp"" style=""text-align:center; margin-top: 0px; margin-bottom: 0px; font-size: 40px"";>&ensp;</p>","-","viewing","0","26","2B,16A","","","","","","","","","","","","","","","","","","",""
"","","","","","html-slider-response","124","291687","0.0-21.0-1.3","0f6778e2-6340-4412-acd5-159d88da9370","1433","
                  <p style=""text-align: center;"">₪71
                                                <br>45%</p>
                  <p id=""wtp"" style=""text-align:center; margin-top: 0px; margin-bottom: 0px; font-size: 40px"";>מוכנים לשלם: <span id=""c_p_y""></span></p>","49","evaluation","79","26","2B,16A","45","71","49","","","","","","","","","","","","","","","",""
"","","","","","html-keyboard-response","125","292647","0.0-21.0-2.3","0f6778e2-6340-4412-acd5-159d88da9370","null","<p style=""text-align: center;"">+</p>","null","fixation","","","","","","","","","","","","","","","","","","","","","",""
"","","","","","html-slider-response","126","293649","0.0-21.0-0.4","0f6778e2-6340-4412-acd5-159d88da9370","1000","
                  <p style=""text-align: center;"">₪16
                                                <br>20%</p>
                  <p id=""wtp"" style=""text-align:center; margin-top: 0px; margin-bottom: 0px; font-size: 40px"";>&ensp;</p>","-","viewing","0","8","14C,17A,20C,27A","","","","","","","","","","","","","","","","","","",""
"","","","","","html-slider-response","127","294439","0.0-21.0-1.4","0f6778e2-6340-4412-acd5-159d88da9370","789","
                  <p style=""text-align: center;"">₪16
                                                <br>20%</p>
                  <p id=""wtp"" style=""text-align:center; margin-top: 0px; margin-bottom: 0px; font-size: 40px"";>מוכנים לשלם: <span id=""c_p_y""></span></p>","16","evaluation","10","8","14C,17A,20C,27A","20","16","16","","","","","","","","","","","","","","","",""
"","","","","","html-keyboard-response","128","295050","0.0-21.0-2.4","0f6778e2-6340-4412-acd5-159d88da9370","null","<p style=""text-align: center;"">+</p>","null","fixation","","","","","","","","","","","","","","","","","","","","","",""
"","","","","","html-slider-response","129","296060","0.0-21.0-0.5","0f6778e2-6340-4412-acd5-159d88da9370","1000","
                  <p style=""text-align: center;"">₪58
                                                <br>40%</p>
                  <p id=""wtp"" style=""text-align:center; margin-top: 0px; margin-bottom: 0px; font-size: 40px"";>&ensp;</p>","-","viewing","0","20","10C,13A,19C,21B","","","","","","","","","","","","","","","","","","",""
"","","","","","html-slider-response","130","297055","0.0-21.0-1.5","0f6778e2-6340-4412-acd5-159d88da9370","994","
                  <p style=""text-align: center;"">₪58
                                                <br>40%</p>
                  <p id=""wtp"" style=""text-align:center; margin-top: 0px; margin-bottom: 0px; font-size: 40px"";>מוכנים לשלם: <span id=""c_p_y""></span></p>","33","evaluation","34","20","10C,13A,19C,21B","40","58","33","","","","","","","","","","","","","","","",""
"","","","","","html-keyboard-response","131","297843","0.0-21.0-2.5","0f6778e2-6340-4412-acd5-159d88da9370","null","<p style=""text-align: center;"">+</p>","null","fixation","","","","","","","","","","","","","","","","","","","","","",""
"","","","","","html-slider-response","132","298848","0.0-21.0-0.6","0f6778e2-6340-4412-acd5-159d88da9370","1000","
                  <p style=""text-align: center;"">₪61
                                                <br>45%</p>
                  <p id=""wtp"" style=""text-align:center; margin-top: 0px; margin-bottom: 0px; font-size: 40px"";>&ensp;</p>","-","viewing","0","22","10A,11A","","","","","","","","","","","","","","","","","","",""
"","","","","","html-slider-response","133","299871","0.0-21.0-1.6","0f6778e2-6340-4412-acd5-159d88da9370","1022","
                  <p style=""text-align: center;"">₪61
                                                <br>45%</p>
                  <p id=""wtp"" style=""text-align:center; margin-top: 0px; margin-bottom: 0px; font-size: 40px"";>מוכנים לשלם: <span id=""c_p_y""></span></p>","40","evaluation","68","22","10A,11A","45","61","40","","","","","","","","","","","","","","","",""
"","","","","","html-keyboard-response","134","300816","0.0-21.0-2.6","0f6778e2-6340-4412-acd5-159d88da9370","null","<p style=""text-align: center;"">+</p>","null","fixation","","","","","","","","","","","","","","","","","","","","","",""
"","","","","","html-slider-response","135","301818","0.0-21.0-0.7","0f6778e2-6340-4412-acd5-159d88da9370","1000","
                  <p style=""text-align: center;"">₪39
                                                <br>65%</p>
                  <p id=""wtp"" style=""text-align:center; margin-top: 0px; margin-bottom: 0px; font-size: 40px"";>&ensp;</p>","-","viewing","0","16","1A,15A,26C","","","","","","","","","","","","","","","","","","",""
"","","","","","html-slider-response","136","302791","0.0-21.0-1.7","0f6778e2-6340-4412-acd5-159d88da9370","972","
                  <p style=""text-align: center;"">₪39
                                                <br>65%</p>
                  <p id=""wtp"" style=""text-align:center; margin-top: 0px; margin-bottom: 0px; font-size: 40px"";>מוכנים לשלם: <span id=""c_p_y""></span></p>","67","evaluation","38","16","1A,15A,26C","65","39","66","","","","","","","","","","","","","","","",""
"","","","","","html-keyboard-response","137","304164","0.0-21.0-2.7","0f6778e2-6340-4412-acd5-159d88da9370","null","<p style=""text-align: center;"">+</p>","null","fixation","","","","","","","","","","","","","","","","","","","","","",""
"","","","","","html-slider-response","138","305166","0.0-21.0-0.8","0f6778e2-6340-4412-acd5-159d88da9370","1000","
                  <p style=""text-align: center;"">₪36
                                                <br>60%</p>
                  <p id=""wtp"" style=""text-align:center; margin-top: 0px; margin-bottom: 0px; font-size: 40px"";>&ensp;</p>","-","viewing","0","12","1C,7C,15C","","","","","","","","","","","","","","","","","","",""
"","","","","","html-slider-response","139","306359","0.0-21.0-1.8","0f6778e2-6340-4412-acd5-159d88da9370","1192","
                  <p style=""text-align: center;"">₪36
                                                <br>60%</p>
                  <p id=""wtp"" style=""text-align:center; margin-top: 0px; margin-bottom: 0px; font-size: 40px"";>מוכנים לשלם: <span id=""c_p_y""></span></p>","60","evaluation","71","12","1C,7C,15C","60","36","60","","","","","","","","","","","","","","","",""
"","","","","","html-keyboard-response","140","307434","0.0-21.0-2.8","0f6778e2-6340-4412-acd5-159d88da9370","null","<p style=""text-align: center;"">+</p>","null","fixation","","","","","","","","","","","","","","","","","","","","","",""
"","","","","","html-slider-response","141","308448","0.0-21.0-0.9","0f6778e2-6340-4412-acd5-159d88da9370","1000","
                  <p style=""text-align: center;"">₪36
                                                <br>70%</p>
                  <p id=""wtp"" style=""text-align:center; margin-top: 0px; margin-bottom: 0px; font-size: 40px"";>&ensp;</p>","-","viewing","0","13","3A,5C,10B","","","","","","","","","","","","","","","","","","",""
"","","","","","html-slider-response","142","310863","0.0-21.0-1.9","0f6778e2-6340-4412-acd5-159d88da9370","2414","
                  <p style=""text-align: center;"">₪36
                                                <br>70%</p>
                  <p id=""wtp"" style=""text-align:center; margin-top: 0px; margin-bottom: 0px; font-size: 40px"";>מוכנים לשלם: <span id=""c_p_y""></span></p>","62","evaluation","19","13","3A,5C,10B","70","36","62","","","","","","","","","","","","","","","",""
"","","","","","html-keyboard-response","143","312108","0.0-21.0-2.9","0f6778e2-6340-4412-acd5-159d88da9370","null","<p style=""text-align: center;"">+</p>","null","fixation","","","","","","","","","","","","","","","","","","","","","",""
"","","","","","html-slider-response","144","313115","0.0-21.0-0.10","0f6778e2-6340-4412-acd5-159d88da9370","1000","
                  <p style=""text-align: center;"">₪18
                                                <br>50%</p>
                  <p id=""wtp"" style=""text-align:center; margin-top: 0px; margin-bottom: 0px; font-size: 40px"";>&ensp;</p>","-","viewing","0","10","2C,16C,22B,28A","","","","","","","","","","","","","","","","","","",""
"","","","","","html-slider-response","145","314799","0.0-21.0-1.10","0f6778e2-6340-4412-acd5-159d88da9370","1683","
                  <p style=""text-align: center;"">₪18
                                                <br>50%</p>
                  <p id=""wtp"" style=""text-align:center; margin-top: 0px; margin-bottom: 0px; font-size: 40px"";>מוכנים לשלם: <span id=""c_p_y""></span></p>","20","evaluation","36","10","2C,16C,22B,28A","50","18","20","","","","","","","","","","","","","","","",""
"","","","","","html-keyboard-response","146","315547","0.0-21.0-2.10","0f6778e2-6340-4412-acd5-159d88da9370","null","<p style=""text-align: center;"">+</p>","null","fixation","","","","","","","","","","","","","","","","","","","","","",""
"","","","","","html-slider-response","147","316552","0.0-21.0-0.11","0f6778e2-6340-4412-acd5-159d88da9370","1000","
                  <p style=""text-align: center;"">₪36
                                                <br>75%</p>
                  <p id=""wtp"" style=""text-align:center; margin-top: 0px; margin-bottom: 0px; font-size: 40px"";>&ensp;</p>","-","viewing","0","14","4B,5A,13B,16B","","","","","","","","","","","","","","","","","","",""
"","","","","","html-slider-response","148","317919","0.0-21.0-1.11","0f6778e2-6340-4412-acd5-159d88da9370","1367","
                  <p style=""text-align: center;"">₪36
                                                <br>75%</p>
                  <p id=""wtp"" style=""text-align:center; margin-top: 0px; margin-bottom: 0px; font-size: 40px"";>מוכנים לשלם: <span id=""c_p_y""></span></p>","56","evaluation","60","14","4B,5A,13B,16B","75","36","56","","","","","","","","","","","","","","","",""
"","","","","","html-keyboard-response","149","319074","0.0-21.0-2.11","0f6778e2-6340-4412-acd5-159d88da9370","null","<p style=""text-align: center;"">+</p>","null","fixation","","","","","","","","","","","","","","","","","","","","","",""
"","","","","","html-slider-response","150","320084","0.0-21.0-0.12","0f6778e2-6340-4412-acd5-159d88da9370","1000","
                  <p style=""text-align: center;"">₪58
                                                <br>30%</p>
                  <p id=""wtp"" style=""text-align:center; margin-top: 0px; margin-bottom: 0px; font-size: 40px"";>&ensp;</p>","-","viewing","0","19","13C,30A","","","","","","","","","","","","","","","","","","",""
"","","","","","html-slider-response","151","320887","0.0-21.0-1.12","0f6778e2-6340-4412-acd5-159d88da9370","801","
                  <p style=""text-align: center;"">₪58
                                                <br>30%</p>
                  <p id=""wtp"" style=""text-align:center; margin-top: 0px; margin-bottom: 0px; font-size: 40px"";>מוכנים לשלם: <span id=""c_p_y""></span></p>","29","evaluation","40","19","13C,30A","30","58","29","","","","","","","","","","","","","","","",""
"","","","","","html-keyboard-response","152","321466","0.0-21.0-2.12","0f6778e2-6340-4412-acd5-159d88da9370","null","<p style=""text-align: center;"">+</p>","null","fixation","","","","","","","","","","","","","","","","","","","","","",""
"","","","","","html-slider-response","153","322468","0.0-21.0-0.13","0f6778e2-6340-4412-acd5-159d88da9370","1000","
                  <p style=""text-align: center;"">₪39
                                                <br>60%</p>
                  <p id=""wtp"" style=""text-align:center; margin-top: 0px; margin-bottom: 0px; font-size: 40px"";>&ensp;</p>","-","viewing","0","15","9C,25B","","","","","","","","","","","","","","","","","","",""
"","","","","","html-slider-response","154","323351","0.0-21.0-1.13","0f6778e2-6340-4412-acd5-159d88da9370","882","
                  <p style=""text-align: center;"">₪39
                                                <br>60%</p>
                  <p id=""wtp"" style=""text-align:center; margin-top: 0px; margin-bottom: 0px; font-size: 40px"";>מוכנים לשלם: <span id=""c_p_y""></span></p>","41","evaluation","62","15","9C,25B","60","39","41","","","","","","","","","","","","","","","",""
"","","","","","html-keyboard-response","155","324725","0.0-21.0-2.13","0f6778e2-6340-4412-acd5-159d88da9370","null","<p style=""text-align: center;"">+</p>","null","fixation","","","","","","","","","","","","","","","","","","","","","",""
"","","","","","html-slider-response","156","325735","0.0-21.0-0.14","0f6778e2-6340-4412-acd5-159d88da9370","1000","
                  <p style=""text-align: center;"">₪79
                                                <br>65%</p>
                  <p id=""wtp"" style=""text-align:center; margin-top: 0px; margin-bottom: 0px; font-size: 40px"";>&ensp;</p>","-","viewing","0","31","8A","","","","","","","","","","","","","","","","","","",""
"","","","","","html-slider-response","157","327071","0.0-21.0-1.14","0f6778e2-6340-4412-acd5-159d88da9370","1335","
                  <p style=""text-align: center;"">₪79
                                                <br>65%</p>
                  <p id=""wtp"" style=""text-align:center; margin-top: 0px; margin-bottom: 0px; font-size: 40px"";>מוכנים לשלם: <span id=""c_p_y""></span></p>","77","evaluation","13","31","8A","65","79","76","","","","","","","","","","","","","","","",""
"","","","","","html-keyboard-response","158","328116","0.0-21.0-2.14","0f6778e2-6340-4412-acd5-159d88da9370","null","<p style=""text-align: center;"">+</p>","null","fixation","","","","","","","","","","","","","","","","","","","","","",""
"","","","","","html-slider-response","159","329120","0.0-21.0-0.15","0f6778e2-6340-4412-acd5-159d88da9370","1000","
                  <p style=""text-align: center;"">₪4
                                                <br>50%</p>
                  <p id=""wtp"" style=""text-align:center; margin-top: 0px; margin-bottom: 0px; font-size: 40px"";>&ensp;</p>","-","viewing","0","2","4C,17B","","","","","","","","","","","","","","","","","","",""
"","","","","","html-slider-response","160","330383","0.0-21.0-1.15","0f6778e2-6340-4412-acd5-159d88da9370","1261","
                  <p style=""text-align: center;"">₪4
                                                <br>50%</p>
                  <p id=""wtp"" style=""text-align:center; margin-top: 0px; margin-bottom: 0px; font-size: 40px"";>מוכנים לשלם: <span id=""c_p_y""></span></p>","11","evaluation","15","2","4C,17B","50","4","11","","","","","","","","","","","","","","","",""
"","","","","","html-keyboard-response","161","331458","0.0-21.0-2.15","0f6778e2-6340-4412-acd5-159d88da9370","null","<p style=""text-align: center;"">+</p>","null","fixation","","","","","","","","","","","","","","","","","","","","","",""
"","","","","","html-slider-response","162","332461","0.0-21.0-0.16","0f6778e2-6340-4412-acd5-159d88da9370","1000","
                  <p style=""text-align: center;"">₪11
                                                <br>75%</p>
                  <p id=""wtp"" style=""text-align:center; margin-top: 0px; margin-bottom: 0px; font-size: 40px"";>&ensp;</p>","-","viewing","0","7","6B,18B,22C,24C,29A","","","","","","","","","","","","","","","","","","",""
"","","","","","html-slider-response","163","334959","0.0-21.0-1.16","0f6778e2-6340-4412-acd5-159d88da9370","2497","
                  <p style=""text-align: center;"">₪11
                                                <br>75%</p>
                  <p id=""wtp"" style=""text-align:center; margin-top: 0px; margin-bottom: 0px; font-size: 40px"";>מוכנים לשלם: <span id=""c_p_y""></span></p>","22","evaluation","5","7","6B,18B,22C,24C,29A","75","11","22","","","","","","","","","","","","","","","",""
"","","","","","html-keyboard-response","164","336250","0.0-21.0-2.16","0f6778e2-6340-4412-acd5-159d88da9370","null","<p style=""text-align: center;"">+</p>","null","fixation","","","","","","","","","","","","","","","","","","","","","",""
"","","","","","html-slider-response","165","337252","0.0-21.0-0.17","0f6778e2-6340-4412-acd5-159d88da9370","1000","
                  <p style=""text-align: center;"">₪76
                                                <br>65%</p>
                  <p id=""wtp"" style=""text-align:center; margin-top: 0px; margin-bottom: 0px; font-size: 40px"";>&ensp;</p>","-","viewing","0","29","8C,19A,24B","","","","","","","","","","","","","","","","","","",""
"","","","","","html-slider-response","166","338303","0.0-21.0-1.17","0f6778e2-6340-4412-acd5-159d88da9370","1050","
                  <p style=""text-align: center;"">₪76
                                                <br>65%</p>
                  <p id=""wtp"" style=""text-align:center; margin-top: 0px; margin-bottom: 0px; font-size: 40px"";>מוכנים לשלם: <span id=""c_p_y""></span></p>","60","evaluation","57","29","8C,19A,24B","65","76","60","","","","","","","","","","","","","","","",""
"","","","","","html-keyboard-response","167","339149","0.0-21.0-2.17","0f6778e2-6340-4412-acd5-159d88da9370","null","<p style=""text-align: center;"">+</p>","null","fixation","","","","","","","","","","","","","","","","","","","","","",""
"","","","","","html-slider-response","168","340159","0.0-21.0-0.18","0f6778e2-6340-4412-acd5-159d88da9370","1000","
                  <p style=""text-align: center;"">₪64
                                                <br>50%</p>
                  <p id=""wtp"" style=""text-align:center; margin-top: 0px; margin-bottom: 0px; font-size: 40px"";>&ensp;</p>","-","viewing","0","25","1B,3B,4A","","","","","","","","","","","","","","","","","","",""
"","","","","","html-slider-response","169","341711","0.0-21.0-1.18","0f6778e2-6340-4412-acd5-159d88da9370","1551","
                  <p style=""text-align: center;"">₪64
                                                <br>50%</p>
                  <p id=""wtp"" style=""text-align:center; margin-top: 0px; margin-bottom: 0px; font-size: 40px"";>מוכנים לשלם: <span id=""c_p_y""></span></p>","54","evaluation","76","25","1B,3B,4A","50","64","54","","","","","","","","","","","","","","","",""
"","","","","","html-keyboard-response","170","342681","0.0-21.0-2.18","0f6778e2-6340-4412-acd5-159d88da9370","null","<p style=""text-align: center;"">+</p>","null","fixation","","","","","","","","","","","","","","","","","","","","","",""
"","","","","","html-slider-response","171","343685","0.0-21.0-0.19","0f6778e2-6340-4412-acd5-159d88da9370","1000","
                  <p style=""text-align: center;"">₪4
                                                <br>25%</p>
                  <p id=""wtp"" style=""text-align:center; margin-top: 0px; margin-bottom: 0px; font-size: 40px"";>&ensp;</p>","-","viewing","0","1","6C,29B,30C","","","","","","","","","","","","","","","","","","",""
"","","","","","html-slider-response","172","344271","0.0-21.0-1.19","0f6778e2-6340-4412-acd5-159d88da9370","585","
                  <p style=""text-align: center;"">₪4
                                                <br>25%</p>
                  <p id=""wtp"" style=""text-align:center; margin-top: 0px; margin-bottom: 0px; font-size: 40px"";>מוכנים לשלם: <span id=""c_p_y""></span></p>","11","evaluation","35","1","6C,29B,30C","25","4","11","","","","","","","","","","","","","","","",""
"","","","","","html-keyboard-response","173","345326","0.0-21.0-2.19","0f6778e2-6340-4412-acd5-159d88da9370","null","<p style=""text-align: center;"">+</p>","null","fixation","","","","","","","","","","","","","","","","","","","","","",""
"","","","","","html-slider-response","174","346334","0.0-21.0-0.20","0f6778e2-6340-4412-acd5-159d88da9370","1000","
                  <p style=""text-align: center;"">₪11
                                                <br>20%</p>
                  <p id=""wtp"" style=""text-align:center; margin-top: 0px; margin-bottom: 0px; font-size: 40px"";>&ensp;</p>","-","viewing","0","4","12C,17C,23C,28C","","","","","","","","","","","","","","","","","","",""
"","","","","","html-slider-response","175","347823","0.0-21.0-1.20","0f6778e2-6340-4412-acd5-159d88da9370","1487","
                  <p style=""text-align: center;"">₪11
                                                <br>20%</p>
                  <p id=""wtp"" style=""text-align:center; margin-top: 0px; margin-bottom: 0px; font-size: 40px"";>מוכנים לשלם: <span id=""c_p_y""></span></p>","13","evaluation","11","4","12C,17C,23C,28C","20","11","13","","","","","","","","","","","","","","","",""
"","","","","","html-keyboard-response","176","348765","0.0-21.0-2.20","0f6778e2-6340-4412-acd5-159d88da9370","null","<p style=""text-align: center;"">+</p>","null","fixation","","","","","","","","","","","","","","","","","","","","","",""
"","","","","","html-slider-response","177","349767","0.0-21.0-0.21","0f6778e2-6340-4412-acd5-159d88da9370","1000","
                  <p style=""text-align: center;"">₪18
                                                <br>25%</p>
                  <p id=""wtp"" style=""text-align:center; margin-top: 0px; margin-bottom: 0px; font-size: 40px"";>&ensp;</p>","-","viewing","0","9","14A,23A","","","","","","","","","","","","","","","","","","",""
"","","","","","html-slider-response","178","352311","0.0-21.0-1.21","0f6778e2-6340-4412-acd5-159d88da9370","2542","
                  <p style=""text-align: center;"">₪18
                                                <br>25%</p>
                  <p id=""wtp"" style=""text-align:center; margin-top: 0px; margin-bottom: 0px; font-size: 40px"";>מוכנים לשלם: <span id=""c_p_y""></span></p>","12","evaluation","2","9","14A,23A","25","18","12","","","","","","","","","","","","","","","",""
"","","","","","html-keyboard-response","179","353158","0.0-21.0-2.21","0f6778e2-6340-4412-acd5-159d88da9370","null","<p style=""text-align: center;"">+</p>","null","fixation","","","","","","","","","","","","","","","","","","","","","",""
"","","","","","html-slider-response","180","354163","0.0-21.0-0.22","0f6778e2-6340-4412-acd5-159d88da9370","1000","
                  <p style=""text-align: center;"">₪36
                                                <br>30%</p>
                  <p id=""wtp"" style=""text-align:center; margin-top: 0px; margin-bottom: 0px; font-size: 40px"";>&ensp;</p>","-","viewing","0","11","3C,20A,22A","","","","","","","","","","","","","","","","","","",""
"","","","","","html-slider-response","181","355519","0.0-21.0-1.22","0f6778e2-6340-4412-acd5-159d88da9370","1354","
                  <p style=""text-align: center;"">₪36
                                                <br>30%</p>
                  <p id=""wtp"" style=""text-align:center; margin-top: 0px; margin-bottom: 0px; font-size: 40px"";>מוכנים לשלם: <span id=""c_p_y""></span></p>","10","evaluation","23","11","3C,20A,22A","30","36","10","","","","","","","","","","","","","","","",""
"","","","","","html-keyboard-response","182","356867","0.0-21.0-2.22","0f6778e2-6340-4412-acd5-159d88da9370","null","<p style=""text-align: center;"">+</p>","null","fixation","","","","","","","","","","","","","","","","","","","","","",""
"","","","","","html-slider-response","183","357871","0.0-21.0-0.23","0f6778e2-6340-4412-acd5-159d88da9370","1000","
                  <p style=""text-align: center;"">₪71
                                                <br>75%</p>
                  <p id=""wtp"" style=""text-align:center; margin-top: 0px; margin-bottom: 0px; font-size: 40px"";>&ensp;</p>","-","viewing","0","28","8B","","","","","","","","","","","","","","","","","","",""
"","","","","","html-slider-response","184","359295","0.0-21.0-1.23","0f6778e2-6340-4412-acd5-159d88da9370","1423","
                  <p style=""text-align: center;"">₪71
                                                <br>75%</p>
                  <p id=""wtp"" style=""text-align:center; margin-top: 0px; margin-bottom: 0px; font-size: 40px"";>מוכנים לשלם: <span id=""c_p_y""></span></p>","71","evaluation","65","28","8B","75","71","71","","","","","","","","","","","","","","","",""
"","","","","","html-keyboard-response","185","360241","0.0-21.0-2.23","0f6778e2-6340-4412-acd5-159d88da9370","null","<p style=""text-align: center;"">+</p>","null","fixation","","","","","","","","","","","","","","","","","","","","","",""
"","","","","","html-slider-response","186","361253","0.0-21.0-0.24","0f6778e2-6340-4412-acd5-159d88da9370","1000","
                  <p style=""text-align: center;"">₪4
                                                <br>75%</p>
                  <p id=""wtp"" style=""text-align:center; margin-top: 0px; margin-bottom: 0px; font-size: 40px"";>&ensp;</p>","-","viewing","0","3","12B,20B,23B,27C,29C","","","","","","","","","","","","","","","","","","",""
"","","","","","html-slider-response","187","362640","0.0-21.0-1.24","0f6778e2-6340-4412-acd5-159d88da9370","1386","
                  <p style=""text-align: center;"">₪4
                                                <br>75%</p>
                  <p id=""wtp"" style=""text-align:center; margin-top: 0px; margin-bottom: 0px; font-size: 40px"";>מוכנים לשלם: <span id=""c_p_y""></span></p>","60","evaluation","63","3","12B,20B,23B,27C,29C","75","4","60","","","","","","","","","","","","","","","",""
"","","","","","html-keyboard-response","188","363553","0.0-21.0-2.24","0f6778e2-6340-4412-acd5-159d88da9370","null","<p style=""text-align: center;"">+</p>","null","fixation","","","","","","","","","","","","","","","","","","","","","",""
"","","","","","html-slider-response","189","364571","0.0-21.0-0.25","0f6778e2-6340-4412-acd5-159d88da9370","1000","
                  <p style=""text-align: center;"">₪11
                                                <br>45%</p>
                  <p id=""wtp"" style=""text-align:center; margin-top: 0px; margin-bottom: 0px; font-size: 40px"";>&ensp;</p>","-","viewing","0","6","14B,21C,25C","","","","","","","","","","","","","","","","","","",""
"","","","","","html-slider-response","190","365903","0.0-21.0-1.25","0f6778e2-6340-4412-acd5-159d88da9370","1331","
                  <p style=""text-align: center;"">₪11
                                                <br>45%</p>
                  <p id=""wtp"" style=""text-align:center; margin-top: 0px; margin-bottom: 0px; font-size: 40px"";>מוכנים לשלם: <span id=""c_p_y""></span></p>","9","evaluation","16","6","14B,21C,25C","45","11","9","","","","","","","","","","","","","","","",""
"","","","","","html-keyboard-response","191","367192","0.0-21.0-2.25","0f6778e2-6340-4412-acd5-159d88da9370","null","<p style=""text-align: center;"">+</p>","null","fixation","","","","","","","","","","","","","","","","","","","","","",""
"","","","","","html-slider-response","192","368199","0.0-21.0-0.26","0f6778e2-6340-4412-acd5-159d88da9370","1000","
                  <p style=""text-align: center;"">₪64
                                                <br>25%</p>
                  <p id=""wtp"" style=""text-align:center; margin-top: 0px; margin-bottom: 0px; font-size: 40px"";>&ensp;</p>","-","viewing","0","24","6A,21A","","","","","","","","","","","","","","","","","","",""
"","","","","","html-slider-response","193","370247","0.0-21.0-1.26","0f6778e2-6340-4412-acd5-159d88da9370","2046","
                  <p style=""text-align: center;"">₪64
                                                <br>25%</p>
                  <p id=""wtp"" style=""text-align:center; margin-top: 0px; margin-bottom: 0px; font-size: 40px"";>מוכנים לשלם: <span id=""c_p_y""></span></p>","24","evaluation","77","24","6A,21A","25","64","24","","","","","","","","","","","","","","","",""
"","","","","","html-keyboard-response","194","370837","0.0-21.0-2.26","0f6778e2-6340-4412-acd5-159d88da9370","null","<p style=""text-align: center;"">+</p>","null","fixation","","","","","","","","","","","","","","","","","","","","","",""
"","","","","","html-slider-response","195","371839","0.0-21.0-0.27","0f6778e2-6340-4412-acd5-159d88da9370","1000","
                  <p style=""text-align: center;"">₪71
                                                <br>55%</p>
                  <p id=""wtp"" style=""text-align:center; margin-top: 0px; margin-bottom: 0px; font-size: 40px"";>&ensp;</p>","-","viewing","0","27","5B,18A","","","","","","","","","","","","","","","","","","",""
"","","","","","html-slider-response","196","373759","0.0-21.0-1.27","0f6778e2-6340-4412-acd5-159d88da9370","1920","
                  <p style=""text-align: center;"">₪71
                                                <br>55%</p>
                  <p id=""wtp"" style=""text-align:center; margin-top: 0px; margin-bottom: 0px; font-size: 40px"";>מוכנים לשלם: <span id=""c_p_y""></span></p>","61","evaluation","54","27","5B,18A","55","71","61","","","","","","","","","","","","","","","",""
"","","","","","html-keyboard-response","197","375104","0.0-21.0-2.27","0f6778e2-6340-4412-acd5-159d88da9370","null","<p style=""text-align: center;"">+</p>","null","fixation","","","","","","","","","","","","","","","","","","","","","",""
"","","","","","html-slider-response","198","376106","0.0-21.0-0.28","0f6778e2-6340-4412-acd5-159d88da9370","1000","
                  <p style=""text-align: center;"">₪61
                                                <br>55%</p>
                  <p id=""wtp"" style=""text-align:center; margin-top: 0px; margin-bottom: 0px; font-size: 40px"";>&ensp;</p>","-","viewing","0","23","7B,26B","","","","","","","","","","","","","","","","","","",""
"","","","","","html-slider-response","199","376903","0.0-21.0-1.28","0f6778e2-6340-4412-acd5-159d88da9370","796","
                  <p style=""text-align: center;"">₪61
                                                <br>55%</p>
                  <p id=""wtp"" style=""text-align:center; margin-top: 0px; margin-bottom: 0px; font-size: 40px"";>מוכנים לשלם: <span id=""c_p_y""></span></p>","46","evaluation","6","23","7B,26B","55","61","46","","","","","","","","","","","","","","","",""
"","","","","","html-keyboard-response","200","378398","0.0-21.0-2.28","0f6778e2-6340-4412-acd5-159d88da9370","null","<p style=""text-align: center;"">+</p>","null","fixation","","","","","","","","","","","","","","","","","","","","","",""
"","","","","","html-slider-response","201","379402","0.0-21.0-0.29","0f6778e2-6340-4412-acd5-159d88da9370","1000","
                  <p style=""text-align: center;"">₪11
                                                <br>25%</p>
                  <p id=""wtp"" style=""text-align:center; margin-top: 0px; margin-bottom: 0px; font-size: 40px"";>&ensp;</p>","-","viewing","0","5","12A,27B,28B,30B","","","","","","","","","","","","","","","","","","",""
"","","","","","html-slider-response","202","380039","0.0-21.0-1.29","0f6778e2-6340-4412-acd5-159d88da9370","637","
                  <p style=""text-align: center;"">₪11
                                                <br>25%</p>
                  <p id=""wtp"" style=""text-align:center; margin-top: 0px; margin-bottom: 0px; font-size: 40px"";>מוכנים לשלם: <span id=""c_p_y""></span></p>","12","evaluation","58","5","12A,27B,28B,30B","25","11","12","","","","","","","","","","","","","","","",""
"","","","","","html-keyboard-response","203","381039","0.0-21.0-2.29","0f6778e2-6340-4412-acd5-159d88da9370","null","<p style=""text-align: center;"">+</p>","null","fixation","","","","","","","","","","","","","","","","","","","","","",""
"","","","","","html-slider-response","204","382054","0.0-21.0-0.30","0f6778e2-6340-4412-acd5-159d88da9370","1000","
                  <p style=""text-align: center;"">₪58
                                                <br>45%</p>
                  <p id=""wtp"" style=""text-align:center; margin-top: 0px; margin-bottom: 0px; font-size: 40px"";>&ensp;</p>","-","viewing","0","21","11C,18C,25A","","","","","","","","","","","","","","","","","","",""
"","","","","","html-slider-response","205","384727","0.0-21.0-1.30","0f6778e2-6340-4412-acd5-159d88da9370","2673","
                  <p style=""text-align: center;"">₪58
                                                <br>45%</p>
                  <p id=""wtp"" style=""text-align:center; margin-top: 0px; margin-bottom: 0px; font-size: 40px"";>מוכנים לשלם: <span id=""c_p_y""></span></p>","32","evaluation","78","21","11C,18C,25A","45","58","32","","","","","","","","","","","","","","","",""
"","","","","","html-keyboard-response","206","385699","0.0-21.0-2.30","0f6778e2-6340-4412-acd5-159d88da9370","null","<p style=""text-align: center;"">+</p>","null","fixation","","","","","","","","","","","","","","","","","","","","","",""
"","","","","","html-keyboard-response","207","386702","0.0-22.0","0f6778e2-6340-4412-acd5-159d88da9370","null","<p style=""text-align: center;"">+</p>","null","fixation","","","","","","","","","","","","","","","","","","","","","",""
"","","","","","html-keyboard-response","208","387887","0.0-23.0","0f6778e2-6340-4412-acd5-159d88da9370","null","<p>הפסקה.
          <br>לחצו כדי להמשיך.</p>","1","scan_wait","","","","","","","","","","","","","","","","","","","","","",""
"","","","","","html-keyboard-response","209","388901","0.0-24.0","0f6778e2-6340-4412-acd5-159d88da9370","null","<p style=""text-align: center;"">+</p>","null","fixation","","","","","","","","","","","","","","","","","","","","","",""
"","","","","","html-slider-response","210","389910","0.0-25.0-0.0","0f6778e2-6340-4412-acd5-159d88da9370","1000","
                  <p style=""text-align: center;"">₪36
                                                <br>75%</p>
                  <p id=""wtp"" style=""text-align:center; margin-top: 0px; margin-bottom: 0px; font-size: 40px"";>&ensp;</p>","-","viewing","0","14","4B,5A,13B,16B","","","","","","","","","","","","","","","","","","",""
"","","","","","html-slider-response","211","391999","0.0-25.0-1.0","0f6778e2-6340-4412-acd5-159d88da9370","2087","
                  <p style=""text-align: center;"">₪36
                                                <br>75%</p>
                  <p id=""wtp"" style=""text-align:center; margin-top: 0px; margin-bottom: 0px; font-size: 40px"";>מוכנים לשלם: <span id=""c_p_y""></span></p>","57","evaluation","23","14","4B,5A,13B,16B","75","36","57","","","","","","","","","","","","","","","",""
"","","","","","html-keyboard-response","212","393130","0.0-25.0-2.0","0f6778e2-6340-4412-acd5-159d88da9370","null","<p style=""text-align: center;"">+</p>","null","fixation","","","","","","","","","","","","","","","","","","","","","",""
"","","","","","html-slider-response","213","394134","0.0-25.0-0.1","0f6778e2-6340-4412-acd5-159d88da9370","1000","
                  <p style=""text-align: center;"">₪11
                                                <br>20%</p>
                  <p id=""wtp"" style=""text-align:center; margin-top: 0px; margin-bottom: 0px; font-size: 40px"";>&ensp;</p>","-","viewing","0","4","12C,17C,23C,28C","","","","","","","","","","","","","","","","","","",""
"","","","","","html-slider-response","214","394783","0.0-25.0-1.1","0f6778e2-6340-4412-acd5-159d88da9370","648","
                  <p style=""text-align: center;"">₪11
                                                <br>20%</p>
                  <p id=""wtp"" style=""text-align:center; margin-top: 0px; margin-bottom: 0px; font-size: 40px"";>מוכנים לשלם: <span id=""c_p_y""></span></p>","16","evaluation","75","4","12C,17C,23C,28C","20","11","16","","","","","","","","","","","","","","","",""
"","","","","","html-keyboard-response","215","395937","0.0-25.0-2.1","0f6778e2-6340-4412-acd5-159d88da9370","null","<p style=""text-align: center;"">+</p>","null","fixation","","","","","","","","","","","","","","","","","","","","","",""
"","","","","","html-slider-response","216","396941","0.0-25.0-0.2","0f6778e2-6340-4412-acd5-159d88da9370","1000","
                  <p style=""text-align: center;"">₪61
                                                <br>55%</p>
                  <p id=""wtp"" style=""text-align:center; margin-top: 0px; margin-bottom: 0px; font-size: 40px"";>&ensp;</p>","-","viewing","0","23","7B,26B","","","","","","","","","","","","","","","","","","",""
"","","","","","html-slider-response","217","398519","0.0-25.0-1.2","0f6778e2-6340-4412-acd5-159d88da9370","1577","
                  <p style=""text-align: center;"">₪61
                                                <br>55%</p>
                  <p id=""wtp"" style=""text-align:center; margin-top: 0px; margin-bottom: 0px; font-size: 40px"";>מוכנים לשלם: <span id=""c_p_y""></span></p>","42","evaluation","19","23","7B,26B","55","61","42","","","","","","","","","","","","","","","",""
"","","","","","html-keyboard-response","218","399813","0.0-25.0-2.2","0f6778e2-6340-4412-acd5-159d88da9370","null","<p style=""text-align: center;"">+</p>","null","fixation","","","","","","","","","","","","","","","","","","","","","",""
"","","","","","html-slider-response","219","400815","0.0-25.0-0.3","0f6778e2-6340-4412-acd5-159d88da9370","1000","
                  <p style=""text-align: center;"">₪76
                                                <br>65%</p>
                  <p id=""wtp"" style=""text-align:center; margin-top: 0px; margin-bottom: 0px; font-size: 40px"";>&ensp;</p>","-","viewing","0","29","8C,19A,24B","","","","","","","","","","","","","","","","","","",""
"","","","","","html-slider-response","220","403215","0.0-25.0-1.3","0f6778e2-6340-4412-acd5-159d88da9370","2398","
                  <p style=""text-align: center;"">₪76
                                                <br>65%</p>
                  <p id=""wtp"" style=""text-align:center; margin-top: 0px; margin-bottom: 0px; font-size: 40px"";>מוכנים לשלם: <span id=""c_p_y""></span></p>","77","evaluation","74","29","8C,19A,24B","65","76","76","","","","","","","","","","","","","","","",""
"","","","","","html-keyboard-response","221","403816","0.0-25.0-2.3","0f6778e2-6340-4412-acd5-159d88da9370","null","<p style=""text-align: center;"">+</p>","null","fixation","","","","","","","","","","","","","","","","","","","","","",""
"","","","","","html-slider-response","222","404831","0.0-25.0-0.4","0f6778e2-6340-4412-acd5-159d88da9370","1000","
                  <p style=""text-align: center;"">₪18
                                                <br>25%</p>
                  <p id=""wtp"" style=""text-align:center; margin-top: 0px; margin-bottom: 0px; font-size: 40px"";>&ensp;</p>","-","viewing","0","9","14A,23A","","","","","","","","","","","","","","","","","","",""
"","","","","","html-slider-response","223","405679","0.0-25.0-1.4","0f6778e2-6340-4412-acd5-159d88da9370","847","
                  <p style=""text-align: center;"">₪18
                                                <br>25%</p>
                  <p id=""wtp"" style=""text-align:center; margin-top: 0px; margin-bottom: 0px; font-size: 40px"";>מוכנים לשלם: <span id=""c_p_y""></span></p>","20","evaluation","78","9","14A,23A","25","18","20","","","","","","","","","","","","","","","",""
"","","","","","html-keyboard-response","224","406754","0.0-25.0-2.4","0f6778e2-6340-4412-acd5-159d88da9370","null","<p style=""text-align: center;"">+</p>","null","fixation","","","","","","","","","","","","","","","","","","","","","",""
"","","","","","html-slider-response","225","407757","0.0-25.0-0.5","0f6778e2-6340-4412-acd5-159d88da9370","1000","
                  <p style=""text-align: center;"">₪79
                                                <br>65%</p>
                  <p id=""wtp"" style=""text-align:center; margin-top: 0px; margin-bottom: 0px; font-size: 40px"";>&ensp;</p>","-","viewing","0","31","8A","","","","","","","","","","","","","","","","","","",""
"","","","","","html-slider-response","226","410471","0.0-25.0-1.5","0f6778e2-6340-4412-acd5-159d88da9370","2713","
                  <p style=""text-align: center;"">₪79
                                                <br>65%</p>
                  <p id=""wtp"" style=""text-align:center; margin-top: 0px; margin-bottom: 0px; font-size: 40px"";>מוכנים לשלם: <span id=""c_p_y""></span></p>","59","evaluation","50","31","8A","65","79","59","","","","","","","","","","","","","","","",""
"","","","","","html-keyboard-response","227","411190","0.0-25.0-2.5","0f6778e2-6340-4412-acd5-159d88da9370","null","<p style=""text-align: center;"">+</p>","null","fixation","","","","","","","","","","","","","","","","","","","","","",""
"","","","","","html-slider-response","228","412200","0.0-25.0-0.6","0f6778e2-6340-4412-acd5-159d88da9370","1000","
                  <p style=""text-align: center;"">₪39
                                                <br>60%</p>
                  <p id=""wtp"" style=""text-align:center; margin-top: 0px; margin-bottom: 0px; font-size: 40px"";>&ensp;</p>","-","viewing","0","15","9C,25B","","","","","","","","","","","","","","","","","","",""
"","","","","","html-slider-response","229","414999","0.0-25.0-1.6","0f6778e2-6340-4412-acd5-159d88da9370","2798","
                  <p style=""text-align: center;"">₪39
                                                <br>60%</p>
                  <p id=""wtp"" style=""text-align:center; margin-top: 0px; margin-bottom: 0px; font-size: 40px"";>מוכנים לשלם: <span id=""c_p_y""></span></p>","46","evaluation","57","15","9C,25B","60","39","46","","","","","","","","","","","","","","","",""
"","","","","","html-keyboard-response","230","415527","0.0-25.0-2.6","0f6778e2-6340-4412-acd5-159d88da9370","null","<p style=""text-align: center;"">+</p>","null","fixation","","","","","","","","","","","","","","","","","","","","","",""
"","","","","","html-slider-response","231","416536","0.0-25.0-0.7","0f6778e2-6340-4412-acd5-159d88da9370","1000","
                  <p style=""text-align: center;"">₪71
                                                <br>45%</p>
                  <p id=""wtp"" style=""text-align:center; margin-top: 0px; margin-bottom: 0px; font-size: 40px"";>&ensp;</p>","-","viewing","0","26","2B,16A","","","","","","","","","","","","","","","","","","",""
"","","","","","html-slider-response","232","417551","0.0-25.0-1.7","0f6778e2-6340-4412-acd5-159d88da9370","1015","
                  <p style=""text-align: center;"">₪71
                                                <br>45%</p>
                  <p id=""wtp"" style=""text-align:center; margin-top: 0px; margin-bottom: 0px; font-size: 40px"";>מוכנים לשלם: <span id=""c_p_y""></span></p>","41","evaluation","29","26","2B,16A","45","71","41","","","","","","","","","","","","","","","",""
"","","","","","html-keyboard-response","233","418633","0.0-25.0-2.7","0f6778e2-6340-4412-acd5-159d88da9370","null","<p style=""text-align: center;"">+</p>","null","fixation","","","","","","","","","","","","","","","","","","","","","",""
"","","","","","html-slider-response","234","419641","0.0-25.0-0.8","0f6778e2-6340-4412-acd5-159d88da9370","1000","
                  <p style=""text-align: center;"">₪43
                                                <br>75%</p>
                  <p id=""wtp"" style=""text-align:center; margin-top: 0px; margin-bottom: 0px; font-size: 40px"";>&ensp;</p>","-","viewing","0","18","11B,19B,24A,26A","","","","","","","","","","","","","","","","","","",""
"","","","","","html-slider-response","235","421127","0.0-25.0-1.8","0f6778e2-6340-4412-acd5-159d88da9370","1485","
                  <p style=""text-align: center;"">₪43
                                                <br>75%</p>
                  <p id=""wtp"" style=""text-align:center; margin-top: 0px; margin-bottom: 0px; font-size: 40px"";>מוכנים לשלם: <span id=""c_p_y""></span></p>","64","evaluation","10","18","11B,19B,24A,26A","75","43","64","","","","","","","","","","","","","","","",""
"","","","","","html-keyboard-response","236","422387","0.0-25.0-2.8","0f6778e2-6340-4412-acd5-159d88da9370","null","<p style=""text-align: center;"">+</p>","null","fixation","","","","","","","","","","","","","","","","","","","","","",""
"","","","","","html-slider-response","237","423404","0.0-25.0-0.9","0f6778e2-6340-4412-acd5-159d88da9370","1000","
                  <p style=""text-align: center;"">₪64
                                                <br>50%</p>
                  <p id=""wtp"" style=""text-align:center; margin-top: 0px; margin-bottom: 0px; font-size: 40px"";>&ensp;</p>","-","viewing","0","25","1B,3B,4A","","","","","","","","","","","","","","","","","","",""
"","","","","","html-slider-response","238","424359","0.0-25.0-1.9","0f6778e2-6340-4412-acd5-159d88da9370","954","
                  <p style=""text-align: center;"">₪64
                                                <br>50%</p>
                  <p id=""wtp"" style=""text-align:center; margin-top: 0px; margin-bottom: 0px; font-size: 40px"";>מוכנים לשלם: <span id=""c_p_y""></span></p>","37","evaluation","32","25","1B,3B,4A","50","64","37","","","","","","","","","","","","","","","",""
"","","","","","html-keyboard-response","239","425464","0.0-25.0-2.9","0f6778e2-6340-4412-acd5-159d88da9370","null","<p style=""text-align: center;"">+</p>","null","fixation","","","","","","","","","","","","","","","","","","","","","",""
"","","","","","html-slider-response","240","426466","0.0-25.0-0.10","0f6778e2-6340-4412-acd5-159d88da9370","1000","
                  <p style=""text-align: center;"">₪4
                                                <br>25%</p>
                  <p id=""wtp"" style=""text-align:center; margin-top: 0px; margin-bottom: 0px; font-size: 40px"";>&ensp;</p>","-","viewing","0","1","6C,29B,30C","","","","","","","","","","","","","","","","","","",""
"","","","","","html-slider-response","241","427055","0.0-25.0-1.10","0f6778e2-6340-4412-acd5-159d88da9370","588","
                  <p style=""text-align: center;"">₪4
                                                <br>25%</p>
                  <p id=""wtp"" style=""text-align:center; margin-top: 0px; margin-bottom: 0px; font-size: 40px"";>מוכנים לשלם: <span id=""c_p_y""></span></p>","13","evaluation","56","1","6C,29B,30C","25","4","13","","","","","","","","","","","","","","","",""
"","","","","","html-keyboard-response","242","428258","0.0-25.0-2.10","0f6778e2-6340-4412-acd5-159d88da9370","null","<p style=""text-align: center;"">+</p>","null","fixation","","","","","","","","","","","","","","","","","","","","","",""
"","","","","","html-slider-response","243","429268","0.0-25.0-0.11","0f6778e2-6340-4412-acd5-159d88da9370","1000","
                  <p style=""text-align: center;"">₪36
                                                <br>60%</p>
                  <p id=""wtp"" style=""text-align:center; margin-top: 0px; margin-bottom: 0px; font-size: 40px"";>&ensp;</p>","-","viewing","0","12","1C,7C,15C","","","","","","","","","","","","","","","","","","",""
"","","","","","html-slider-response","244","430775","0.0-25.0-1.11","0f6778e2-6340-4412-acd5-159d88da9370","1505","
                  <p style=""text-align: center;"">₪36
                                                <br>60%</p>
                  <p id=""wtp"" style=""text-align:center; margin-top: 0px; margin-bottom: 0px; font-size: 40px"";>מוכנים לשלם: <span id=""c_p_y""></span></p>","49","evaluation","15","12","1C,7C,15C","60","36","49","","","","","","","","","","","","","","","",""
"","","","","","html-keyboard-response","245","431913","0.0-25.0-2.11","0f6778e2-6340-4412-acd5-159d88da9370","null","<p style=""text-align: center;"">+</p>","null","fixation","","","","","","","","","","","","","","","","","","","","","",""
"","","","","","html-slider-response","246","432914","0.0-25.0-0.12","0f6778e2-6340-4412-acd5-159d88da9370","1000","
                  <p style=""text-align: center;"">₪58
                                                <br>45%</p>
                  <p id=""wtp"" style=""text-align:center; margin-top: 0px; margin-bottom: 0px; font-size: 40px"";>&ensp;</p>","-","viewing","0","21","11C,18C,25A","","","","","","","","","","","","","","","","","","",""
"","","","","","html-slider-response","247","433799","0.0-25.0-1.12","0f6778e2-6340-4412-acd5-159d88da9370","883","
                  <p style=""text-align: center;"">₪58
                                                <br>45%</p>
                  <p id=""wtp"" style=""text-align:center; margin-top: 0px; margin-bottom: 0px; font-size: 40px"";>מוכנים לשלם: <span id=""c_p_y""></span></p>","28","evaluation","58","21","11C,18C,25A","45","58","28","","","","","","","","","","","","","","","",""
"","","","","","html-keyboard-response","248","434537","0.0-25.0-2.12","0f6778e2-6340-4412-acd5-159d88da9370","null","<p style=""text-align: center;"">+</p>","null","fixation","","","","","","","","","","","","","","","","","","","","","",""
"","","","","","html-slider-response","249","435544","0.0-25.0-0.13","0f6778e2-6340-4412-acd5-159d88da9370","1000","
                  <p style=""text-align: center;"">₪11
                                                <br>25%</p>
                  <p id=""wtp"" style=""text-align:center; margin-top: 0px; margin-bottom: 0px; font-size: 40px"";>&ensp;</p>","-","viewing","0","5","12A,27B,28B,30B","","","","","","","","","","","","","","","","","","",""
"","","","","","html-slider-response","250","436735","0.0-25.0-1.13","0f6778e2-6340-4412-acd5-159d88da9370","1189","
                  <p style=""text-align: center;"">₪11
                                                <br>25%</p>
