"success","timeout","failed_images","failed_audio","failed_video","trial_type","trial_index","time_elapsed","internal_node_id","subject_id","rt","stimulus","response","part","slider_start","ID","set_ID","prob","amount","last_location","actual_choice","actual_EV","binary_id","trinary_id","catch","A_key","D_key","choice_prob","choice_amount","chosen_part","won_prize","potential_prize_amount","potential_prize_prob","total_prize","accuracy"
"true","false","[]","[]","[]","preload","0","97","0.0-0.0","e0a357de-392a-4b4a-8b50-455f6c02a010","","","","","","","","","","","","","","","","","","","","","","","","",""
"","","","","","html-keyboard-response","1","1120858","0.0-1.0","e0a357de-392a-4b4a-8b50-455f6c02a010","null","
          <h1>שלום וברוכים הבאים!</h1>
          <p>לפניכם ניסוי בקבלת החלטות עם שני חלקים.
          <br><br>לחצו על העכבר כדי להמשיך.</p>","0","example","","","","","","","","","","","","","","","","","","","","",""
"","","","","","html-keyboard-response","2","1133313","0.0-2.0","e0a357de-392a-4b4a-8b50-455f6c02a010","null","
        <h1>חלק 1</h1>
        <p>בקרוב יוצגו בפניכם הגרלות.
        <br>עליכם לבחור את המחיר המירבי שתהיו מוכנים לשלם כדי להשתתף בהגרלה שתוצג.
        <br>יש לכם תקציב של ₪80 לכל הגרלה. 
        <br>נסו להעריך כל הגרלה בנפרד ולחשוב כמה היא שווה עבורכם, ₪80 זמינים לכל הגרלה בנפרד.
        <br><br>לחצו על העכבר כדי להמשיך.</p>","1","instructions","","","","","","","","","","","","","","","","","","","","",""
"","","","","","html-keyboard-response","3","1140585","0.0-3.0","e0a357de-392a-4b4a-8b50-455f6c02a010","null","
        <p>בסוף הניסוי, המחשב יבחר את אחת ההגרלות ויקבע מחיר לכרטיס עבורה. 
        <br>במידה והמחיר שבחרתם נמוך מהמחיר שנבחר על ידי המחשב, לא תשתתפו בהגרלה ותשארו עם מלוא התקציב.
        <br>במידה והמחיר שבחרתם גבוה מהמחיר שנבחר על ידי המחשב, תשלמו את המחיר שנקבע ותשתתפו בהגרלה.
        <br><br>לחצו על העכבר כדי להמשיך.</p>","1","instructions","","","","","","","","","","","","","","","","","","","","",""
"","","","","","html-slider-response","4","1180317","0.0-4.0","e0a357de-392a-4b4a-8b50-455f6c02a010","39628","
        <p style=""font-size: 42px;"">נתחיל עם דוגמא: 
        <br>ההגרלה מטה מציעה 65% סיכוי לזכות ב-₪40 
        <br>&emsp;&emsp;&emsp;&emsp;&emsp;&emsp;&emsp;&emsp;&ensp;35% סיכוי לזכות ב-₪0.
        <br><br>מה המחיר המירבי שתהיו מוכנים לשלם על כרטיס להגרלה זו בין 0 ל-₪80?
        <br>הזיזו את העכבר על פני המלבן ולחצו כדי לבצע בחירה.</p>
        
        <p style=""text-align: center;"">₪40<br>65%</p>

        <p id=""wtp"" style=""text-align:center; margin-top: 0px; margin-bottom: 0px; font-size: 40px"";>מוכנים לשלם: <span id=""c_p_y""></span></p>","30","example","34","","","","","","","","","","","","","","","","","","","",""
"","","","","","html-keyboard-response","5","1186909","0.0-5.0","e0a357de-392a-4b4a-8b50-455f6c02a010","null","<p>יפה מאוד!
                <br> בחרתם שתהיו מוכנים לשלם ₪30 כדי להשתתף בהגרלה:
                <br><p style=""text-align: center;"">₪40<br>65%</p>
                <p>נשמע נכון?
                <br>נניח שהגרלה זו נבחרה בסוף הניסוי.
                <br>כעת המחשב יקבע מחיר עבורה באקראי.
                <br>לחצו על העכבר להמשך.</p>","1","example","","","","","","","","","","","","","","","","","","","","",""
"","","","","","html-keyboard-response","6","1198197","0.0-6.0","e0a357de-392a-4b4a-8b50-455f6c02a010","null","<p>המחשב קבע מחיר: ₪66
                <br>ואתם בחרתם לשלם לכל היותר: ₪30
                <br><br>מכיוון שהמחיר שבחרתם נמוך מהמחיר שנקבע, לא תתשתתפו בהגרלה.
                <br>במקרה כזה, בסוף הניסוי תקבלו את כל התקציב ההתחלתי של ₪80.
                <br><br>לחצו על העכבר להמשך.</p>","1","example","","","","","","","","","","","","","","","","","","","","",""
"","","","","","html-slider-response","7","1212805","0.0-7.0","e0a357de-392a-4b4a-8b50-455f6c02a010","14353","<p style=""font-size: 42px;"">הנה עוד דוגמא:
                <br>ההגרלה מטה מציעה 35% סיכוי לזכות ב-₪18 
                <br>&emsp;&emsp;&emsp;&emsp;&emsp;&emsp;&emsp;&emsp;&ensp;65% סיכוי לזכות ב-₪0.</p>
        
                <p style=""text-align: center;"">₪18<br>35%</p>
                <p id=""wtp"" style=""text-align:center; margin-top: 0px; margin-bottom: 0px; font-size: 40px"";>מוכנים לשלם: <span id=""c_p_y""></span></p>","10","example","25","","","","","","","","","","","","","","","","","","","",""
"","","","","","html-keyboard-response","8","1217461","0.0-8.0","e0a357de-392a-4b4a-8b50-455f6c02a010","null","<p>הייתם מוכנים לשלם  ₪10 כדי להשתתף בהגרלה:
                <p style=""text-align: center;"">₪18<br>35%</p>
                <p>כעת נניח שהמחשב בחר את ההגרלה הזו בסוף הניסוי, וקבע עבורה מחיר.
                <br><br>לחצו על העכבר כדי להמשיך.</p>","1","instructions","","","","","","","","","","","","","","","","","","","","",""
"","","","","","html-keyboard-response","9","1227221","0.0-9.0","e0a357de-392a-4b4a-8b50-455f6c02a010","null","<p>המחשב קבע מחיר להגרלה: ₪9<br>ואתם בחרתם לשלם לכל היותר: ₪10
                <br><br>כעת המחיר שנקבע נמוך מזה שבחרתם, אז תשלמו את המחיר שקבע המחשב (₪9) ותשתתפו בהגרלה.
                <br>במקרה כזה, תסיימו את הניסוי עם תקציב של ₪71 ועם סיכוי לזכות ב-₪18 נוספים מההגרלה.
                <br>כלומר, תוכלו לקבל ₪71 אם לא תזכו בהגרלה, או ₪89 אם תזכו בהגרלה.
                <br><br>לחצו על העכבר להמשך.</p>","1","example","","","","","","","","","","","","","","","","","","","","",""
"","","","","","html-keyboard-response","10","1233373","0.0-10.0","e0a357de-392a-4b4a-8b50-455f6c02a010","null","<p>במהלך הניסוי, קודם תראו את ההגרלה ורק לאחר מכן תוכלו לבחור.
                <p>כמו כן, יהיו לכם מספר שניות מוגבל להגיב.
                <p>בואו ננסה זאת עם ההגרלה הקודמת.
                <br>לחצו על העכבר כדי להמשיך.</p>","1","instructions","","","","","","","","","","","","","","","","","","","","",""
"","","","","","html-slider-response","11","1234638","0.0-11.0","e0a357de-392a-4b4a-8b50-455f6c02a010","1000","
                    <p style=""text-align: center;"">₪18<br>35%</p>
                    <p id=""wtp"" style=""text-align:center; margin-top: 0px; margin-bottom: 0px; font-size: 40px"";>&ensp;</p>","11","instructions","0","","","","","","","","","","","","","","","","","","","",""
"","","","","","html-slider-response","12","1238897","0.0-12.0","e0a357de-392a-4b4a-8b50-455f6c02a010","null","
                    <p style=""text-align: center;"">₪18<br>35%</p>
                    <p id=""wtp"" style=""text-align:center; margin-top: 0px; margin-bottom: 0px; font-size: 40px"";>מוכנים לשלם: <span id=""c_p_y""></span></p>","null","instructions","46","","","","","","","","","","","","","","","","","","","",""
"","","","","","html-keyboard-response","13","1239445","0.0-13.0","e0a357de-392a-4b4a-8b50-455f6c02a010","null","<p>לא הגבתם בזמן המוקצב לתגובה. 
                <br>נסו להגיב מהר יותר בפעם הבאה.
                <br><br>לחצו על העכבר כדי להמשיך.</p>","1","instructions","","","","","","","","","","","","","","","","","","","","",""
"","","","","","html-slider-response","14","1242768","0.0-14.0-0.0","e0a357de-392a-4b4a-8b50-455f6c02a010","3064","
                    <p style=""text-align: center;"">₪40<br>65%</p>
                    <p id=""wtp"" style=""text-align:center; margin-top: 0px; margin-bottom: 0px; font-size: 40px"";>מוכנים לשלם: <span id=""c_p_y""></span></p>","30","instructions","60","","","","","","","","","","","","","","","","","","","",""
"","","","","","html-keyboard-response","15","1261328","0.0-14.0-1.0","e0a357de-392a-4b4a-8b50-455f6c02a010","null","<p>יפה. הפעם בחרתם לשלם לכל היותר ₪30.
                <br><br>לחצו על העכבר כדי להמשיך.</p>","1","instructions","","","","","","","","","","","","","","","","","","","","",""
"","","","","","html-keyboard-response","16","1267736","0.0-15.0","e0a357de-392a-4b4a-8b50-455f6c02a010","null","<p>כעת נתחיל את הניסוי.
                <br><br>אתם תראו הגרלות ותתבקשו לבחור כמה תהיו מוכנים לשלם כדי להשתתף בהן.
                <br>יש לכם תקציב של ₪80 עבור כל הגרלה.
                <br>בסוף הניסוי הגרלה אחת תבחר באקראי ותשוחק.
                <br><br>לחצו על העכבר כדי להתחיל את הניסוי.</p>","1","instructions","","","","","","","","","","","","","","","","","","","","",""
"","","","","","html-keyboard-response","17","1269014","0.0-16.0","e0a357de-392a-4b4a-8b50-455f6c02a010","null","<p style=""text-align: center;"">+</p>","null","fixation","","","","","","","","","","","","","","","","","","","","",""
"","","","","","html-slider-response","18","1270032","0.0-17.0-0.0","e0a357de-392a-4b4a-8b50-455f6c02a010","1000","
                  <p style=""text-align: center;"">₪36
                                                <br>60%</p>
                  <p id=""wtp"" style=""text-align:center; margin-top: 0px; margin-bottom: 0px; font-size: 40px"";>&ensp;</p>","-","viewing","0","12","1C,7C,15C","","","","","","","","","","","","","","","","","",""
"","","","","","html-slider-response","19","1272056","0.0-17.0-1.0","e0a357de-392a-4b4a-8b50-455f6c02a010","2023","
                  <p style=""text-align: center;"">₪36
                                                <br>60%</p>
                  <p id=""wtp"" style=""text-align:center; margin-top: 0px; margin-bottom: 0px; font-size: 40px"";>מוכנים לשלם: <span id=""c_p_y""></span></p>","27","evaluation","2","12","1C,7C,15C","60","36","27","","","","","","","","","","","","","","",""
"","","","","","html-keyboard-response","20","1273256","0.0-17.0-2.0","e0a357de-392a-4b4a-8b50-455f6c02a010","null","<p style=""text-align: center;"">+</p>","null","fixation","","","","","","","","","","","","","","","","","","","","",""
"","","","","","html-slider-response","21","1274269","0.0-17.0-0.1","e0a357de-392a-4b4a-8b50-455f6c02a010","1000","
                  <p style=""text-align: center;"">₪39
                                                <br>60%</p>
                  <p id=""wtp"" style=""text-align:center; margin-top: 0px; margin-bottom: 0px; font-size: 40px"";>&ensp;</p>","-","viewing","0","15","9C,25B","","","","","","","","","","","","","","","","","",""
"","","","","","html-slider-response","22","1277336","0.0-17.0-1.1","e0a357de-392a-4b4a-8b50-455f6c02a010","3066","
                  <p style=""text-align: center;"">₪39
                                                <br>60%</p>
                  <p id=""wtp"" style=""text-align:center; margin-top: 0px; margin-bottom: 0px; font-size: 40px"";>מוכנים לשלם: <span id=""c_p_y""></span></p>","19","evaluation","35","15","9C,25B","60","39","19","","","","","","","","","","","","","","",""
"","","","","","html-keyboard-response","23","1278547","0.0-17.0-2.1","e0a357de-392a-4b4a-8b50-455f6c02a010","null","<p style=""text-align: center;"">+</p>","null","fixation","","","","","","","","","","","","","","","","","","","","",""
"","","","","","html-slider-response","24","1279558","0.0-17.0-0.2","e0a357de-392a-4b4a-8b50-455f6c02a010","1000","
                  <p style=""text-align: center;"">₪36
                                                <br>30%</p>
                  <p id=""wtp"" style=""text-align:center; margin-top: 0px; margin-bottom: 0px; font-size: 40px"";>&ensp;</p>","-","viewing","0","11","3C,20A,22A","","","","","","","","","","","","","","","","","",""
"","","","","","html-slider-response","25","1282848","0.0-17.0-1.2","e0a357de-392a-4b4a-8b50-455f6c02a010","3288","
                  <p style=""text-align: center;"">₪36
                                                <br>30%</p>
                  <p id=""wtp"" style=""text-align:center; margin-top: 0px; margin-bottom: 0px; font-size: 40px"";>מוכנים לשלם: <span id=""c_p_y""></span></p>","27","evaluation","77","11","3C,20A,22A","30","36","27","","","","","","","","","","","","","","",""
"","","","","","html-keyboard-response","26","1284081","0.0-17.0-2.2","e0a357de-392a-4b4a-8b50-455f6c02a010","null","<p style=""text-align: center;"">+</p>","null","fixation","","","","","","","","","","","","","","","","","","","","",""
"","","","","","html-slider-response","27","1285096","0.0-17.0-0.3","e0a357de-392a-4b4a-8b50-455f6c02a010","1000","
                  <p style=""text-align: center;"">₪18
                                                <br>50%</p>
                  <p id=""wtp"" style=""text-align:center; margin-top: 0px; margin-bottom: 0px; font-size: 40px"";>&ensp;</p>","-","viewing","0","10","2C,16C,22B,28A","","","","","","","","","","","","","","","","","",""
"","","","","","html-slider-response","28","1288640","0.0-17.0-1.3","e0a357de-392a-4b4a-8b50-455f6c02a010","3543","
                  <p style=""text-align: center;"">₪18
                                                <br>50%</p>
                  <p id=""wtp"" style=""text-align:center; margin-top: 0px; margin-bottom: 0px; font-size: 40px"";>מוכנים לשלם: <span id=""c_p_y""></span></p>","9","evaluation","23","10","2C,16C,22B,28A","50","18","9","","","","","","","","","","","","","","",""
"","","","","","html-keyboard-response","29","1289746","0.0-17.0-2.3","e0a357de-392a-4b4a-8b50-455f6c02a010","null","<p style=""text-align: center;"">+</p>","null","fixation","","","","","","","","","","","","","","","","","","","","",""
"","","","","","html-slider-response","30","1290754","0.0-17.0-0.4","e0a357de-392a-4b4a-8b50-455f6c02a010","1000","
                  <p style=""text-align: center;"">₪4
                                                <br>25%</p>
                  <p id=""wtp"" style=""text-align:center; margin-top: 0px; margin-bottom: 0px; font-size: 40px"";>&ensp;</p>","-","viewing","0","1","6C,29B,30C","","","","","","","","","","","","","","","","","",""
"","","","","","html-slider-response","31","1293632","0.0-17.0-1.4","e0a357de-392a-4b4a-8b50-455f6c02a010","2877","
                  <p style=""text-align: center;"">₪4
                                                <br>25%</p>
                  <p id=""wtp"" style=""text-align:center; margin-top: 0px; margin-bottom: 0px; font-size: 40px"";>מוכנים לשלם: <span id=""c_p_y""></span></p>","1","evaluation","65","1","6C,29B,30C","25","4","1","","","","","","","","","","","","","","",""
"","","","","","html-keyboard-response","32","1294390","0.0-17.0-2.4","e0a357de-392a-4b4a-8b50-455f6c02a010","null","<p style=""text-align: center;"">+</p>","null","fixation","","","","","","","","","","","","","","","","","","","","",""
"","","","","","html-slider-response","33","1295392","0.0-17.0-0.5","e0a357de-392a-4b4a-8b50-455f6c02a010","1000","
                  <p style=""text-align: center;"">₪58
                                                <br>30%</p>
                  <p id=""wtp"" style=""text-align:center; margin-top: 0px; margin-bottom: 0px; font-size: 40px"";>&ensp;</p>","-","viewing","0","19","13C,30A","","","","","","","","","","","","","","","","","",""
"","","","","","html-slider-response","34","1299394","0.0-17.0-1.5","e0a357de-392a-4b4a-8b50-455f6c02a010","null","
                  <p style=""text-align: center;"">₪58
                                                <br>30%</p>
                  <p id=""wtp"" style=""text-align:center; margin-top: 0px; margin-bottom: 0px; font-size: 40px"";>מוכנים לשלם: <span id=""c_p_y""></span></p>","null","evaluation","34","19","13C,30A","30","58","27","","","","","","","","","","","","","","",""
"","","","","","html-keyboard-response","35","1300073","0.0-17.0-2.5","e0a357de-392a-4b4a-8b50-455f6c02a010","null","<p style=""text-align: center;"">+</p>","null","fixation","","","","","","","","","","","","","","","","","","","","",""
"","","","","","html-slider-response","36","1301078","0.0-17.0-0.6","e0a357de-392a-4b4a-8b50-455f6c02a010","1000","
                  <p style=""text-align: center;"">₪76
                                                <br>65%</p>
                  <p id=""wtp"" style=""text-align:center; margin-top: 0px; margin-bottom: 0px; font-size: 40px"";>&ensp;</p>","-","viewing","0","29","8C,19A,24B","","","","","","","","","","","","","","","","","",""
"","","","","","html-slider-response","37","1304724","0.0-17.0-1.6","e0a357de-392a-4b4a-8b50-455f6c02a010","3644","
                  <p style=""text-align: center;"">₪76
                                                <br>65%</p>
                  <p id=""wtp"" style=""text-align:center; margin-top: 0px; margin-bottom: 0px; font-size: 40px"";>מוכנים לשלם: <span id=""c_p_y""></span></p>","51","evaluation","34","29","8C,19A,24B","65","76","51","","","","","","","","","","","","","","",""
"","","","","","html-keyboard-response","38","1306027","0.0-17.0-2.6","e0a357de-392a-4b4a-8b50-455f6c02a010","null","<p style=""text-align: center;"">+</p>","null","fixation","","","","","","","","","","","","","","","","","","","","",""
"","","","","","html-slider-response","39","1307034","0.0-17.0-0.7","e0a357de-392a-4b4a-8b50-455f6c02a010","1000","
                  <p style=""text-align: center;"">₪11
                                                <br>20%</p>
                  <p id=""wtp"" style=""text-align:center; margin-top: 0px; margin-bottom: 0px; font-size: 40px"";>&ensp;</p>","-","viewing","0","4","12C,17C,23C,28C","","","","","","","","","","","","","","","","","",""
"","","","","","html-slider-response","40","1309724","0.0-17.0-1.7","e0a357de-392a-4b4a-8b50-455f6c02a010","2690","
                  <p style=""text-align: center;"">₪11
                                                <br>20%</p>
                  <p id=""wtp"" style=""text-align:center; margin-top: 0px; margin-bottom: 0px; font-size: 40px"";>מוכנים לשלם: <span id=""c_p_y""></span></p>","3","evaluation","21","4","12C,17C,23C,28C","20","11","3","","","","","","","","","","","","","","",""
"","","","","","html-keyboard-response","41","1310860","0.0-17.0-2.7","e0a357de-392a-4b4a-8b50-455f6c02a010","null","<p style=""text-align: center;"">+</p>","null","fixation","","","","","","","","","","","","","","","","","","","","",""
"","","","","","html-slider-response","42","1311870","0.0-17.0-0.8","e0a357de-392a-4b4a-8b50-455f6c02a010","1000","
                  <p style=""text-align: center;"">₪79
                                                <br>40%</p>
                  <p id=""wtp"" style=""text-align:center; margin-top: 0px; margin-bottom: 0px; font-size: 40px"";>&ensp;</p>","-","viewing","0","30","9B","","","","","","","","","","","","","","","","","",""
"","","","","","html-slider-response","43","1314628","0.0-17.0-1.8","e0a357de-392a-4b4a-8b50-455f6c02a010","2757","
                  <p style=""text-align: center;"">₪79
                                                <br>40%</p>
                  <p id=""wtp"" style=""text-align:center; margin-top: 0px; margin-bottom: 0px; font-size: 40px"";>מוכנים לשלם: <span id=""c_p_y""></span></p>","33","evaluation","64","30","9B","40","79","33","","","","","","","","","","","","","","",""
"","","","","","html-keyboard-response","44","1315620","0.0-17.0-2.8","e0a357de-392a-4b4a-8b50-455f6c02a010","null","<p style=""text-align: center;"">+</p>","null","fixation","","","","","","","","","","","","","","","","","","","","",""
"","","","","","html-slider-response","45","1316625","0.0-17.0-0.9","e0a357de-392a-4b4a-8b50-455f6c02a010","1000","
                  <p style=""text-align: center;"">₪43
                                                <br>60%</p>
                  <p id=""wtp"" style=""text-align:center; margin-top: 0px; margin-bottom: 0px; font-size: 40px"";>&ensp;</p>","-","viewing","0","17","2A,7A,9A,15B","","","","","","","","","","","","","","","","","",""
"","","","","","html-slider-response","46","1320012","0.0-17.0-1.9","e0a357de-392a-4b4a-8b50-455f6c02a010","3386","
                  <p style=""text-align: center;"">₪43
                                                <br>60%</p>
                  <p id=""wtp"" style=""text-align:center; margin-top: 0px; margin-bottom: 0px; font-size: 40px"";>מוכנים לשלם: <span id=""c_p_y""></span></p>","45","evaluation","55","17","2A,7A,9A,15B","60","43","45","","","","","","","","","","","","","","",""
"","","","","","html-keyboard-response","47","1321420","0.0-17.0-2.9","e0a357de-392a-4b4a-8b50-455f6c02a010","null","<p style=""text-align: center;"">+</p>","null","fixation","","","","","","","","","","","","","","","","","","","","",""
"","","","","","html-slider-response","48","1322430","0.0-17.0-0.10","e0a357de-392a-4b4a-8b50-455f6c02a010","1000","
                  <p style=""text-align: center;"">₪71
                                                <br>45%</p>
                  <p id=""wtp"" style=""text-align:center; margin-top: 0px; margin-bottom: 0px; font-size: 40px"";>&ensp;</p>","-","viewing","0","26","2B,16A","","","","","","","","","","","","","","","","","",""
"","","","","","html-slider-response","49","1326196","0.0-17.0-1.10","e0a357de-392a-4b4a-8b50-455f6c02a010","3765","
                  <p style=""text-align: center;"">₪71
                                                <br>45%</p>
                  <p id=""wtp"" style=""text-align:center; margin-top: 0px; margin-bottom: 0px; font-size: 40px"";>מוכנים לשלם: <span id=""c_p_y""></span></p>","37","evaluation","58","26","2B,16A","45","71","37","","","","","","","","","","","","","","",""
"","","","","","html-keyboard-response","50","1327685","0.0-17.0-2.10","e0a357de-392a-4b4a-8b50-455f6c02a010","null","<p style=""text-align: center;"">+</p>","null","fixation","","","","","","","","","","","","","","","","","","","","",""
"","","","","","html-slider-response","51","1328688","0.0-17.0-0.11","e0a357de-392a-4b4a-8b50-455f6c02a010","1000","
                  <p style=""text-align: center;"">₪61
                                                <br>45%</p>
                  <p id=""wtp"" style=""text-align:center; margin-top: 0px; margin-bottom: 0px; font-size: 40px"";>&ensp;</p>","-","viewing","0","22","10A,11A","","","","","","","","","","","","","","","","","",""
"","","","","","html-slider-response","52","1331516","0.0-17.0-1.11","e0a357de-392a-4b4a-8b50-455f6c02a010","2827","
                  <p style=""text-align: center;"">₪61
                                                <br>45%</p>
                  <p id=""wtp"" style=""text-align:center; margin-top: 0px; margin-bottom: 0px; font-size: 40px"";>מוכנים לשלם: <span id=""c_p_y""></span></p>","50","evaluation","65","22","10A,11A","45","61","50","","","","","","","","","","","","","","",""
"","","","","","html-keyboard-response","53","1332982","0.0-17.0-2.11","e0a357de-392a-4b4a-8b50-455f6c02a010","null","<p style=""text-align: center;"">+</p>","null","fixation","","","","","","","","","","","","","","","","","","","","",""
"","","","","","html-slider-response","54","1333991","0.0-17.0-0.12","e0a357de-392a-4b4a-8b50-455f6c02a010","1000","
                  <p style=""text-align: center;"">₪43
                                                <br>75%</p>
                  <p id=""wtp"" style=""text-align:center; margin-top: 0px; margin-bottom: 0px; font-size: 40px"";>&ensp;</p>","-","viewing","0","18","11B,19B,24A,26A","","","","","","","","","","","","","","","","","",""
"","","","","","html-slider-response","55","1336972","0.0-17.0-1.12","e0a357de-392a-4b4a-8b50-455f6c02a010","2980","
                  <p style=""text-align: center;"">₪43
                                                <br>75%</p>
                  <p id=""wtp"" style=""text-align:center; margin-top: 0px; margin-bottom: 0px; font-size: 40px"";>מוכנים לשלם: <span id=""c_p_y""></span></p>","59","evaluation","48","18","11B,19B,24A,26A","75","43","58","","","","","","","","","","","","","","",""
"","","","","","html-keyboard-response","56","1338162","0.0-17.0-2.12","e0a357de-392a-4b4a-8b50-455f6c02a010","null","<p style=""text-align: center;"">+</p>","null","fixation","","","","","","","","","","","","","","","","","","","","",""
"","","","","","html-slider-response","57","1339165","0.0-17.0-0.13","e0a357de-392a-4b4a-8b50-455f6c02a010","1000","
                  <p style=""text-align: center;"">₪11
                                                <br>45%</p>
                  <p id=""wtp"" style=""text-align:center; margin-top: 0px; margin-bottom: 0px; font-size: 40px"";>&ensp;</p>","-","viewing","0","6","14B,21C,25C","","","","","","","","","","","","","","","","","",""
"","","","","","html-slider-response","58","1342684","0.0-17.0-1.13","e0a357de-392a-4b4a-8b50-455f6c02a010","3518","
                  <p style=""text-align: center;"">₪11
                                                <br>45%</p>
                  <p id=""wtp"" style=""text-align:center; margin-top: 0px; margin-bottom: 0px; font-size: 40px"";>מוכנים לשלם: <span id=""c_p_y""></span></p>","3","evaluation","27","6","14B,21C,25C","45","11","3","","","","","","","","","","","","","","",""
"","","","","","html-keyboard-response","59","1344015","0.0-17.0-2.13","e0a357de-392a-4b4a-8b50-455f6c02a010","null","<p style=""text-align: center;"">+</p>","null","fixation","","","","","","","","","","","","","","","","","","","","",""
"","","","","","html-slider-response","60","1345021","0.0-17.0-0.14","e0a357de-392a-4b4a-8b50-455f6c02a010","1000","
                  <p style=""text-align: center;"">₪16
                                                <br>20%</p>
                  <p id=""wtp"" style=""text-align:center; margin-top: 0px; margin-bottom: 0px; font-size: 40px"";>&ensp;</p>","-","viewing","0","8","14C,17A,20C,27A","","","","","","","","","","","","","","","","","",""
"","","","","","html-slider-response","61","1349037","0.0-17.0-1.14","e0a357de-392a-4b4a-8b50-455f6c02a010","null","
                  <p style=""text-align: center;"">₪16
                                                <br>20%</p>
                  <p id=""wtp"" style=""text-align:center; margin-top: 0px; margin-bottom: 0px; font-size: 40px"";>מוכנים לשלם: <span id=""c_p_y""></span></p>","null","evaluation","2","8","14C,17A,20C,27A","20","16","5","","","","","","","","","","","","","","",""
"","","","","","html-keyboard-response","62","1350324","0.0-17.0-2.14","e0a357de-392a-4b4a-8b50-455f6c02a010","null","<p style=""text-align: center;"">+</p>","null","fixation","","","","","","","","","","","","","","","","","","","","",""
"","","","","","html-slider-response","63","1351326","0.0-17.0-0.15","e0a357de-392a-4b4a-8b50-455f6c02a010","1000","
                  <p style=""text-align: center;"">₪11
                                                <br>25%</p>
                  <p id=""wtp"" style=""text-align:center; margin-top: 0px; margin-bottom: 0px; font-size: 40px"";>&ensp;</p>","-","viewing","0","5","12A,27B,28B,30B","","","","","","","","","","","","","","","","","",""
"","","","","","html-slider-response","64","1354972","0.0-17.0-1.15","e0a357de-392a-4b4a-8b50-455f6c02a010","3646","
                  <p style=""text-align: center;"">₪11
                                                <br>25%</p>
                  <p id=""wtp"" style=""text-align:center; margin-top: 0px; margin-bottom: 0px; font-size: 40px"";>מוכנים לשלם: <span id=""c_p_y""></span></p>","2","evaluation","2","5","12A,27B,28B,30B","25","11","3","","","","","","","","","","","","","","",""
"","","","","","html-keyboard-response","65","1356409","0.0-17.0-2.15","e0a357de-392a-4b4a-8b50-455f6c02a010","null","<p style=""text-align: center;"">+</p>","null","fixation","","","","","","","","","","","","","","","","","","","","",""
"","","","","","html-slider-response","66","1357413","0.0-17.0-0.16","e0a357de-392a-4b4a-8b50-455f6c02a010","1000","
                  <p style=""text-align: center;"">₪39
                                                <br>65%</p>
                  <p id=""wtp"" style=""text-align:center; margin-top: 0px; margin-bottom: 0px; font-size: 40px"";>&ensp;</p>","-","viewing","0","16","1A,15A,26C","","","","","","","","","","","","","","","","","",""
"","","","","","html-slider-response","67","1361412","0.0-17.0-1.16","e0a357de-392a-4b4a-8b50-455f6c02a010","null","
                  <p style=""text-align: center;"">₪39
                                                <br>65%</p>
                  <p id=""wtp"" style=""text-align:center; margin-top: 0px; margin-bottom: 0px; font-size: 40px"";>מוכנים לשלם: <span id=""c_p_y""></span></p>","null","evaluation","40","16","1A,15A,26C","65","39","15","","","","","","","","","","","","","","",""
"","","","","","html-keyboard-response","68","1362797","0.0-17.0-2.16","e0a357de-392a-4b4a-8b50-455f6c02a010","null","<p style=""text-align: center;"">+</p>","null","fixation","","","","","","","","","","","","","","","","","","","","",""
"","","","","","html-slider-response","69","1363800","0.0-17.0-0.17","e0a357de-392a-4b4a-8b50-455f6c02a010","1000","
                  <p style=""text-align: center;"">₪79
                                                <br>65%</p>
                  <p id=""wtp"" style=""text-align:center; margin-top: 0px; margin-bottom: 0px; font-size: 40px"";>&ensp;</p>","-","viewing","0","31","8A","","","","","","","","","","","","","","","","","",""
"","","","","","html-slider-response","70","1366895","0.0-17.0-1.17","e0a357de-392a-4b4a-8b50-455f6c02a010","3094","
                  <p style=""text-align: center;"">₪79
                                                <br>65%</p>
                  <p id=""wtp"" style=""text-align:center; margin-top: 0px; margin-bottom: 0px; font-size: 40px"";>מוכנים לשלם: <span id=""c_p_y""></span></p>","47","evaluation","60","31","8A","65","79","47","","","","","","","","","","","","","","",""
"","","","","","html-keyboard-response","71","1367841","0.0-17.0-2.17","e0a357de-392a-4b4a-8b50-455f6c02a010","null","<p style=""text-align: center;"">+</p>","null","fixation","","","","","","","","","","","","","","","","","","","","",""
"","","","","","html-slider-response","72","1368855","0.0-17.0-0.18","e0a357de-392a-4b4a-8b50-455f6c02a010","1000","
                  <p style=""text-align: center;"">₪4
                                                <br>75%</p>
                  <p id=""wtp"" style=""text-align:center; margin-top: 0px; margin-bottom: 0px; font-size: 40px"";>&ensp;</p>","-","viewing","0","3","12B,20B,23B,27C,29C","","","","","","","","","","","","","","","","","",""
"","","","","","html-slider-response","73","1370335","0.0-17.0-1.18","e0a357de-392a-4b4a-8b50-455f6c02a010","1479","
                  <p style=""text-align: center;"">₪4
                                                <br>75%</p>
                  <p id=""wtp"" style=""text-align:center; margin-top: 0px; margin-bottom: 0px; font-size: 40px"";>מוכנים לשלם: <span id=""c_p_y""></span></p>","1","evaluation","60","3","12B,20B,23B,27C,29C","75","4","1","","","","","","","","","","","","","","",""
"","","","","","html-keyboard-response","74","1371433","0.0-17.0-2.18","e0a357de-392a-4b4a-8b50-455f6c02a010","null","<p style=""text-align: center;"">+</p>","null","fixation","","","","","","","","","","","","","","","","","","","","",""
"","","","","","html-slider-response","75","1372442","0.0-17.0-0.19","e0a357de-392a-4b4a-8b50-455f6c02a010","1000","
                  <p style=""text-align: center;"">₪71
                                                <br>55%</p>
                  <p id=""wtp"" style=""text-align:center; margin-top: 0px; margin-bottom: 0px; font-size: 40px"";>&ensp;</p>","-","viewing","0","27","5B,18A","","","","","","","","","","","","","","","","","",""
"","","","","","html-slider-response","76","1375167","0.0-17.0-1.19","e0a357de-392a-4b4a-8b50-455f6c02a010","2725","
                  <p style=""text-align: center;"">₪71
                                                <br>55%</p>
                  <p id=""wtp"" style=""text-align:center; margin-top: 0px; margin-bottom: 0px; font-size: 40px"";>מוכנים לשלם: <span id=""c_p_y""></span></p>","38","evaluation","70","27","5B,18A","55","71","38","","","","","","","","","","","","","","",""
"","","","","","html-keyboard-response","77","1375913","0.0-17.0-2.19","e0a357de-392a-4b4a-8b50-455f6c02a010","null","<p style=""text-align: center;"">+</p>","null","fixation","","","","","","","","","","","","","","","","","","","","",""
"","","","","","html-slider-response","78","1376922","0.0-17.0-0.20","e0a357de-392a-4b4a-8b50-455f6c02a010","1000","
                  <p style=""text-align: center;"">₪58
                                                <br>45%</p>
                  <p id=""wtp"" style=""text-align:center; margin-top: 0px; margin-bottom: 0px; font-size: 40px"";>&ensp;</p>","-","viewing","0","21","11C,18C,25A","","","","","","","","","","","","","","","","","",""
"","","","","","html-slider-response","79","1380183","0.0-17.0-1.20","e0a357de-392a-4b4a-8b50-455f6c02a010","3259","
                  <p style=""text-align: center;"">₪58
                                                <br>45%</p>
                  <p id=""wtp"" style=""text-align:center; margin-top: 0px; margin-bottom: 0px; font-size: 40px"";>מוכנים לשלם: <span id=""c_p_y""></span></p>","36","evaluation","55","21","11C,18C,25A","45","58","36","","","","","","","","","","","","","","",""
"","","","","","html-keyboard-response","80","1380809","0.0-17.0-2.20","e0a357de-392a-4b4a-8b50-455f6c02a010","null","<p style=""text-align: center;"">+</p>","null","fixation","","","","","","","","","","","","","","","","","","","","",""
"","","","","","html-slider-response","81","1381818","0.0-17.0-0.21","e0a357de-392a-4b4a-8b50-455f6c02a010","1000","
                  <p style=""text-align: center;"">₪71
                                                <br>75%</p>
                  <p id=""wtp"" style=""text-align:center; margin-top: 0px; margin-bottom: 0px; font-size: 40px"";>&ensp;</p>","-","viewing","0","28","8B","","","","","","","","","","","","","","","","","",""
"","","","","","html-slider-response","82","1385167","0.0-17.0-1.21","e0a357de-392a-4b4a-8b50-455f6c02a010","3348","
                  <p style=""text-align: center;"">₪71
                                                <br>75%</p>
                  <p id=""wtp"" style=""text-align:center; margin-top: 0px; margin-bottom: 0px; font-size: 40px"";>מוכנים לשלם: <span id=""c_p_y""></span></p>","59","evaluation","47","28","8B","75","71","59","","","","","","","","","","","","","","",""
"","","","","","html-keyboard-response","83","1386550","0.0-17.0-2.21","e0a357de-392a-4b4a-8b50-455f6c02a010","null","<p style=""text-align: center;"">+</p>","null","fixation","","","","","","","","","","","","","","","","","","","","",""
"","","","","","html-slider-response","84","1387555","0.0-17.0-0.22","e0a357de-392a-4b4a-8b50-455f6c02a010","1000","
                  <p style=""text-align: center;"">₪61
                                                <br>55%</p>
                  <p id=""wtp"" style=""text-align:center; margin-top: 0px; margin-bottom: 0px; font-size: 40px"";>&ensp;</p>","-","viewing","0","23","7B,26B","","","","","","","","","","","","","","","","","",""
"","","","","","html-slider-response","85","1390407","0.0-17.0-1.22","e0a357de-392a-4b4a-8b50-455f6c02a010","2852","
                  <p style=""text-align: center;"">₪61
                                                <br>55%</p>
                  <p id=""wtp"" style=""text-align:center; margin-top: 0px; margin-bottom: 0px; font-size: 40px"";>מוכנים לשלם: <span id=""c_p_y""></span></p>","56","evaluation","33","23","7B,26B","55","61","56","","","","","","","","","","","","","","",""
"","","","","","html-keyboard-response","86","1391303","0.0-17.0-2.22","e0a357de-392a-4b4a-8b50-455f6c02a010","null","<p style=""text-align: center;"">+</p>","null","fixation","","","","","","","","","","","","","","","","","","","","",""
"","","","","","html-slider-response","87","1392313","0.0-17.0-0.23","e0a357de-392a-4b4a-8b50-455f6c02a010","1000","
                  <p style=""text-align: center;"">₪4
                                                <br>50%</p>
                  <p id=""wtp"" style=""text-align:center; margin-top: 0px; margin-bottom: 0px; font-size: 40px"";>&ensp;</p>","-","viewing","0","2","4C,17B","","","","","","","","","","","","","","","","","",""
"","","","","","html-slider-response","88","1395159","0.0-17.0-1.23","e0a357de-392a-4b4a-8b50-455f6c02a010","2845","
                  <p style=""text-align: center;"">₪4
                                                <br>50%</p>
                  <p id=""wtp"" style=""text-align:center; margin-top: 0px; margin-bottom: 0px; font-size: 40px"";>מוכנים לשלם: <span id=""c_p_y""></span></p>","0","evaluation","29","2","4C,17B","50","4","1","","","","","","","","","","","","","","",""
"","","","","","html-keyboard-response","89","1395994","0.0-17.0-2.23","e0a357de-392a-4b4a-8b50-455f6c02a010","null","<p style=""text-align: center;"">+</p>","null","fixation","","","","","","","","","","","","","","","","","","","","",""
"","","","","","html-slider-response","90","1397000","0.0-17.0-0.24","e0a357de-392a-4b4a-8b50-455f6c02a010","1000","
                  <p style=""text-align: center;"">₪11
                                                <br>75%</p>
                  <p id=""wtp"" style=""text-align:center; margin-top: 0px; margin-bottom: 0px; font-size: 40px"";>&ensp;</p>","-","viewing","0","7","6B,18B,22C,24C,29A","","","","","","","","","","","","","","","","","",""
"","","","","","html-slider-response","91","1399543","0.0-17.0-1.24","e0a357de-392a-4b4a-8b50-455f6c02a010","2542","
                  <p style=""text-align: center;"">₪11
                                                <br>75%</p>
                  <p id=""wtp"" style=""text-align:center; margin-top: 0px; margin-bottom: 0px; font-size: 40px"";>מוכנים לשלם: <span id=""c_p_y""></span></p>","5","evaluation","25","7","6B,18B,22C,24C,29A","75","11","5","","","","","","","","","","","","","","",""
"","","","","","html-keyboard-response","92","1400301","0.0-17.0-2.24","e0a357de-392a-4b4a-8b50-455f6c02a010","null","<p style=""text-align: center;"">+</p>","null","fixation","","","","","","","","","","","","","","","","","","","","",""
"","","","","","html-slider-response","93","1401317","0.0-17.0-0.25","e0a357de-392a-4b4a-8b50-455f6c02a010","1000","
                  <p style=""text-align: center;"">₪64
                                                <br>50%</p>
                  <p id=""wtp"" style=""text-align:center; margin-top: 0px; margin-bottom: 0px; font-size: 40px"";>&ensp;</p>","-","viewing","0","25","1B,3B,4A","","","","","","","","","","","","","","","","","",""
"","","","","","html-slider-response","94","1405320","0.0-17.0-1.25","e0a357de-392a-4b4a-8b50-455f6c02a010","null","
                  <p style=""text-align: center;"">₪64
                                                <br>50%</p>
                  <p id=""wtp"" style=""text-align:center; margin-top: 0px; margin-bottom: 0px; font-size: 40px"";>מוכנים לשלם: <span id=""c_p_y""></span></p>","null","evaluation","43","25","1B,3B,4A","50","64","38","","","","","","","","","","","","","","",""
"","","","","","html-keyboard-response","95","1406338","0.0-17.0-2.25","e0a357de-392a-4b4a-8b50-455f6c02a010","null","<p style=""text-align: center;"">+</p>","null","fixation","","","","","","","","","","","","","","","","","","","","",""
"","","","","","html-slider-response","96","1407343","0.0-17.0-0.26","e0a357de-392a-4b4a-8b50-455f6c02a010","1000","
                  <p style=""text-align: center;"">₪36
                                                <br>70%</p>
                  <p id=""wtp"" style=""text-align:center; margin-top: 0px; margin-bottom: 0px; font-size: 40px"";>&ensp;</p>","-","viewing","0","13","3A,5C,10B","","","","","","","","","","","","","","","","","",""
"","","","","","html-slider-response","97","1410695","0.0-17.0-1.26","e0a357de-392a-4b4a-8b50-455f6c02a010","3351","
                  <p style=""text-align: center;"">₪36
                                                <br>70%</p>
                  <p id=""wtp"" style=""text-align:center; margin-top: 0px; margin-bottom: 0px; font-size: 40px"";>מוכנים לשלם: <span id=""c_p_y""></span></p>","41","evaluation","71","13","3A,5C,10B","70","36","41","","","","","","","","","","","","","","",""
"","","","","","html-keyboard-response","98","1411948","0.0-17.0-2.26","e0a357de-392a-4b4a-8b50-455f6c02a010","null","<p style=""text-align: center;"">+</p>","null","fixation","","","","","","","","","","","","","","","","","","","","",""
"","","","","","html-slider-response","99","1412965","0.0-17.0-0.27","e0a357de-392a-4b4a-8b50-455f6c02a010","1000","
                  <p style=""text-align: center;"">₪18
                                                <br>25%</p>
                  <p id=""wtp"" style=""text-align:center; margin-top: 0px; margin-bottom: 0px; font-size: 40px"";>&ensp;</p>","-","viewing","0","9","14A,23A","","","","","","","","","","","","","","","","","",""
"","","","","","html-slider-response","100","1415623","0.0-17.0-1.27","e0a357de-392a-4b4a-8b50-455f6c02a010","2657","
                  <p style=""text-align: center;"">₪18
                                                <br>25%</p>
                  <p id=""wtp"" style=""text-align:center; margin-top: 0px; margin-bottom: 0px; font-size: 40px"";>מוכנים לשלם: <span id=""c_p_y""></span></p>","4","evaluation","60","9","14A,23A","25","18","5","","","","","","","","","","","","","","",""
"","","","","","html-keyboard-response","101","1416183","0.0-17.0-2.27","e0a357de-392a-4b4a-8b50-455f6c02a010","null","<p style=""text-align: center;"">+</p>","null","fixation","","","","","","","","","","","","","","","","","","","","",""
"","","","","","html-slider-response","102","1417187","0.0-17.0-0.28","e0a357de-392a-4b4a-8b50-455f6c02a010","1000","
                  <p style=""text-align: center;"">₪36
                                                <br>75%</p>
                  <p id=""wtp"" style=""text-align:center; margin-top: 0px; margin-bottom: 0px; font-size: 40px"";>&ensp;</p>","-","viewing","0","14","4B,5A,13B,16B","","","","","","","","","","","","","","","","","",""
"","","","","","html-slider-response","103","1419239","0.0-17.0-1.28","e0a357de-392a-4b4a-8b50-455f6c02a010","2050","
                  <p style=""text-align: center;"">₪36
                                                <br>75%</p>
                  <p id=""wtp"" style=""text-align:center; margin-top: 0px; margin-bottom: 0px; font-size: 40px"";>מוכנים לשלם: <span id=""c_p_y""></span></p>","20","evaluation","2","14","4B,5A,13B,16B","75","36","20","","","","","","","","","","","","","","",""
"","","","","","html-keyboard-response","104","1420115","0.0-17.0-2.28","e0a357de-392a-4b4a-8b50-455f6c02a010","null","<p style=""text-align: center;"">+</p>","null","fixation","","","","","","","","","","","","","","","","","","","","",""
"","","","","","html-slider-response","105","1421120","0.0-17.0-0.29","e0a357de-392a-4b4a-8b50-455f6c02a010","1000","
                  <p style=""text-align: center;"">₪58
                                                <br>40%</p>
                  <p id=""wtp"" style=""text-align:center; margin-top: 0px; margin-bottom: 0px; font-size: 40px"";>&ensp;</p>","-","viewing","0","20","10C,13A,19C,21B","","","","","","","","","","","","","","","","","",""
"","","","","","html-slider-response","106","1424116","0.0-17.0-1.29","e0a357de-392a-4b4a-8b50-455f6c02a010","2995","
                  <p style=""text-align: center;"">₪58
                                                <br>40%</p>
                  <p id=""wtp"" style=""text-align:center; margin-top: 0px; margin-bottom: 0px; font-size: 40px"";>מוכנים לשלם: <span id=""c_p_y""></span></p>","26","evaluation","13","20","10C,13A,19C,21B","40","58","26","","","","","","","","","","","","","","",""
"","","","","","html-keyboard-response","107","1424752","0.0-17.0-2.29","e0a357de-392a-4b4a-8b50-455f6c02a010","null","<p style=""text-align: center;"">+</p>","null","fixation","","","","","","","","","","","","","","","","","","","","",""
"","","","","","html-slider-response","108","1425758","0.0-17.0-0.30","e0a357de-392a-4b4a-8b50-455f6c02a010","1000","
                  <p style=""text-align: center;"">₪64
                                                <br>25%</p>
                  <p id=""wtp"" style=""text-align:center; margin-top: 0px; margin-bottom: 0px; font-size: 40px"";>&ensp;</p>","-","viewing","0","24","6A,21A","","","","","","","","","","","","","","","","","",""
"","","","","","html-slider-response","109","1428731","0.0-17.0-1.30","e0a357de-392a-4b4a-8b50-455f6c02a010","2972","
                  <p style=""text-align: center;"">₪64
                                                <br>25%</p>
                  <p id=""wtp"" style=""text-align:center; margin-top: 0px; margin-bottom: 0px; font-size: 40px"";>מוכנים לשלם: <span id=""c_p_y""></span></p>","13","evaluation","58","24","6A,21A","25","64","13","","","","","","","","","","","","","","",""
"","","","","","html-keyboard-response","110","1429952","0.0-17.0-2.30","e0a357de-392a-4b4a-8b50-455f6c02a010","null","<p style=""text-align: center;"">+</p>","null","fixation","","","","","","","","","","","","","","","","","","","","",""
"","","","","","html-keyboard-response","111","1430962","0.0-18.0","e0a357de-392a-4b4a-8b50-455f6c02a010","null","<p style=""text-align: center;"">+</p>","null","fixation","","","","","","","","","","","","","","","","","","","","",""
"","","","","","html-keyboard-response","112","1445075","0.0-19.0","e0a357de-392a-4b4a-8b50-455f6c02a010","null","<p>הפסקה.
          <br>לחצו כדי להמשיך.</p>","1","scan_wait","","","","","","","","","","","","","","","","","","","","",""
"","","","","","html-keyboard-response","113","1446086","0.0-20.0","e0a357de-392a-4b4a-8b50-455f6c02a010","null","<p style=""text-align: center;"">+</p>","null","fixation","","","","","","","","","","","","","","","","","","","","",""
"","","","","","html-slider-response","114","1447089","0.0-21.0-0.0","e0a357de-392a-4b4a-8b50-455f6c02a010","1000","
                  <p style=""text-align: center;"">₪11
                                                <br>25%</p>
                  <p id=""wtp"" style=""text-align:center; margin-top: 0px; margin-bottom: 0px; font-size: 40px"";>&ensp;</p>","-","viewing","0","5","12A,27B,28B,30B","","","","","","","","","","","","","","","","","",""
"","","","","","html-slider-response","115","1448452","0.0-21.0-1.0","e0a357de-392a-4b4a-8b50-455f6c02a010","1362","
                  <p style=""text-align: center;"">₪11
                                                <br>25%</p>
                  <p id=""wtp"" style=""text-align:center; margin-top: 0px; margin-bottom: 0px; font-size: 40px"";>מוכנים לשלם: <span id=""c_p_y""></span></p>","2","evaluation","50","5","12A,27B,28B,30B","25","11","2","","","","","","","","","","","","","","",""
"","","","","","html-keyboard-response","116","1449075","0.0-21.0-2.0","e0a357de-392a-4b4a-8b50-455f6c02a010","null","<p style=""text-align: center;"">+</p>","null","fixation","","","","","","","","","","","","","","","","","","","","",""
"","","","","","html-slider-response","117","1450087","0.0-21.0-0.1","e0a357de-392a-4b4a-8b50-455f6c02a010","1000","
                  <p style=""text-align: center;"">₪64
                                                <br>25%</p>
                  <p id=""wtp"" style=""text-align:center; margin-top: 0px; margin-bottom: 0px; font-size: 40px"";>&ensp;</p>","-","viewing","0","24","6A,21A","","","","","","","","","","","","","","","","","",""
"","","","","","html-slider-response","118","1452612","0.0-21.0-1.1","e0a357de-392a-4b4a-8b50-455f6c02a010","2523","
                  <p style=""text-align: center;"">₪64
                                                <br>25%</p>
                  <p id=""wtp"" style=""text-align:center; margin-top: 0px; margin-bottom: 0px; font-size: 40px"";>מוכנים לשלם: <span id=""c_p_y""></span></p>","43","evaluation","49","24","6A,21A","25","64","43","","","","","","","","","","","","","","",""
"","","","","","html-keyboard-response","119","1453322","0.0-21.0-2.1","e0a357de-392a-4b4a-8b50-455f6c02a010","null","<p style=""text-align: center;"">+</p>","null","fixation","","","","","","","","","","","","","","","","","","","","",""
"","","","","","html-slider-response","120","1454336","0.0-21.0-0.2","e0a357de-392a-4b4a-8b50-455f6c02a010","1000","
                  <p style=""text-align: center;"">₪71
                                                <br>55%</p>
                  <p id=""wtp"" style=""text-align:center; margin-top: 0px; margin-bottom: 0px; font-size: 40px"";>&ensp;</p>","-","viewing","0","27","5B,18A","","","","","","","","","","","","","","","","","",""
"","","","","","html-slider-response","121","1456140","0.0-21.0-1.2","e0a357de-392a-4b4a-8b50-455f6c02a010","1803","
                  <p style=""text-align: center;"">₪71
                                                <br>55%</p>
                  <p id=""wtp"" style=""text-align:center; margin-top: 0px; margin-bottom: 0px; font-size: 40px"";>מוכנים לשלם: <span id=""c_p_y""></span></p>","48","evaluation","58","27","5B,18A","55","71","48","","","","","","","","","","","","","","",""
"","","","","","html-keyboard-response","122","1457402","0.0-21.0-2.2","e0a357de-392a-4b4a-8b50-455f6c02a010","null","<p style=""text-align: center;"">+</p>","null","fixation","","","","","","","","","","","","","","","","","","","","",""
"","","","","","html-slider-response","123","1458406","0.0-21.0-0.3","e0a357de-392a-4b4a-8b50-455f6c02a010","1000","
                  <p style=""text-align: center;"">₪18
                                                <br>25%</p>
                  <p id=""wtp"" style=""text-align:center; margin-top: 0px; margin-bottom: 0px; font-size: 40px"";>&ensp;</p>","-","viewing","0","9","14A,23A","","","","","","","","","","","","","","","","","",""
"","","","","","html-slider-response","124","1459716","0.0-21.0-1.3","e0a357de-392a-4b4a-8b50-455f6c02a010","1309","
                  <p style=""text-align: center;"">₪18
                                                <br>25%</p>
                  <p id=""wtp"" style=""text-align:center; margin-top: 0px; margin-bottom: 0px; font-size: 40px"";>מוכנים לשלם: <span id=""c_p_y""></span></p>","2","evaluation","60","9","14A,23A","25","18","3","","","","","","","","","","","","","","",""
"","","","","","html-keyboard-response","125","1460966","0.0-21.0-2.3","e0a357de-392a-4b4a-8b50-455f6c02a010","null","<p style=""text-align: center;"">+</p>","null","fixation","","","","","","","","","","","","","","","","","","","","",""
"","","","","","html-slider-response","126","1461978","0.0-21.0-0.4","e0a357de-392a-4b4a-8b50-455f6c02a010","1000","
                  <p style=""text-align: center;"">₪58
                                                <br>30%</p>
                  <p id=""wtp"" style=""text-align:center; margin-top: 0px; margin-bottom: 0px; font-size: 40px"";>&ensp;</p>","-","viewing","0","19","13C,30A","","","","","","","","","","","","","","","","","",""
"","","","","","html-slider-response","127","1464787","0.0-21.0-1.4","e0a357de-392a-4b4a-8b50-455f6c02a010","2808","
                  <p style=""text-align: center;"">₪58
                                                <br>30%</p>
                  <p id=""wtp"" style=""text-align:center; margin-top: 0px; margin-bottom: 0px; font-size: 40px"";>מוכנים לשלם: <span id=""c_p_y""></span></p>","34","evaluation","43","19","13C,30A","30","58","34","","","","","","","","","","","","","","",""
"","","","","","html-keyboard-response","128","1466064","0.0-21.0-2.4","e0a357de-392a-4b4a-8b50-455f6c02a010","null","<p style=""text-align: center;"">+</p>","null","fixation","","","","","","","","","","","","","","","","","","","","",""
"","","","","","html-slider-response","129","1467070","0.0-21.0-0.5","e0a357de-392a-4b4a-8b50-455f6c02a010","1000","
                  <p style=""text-align: center;"">₪11
                                                <br>75%</p>
                  <p id=""wtp"" style=""text-align:center; margin-top: 0px; margin-bottom: 0px; font-size: 40px"";>&ensp;</p>","-","viewing","0","7","6B,18B,22C,24C,29A","","","","","","","","","","","","","","","","","",""
"","","","","","html-slider-response","130","1468763","0.0-21.0-1.5","e0a357de-392a-4b4a-8b50-455f6c02a010","1692","
                  <p style=""text-align: center;"">₪11
                                                <br>75%</p>
                  <p id=""wtp"" style=""text-align:center; margin-top: 0px; margin-bottom: 0px; font-size: 40px"";>מוכנים לשלם: <span id=""c_p_y""></span></p>","2","evaluation","73","7","6B,18B,22C,24C,29A","75","11","2","","","","","","","","","","","","","","",""
"","","","","","html-keyboard-response","131","1469411","0.0-21.0-2.5","e0a357de-392a-4b4a-8b50-455f6c02a010","null","<p style=""text-align: center;"">+</p>","null","fixation","","","","","","","","","","","","","","","","","","","","",""
"","","","","","html-slider-response","132","1470416","0.0-21.0-0.6","e0a357de-392a-4b4a-8b50-455f6c02a010","1000","
                  <p style=""text-align: center;"">₪43
                                                <br>75%</p>
                  <p id=""wtp"" style=""text-align:center; margin-top: 0px; margin-bottom: 0px; font-size: 40px"";>&ensp;</p>","-","viewing","0","18","11B,19B,24A,26A","","","","","","","","","","","","","","","","","",""
"","","","","","html-slider-response","133","1472803","0.0-21.0-1.6","e0a357de-392a-4b4a-8b50-455f6c02a010","2387","
                  <p style=""text-align: center;"">₪43
                                                <br>75%</p>
                  <p id=""wtp"" style=""text-align:center; margin-top: 0px; margin-bottom: 0px; font-size: 40px"";>מוכנים לשלם: <span id=""c_p_y""></span></p>","59","evaluation","61","18","11B,19B,24A,26A","75","43","59","","","","","","","","","","","","","","",""
"","","","","","html-keyboard-response","134","1474100","0.0-21.0-2.6","e0a357de-392a-4b4a-8b50-455f6c02a010","null","<p style=""text-align: center;"">+</p>","null","fixation","","","","","","","","","","","","","","","","","","","","",""
"","","","","","html-slider-response","135","1475109","0.0-21.0-0.7","e0a357de-392a-4b4a-8b50-455f6c02a010","1000","
                  <p style=""text-align: center;"">₪71
                                                <br>75%</p>
                  <p id=""wtp"" style=""text-align:center; margin-top: 0px; margin-bottom: 0px; font-size: 40px"";>&ensp;</p>","-","viewing","0","28","8B","","","","","","","","","","","","","","","","","",""
"","","","","","html-slider-response","136","1478019","0.0-21.0-1.7","e0a357de-392a-4b4a-8b50-455f6c02a010","2910","
                  <p style=""text-align: center;"">₪71
                                                <br>75%</p>
                  <p id=""wtp"" style=""text-align:center; margin-top: 0px; margin-bottom: 0px; font-size: 40px"";>מוכנים לשלם: <span id=""c_p_y""></span></p>","77","evaluation","49","28","8B","75","71","77","","","","","","","","","","","","","","",""
"","","","","","html-keyboard-response","137","1478621","0.0-21.0-2.7","e0a357de-392a-4b4a-8b50-455f6c02a010","null","<p style=""text-align: center;"">+</p>","null","fixation","","","","","","","","","","","","","","","","","","","","",""
"","","","","","html-slider-response","138","1479628","0.0-21.0-0.8","e0a357de-392a-4b4a-8b50-455f6c02a010","1000","
                  <p style=""text-align: center;"">₪11
                                                <br>45%</p>
                  <p id=""wtp"" style=""text-align:center; margin-top: 0px; margin-bottom: 0px; font-size: 40px"";>&ensp;</p>","-","viewing","0","6","14B,21C,25C","","","","","","","","","","","","","","","","","",""
"","","","","","html-slider-response","139","1482479","0.0-21.0-1.8","e0a357de-392a-4b4a-8b50-455f6c02a010","2854","
                  <p style=""text-align: center;"">₪11
                                                <br>45%</p>
                  <p id=""wtp"" style=""text-align:center; margin-top: 0px; margin-bottom: 0px; font-size: 40px"";>מוכנים לשלם: <span id=""c_p_y""></span></p>","1","evaluation","75","6","14B,21C,25C","45","11","1","","","","","","","","","","","","","","",""
"","","","","","html-keyboard-response","140","1483791","0.0-21.0-2.8","e0a357de-392a-4b4a-8b50-455f6c02a010","null","<p style=""text-align: center;"">+</p>","null","fixation","","","","","","","","","","","","","","","","","","","","",""
"","","","","","html-slider-response","141","1484793","0.0-21.0-0.9","e0a357de-392a-4b4a-8b50-455f6c02a010","1000","
                  <p style=""text-align: center;"">₪4
                                                <br>75%</p>
                  <p id=""wtp"" style=""text-align:center; margin-top: 0px; margin-bottom: 0px; font-size: 40px"";>&ensp;</p>","-","viewing","0","3","12B,20B,23B,27C,29C","","","","","","","","","","","","","","","","","",""
"","","","","","html-slider-response","142","1486999","0.0-21.0-1.9","e0a357de-392a-4b4a-8b50-455f6c02a010","2204","
                  <p style=""text-align: center;"">₪4
                                                <br>75%</p>
                  <p id=""wtp"" style=""text-align:center; margin-top: 0px; margin-bottom: 0px; font-size: 40px"";>מוכנים לשלם: <span id=""c_p_y""></span></p>","1","evaluation","47","3","12B,20B,23B,27C,29C","75","4","1","","","","","","","","","","","","","","",""
"","","","","","html-keyboard-response","143","1487724","0.0-21.0-2.9","e0a357de-392a-4b4a-8b50-455f6c02a010","null","<p style=""text-align: center;"">+</p>","null","fixation","","","","","","","","","","","","","","","","","","","","",""
"","","","","","html-slider-response","144","1488726","0.0-21.0-0.10","e0a357de-392a-4b4a-8b50-455f6c02a010","1000","
                  <p style=""text-align: center;"">₪39
                                                <br>60%</p>
                  <p id=""wtp"" style=""text-align:center; margin-top: 0px; margin-bottom: 0px; font-size: 40px"";>&ensp;</p>","-","viewing","0","15","9C,25B","","","","","","","","","","","","","","","","","",""
"","","","","","html-slider-response","145","1491367","0.0-21.0-1.10","e0a357de-392a-4b4a-8b50-455f6c02a010","2640","
                  <p style=""text-align: center;"">₪39
                                                <br>60%</p>
                  <p id=""wtp"" style=""text-align:center; margin-top: 0px; margin-bottom: 0px; font-size: 40px"";>מוכנים לשלם: <span id=""c_p_y""></span></p>","35","evaluation","5","15","9C,25B","60","39","35","","","","","","","","","","","","","","",""
"","","","","","html-keyboard-response","146","1492096","0.0-21.0-2.10","e0a357de-392a-4b4a-8b50-455f6c02a010","null","<p style=""text-align: center;"">+</p>","null","fixation","","","","","","","","","","","","","","","","","","","","",""
"","","","","","html-slider-response","147","1493110","0.0-21.0-0.11","e0a357de-392a-4b4a-8b50-455f6c02a010","1000","
                  <p style=""text-align: center;"">₪43
                                                <br>60%</p>
                  <p id=""wtp"" style=""text-align:center; margin-top: 0px; margin-bottom: 0px; font-size: 40px"";>&ensp;</p>","-","viewing","0","17","2A,7A,9A,15B","","","","","","","","","","","","","","","","","",""
"","","","","","html-slider-response","148","1495679","0.0-21.0-1.11","e0a357de-392a-4b4a-8b50-455f6c02a010","2568","
                  <p style=""text-align: center;"">₪43
                                                <br>60%</p>
                  <p id=""wtp"" style=""text-align:center; margin-top: 0px; margin-bottom: 0px; font-size: 40px"";>מוכנים לשלם: <span id=""c_p_y""></span></p>","48","evaluation","63","17","2A,7A,9A,15B","60","43","48","","","","","","","","","","","","","","",""
"","","","","","html-keyboard-response","149","1496585","0.0-21.0-2.11","e0a357de-392a-4b4a-8b50-455f6c02a010","null","<p style=""text-align: center;"">+</p>","null","fixation","","","","","","","","","","","","","","","","","","","","",""
"","","","","","html-slider-response","150","1497593","0.0-21.0-0.12","e0a357de-392a-4b4a-8b50-455f6c02a010","1000","
                  <p style=""text-align: center;"">₪79
                                                <br>40%</p>
                  <p id=""wtp"" style=""text-align:center; margin-top: 0px; margin-bottom: 0px; font-size: 40px"";>&ensp;</p>","-","viewing","0","30","9B","","","","","","","","","","","","","","","","","",""
"","","","","","html-slider-response","151","1499719","0.0-21.0-1.12","e0a357de-392a-4b4a-8b50-455f6c02a010","2125","
                  <p style=""text-align: center;"">₪79
                                                <br>40%</p>
                  <p id=""wtp"" style=""text-align:center; margin-top: 0px; margin-bottom: 0px; font-size: 40px"";>מוכנים לשלם: <span id=""c_p_y""></span></p>","80","evaluation","77","30","9B","40","79","80","","","","","","","","","","","","","","",""
"","","","","","html-keyboard-response","152","1501135","0.0-21.0-2.12","e0a357de-392a-4b4a-8b50-455f6c02a010","null","<p style=""text-align: center;"">+</p>","null","fixation","","","","","","","","","","","","","","","","","","","","",""
"","","","","","html-slider-response","153","1502144","0.0-21.0-0.13","e0a357de-392a-4b4a-8b50-455f6c02a010","1000","
                  <p style=""text-align: center;"">₪4
                                                <br>25%</p>
                  <p id=""wtp"" style=""text-align:center; margin-top: 0px; margin-bottom: 0px; font-size: 40px"";>&ensp;</p>","-","viewing","0","1","6C,29B,30C","","","","","","","","","","","","","","","","","",""
"","","","","","html-slider-response","154","1503743","0.0-21.0-1.13","e0a357de-392a-4b4a-8b50-455f6c02a010","1598","
                  <p style=""text-align: center;"">₪4
                                                <br>25%</p>
                  <p id=""wtp"" style=""text-align:center; margin-top: 0px; margin-bottom: 0px; font-size: 40px"";>מוכנים לשלם: <span id=""c_p_y""></span></p>","1","evaluation","60","1","6C,29B,30C","25","4","1","","","","","","","","","","","","","","",""
"","","","","","html-keyboard-response","155","1504728","0.0-21.0-2.13","e0a357de-392a-4b4a-8b50-455f6c02a010","null","<p style=""text-align: center;"">+</p>","null","fixation","","","","","","","","","","","","","","","","","","","","",""
"","","","","","html-slider-response","156","1505730","0.0-21.0-0.14","e0a357de-392a-4b4a-8b50-455f6c02a010","1000","
                  <p style=""text-align: center;"">₪71
                                                <br>45%</p>
                  <p id=""wtp"" style=""text-align:center; margin-top: 0px; margin-bottom: 0px; font-size: 40px"";>&ensp;</p>","-","viewing","0","26","2B,16A","","","","","","","","","","","","","","","","","",""
"","","","","","html-slider-response","157","1506479","0.0-21.0-1.14","e0a357de-392a-4b4a-8b50-455f6c02a010","747","
                  <p style=""text-align: center;"">₪71
                                                <br>45%</p>
                  <p id=""wtp"" style=""text-align:center; margin-top: 0px; margin-bottom: 0px; font-size: 40px"";>מוכנים לשלם: <span id=""c_p_y""></span></p>","80","evaluation","2","26","2B,16A","45","71","80","","","","","","","","","","","","","","",""
"","","","","","html-keyboard-response","158","1507319","0.0-21.0-2.14","e0a357de-392a-4b4a-8b50-455f6c02a010","null","<p style=""text-align: center;"">+</p>","null","fixation","","","","","","","","","","","","","","","","","","","","",""
"","","","","","html-slider-response","159","1508333","0.0-21.0-0.15","e0a357de-392a-4b4a-8b50-455f6c02a010","1000","
                  <p style=""text-align: center;"">₪64
                                                <br>50%</p>
                  <p id=""wtp"" style=""text-align:center; margin-top: 0px; margin-bottom: 0px; font-size: 40px"";>&ensp;</p>","-","viewing","0","25","1B,3B,4A","","","","","","","","","","","","","","","","","",""
"","","","","","html-slider-response","160","1512347","0.0-21.0-1.15","e0a357de-392a-4b4a-8b50-455f6c02a010","null","
                  <p style=""text-align: center;"">₪64
                                                <br>50%</p>
                  <p id=""wtp"" style=""text-align:center; margin-top: 0px; margin-bottom: 0px; font-size: 40px"";>מוכנים לשלם: <span id=""c_p_y""></span></p>","null","evaluation","50","25","1B,3B,4A","50","64","5","","","","","","","","","","","","","","",""
"","","","","","html-keyboard-response","161","1512890","0.0-21.0-2.15","e0a357de-392a-4b4a-8b50-455f6c02a010","null","<p style=""text-align: center;"">+</p>","null","fixation","","","","","","","","","","","","","","","","","","","","",""
"","","","","","html-slider-response","162","1513899","0.0-21.0-0.16","e0a357de-392a-4b4a-8b50-455f6c02a010","1000","
                  <p style=""text-align: center;"">₪79
                                                <br>65%</p>
                  <p id=""wtp"" style=""text-align:center; margin-top: 0px; margin-bottom: 0px; font-size: 40px"";>&ensp;</p>","-","viewing","0","31","8A","","","","","","","","","","","","","","","","","",""
"","","","","","html-slider-response","163","1517911","0.0-21.0-1.16","e0a357de-392a-4b4a-8b50-455f6c02a010","null","
                  <p style=""text-align: center;"">₪79
                                                <br>65%</p>
                  <p id=""wtp"" style=""text-align:center; margin-top: 0px; margin-bottom: 0px; font-size: 40px"";>מוכנים לשלם: <span id=""c_p_y""></span></p>","null","evaluation","65","31","8A","65","79","37","","","","","","","","","","","","","","",""
"","","","","","html-keyboard-response","164","1518461","0.0-21.0-2.16","e0a357de-392a-4b4a-8b50-455f6c02a010","null","<p style=""text-align: center;"">+</p>","null","fixation","","","","","","","","","","","","","","","","","","","","",""
"","","","","","html-slider-response","165","1519465","0.0-21.0-0.17","e0a357de-392a-4b4a-8b50-455f6c02a010","1000","
                  <p style=""text-align: center;"">₪39
                                                <br>65%</p>
                  <p id=""wtp"" style=""text-align:center; margin-top: 0px; margin-bottom: 0px; font-size: 40px"";>&ensp;</p>","-","viewing","0","16","1A,15A,26C","","","","","","","","","","","","","","","","","",""
"","","","","","html-slider-response","166","1522159","0.0-21.0-1.17","e0a357de-392a-4b4a-8b50-455f6c02a010","2694","
                  <p style=""text-align: center;"">₪39
                                                <br>65%</p>
                  <p id=""wtp"" style=""text-align:center; margin-top: 0px; margin-bottom: 0px; font-size: 40px"";>מוכנים לשלם: <span id=""c_p_y""></span></p>","35","evaluation","61","16","1A,15A,26C","65","39","35","","","","","","","","","","","","","","",""
"","","","","","html-keyboard-response","167","1523122","0.0-21.0-2.17","e0a357de-392a-4b4a-8b50-455f6c02a010","null","<p style=""text-align: center;"">+</p>","null","fixation","","","","","","","","","","","","","","","","","","","","",""
"","","","","","html-slider-response","168","1524135","0.0-21.0-0.18","e0a357de-392a-4b4a-8b50-455f6c02a010","1000","
                  <p style=""text-align: center;"">₪36
                                                <br>70%</p>
                  <p id=""wtp"" style=""text-align:center; margin-top: 0px; margin-bottom: 0px; font-size: 40px"";>&ensp;</p>","-","viewing","0","13","3A,5C,10B","","","","","","","","","","","","","","","","","",""
"","","","","","html-slider-response","169","1526991","0.0-21.0-1.18","e0a357de-392a-4b4a-8b50-455f6c02a010","2854","
                  <p style=""text-align: center;"">₪36
                                                <br>70%</p>
                  <p id=""wtp"" style=""text-align:center; margin-top: 0px; margin-bottom: 0px; font-size: 40px"";>מוכנים לשלם: <span id=""c_p_y""></span></p>","28","evaluation","21","13","3A,5C,10B","70","36","28","","","","","","","","","","","","","","",""
"","","","","","html-keyboard-response","170","1528129","0.0-21.0-2.18","e0a357de-392a-4b4a-8b50-455f6c02a010","null","<p style=""text-align: center;"">+</p>","null","fixation","","","","","","","","","","","","","","","","","","","","",""
"","","","","","html-slider-response","171","1529140","0.0-21.0-0.19","e0a357de-392a-4b4a-8b50-455f6c02a010","1000","
                  <p style=""text-align: center;"">₪18
                                                <br>50%</p>
                  <p id=""wtp"" style=""text-align:center; margin-top: 0px; margin-bottom: 0px; font-size: 40px"";>&ensp;</p>","-","viewing","0","10","2C,16C,22B,28A","","","","","","","","","","","","","","","","","",""
"","","","","","html-slider-response","172","1532735","0.0-21.0-1.19","e0a357de-392a-4b4a-8b50-455f6c02a010","3594","
                  <p style=""text-align: center;"">₪18
                                                <br>50%</p>
                  <p id=""wtp"" style=""text-align:center; margin-top: 0px; margin-bottom: 0px; font-size: 40px"";>מוכנים לשלם: <span id=""c_p_y""></span></p>","2","evaluation","39","10","2C,16C,22B,28A","50","18","2","","","","","","","","","","","","","","",""
"","","","","","html-keyboard-response","173","1533606","0.0-21.0-2.19","e0a357de-392a-4b4a-8b50-455f6c02a010","null","<p style=""text-align: center;"">+</p>","null","fixation","","","","","","","","","","","","","","","","","","","","",""
"","","","","","html-slider-response","174","1534612","0.0-21.0-0.20","e0a357de-392a-4b4a-8b50-455f6c02a010","1000","
                  <p style=""text-align: center;"">₪11
                                                <br>20%</p>
                  <p id=""wtp"" style=""text-align:center; margin-top: 0px; margin-bottom: 0px; font-size: 40px"";>&ensp;</p>","-","viewing","0","4","12C,17C,23C,28C","","","","","","","","","","","","","","","","","",""
"","","","","","html-slider-response","175","1536543","0.0-21.0-1.20","e0a357de-392a-4b4a-8b50-455f6c02a010","1930","
                  <p style=""text-align: center;"">₪11
                                                <br>20%</p>
                  <p id=""wtp"" style=""text-align:center; margin-top: 0px; margin-bottom: 0px; font-size: 40px"";>מוכנים לשלם: <span id=""c_p_y""></span></p>","0","evaluation","8","4","12C,17C,23C,28C","20","11","1","","","","","","","","","","","","","","",""
"","","","","","html-keyboard-response","176","1537155","0.0-21.0-2.20","e0a357de-392a-4b4a-8b50-455f6c02a010","null","<p style=""text-align: center;"">+</p>","null","fixation","","","","","","","","","","","","","","","","","","","","",""
"","","","","","html-slider-response","177","1538162","0.0-21.0-0.21","e0a357de-392a-4b4a-8b50-455f6c02a010","1000","
                  <p style=""text-align: center;"">₪76
                                                <br>65%</p>
                  <p id=""wtp"" style=""text-align:center; margin-top: 0px; margin-bottom: 0px; font-size: 40px"";>&ensp;</p>","-","viewing","0","29","8C,19A,24B","","","","","","","","","","","","","","","","","",""
"","","","","","html-slider-response","178","1540855","0.0-21.0-1.21","e0a357de-392a-4b4a-8b50-455f6c02a010","2692","
                  <p style=""text-align: center;"">₪76
                                                <br>65%</p>
                  <p id=""wtp"" style=""text-align:center; margin-top: 0px; margin-bottom: 0px; font-size: 40px"";>מוכנים לשלם: <span id=""c_p_y""></span></p>","37","evaluation","53","29","8C,19A,24B","65","76","37","","","","","","","","","","","","","","",""
"","","","","","html-keyboard-response","179","1541490","0.0-21.0-2.21","e0a357de-392a-4b4a-8b50-455f6c02a010","null","<p style=""text-align: center;"">+</p>","null","fixation","","","","","","","","","","","","","","","","","","","","",""
"","","","","","html-slider-response","180","1542496","0.0-21.0-0.22","e0a357de-392a-4b4a-8b50-455f6c02a010","1000","
                  <p style=""text-align: center;"">₪4
                                                <br>50%</p>
                  <p id=""wtp"" style=""text-align:center; margin-top: 0px; margin-bottom: 0px; font-size: 40px"";>&ensp;</p>","-","viewing","0","2","4C,17B","","","","","","","","","","","","","","","","","",""
"","","","","","html-slider-response","181","1544179","0.0-21.0-1.22","e0a357de-392a-4b4a-8b50-455f6c02a010","1682","
                  <p style=""text-align: center;"">₪4
                                                <br>50%</p>
                  <p id=""wtp"" style=""text-align:center; margin-top: 0px; margin-bottom: 0px; font-size: 40px"";>מוכנים לשלם: <span id=""c_p_y""></span></p>","0","evaluation","25","2","4C,17B","50","4","1","","","","","","","","","","","","","","",""
"","","","","","html-keyboard-response","182","1544730","0.0-21.0-2.22","e0a357de-392a-4b4a-8b50-455f6c02a010","null","<p style=""text-align: center;"">+</p>","null","fixation","","","","","","","","","","","","","","","","","","","","",""
"","","","","","html-slider-response","183","1545736","0.0-21.0-0.23","e0a357de-392a-4b4a-8b50-455f6c02a010","1000","
                  <p style=""text-align: center;"">₪36
                                                <br>30%</p>
                  <p id=""wtp"" style=""text-align:center; margin-top: 0px; margin-bottom: 0px; font-size: 40px"";>&ensp;</p>","-","viewing","0","11","3C,20A,22A","","","","","","","","","","","","","","","","","",""
"","","","","","html-slider-response","184","1547739","0.0-21.0-1.23","e0a357de-392a-4b4a-8b50-455f6c02a010","2001","
                  <p style=""text-align: center;"">₪36
                                                <br>30%</p>
                  <p id=""wtp"" style=""text-align:center; margin-top: 0px; margin-bottom: 0px; font-size: 40px"";>מוכנים לשלם: <span id=""c_p_y""></span></p>","30","evaluation","56","11","3C,20A,22A","30","36","30","","","","","","","","","","","","","","",""
"","","","","","html-keyboard-response","185","1548615","0.0-21.0-2.23","e0a357de-392a-4b4a-8b50-455f6c02a010","null","<p style=""text-align: center;"">+</p>","null","fixation","","","","","","","","","","","","","","","","","","","","",""
"","","","","","html-slider-response","186","1549624","0.0-21.0-0.24","e0a357de-392a-4b4a-8b50-455f6c02a010","1000","
                  <p style=""text-align: center;"">₪61
                                                <br>55%</p>
                  <p id=""wtp"" style=""text-align:center; margin-top: 0px; margin-bottom: 0px; font-size: 40px"";>&ensp;</p>","-","viewing","0","23","7B,26B","","","","","","","","","","","","","","","","","",""
"","","","","","html-slider-response","187","1552267","0.0-21.0-1.24","e0a357de-392a-4b4a-8b50-455f6c02a010","2642","
                  <p style=""text-align: center;"">₪61
                                                <br>55%</p>
                  <p id=""wtp"" style=""text-align:center; margin-top: 0px; margin-bottom: 0px; font-size: 40px"";>מוכנים לשלם: <span id=""c_p_y""></span></p>","34","evaluation","40","23","7B,26B","55","61","34","","","","","","","","","","","","","","",""
"","","","","","html-keyboard-response","188","1553058","0.0-21.0-2.24","e0a357de-392a-4b4a-8b50-455f6c02a010","null","<p style=""text-align: center;"">+</p>","null","fixation","","","","","","","","","","","","","","","","","","","","",""
"","","","","","html-slider-response","189","1554062","0.0-21.0-0.25","e0a357de-392a-4b4a-8b50-455f6c02a010","1000","
                  <p style=""text-align: center;"">₪36
                                                <br>60%</p>
                  <p id=""wtp"" style=""text-align:center; margin-top: 0px; margin-bottom: 0px; font-size: 40px"";>&ensp;</p>","-","viewing","0","12","1C,7C,15C","","","","","","","","","","","","","","","","","",""
"","","","","","html-slider-response","190","1557147","0.0-21.0-1.25","e0a357de-392a-4b4a-8b50-455f6c02a010","3084","
                  <p style=""text-align: center;"">₪36
                                                <br>60%</p>
                  <p id=""wtp"" style=""text-align:center; margin-top: 0px; margin-bottom: 0px; font-size: 40px"";>מוכנים לשלם: <span id=""c_p_y""></span></p>","21","evaluation","63","12","1C,7C,15C","60","36","21","","","","","","","","","","","","","","",""
"","","","","","html-keyboard-response","191","1557931","0.0-21.0-2.25","e0a357de-392a-4b4a-8b50-455f6c02a010","null","<p style=""text-align: center;"">+</p>","null","fixation","","","","","","","","","","","","","","","","","","","","",""
"","","","","","html-slider-response","192","1558933","0.0-21.0-0.26","e0a357de-392a-4b4a-8b50-455f6c02a010","1000","
                  <p style=""text-align: center;"">₪36
                                                <br>75%</p>
                  <p id=""wtp"" style=""text-align:center; margin-top: 0px; margin-bottom: 0px; font-size: 40px"";>&ensp;</p>","-","viewing","0","14","4B,5A,13B,16B","","","","","","","","","","","","","","","","","",""
"","","","","","html-slider-response","193","1561067","0.0-21.0-1.26","e0a357de-392a-4b4a-8b50-455f6c02a010","2132","
                  <p style=""text-align: center;"">₪36
                                                <br>75%</p>
                  <p id=""wtp"" style=""text-align:center; margin-top: 0px; margin-bottom: 0px; font-size: 40px"";>מוכנים לשלם: <span id=""c_p_y""></span></p>","26","evaluation","71","14","4B,5A,13B,16B","75","36","26","","","","","","","","","","","","","","",""
"","","","","","html-keyboard-response","194","1561884","0.0-21.0-2.26","e0a357de-392a-4b4a-8b50-455f6c02a010","null","<p style=""text-align: center;"">+</p>","null","fixation","","","","","","","","","","","","","","","","","","","","",""
"","","","","","html-slider-response","195","1562887","0.0-21.0-0.27","e0a357de-392a-4b4a-8b50-455f6c02a010","1000","
                  <p style=""text-align: center;"">₪58
                                                <br>45%</p>
                  <p id=""wtp"" style=""text-align:center; margin-top: 0px; margin-bottom: 0px; font-size: 40px"";>&ensp;</p>","-","viewing","0","21","11C,18C,25A","","","","","","","","","","","","","","","","","",""
"","","","","","html-slider-response","196","1565139","0.0-21.0-1.27","e0a357de-392a-4b4a-8b50-455f6c02a010","2251","
                  <p style=""text-align: center;"">₪58
                                                <br>45%</p>
                  <p id=""wtp"" style=""text-align:center; margin-top: 0px; margin-bottom: 0px; font-size: 40px"";>מוכנים לשלם: <span id=""c_p_y""></span></p>","30","evaluation","30","21","11C,18C,25A","45","58","30","","","","","","","","","","","","","","",""
"","","","","","html-keyboard-response","197","1566504","0.0-21.0-2.27","e0a357de-392a-4b4a-8b50-455f6c02a010","null","<p style=""text-align: center;"">+</p>","null","fixation","","","","","","","","","","","","","","","","","","","","",""
"","","","","","html-slider-response","198","1567506","0.0-21.0-0.28","e0a357de-392a-4b4a-8b50-455f6c02a010","1000","
                  <p style=""text-align: center;"">₪16
                                                <br>20%</p>
                  <p id=""wtp"" style=""text-align:center; margin-top: 0px; margin-bottom: 0px; font-size: 40px"";>&ensp;</p>","-","viewing","0","8","14C,17A,20C,27A","","","","","","","","","","","","","","","","","",""
"","","","","","html-slider-response","199","1569131","0.0-21.0-1.28","e0a357de-392a-4b4a-8b50-455f6c02a010","1624","
                  <p style=""text-align: center;"">₪16
                                                <br>20%</p>
                  <p id=""wtp"" style=""text-align:center; margin-top: 0px; margin-bottom: 0px; font-size: 40px"";>מוכנים לשלם: <span id=""c_p_y""></span></p>","3","evaluation","29","8","14C,17A,20C,27A","20","16","3","","","","","","","","","","","","","","",""
"","","","","","html-keyboard-response","200","1569860","0.0-21.0-2.28","e0a357de-392a-4b4a-8b50-455f6c02a010","null","<p style=""text-align: center;"">+</p>","null","fixation","","","","","","","","","","","","","","","","","","","","",""
"","","","","","html-slider-response","201","1570868","0.0-21.0-0.29","e0a357de-392a-4b4a-8b50-455f6c02a010","1000","
                  <p style=""text-align: center;"">₪58
                                                <br>40%</p>
                  <p id=""wtp"" style=""text-align:center; margin-top: 0px; margin-bottom: 0px; font-size: 40px"";>&ensp;</p>","-","viewing","0","20","10C,13A,19C,21B","","","","","","","","","","","","","","","","","",""
"","","","","","html-slider-response","202","1573331","0.0-21.0-1.29","e0a357de-392a-4b4a-8b50-455f6c02a010","2462","
                  <p style=""text-align: center;"">₪58
                                                <br>40%</p>
                  <p id=""wtp"" style=""text-align:center; margin-top: 0px; margin-bottom: 0px; font-size: 40px"";>מוכנים לשלם: <span id=""c_p_y""></span></p>","30","evaluation","40","20","10C,13A,19C,21B","40","58","30","","","","","","","","","","","","","","",""
"","","","","","html-keyboard-response","203","1574723","0.0-21.0-2.29","e0a357de-392a-4b4a-8b50-455f6c02a010","null","<p style=""text-align: center;"">+</p>","null","fixation","","","","","","","","","","","","","","","","","","","","",""
"","","","","","html-slider-response","204","1575733","0.0-21.0-0.30","e0a357de-392a-4b4a-8b50-455f6c02a010","1000","
                  <p style=""text-align: center;"">₪61
                                                <br>45%</p>
                  <p id=""wtp"" style=""text-align:center; margin-top: 0px; margin-bottom: 0px; font-size: 40px"";>&ensp;</p>","-","viewing","0","22","10A,11A","","","","","","","","","","","","","","","","","",""
"","","","","","html-slider-response","205","1579195","0.0-21.0-1.30","e0a357de-392a-4b4a-8b50-455f6c02a010","3461","
                  <p style=""text-align: center;"">₪61
                                                <br>45%</p>
                  <p id=""wtp"" style=""text-align:center; margin-top: 0px; margin-bottom: 0px; font-size: 40px"";>מוכנים לשלם: <span id=""c_p_y""></span></p>","27","evaluation","13","22","10A,11A","45","61","27","","","","","","","","","","","","","","",""
"","","","","","html-keyboard-response","206","1580485","0.0-21.0-2.30","e0a357de-392a-4b4a-8b50-455f6c02a010","null","<p style=""text-align: center;"">+</p>","null","fixation","","","","","","","","","","","","","","","","","","","","",""
"","","","","","html-keyboard-response","207","1581489","0.0-22.0","e0a357de-392a-4b4a-8b50-455f6c02a010","null","<p style=""text-align: center;"">+</p>","null","fixation","","","","","","","","","","","","","","","","","","","","",""
"","","","","","html-keyboard-response","208","1593747","0.0-23.0","e0a357de-392a-4b4a-8b50-455f6c02a010","null","<p>הפסקה.
          <br>לחצו כדי להמשיך.</p>","1","scan_wait","","","","","","","","","","","","","","","","","","","","",""
"","","","","","html-keyboard-response","209","1594753","0.0-24.0","e0a357de-392a-4b4a-8b50-455f6c02a010","null","<p style=""text-align: center;"">+</p>","null","fixation","","","","","","","","","","","","","","","","","","","","",""
"","","","","","html-slider-response","210","1595769","0.0-25.0-0.0","e0a357de-392a-4b4a-8b50-455f6c02a010","1000","
                  <p style=""text-align: center;"">₪43
                                                <br>60%</p>
                  <p id=""wtp"" style=""text-align:center; margin-top: 0px; margin-bottom: 0px; font-size: 40px"";>&ensp;</p>","-","viewing","0","17","2A,7A,9A,15B","","","","","","","","","","","","","","","","","",""
"","","","","","html-slider-response","211","1598627","0.0-25.0-1.0","e0a357de-392a-4b4a-8b50-455f6c02a010","2857","
                  <p style=""text-align: center;"">₪43
                                                <br>60%</p>
                  <p id=""wtp"" style=""text-align:center; margin-top: 0px; margin-bottom: 0px; font-size: 40px"";>מוכנים לשלם: <span id=""c_p_y""></span></p>","30","evaluation","60","17","2A,7A,9A,15B","60","43","30","","","","","","","","","","","","","","",""
"","","","","","html-keyboard-response","212","1599374","0.0-25.0-2.0","e0a357de-392a-4b4a-8b50-455f6c02a010","null","<p style=""text-align: center;"">+</p>","null","fixation","","","","","","","","","","","","","","","","","","","","",""
"","","","","","html-slider-response","213","1600390","0.0-25.0-0.1","e0a357de-392a-4b4a-8b50-455f6c02a010","1000","
                  <p style=""text-align: center;"">₪36
                                                <br>30%</p>
                  <p id=""wtp"" style=""text-align:center; margin-top: 0px; margin-bottom: 0px; font-size: 40px"";>&ensp;</p>","-","viewing","0","11","3C,20A,22A","","","","","","","","","","","","","","","","","",""
"","","","","","html-slider-response","214","1603694","0.0-25.0-1.1","e0a357de-392a-4b4a-8b50-455f6c02a010","3308","
                  <p style=""text-align: center;"">₪36
                                                <br>30%</p>
                  <p id=""wtp"" style=""text-align:center; margin-top: 0px; margin-bottom: 0px; font-size: 40px"";>מוכנים לשלם: <span id=""c_p_y""></span></p>","13","evaluation","11","11","3C,20A,22A","30","36","14","","","","","","","","","","","","","","",""
"","","","","","html-keyboard-response","215","1604504","0.0-25.0-2.1","e0a357de-392a-4b4a-8b50-455f6c02a010","null","<p style=""text-align: center;"">+</p>","null","fixation","","","","","","","","","","","","","","","","","","","","",""
"","","","","","html-slider-response","216","1605508","0.0-25.0-0.2","e0a357de-392a-4b4a-8b50-455f6c02a010","1000","
                  <p style=""text-align: center;"">₪4
                                                <br>75%</p>
                  <p id=""wtp"" style=""text-align:center; margin-top: 0px; margin-bottom: 0px; font-size: 40px"";>&ensp;</p>","-","viewing","0","3","12B,20B,23B,27C,29C","","","","","","","","","","","","","","","","","",""
"","","","","","html-slider-response","217","1606766","0.0-25.0-1.2","e0a357de-392a-4b4a-8b50-455f6c02a010","1257","
                  <p style=""text-align: center;"">₪4
                                                <br>75%</p>
                  <p id=""wtp"" style=""text-align:center; margin-top: 0px; margin-bottom: 0px; font-size: 40px"";>מוכנים לשלם: <span id=""c_p_y""></span></p>","1","evaluation","13","3","12B,20B,23B,27C,29C","75","4","1","","","","","","","","","","","","","","",""
"","","","","","html-keyboard-response","218","1607272","0.0-25.0-2.2","e0a357de-392a-4b4a-8b50-455f6c02a010","null","<p style=""text-align: center;"">+</p>","null","fixation","","","","","","","","","","","","","","","","","","","","",""
"","","","","","html-slider-response","219","1608278","0.0-25.0-0.3","e0a357de-392a-4b4a-8b50-455f6c02a010","1000","
                  <p style=""text-align: center;"">₪58
                                                <br>40%</p>
                  <p id=""wtp"" style=""text-align:center; margin-top: 0px; margin-bottom: 0px; font-size: 40px"";>&ensp;</p>","-","viewing","0","20","10C,13A,19C,21B","","","","","","","","","","","","","","","","","",""
"","","","","","html-slider-response","220","1612295","0.0-25.0-1.3","e0a357de-392a-4b4a-8b50-455f6c02a010","null","
                  <p style=""text-align: center;"">₪58
                                                <br>40%</p>
                  <p id=""wtp"" style=""text-align:center; margin-top: 0px; margin-bottom: 0px; font-size: 40px"";>מוכנים לשלם: <span id=""c_p_y""></span></p>","null","evaluation","23","20","10C,13A,19C,21B","40","58","27","","","","","","","","","","","","","","",""
"","","","","","html-keyboard-response","221","1613676","0.0-25.0-2.3","e0a357de-392a-4b4a-8b50-455f6c02a010","null","<p style=""text-align: center;"">+</p>","null","fixation","","","","","","","","","","","","","","","","","","","","",""
"","","","","","html-slider-response","222","1614684","0.0-25.0-0.4","e0a357de-392a-4b4a-8b50-455f6c02a010","1000","
                  <p style=""text-align: center;"">₪71
                                                <br>45%</p>
                  <p id=""wtp"" style=""text-align:center; margin-top: 0px; margin-bottom: 0px; font-size: 40px"";>&ensp;</p>","-","viewing","0","26","2B,16A","","","","","","","","","","","","","","","","","",""
"","","","","","html-slider-response","223","1616422","0.0-25.0-1.4","e0a357de-392a-4b4a-8b50-455f6c02a010","1737","
                  <p style=""text-align: center;"">₪71
                                                <br>45%</p>
                  <p id=""wtp"" style=""text-align:center; margin-top: 0px; margin-bottom: 0px; font-size: 40px"";>מוכנים לשלם: <span id=""c_p_y""></span></p>","30","evaluation","64","26","2B,16A","45","71","30","","","","","","","","","","","","","","",""
"","","","","","html-keyboard-response","224","1617233","0.0-25.0-2.4","e0a357de-392a-4b4a-8b50-455f6c02a010","null","<p style=""text-align: center;"">+</p>","null","fixation","","","","","","","","","","","","","","","","","","","","",""
"","","","","","html-slider-response","225","1618249","0.0-25.0-0.5","e0a357de-392a-4b4a-8b50-455f6c02a010","1000","
                  <p style=""text-align: center;"">₪36
                                                <br>75%</p>
                  <p id=""wtp"" style=""text-align:center; margin-top: 0px; margin-bottom: 0px; font-size: 40px"";>&ensp;</p>","-","viewing","0","14","4B,5A,13B,16B","","","","","","","","","","","","","","","","","",""
"","","","","","html-slider-response","226","1622264","0.0-25.0-1.5","e0a357de-392a-4b4a-8b50-455f6c02a010","null","
                  <p style=""text-align: center;"">₪36
                                                <br>75%</p>
                  <p id=""wtp"" style=""text-align:center; margin-top: 0px; margin-bottom: 0px; font-size: 40px"";>מוכנים לשלם: <span id=""c_p_y""></span></p>","null","evaluation","56","14","4B,5A,13B,16B","75","36","36","","","","","","","","","","","","","","",""
"","","","","","html-keyboard-response","227","1622899","0.0-25.0-2.5","e0a357de-392a-4b4a-8b50-455f6c02a010","null","<p style=""text-align: center;"">+</p>","null","fixation","","","","","","","","","","","","","","","","","","","","",""
"","","","","","html-slider-response","228","1623901","0.0-25.0-0.6","e0a357de-392a-4b4a-8b50-455f6c02a010","1000","
                  <p style=""text-align: center;"">₪16
                                                <br>20%</p>
                  <p id=""wtp"" style=""text-align:center; margin-top: 0px; margin-bottom: 0px; font-size: 40px"";>&ensp;</p>","-","viewing","0","8","14C,17A,20C,27A","","","","","","","","","","","","","","","","","",""
"","","","","","html-slider-response","229","1625038","0.0-25.0-1.6","e0a357de-392a-4b4a-8b50-455f6c02a010","1136","
                  <p style=""text-align: center;"">₪16
                                                <br>20%</p>
                  <p id=""wtp"" style=""text-align:center; margin-top: 0px; margin-bottom: 0px; font-size: 40px"";>מוכנים לשלם: <span id=""c_p_y""></span></p>","2","evaluation","71","8","14C,17A,20C,27A","20","16","2","","","","","","","","","","","","","","",""
"","","","","","html-keyboard-response","230","1626523","0.0-25.0-2.6","e0a357de-392a-4b4a-8b50-455f6c02a010","null","<p style=""text-align: center;"">+</p>","null","fixation","","","","","","","","","","","","","","","","","","","","",""
"","","","","","html-slider-response","231","1627526","0.0-25.0-0.7","e0a357de-392a-4b4a-8b50-455f6c02a010","1000","
                  <p style=""text-align: center;"">₪4
                                                <br>50%</p>
                  <p id=""wtp"" style=""text-align:center; margin-top: 0px; margin-bottom: 0px; font-size: 40px"";>&ensp;</p>","-","viewing","0","2","4C,17B","","","","","","","","","","","","","","","","","",""
"","","","","","html-slider-response","232","1628694","0.0-25.0-1.7","e0a357de-392a-4b4a-8b50-455f6c02a010","1167","
                  <p style=""text-align: center;"">₪4
                                                <br>50%</p>
                  <p id=""wtp"" style=""text-align:center; margin-top: 0px; margin-bottom: 0px; font-size: 40px"";>מוכנים לשלם: <span id=""c_p_y""></span></p>","0","evaluation","19","2","4C,17B","50","4","0","","","","","","","","","","","","","","",""
"","","","","","html-keyboard-response","233","1629881","0.0-25.0-2.7","e0a357de-392a-4b4a-8b50-455f6c02a010","null","<p style=""text-align: center;"">+</p>","null","fixation","","","","","","","","","","","","","","","","","","","","",""
"","","","","","html-slider-response","234","1630884","0.0-25.0-0.8","e0a357de-392a-4b4a-8b50-455f6c02a010","1000","
                  <p style=""text-align: center;"">₪43
                                                <br>75%</p>
                  <p id=""wtp"" style=""text-align:center; margin-top: 0px; margin-bottom: 0px; font-size: 40px"";>&ensp;</p>","-","viewing","0","18","11B,19B,24A,26A","","","","","","","","","","","","","","","","","",""
"","","","","","html-slider-response","235","1633902","0.0-25.0-1.8","e0a357de-392a-4b4a-8b50-455f6c02a010","3017","
                  <p style=""text-align: center;"">₪43
                                                <br>75%</p>
                  <p id=""wtp"" style=""text-align:center; margin-top: 0px; margin-bottom: 0px; font-size: 40px"";>מוכנים לשלם: <span id=""c_p_y""></span></p>","28","evaluation","4","18","11B,19B,24A,26A","75","43","28","","","","","","","","","","","","","","",""
"","","","","","html-keyboard-response","236","1634764","0.0-25.0-2.8","e0a357de-392a-4b4a-8b50-455f6c02a010","null","<p style=""text-align: center;"">+</p>","null","fixation","","","","","","","","","","","","","","","","","","","","",""
"","","","","","html-slider-response","237","1635765","0.0-25.0-0.9","e0a357de-392a-4b4a-8b50-455f6c02a010","1000","
                  <p style=""text-align: center;"">₪11
                                                <br>20%</p>
                  <p id=""wtp"" style=""text-align:center; margin-top: 0px; margin-bottom: 0px; font-size: 40px"";>&ensp;</p>","-","viewing","0","4","12C,17C,23C,28C","","","","","","","","","","","","","","","","","",""
"","","","","","html-slider-response","238","1637238","0.0-25.0-1.9","e0a357de-392a-4b4a-8b50-455f6c02a010","1472","
                  <p style=""text-align: center;"">₪11
                                                <br>20%</p>
                  <p id=""wtp"" style=""text-align:center; margin-top: 0px; margin-bottom: 0px; font-size: 40px"";>מוכנים לשלם: <span id=""c_p_y""></span></p>","0","evaluation","53","4","12C,17C,23C,28C","20","11","1","","","","","","","","","","","","","","",""
"","","","","","html-keyboard-response","239","1638661","0.0-25.0-2.9","e0a357de-392a-4b4a-8b50-455f6c02a010","null","<p style=""text-align: center;"">+</p>","null","fixation","","","","","","","","","","","","","","","","","","","","",""
"","","","","","html-slider-response","240","1639669","0.0-25.0-0.10","e0a357de-392a-4b4a-8b50-455f6c02a010","1000","
                  <p style=""text-align: center;"">₪61
                                                <br>45%</p>
                  <p id=""wtp"" style=""text-align:center; margin-top: 0px; margin-bottom: 0px; font-size: 40px"";>&ensp;</p>","-","viewing","0","22","10A,11A","","","","","","","","","","","","","","","","","",""
"","","","","","html-slider-response","241","1643670","0.0-25.0-1.10","e0a357de-392a-4b4a-8b50-455f6c02a010","null","
                  <p style=""text-align: center;"">₪61
                                                <br>45%</p>
                  <p id=""wtp"" style=""text-align:center; margin-top: 0px; margin-bottom: 0px; font-size: 40px"";>מוכנים לשלם: <span id=""c_p_y""></span></p>","null","evaluation","53","22","10A,11A","45","61","29","","","","","","","","","","","","","","",""
"","","","","","html-keyboard-response","242","1644926","0.0-25.0-2.10","e0a357de-392a-4b4a-8b50-455f6c02a010","null","<p style=""text-align: center;"">+</p>","null","fixation","","","","","","","","","","","","","","","","","","","","",""
"","","","","","html-slider-response","243","1645931","0.0-25.0-0.11","e0a357de-392a-4b4a-8b50-455f6c02a010","1000","
                  <p style=""text-align: center;"">₪39
                                                <br>60%</p>
                  <p id=""wtp"" style=""text-align:center; margin-top: 0px; margin-bottom: 0px; font-size: 40px"";>&ensp;</p>","-","viewing","0","15","9C,25B","","","","","","","","","","","","","","","","","",""
"","","","","","html-slider-response","244","1648758","0.0-25.0-1.11","e0a357de-392a-4b4a-8b50-455f6c02a010","2826","
                  <p style=""text-align: center;"">₪39
                                                <br>60%</p>
                  <p id=""wtp"" style=""text-align:center; margin-top: 0px; margin-bottom: 0px; font-size: 40px"";>מוכנים לשלם: <span id=""c_p_y""></span></p>","7","evaluation","42","15","9C,25B","60","39","8","","","","","","","","","","","","","","",""
"","","","","","html-keyboard-response","245","1649750","0.0-25.0-2.11","e0a357de-392a-4b4a-8b50-455f6c02a010","null","<p style=""text-align: center;"">+</p>","null","fixation","","","","","","","","","","","","","","","","","","","","",""
"","","","","","html-slider-response","246","1650757","0.0-25.0-0.12","e0a357de-392a-4b4a-8b50-455f6c02a010","1000","
                  <p style=""text-align: center;"">₪11
                                                <br>75%</p>
                  <p id=""wtp"" style=""text-align:center; margin-top: 0px; margin-bottom: 0px; font-size: 40px"";>&ensp;</p>","-","viewing","0","7","6B,18B,22C,24C,29A","","","","","","","","","","","","","","","","","",""
"","","","","","html-slider-response","247","1651382","0.0-25.0-1.12","e0a357de-392a-4b4a-8b50-455f6c02a010","624","
                  <p style=""text-align: center;"">₪11
                                                <br>75%</p>
                  <p id=""wtp"" style=""text-align:center; margin-top: 0px; margin-bottom: 0px; font-size: 40px"";>מוכנים לשלם: <span id=""c_p_y""></span></p>","0","evaluation","2","7","6B,18B,22C,24C,29A","75","11","1","","","","","","","","","","","","","","",""
"","","","","","html-keyboard-response","248","1652375","0.0-25.0-2.12","e0a357de-392a-4b4a-8b50-455f6c02a010","null","<p style=""text-align: center;"">+</p>","null","fixation","","","","","","","","","","","","","","","","","","","","",""
"","","","","","html-slider-response","249","1653389","0.0-25.0-0.13","e0a357de-392a-4b4a-8b50-455f6c02a010","1000","
                  <p style=""text-align: center;"">₪71
                                                <br>55%</p>
                  <p id=""wtp"" style=""text-align:center; margin-top: 0px; margin-bottom: 0px; font-size: 40px"";>&ensp;</p>","-","viewing","0","27","5B,18A","","","","","","","","","","","","","","","","","",""
"","","","","","html-slider-response","250","1655366","0.0-25.0-1.13","e0a357de-392a-4b4a-8b50-455f6c02a010","1977","
                  <p style=""text-align: center;"">₪71
                                                <br>55%</p>
                  <p id=""wtp"" style=""text-align:center; margin-top: 0px; margin-bottom: 0px; font-size: 40px"";>מוכנים לשלם: <span id=""c_p_y""></span></p>","30","evaluation","72","27","5B,18A","55","71","30","","","","","","","","","","","","","","",""
"","","","","","html-keyboard-response","251","1656422","0.0-25.0-2.13","e0a357de-392a-4b4a-8b50-455f6c02a010","null","<p style=""text-align: center;"">+</p>","null","fixation","","","","","","","","","","","","","","","","","","","","",""
"","","","","","html-slider-response","252","1657437","0.0-25.0-0.14","e0a357de-392a-4b4a-8b50-455f6c02a010","1000","
                  <p style=""text-align: center;"">₪58
