"success","timeout","failed_images","failed_audio","failed_video","trial_type","trial_index","time_elapsed","internal_node_id","subject_id","rt","stimulus","response","part","slider_start","ID","set_ID","prob","amount","last_location","actual_choice","actual_EV","binary_id","trinary_id","catch","A_key","D_key","choice_prob","choice_amount","won_prize","potential_prize_amount","potential_prize_prob","total_prize","accuracy"
"true","false","[]","[]","[]","preload","0","11","0.0-0.0","d74af97c-a382-4c34-9edb-a5864ebe3b0e","","","","","","","","","","","","","","","","","","","","","","","",""
"","","","","","html-keyboard-response","1","9809","0.0-1.0","d74af97c-a382-4c34-9edb-a5864ebe3b0e","null","
          <h1>שלום וברוכים הבאים!</h1>
          <p>לפניכם ניסוי בקבלת החלטות עם שני חלקים.
          <br><br>לחצו על העכבר כדי להמשיך.</p>","0","example","","","","","","","","","","","","","","","","","","","",""
"","","","","","html-keyboard-response","2","14329","0.0-2.0","d74af97c-a382-4c34-9edb-a5864ebe3b0e","null","
        <h1>חלק 1</h1>
        <p>בקרוב יוצגו בפניכם הגרלות.
        <br>עליכם לבחור את המחיר המירבי שתהיו מוכנים לשלם כדי להשתתף בהגרלה שתוצג.
        <br>יש לכם תקציב של ₪80 לכל הגרלה. 
        <br>נסו להעריך כל הגרלה בנפרד ולחשוב כמה היא שווה עבורכם, ₪80 זמינים לכל הגרלה בנפרד.
        <br><br>לחצו על העכבר כדי להמשיך.</p>","1","instructions","","","","","","","","","","","","","","","","","","","",""
"","","","","","html-keyboard-response","3","22313","0.0-3.0","d74af97c-a382-4c34-9edb-a5864ebe3b0e","null","
        <p>בסוף הניסוי, המחשב יבחר את אחת ההגרלות ויקבע מחיר לכרטיס עבורה. 
        <br>במידה והמחיר שבחרתם נמוך מהמחיר שנבחר על ידי המחשב, לא תשתתפו בהגרלה ותשארו עם מלוא התקציב.
        <br>במידה והמחיר שבחרתם גבוה מהמחיר שנבחר על ידי המחשב, תשלמו את המחיר שנקבע ותשתתפו בהגרלה.
        <br><br>לחצו על העכבר כדי להמשיך.</p>","1","instructions","","","","","","","","","","","","","","","","","","","",""
"","","","","","html-slider-response","4","49657","0.0-4.0","d74af97c-a382-4c34-9edb-a5864ebe3b0e","27239","
        <p style=""font-size: 42px;"">נתחיל עם דוגמא: 
        <br>ההגרלה מטה מציעה 65% סיכוי לזכות ב-₪40 
        <br>&emsp;&emsp;&emsp;&emsp;&emsp;&emsp;&emsp;&emsp;&ensp;35% סיכוי לזכות ב-₪0.
        <br><br>מה המחיר המירבי שתהיו מוכנים לשלם על כרטיס להגרלה זו בין 0 ל-₪80?
        <br>הזיזו את העכבר על פני המלבן ולחצו כדי לבצע בחירה.</p>
        
        <p style=""text-align: center;"">₪40<br>65%</p>

        <p id=""wtp"" style=""text-align:center; margin-top: 0px; margin-bottom: 0px; font-size: 40px"";>מוכנים לשלם: <span id=""c_p_y""></span></p>","27","example","50","","","","","","","","","","","","","","","","","","",""
"","","","","","html-keyboard-response","5","58449","0.0-5.0","d74af97c-a382-4c34-9edb-a5864ebe3b0e","null","<p>יפה מאוד!
                <br> בחרתם שתהיו מוכנים לשלם ₪27 כדי להשתתף בהגרלה:
                <br><p style=""text-align: center;"">₪40<br>65%</p>
                <p>נשמע נכון?
                <br>נניח שהגרלה זו נבחרה בסוף הניסוי.
                <br>כעת המחשב יקבע מחיר עבורה באקראי.
                <br>לחצו על העכבר להמשך.</p>","1","example","","","","","","","","","","","","","","","","","","","",""
"","","","","","html-keyboard-response","6","67537","0.0-6.0","d74af97c-a382-4c34-9edb-a5864ebe3b0e","null","<p>המחשב קבע מחיר: ₪71
                <br>ואתם בחרתם לשלם לכל היותר: ₪27
                <br><br>מכיוון שהמחיר שבחרתם נמוך מהמחיר שנקבע, לא תתשתתפו בהגרלה.
                <br>במקרה כזה, בסוף הניסוי תקבלו את כל התקציב ההתחלתי של ₪80.
                <br><br>לחצו על העכבר להמשך.</p>","1","example","","","","","","","","","","","","","","","","","","","",""
"","","","","","html-slider-response","7","76873","0.0-7.0","d74af97c-a382-4c34-9edb-a5864ebe3b0e","9084","<p style=""font-size: 42px;"">הנה עוד דוגמא:
                <br>ההגרלה מטה מציעה 35% סיכוי לזכות ב-₪18 
                <br>&emsp;&emsp;&emsp;&emsp;&emsp;&emsp;&emsp;&emsp;&ensp;65% סיכוי לזכות ב-₪0.</p>
        
                <p style=""text-align: center;"">₪18<br>35%</p>
                <p id=""wtp"" style=""text-align:center; margin-top: 0px; margin-bottom: 0px; font-size: 40px"";>מוכנים לשלם: <span id=""c_p_y""></span></p>","4","example","49","","","","","","","","","","","","","","","","","","",""
"","","","","","html-keyboard-response","8","79697","0.0-8.0","d74af97c-a382-4c34-9edb-a5864ebe3b0e","null","<p>הייתם מוכנים לשלם  ₪4 כדי להשתתף בהגרלה:
                <p style=""text-align: center;"">₪18<br>35%</p>
                <p>כעת נניח שהמחשב בחר את ההגרלה הזו בסוף הניסוי, וקבע עבורה מחיר.
                <br><br>לחצו על העכבר כדי להמשיך.</p>","1","instructions","","","","","","","","","","","","","","","","","","","",""
"","","","","","html-keyboard-response","9","92977","0.0-9.0","d74af97c-a382-4c34-9edb-a5864ebe3b0e","null","<p>המחשב קבע מחיר להגרלה: ₪3<br>ואתם בחרתם לשלם לכל היותר: ₪4
                <br><br>כעת המחיר שנקבע נמוך מזה שבחרתם, אז תשלמו את המחיר שקבע המחשב (₪3) ותשתתפו בהגרלה.
                <br>במקרה כזה, תסיימו את הניסוי עם תקציב של ₪77 ועם סיכוי לזכות ב-₪18 נוספים מההגרלה.
                <br>כלומר, תוכלו לקבל ₪77 אם לא תזכו בהגרלה, או ₪95 אם תזכו בהגרלה.
                <br><br>לחצו על העכבר להמשך.</p>","1","example","","","","","","","","","","","","","","","","","","","",""
"","","","","","html-keyboard-response","10","100953","0.0-10.0","d74af97c-a382-4c34-9edb-a5864ebe3b0e","null","<p>במהלך הניסוי, קודם תראו את ההגרלה ורק לאחר מכן תוכלו לבחור.
                <p>כמו כן, יהיו לכם מספר שניות מוגבל להגיב.
                <p>בואו ננסה זאת עם ההגרלה הקודמת.
                <br>לחצו על העכבר כדי להמשיך.</p>","1","instructions","","","","","","","","","","","","","","","","","","","",""
"","","","","","html-slider-response","11","102218","0.0-11.0","d74af97c-a382-4c34-9edb-a5864ebe3b0e","1000","
                    <p style=""text-align: center;"">₪18<br>35%</p>
                    <p id=""wtp"" style=""text-align:center; margin-top: 0px; margin-bottom: 0px; font-size: 40px"";>&ensp;</p>","16","instructions","0","","","","","","","","","","","","","","","","","","",""
"","","","","","html-slider-response","12","106499","0.0-12.0","d74af97c-a382-4c34-9edb-a5864ebe3b0e","null","
                    <p style=""text-align: center;"">₪18<br>35%</p>
                    <p id=""wtp"" style=""text-align:center; margin-top: 0px; margin-bottom: 0px; font-size: 40px"";>מוכנים לשלם: <span id=""c_p_y""></span></p>","null","instructions","63","","","","","","","","","","","","","","","","","","",""
"","","","","","html-keyboard-response","13","109553","0.0-13.0","d74af97c-a382-4c34-9edb-a5864ebe3b0e","null","<p>לא הגבתם בזמן המוקצב לתגובה. 
                <br>נסו להגיב מהר יותר בפעם הבאה.
                <br><br>לחצו על העכבר כדי להמשיך.</p>","1","instructions","","","","","","","","","","","","","","","","","","","",""
"","","","","","html-slider-response","14","112657","0.0-14.0-0.0","d74af97c-a382-4c34-9edb-a5864ebe3b0e","2848","
                    <p style=""text-align: center;"">₪40<br>65%</p>
                    <p id=""wtp"" style=""text-align:center; margin-top: 0px; margin-bottom: 0px; font-size: 40px"";>מוכנים לשלם: <span id=""c_p_y""></span></p>","3","instructions","64","","","","","","","","","","","","","","","","","","",""
"","","","","","html-keyboard-response","15","114497","0.0-14.0-1.0","d74af97c-a382-4c34-9edb-a5864ebe3b0e","null","<p>יפה. הפעם בחרתם לשלם לכל היותר ₪3.
                <br><br>לחצו על העכבר כדי להמשיך.</p>","1","instructions","","","","","","","","","","","","","","","","","","","",""
"","","","","","html-keyboard-response","16","119665","0.0-15.0","d74af97c-a382-4c34-9edb-a5864ebe3b0e","null","<p>כעת נתחיל את הניסוי.
                <br><br>אתם תראו הגרלות ותתבקשו לבחור כמה תהיו מוכנים לשלם כדי להשתתף בהן.
                <br>יש לכם תקציב של ₪80 עבור כל הגרלה.
                <br>בסוף הניסוי הגרלה אחת תבחר באקראי ותשוחק.
                <br><br>לחצו על העכבר כדי להתחיל את הניסוי.</p>","1","instructions","","","","","","","","","","","","","","","","","","","",""
"","","","","","html-keyboard-response","17","120924","0.0-16.0","d74af97c-a382-4c34-9edb-a5864ebe3b0e","null","<p style=""text-align: center;"">+</p>","null","fixation","","","","","","","","","","","","","","","","","","","",""
"","","","","","html-slider-response","18","121928","0.0-17.0-0.0","d74af97c-a382-4c34-9edb-a5864ebe3b0e","1000","
                  <p style=""text-align: center;"">₪71
                                                <br>45%</p>
                  <p id=""wtp"" style=""text-align:center; margin-top: 0px; margin-bottom: 0px; font-size: 40px"";>&ensp;</p>","-","viewing","0","26","2B,16A","","","","","","","","","","","","","","","","",""
"","","","","","html-slider-response","19","125939","0.0-17.0-1.0","d74af97c-a382-4c34-9edb-a5864ebe3b0e","null","
                  <p style=""text-align: center;"">₪71
                                                <br>45%</p>
                  <p id=""wtp"" style=""text-align:center; margin-top: 0px; margin-bottom: 0px; font-size: 40px"";>מוכנים לשלם: <span id=""c_p_y""></span></p>","null","evaluation","68","26","2B,16A","45","71","25","","","","","","","","","","","","","",""
"","","","","","html-keyboard-response","20","126914","0.0-17.0-2.0","d74af97c-a382-4c34-9edb-a5864ebe3b0e","null","<p style=""text-align: center;"">+</p>","null","fixation","","","","","","","","","","","","","","","","","","","",""
"","","","","","html-slider-response","21","127928","0.0-17.0-0.1","d74af97c-a382-4c34-9edb-a5864ebe3b0e","1000","
                  <p style=""text-align: center;"">₪36
                                                <br>60%</p>
                  <p id=""wtp"" style=""text-align:center; margin-top: 0px; margin-bottom: 0px; font-size: 40px"";>&ensp;</p>","-","viewing","0","12","1C,7C,15C","","","","","","","","","","","","","","","","",""
"","","","","","html-slider-response","22","131933","0.0-17.0-1.1","d74af97c-a382-4c34-9edb-a5864ebe3b0e","null","
                  <p style=""text-align: center;"">₪36
                                                <br>60%</p>
                  <p id=""wtp"" style=""text-align:center; margin-top: 0px; margin-bottom: 0px; font-size: 40px"";>מוכנים לשלם: <span id=""c_p_y""></span></p>","null","evaluation","37","12","1C,7C,15C","60","36","13","","","","","","","","","","","","","",""
"","","","","","html-keyboard-response","23","132980","0.0-17.0-2.1","d74af97c-a382-4c34-9edb-a5864ebe3b0e","null","<p style=""text-align: center;"">+</p>","null","fixation","","","","","","","","","","","","","","","","","","","",""
"","","","","","html-slider-response","24","133982","0.0-17.0-0.2","d74af97c-a382-4c34-9edb-a5864ebe3b0e","1000","
                  <p style=""text-align: center;"">₪36
                                                <br>30%</p>
                  <p id=""wtp"" style=""text-align:center; margin-top: 0px; margin-bottom: 0px; font-size: 40px"";>&ensp;</p>","-","viewing","0","11","3C,20A,22A","","","","","","","","","","","","","","","","",""
"","","","","","html-slider-response","25","134785","0.0-17.0-1.2","d74af97c-a382-4c34-9edb-a5864ebe3b0e","802","
                  <p style=""text-align: center;"">₪36
                                                <br>30%</p>
                  <p id=""wtp"" style=""text-align:center; margin-top: 0px; margin-bottom: 0px; font-size: 40px"";>מוכנים לשלם: <span id=""c_p_y""></span></p>","11","evaluation","36","11","3C,20A,22A","30","36","11","","","","","","","","","","","","","",""
"","","","","","html-keyboard-response","26","135594","0.0-17.0-2.2","d74af97c-a382-4c34-9edb-a5864ebe3b0e","null","<p style=""text-align: center;"">+</p>","null","fixation","","","","","","","","","","","","","","","","","","","",""
"","","","","","html-slider-response","27","136603","0.0-17.0-0.3","d74af97c-a382-4c34-9edb-a5864ebe3b0e","1000","
                  <p style=""text-align: center;"">₪39
                                                <br>60%</p>
                  <p id=""wtp"" style=""text-align:center; margin-top: 0px; margin-bottom: 0px; font-size: 40px"";>&ensp;</p>","-","viewing","0","15","9C,25B","","","","","","","","","","","","","","","","",""
"","","","","","html-slider-response","28","138129","0.0-17.0-1.3","d74af97c-a382-4c34-9edb-a5864ebe3b0e","1525","
                  <p style=""text-align: center;"">₪39
                                                <br>60%</p>
                  <p id=""wtp"" style=""text-align:center; margin-top: 0px; margin-bottom: 0px; font-size: 40px"";>מוכנים לשלם: <span id=""c_p_y""></span></p>","19","evaluation","53","15","9C,25B","60","39","19","","","","","","","","","","","","","",""
"","","","","","html-keyboard-response","29","139487","0.0-17.0-2.3","d74af97c-a382-4c34-9edb-a5864ebe3b0e","null","<p style=""text-align: center;"">+</p>","null","fixation","","","","","","","","","","","","","","","","","","","",""
"","","","","","html-slider-response","30","140489","0.0-17.0-0.4","d74af97c-a382-4c34-9edb-a5864ebe3b0e","1000","
                  <p style=""text-align: center;"">₪71
                                                <br>75%</p>
                  <p id=""wtp"" style=""text-align:center; margin-top: 0px; margin-bottom: 0px; font-size: 40px"";>&ensp;</p>","-","viewing","0","28","8B","","","","","","","","","","","","","","","","",""
"","","","","","html-slider-response","31","142185","0.0-17.0-1.4","d74af97c-a382-4c34-9edb-a5864ebe3b0e","1695","
                  <p style=""text-align: center;"">₪71
                                                <br>75%</p>
                  <p id=""wtp"" style=""text-align:center; margin-top: 0px; margin-bottom: 0px; font-size: 40px"";>מוכנים לשלם: <span id=""c_p_y""></span></p>","30","evaluation","28","28","8B","75","71","30","","","","","","","","","","","","","",""
"","","","","","html-keyboard-response","32","143653","0.0-17.0-2.4","d74af97c-a382-4c34-9edb-a5864ebe3b0e","null","<p style=""text-align: center;"">+</p>","null","fixation","","","","","","","","","","","","","","","","","","","",""
"","","","","","html-slider-response","33","144659","0.0-17.0-0.5","d74af97c-a382-4c34-9edb-a5864ebe3b0e","1000","
                  <p style=""text-align: center;"">₪64
                                                <br>25%</p>
                  <p id=""wtp"" style=""text-align:center; margin-top: 0px; margin-bottom: 0px; font-size: 40px"";>&ensp;</p>","-","viewing","0","24","6A,21A","","","","","","","","","","","","","","","","",""
"","","","","","html-slider-response","34","146529","0.0-17.0-1.5","d74af97c-a382-4c34-9edb-a5864ebe3b0e","1869","
                  <p style=""text-align: center;"">₪64
                                                <br>25%</p>
                  <p id=""wtp"" style=""text-align:center; margin-top: 0px; margin-bottom: 0px; font-size: 40px"";>מוכנים לשלם: <span id=""c_p_y""></span></p>","13","evaluation","73","24","6A,21A","25","64","13","","","","","","","","","","","","","",""
"","","","","","html-keyboard-response","35","147404","0.0-17.0-2.5","d74af97c-a382-4c34-9edb-a5864ebe3b0e","null","<p style=""text-align: center;"">+</p>","null","fixation","","","","","","","","","","","","","","","","","","","",""
"","","","","","html-slider-response","36","148406","0.0-17.0-0.6","d74af97c-a382-4c34-9edb-a5864ebe3b0e","1000","
                  <p style=""text-align: center;"">₪61
                                                <br>45%</p>
                  <p id=""wtp"" style=""text-align:center; margin-top: 0px; margin-bottom: 0px; font-size: 40px"";>&ensp;</p>","-","viewing","0","22","10A,11A","","","","","","","","","","","","","","","","",""
"","","","","","html-slider-response","37","149841","0.0-17.0-1.6","d74af97c-a382-4c34-9edb-a5864ebe3b0e","1434","
                  <p style=""text-align: center;"">₪61
                                                <br>45%</p>
                  <p id=""wtp"" style=""text-align:center; margin-top: 0px; margin-bottom: 0px; font-size: 40px"";>מוכנים לשלם: <span id=""c_p_y""></span></p>","25","evaluation","72","22","10A,11A","45","61","25","","","","","","","","","","","","","",""
"","","","","","html-keyboard-response","38","150843","0.0-17.0-2.6","d74af97c-a382-4c34-9edb-a5864ebe3b0e","null","<p style=""text-align: center;"">+</p>","null","fixation","","","","","","","","","","","","","","","","","","","",""
"","","","","","html-slider-response","39","151845","0.0-17.0-0.7","d74af97c-a382-4c34-9edb-a5864ebe3b0e","1000","
                  <p style=""text-align: center;"">₪4
                                                <br>75%</p>
                  <p id=""wtp"" style=""text-align:center; margin-top: 0px; margin-bottom: 0px; font-size: 40px"";>&ensp;</p>","-","viewing","0","3","12B,20B,23B,27C,29C","","","","","","","","","","","","","","","","",""
"","","","","","html-slider-response","40","154697","0.0-17.0-1.7","d74af97c-a382-4c34-9edb-a5864ebe3b0e","2850","
                  <p style=""text-align: center;"">₪4
                                                <br>75%</p>
                  <p id=""wtp"" style=""text-align:center; margin-top: 0px; margin-bottom: 0px; font-size: 40px"";>מוכנים לשלם: <span id=""c_p_y""></span></p>","1","evaluation","32","3","12B,20B,23B,27C,29C","75","4","2","","","","","","","","","","","","","",""
"","","","","","html-keyboard-response","41","156125","0.0-17.0-2.7","d74af97c-a382-4c34-9edb-a5864ebe3b0e","null","<p style=""text-align: center;"">+</p>","null","fixation","","","","","","","","","","","","","","","","","","","",""
"","","","","","html-slider-response","42","157127","0.0-17.0-0.8","d74af97c-a382-4c34-9edb-a5864ebe3b0e","1000","
                  <p style=""text-align: center;"">₪36
                                                <br>70%</p>
                  <p id=""wtp"" style=""text-align:center; margin-top: 0px; margin-bottom: 0px; font-size: 40px"";>&ensp;</p>","-","viewing","0","13","3A,5C,10B","","","","","","","","","","","","","","","","",""
"","","","","","html-slider-response","43","158585","0.0-17.0-1.8","d74af97c-a382-4c34-9edb-a5864ebe3b0e","1456","
                  <p style=""text-align: center;"">₪36
                                                <br>70%</p>
                  <p id=""wtp"" style=""text-align:center; margin-top: 0px; margin-bottom: 0px; font-size: 40px"";>מוכנים לשלם: <span id=""c_p_y""></span></p>","18","evaluation","51","13","3A,5C,10B","70","36","18","","","","","","","","","","","","","",""
"","","","","","html-keyboard-response","44","159990","0.0-17.0-2.8","d74af97c-a382-4c34-9edb-a5864ebe3b0e","null","<p style=""text-align: center;"">+</p>","null","fixation","","","","","","","","","","","","","","","","","","","",""
"","","","","","html-slider-response","45","161000","0.0-17.0-0.9","d74af97c-a382-4c34-9edb-a5864ebe3b0e","1000","
                  <p style=""text-align: center;"">₪18
                                                <br>50%</p>
                  <p id=""wtp"" style=""text-align:center; margin-top: 0px; margin-bottom: 0px; font-size: 40px"";>&ensp;</p>","-","viewing","0","10","2C,16C,22B,28A","","","","","","","","","","","","","","","","",""
"","","","","","html-slider-response","46","163473","0.0-17.0-1.9","d74af97c-a382-4c34-9edb-a5864ebe3b0e","2472","
                  <p style=""text-align: center;"">₪18
                                                <br>50%</p>
                  <p id=""wtp"" style=""text-align:center; margin-top: 0px; margin-bottom: 0px; font-size: 40px"";>מוכנים לשלם: <span id=""c_p_y""></span></p>","8","evaluation","23","10","2C,16C,22B,28A","50","18","8","","","","","","","","","","","","","",""
"","","","","","html-keyboard-response","47","164613","0.0-17.0-2.9","d74af97c-a382-4c34-9edb-a5864ebe3b0e","null","<p style=""text-align: center;"">+</p>","null","fixation","","","","","","","","","","","","","","","","","","","",""
"","","","","","html-slider-response","48","165615","0.0-17.0-0.10","d74af97c-a382-4c34-9edb-a5864ebe3b0e","1000","
                  <p style=""text-align: center;"">₪39
                                                <br>65%</p>
                  <p id=""wtp"" style=""text-align:center; margin-top: 0px; margin-bottom: 0px; font-size: 40px"";>&ensp;</p>","-","viewing","0","16","1A,15A,26C","","","","","","","","","","","","","","","","",""
"","","","","","html-slider-response","49","169618","0.0-17.0-1.10","d74af97c-a382-4c34-9edb-a5864ebe3b0e","null","
                  <p style=""text-align: center;"">₪39
                                                <br>65%</p>
                  <p id=""wtp"" style=""text-align:center; margin-top: 0px; margin-bottom: 0px; font-size: 40px"";>מוכנים לשלם: <span id=""c_p_y""></span></p>","null","evaluation","19","16","1A,15A,26C","65","39","17","","","","","","","","","","","","","",""
"","","","","","html-keyboard-response","50","170751","0.0-17.0-2.10","d74af97c-a382-4c34-9edb-a5864ebe3b0e","null","<p style=""text-align: center;"">+</p>","null","fixation","","","","","","","","","","","","","","","","","","","",""
"","","","","","html-slider-response","51","171764","0.0-17.0-0.11","d74af97c-a382-4c34-9edb-a5864ebe3b0e","1000","
                  <p style=""text-align: center;"">₪58
                                                <br>40%</p>
                  <p id=""wtp"" style=""text-align:center; margin-top: 0px; margin-bottom: 0px; font-size: 40px"";>&ensp;</p>","-","viewing","0","20","10C,13A,19C,21B","","","","","","","","","","","","","","","","",""
"","","","","","html-slider-response","52","173497","0.0-17.0-1.11","d74af97c-a382-4c34-9edb-a5864ebe3b0e","1732","
                  <p style=""text-align: center;"">₪58
                                                <br>40%</p>
                  <p id=""wtp"" style=""text-align:center; margin-top: 0px; margin-bottom: 0px; font-size: 40px"";>מוכנים לשלם: <span id=""c_p_y""></span></p>","22","evaluation","76","20","10C,13A,19C,21B","40","58","22","","","","","","","","","","","","","",""
"","","","","","html-keyboard-response","53","174989","0.0-17.0-2.11","d74af97c-a382-4c34-9edb-a5864ebe3b0e","null","<p style=""text-align: center;"">+</p>","null","fixation","","","","","","","","","","","","","","","","","","","",""
"","","","","","html-slider-response","54","175991","0.0-17.0-0.12","d74af97c-a382-4c34-9edb-a5864ebe3b0e","1000","
                  <p style=""text-align: center;"">₪64
                                                <br>50%</p>
                  <p id=""wtp"" style=""text-align:center; margin-top: 0px; margin-bottom: 0px; font-size: 40px"";>&ensp;</p>","-","viewing","0","25","1B,3B,4A","","","","","","","","","","","","","","","","",""
"","","","","","html-slider-response","55","177553","0.0-17.0-1.12","d74af97c-a382-4c34-9edb-a5864ebe3b0e","1560","
                  <p style=""text-align: center;"">₪64
                                                <br>50%</p>
                  <p id=""wtp"" style=""text-align:center; margin-top: 0px; margin-bottom: 0px; font-size: 40px"";>מוכנים לשלם: <span id=""c_p_y""></span></p>","24","evaluation","62","25","1B,3B,4A","50","64","24","","","","","","","","","","","","","",""
"","","","","","html-keyboard-response","56","178189","0.0-17.0-2.12","d74af97c-a382-4c34-9edb-a5864ebe3b0e","null","<p style=""text-align: center;"">+</p>","null","fixation","","","","","","","","","","","","","","","","","","","",""
"","","","","","html-slider-response","57","179190","0.0-17.0-0.13","d74af97c-a382-4c34-9edb-a5864ebe3b0e","1000","
                  <p style=""text-align: center;"">₪4
                                                <br>25%</p>
                  <p id=""wtp"" style=""text-align:center; margin-top: 0px; margin-bottom: 0px; font-size: 40px"";>&ensp;</p>","-","viewing","0","1","6C,29B,30C","","","","","","","","","","","","","","","","",""
"","","","","","html-slider-response","58","180481","0.0-17.0-1.13","d74af97c-a382-4c34-9edb-a5864ebe3b0e","1289","
                  <p style=""text-align: center;"">₪4
                                                <br>25%</p>
                  <p id=""wtp"" style=""text-align:center; margin-top: 0px; margin-bottom: 0px; font-size: 40px"";>מוכנים לשלם: <span id=""c_p_y""></span></p>","0","evaluation","75","1","6C,29B,30C","25","4","0","","","","","","","","","","","","","",""
"","","","","","html-keyboard-response","59","181500","0.0-17.0-2.13","d74af97c-a382-4c34-9edb-a5864ebe3b0e","null","<p style=""text-align: center;"">+</p>","null","fixation","","","","","","","","","","","","","","","","","","","",""
"","","","","","html-slider-response","60","182503","0.0-17.0-0.14","d74af97c-a382-4c34-9edb-a5864ebe3b0e","1000","
                  <p style=""text-align: center;"">₪71
                                                <br>55%</p>
                  <p id=""wtp"" style=""text-align:center; margin-top: 0px; margin-bottom: 0px; font-size: 40px"";>&ensp;</p>","-","viewing","0","27","5B,18A","","","","","","","","","","","","","","","","",""
"","","","","","html-slider-response","61","184761","0.0-17.0-1.14","d74af97c-a382-4c34-9edb-a5864ebe3b0e","2256","
                  <p style=""text-align: center;"">₪71
                                                <br>55%</p>
                  <p id=""wtp"" style=""text-align:center; margin-top: 0px; margin-bottom: 0px; font-size: 40px"";>מוכנים לשלם: <span id=""c_p_y""></span></p>","36","evaluation","74","27","5B,18A","55","71","36","","","","","","","","","","","","","",""
"","","","","","html-keyboard-response","62","185485","0.0-17.0-2.14","d74af97c-a382-4c34-9edb-a5864ebe3b0e","null","<p style=""text-align: center;"">+</p>","null","fixation","","","","","","","","","","","","","","","","","","","",""
"","","","","","html-slider-response","63","186489","0.0-17.0-0.15","d74af97c-a382-4c34-9edb-a5864ebe3b0e","1000","
                  <p style=""text-align: center;"">₪16
                                                <br>20%</p>
                  <p id=""wtp"" style=""text-align:center; margin-top: 0px; margin-bottom: 0px; font-size: 40px"";>&ensp;</p>","-","viewing","0","8","14C,17A,20C,27A","","","","","","","","","","","","","","","","",""
"","","","","","html-slider-response","64","188281","0.0-17.0-1.15","d74af97c-a382-4c34-9edb-a5864ebe3b0e","1791","
                  <p style=""text-align: center;"">₪16
                                                <br>20%</p>
                  <p id=""wtp"" style=""text-align:center; margin-top: 0px; margin-bottom: 0px; font-size: 40px"";>מוכנים לשלם: <span id=""c_p_y""></span></p>","3","evaluation","3","8","14C,17A,20C,27A","20","16","4","","","","","","","","","","","","","",""
"","","","","","html-keyboard-response","65","189756","0.0-17.0-2.15","d74af97c-a382-4c34-9edb-a5864ebe3b0e","null","<p style=""text-align: center;"">+</p>","null","fixation","","","","","","","","","","","","","","","","","","","",""
"","","","","","html-slider-response","66","190773","0.0-17.0-0.16","d74af97c-a382-4c34-9edb-a5864ebe3b0e","1000","
                  <p style=""text-align: center;"">₪11
                                                <br>25%</p>
                  <p id=""wtp"" style=""text-align:center; margin-top: 0px; margin-bottom: 0px; font-size: 40px"";>&ensp;</p>","-","viewing","0","5","12A,27B,28B,30B","","","","","","","","","","","","","","","","",""
"","","","","","html-slider-response","67","192265","0.0-17.0-1.16","d74af97c-a382-4c34-9edb-a5864ebe3b0e","1492","
                  <p style=""text-align: center;"">₪11
                                                <br>25%</p>
                  <p id=""wtp"" style=""text-align:center; margin-top: 0px; margin-bottom: 0px; font-size: 40px"";>מוכנים לשלם: <span id=""c_p_y""></span></p>","2","evaluation","73","5","12A,27B,28B,30B","25","11","3","","","","","","","","","","","","","",""
"","","","","","html-keyboard-response","68","192962","0.0-17.0-2.16","d74af97c-a382-4c34-9edb-a5864ebe3b0e","null","<p style=""text-align: center;"">+</p>","null","fixation","","","","","","","","","","","","","","","","","","","",""
"","","","","","html-slider-response","69","193965","0.0-17.0-0.17","d74af97c-a382-4c34-9edb-a5864ebe3b0e","1000","
                  <p style=""text-align: center;"">₪11
                                                <br>45%</p>
                  <p id=""wtp"" style=""text-align:center; margin-top: 0px; margin-bottom: 0px; font-size: 40px"";>&ensp;</p>","-","viewing","0","6","14B,21C,25C","","","","","","","","","","","","","","","","",""
"","","","","","html-slider-response","70","196425","0.0-17.0-1.17","d74af97c-a382-4c34-9edb-a5864ebe3b0e","2459","
                  <p style=""text-align: center;"">₪11
                                                <br>45%</p>
                  <p id=""wtp"" style=""text-align:center; margin-top: 0px; margin-bottom: 0px; font-size: 40px"";>מוכנים לשלם: <span id=""c_p_y""></span></p>","5","evaluation","60","6","14B,21C,25C","45","11","5","","","","","","","","","","","","","",""
"","","","","","html-keyboard-response","71","197847","0.0-17.0-2.17","d74af97c-a382-4c34-9edb-a5864ebe3b0e","null","<p style=""text-align: center;"">+</p>","null","fixation","","","","","","","","","","","","","","","","","","","",""
"","","","","","html-slider-response","72","198858","0.0-17.0-0.18","d74af97c-a382-4c34-9edb-a5864ebe3b0e","1000","
                  <p style=""text-align: center;"">₪61
                                                <br>55%</p>
                  <p id=""wtp"" style=""text-align:center; margin-top: 0px; margin-bottom: 0px; font-size: 40px"";>&ensp;</p>","-","viewing","0","23","7B,26B","","","","","","","","","","","","","","","","",""
"","","","","","html-slider-response","73","200409","0.0-17.0-1.18","d74af97c-a382-4c34-9edb-a5864ebe3b0e","1550","
                  <p style=""text-align: center;"">₪61
                                                <br>55%</p>
                  <p id=""wtp"" style=""text-align:center; margin-top: 0px; margin-bottom: 0px; font-size: 40px"";>מוכנים לשלם: <span id=""c_p_y""></span></p>","5","evaluation","69","23","7B,26B","55","61","5","","","","","","","","","","","","","",""
"","","","","","html-keyboard-response","74","201265","0.0-17.0-2.18","d74af97c-a382-4c34-9edb-a5864ebe3b0e","null","<p style=""text-align: center;"">+</p>","null","fixation","","","","","","","","","","","","","","","","","","","",""
"","","","","","html-slider-response","75","202272","0.0-17.0-0.19","d74af97c-a382-4c34-9edb-a5864ebe3b0e","1000","
                  <p style=""text-align: center;"">₪79
                                                <br>65%</p>
                  <p id=""wtp"" style=""text-align:center; margin-top: 0px; margin-bottom: 0px; font-size: 40px"";>&ensp;</p>","-","viewing","0","31","8A","","","","","","","","","","","","","","","","",""
"","","","","","html-slider-response","76","206274","0.0-17.0-1.19","d74af97c-a382-4c34-9edb-a5864ebe3b0e","null","
                  <p style=""text-align: center;"">₪79
                                                <br>65%</p>
                  <p id=""wtp"" style=""text-align:center; margin-top: 0px; margin-bottom: 0px; font-size: 40px"";>מוכנים לשלם: <span id=""c_p_y""></span></p>","null","evaluation","14","31","8A","65","79","38","","","","","","","","","","","","","",""
"","","","","","html-keyboard-response","77","207467","0.0-17.0-2.19","d74af97c-a382-4c34-9edb-a5864ebe3b0e","null","<p style=""text-align: center;"">+</p>","null","fixation","","","","","","","","","","","","","","","","","","","",""
"","","","","","html-slider-response","78","208475","0.0-17.0-0.20","d74af97c-a382-4c34-9edb-a5864ebe3b0e","1000","
                  <p style=""text-align: center;"">₪79
                                                <br>40%</p>
                  <p id=""wtp"" style=""text-align:center; margin-top: 0px; margin-bottom: 0px; font-size: 40px"";>&ensp;</p>","-","viewing","0","30","9B","","","","","","","","","","","","","","","","",""
"","","","","","html-slider-response","79","210105","0.0-17.0-1.20","d74af97c-a382-4c34-9edb-a5864ebe3b0e","1629","
                  <p style=""text-align: center;"">₪79
                                                <br>40%</p>
                  <p id=""wtp"" style=""text-align:center; margin-top: 0px; margin-bottom: 0px; font-size: 40px"";>מוכנים לשלם: <span id=""c_p_y""></span></p>","30","evaluation","28","30","9B","40","79","30","","","","","","","","","","","","","",""
"","","","","","html-keyboard-response","80","211053","0.0-17.0-2.20","d74af97c-a382-4c34-9edb-a5864ebe3b0e","null","<p style=""text-align: center;"">+</p>","null","fixation","","","","","","","","","","","","","","","","","","","",""
"","","","","","html-slider-response","81","212061","0.0-17.0-0.21","d74af97c-a382-4c34-9edb-a5864ebe3b0e","1000","
                  <p style=""text-align: center;"">₪58
                                                <br>45%</p>
                  <p id=""wtp"" style=""text-align:center; margin-top: 0px; margin-bottom: 0px; font-size: 40px"";>&ensp;</p>","-","viewing","0","21","11C,18C,25A","","","","","","","","","","","","","","","","",""
"","","","","","html-slider-response","82","213249","0.0-17.0-1.21","d74af97c-a382-4c34-9edb-a5864ebe3b0e","1186","
                  <p style=""text-align: center;"">₪58
                                                <br>45%</p>
                  <p id=""wtp"" style=""text-align:center; margin-top: 0px; margin-bottom: 0px; font-size: 40px"";>מוכנים לשלם: <span id=""c_p_y""></span></p>","19","evaluation","22","21","11C,18C,25A","45","58","20","","","","","","","","","","","","","",""
"","","","","","html-keyboard-response","83","214366","0.0-17.0-2.21","d74af97c-a382-4c34-9edb-a5864ebe3b0e","null","<p style=""text-align: center;"">+</p>","null","fixation","","","","","","","","","","","","","","","","","","","",""
"","","","","","html-slider-response","84","215367","0.0-17.0-0.22","d74af97c-a382-4c34-9edb-a5864ebe3b0e","1000","
                  <p style=""text-align: center;"">₪11
                                                <br>20%</p>
                  <p id=""wtp"" style=""text-align:center; margin-top: 0px; margin-bottom: 0px; font-size: 40px"";>&ensp;</p>","-","viewing","0","4","12C,17C,23C,28C","","","","","","","","","","","","","","","","",""
"","","","","","html-slider-response","85","217481","0.0-17.0-1.22","d74af97c-a382-4c34-9edb-a5864ebe3b0e","2113","
                  <p style=""text-align: center;"">₪11
                                                <br>20%</p>
                  <p id=""wtp"" style=""text-align:center; margin-top: 0px; margin-bottom: 0px; font-size: 40px"";>מוכנים לשלם: <span id=""c_p_y""></span></p>","0","evaluation","4","4","12C,17C,23C,28C","20","11","1","","","","","","","","","","","","","",""
"","","","","","html-keyboard-response","86","218398","0.0-17.0-2.22","d74af97c-a382-4c34-9edb-a5864ebe3b0e","null","<p style=""text-align: center;"">+</p>","null","fixation","","","","","","","","","","","","","","","","","","","",""
"","","","","","html-slider-response","87","219414","0.0-17.0-0.23","d74af97c-a382-4c34-9edb-a5864ebe3b0e","1000","
                  <p style=""text-align: center;"">₪43
                                                <br>60%</p>
                  <p id=""wtp"" style=""text-align:center; margin-top: 0px; margin-bottom: 0px; font-size: 40px"";>&ensp;</p>","-","viewing","0","17","2A,7A,9A,15B","","","","","","","","","","","","","","","","",""
"","","","","","html-slider-response","88","222649","0.0-17.0-1.23","d74af97c-a382-4c34-9edb-a5864ebe3b0e","3234","
                  <p style=""text-align: center;"">₪43
                                                <br>60%</p>
                  <p id=""wtp"" style=""text-align:center; margin-top: 0px; margin-bottom: 0px; font-size: 40px"";>מוכנים לשלם: <span id=""c_p_y""></span></p>","30","evaluation","52","17","2A,7A,9A,15B","60","43","30","","","","","","","","","","","","","",""
"","","","","","html-keyboard-response","89","223604","0.0-17.0-2.23","d74af97c-a382-4c34-9edb-a5864ebe3b0e","null","<p style=""text-align: center;"">+</p>","null","fixation","","","","","","","","","","","","","","","","","","","",""
"","","","","","html-slider-response","90","224606","0.0-17.0-0.24","d74af97c-a382-4c34-9edb-a5864ebe3b0e","1000","
                  <p style=""text-align: center;"">₪18
                                                <br>25%</p>
                  <p id=""wtp"" style=""text-align:center; margin-top: 0px; margin-bottom: 0px; font-size: 40px"";>&ensp;</p>","-","viewing","0","9","14A,23A","","","","","","","","","","","","","","","","",""
"","","","","","html-slider-response","91","226537","0.0-17.0-1.24","d74af97c-a382-4c34-9edb-a5864ebe3b0e","1930","
                  <p style=""text-align: center;"">₪18
                                                <br>25%</p>
                  <p id=""wtp"" style=""text-align:center; margin-top: 0px; margin-bottom: 0px; font-size: 40px"";>מוכנים לשלם: <span id=""c_p_y""></span></p>","5","evaluation","59","9","14A,23A","25","18","5","","","","","","","","","","","","","",""
"","","","","","html-keyboard-response","92","228041","0.0-17.0-2.24","d74af97c-a382-4c34-9edb-a5864ebe3b0e","null","<p style=""text-align: center;"">+</p>","null","fixation","","","","","","","","","","","","","","","","","","","",""
"","","","","","html-slider-response","93","229046","0.0-17.0-0.25","d74af97c-a382-4c34-9edb-a5864ebe3b0e","1000","
                  <p style=""text-align: center;"">₪11
                                                <br>75%</p>
                  <p id=""wtp"" style=""text-align:center; margin-top: 0px; margin-bottom: 0px; font-size: 40px"";>&ensp;</p>","-","viewing","0","7","6B,18B,22C,24C,29A","","","","","","","","","","","","","","","","",""
"","","","","","html-slider-response","94","231009","0.0-17.0-1.25","d74af97c-a382-4c34-9edb-a5864ebe3b0e","1962","
                  <p style=""text-align: center;"">₪11
                                                <br>75%</p>
                  <p id=""wtp"" style=""text-align:center; margin-top: 0px; margin-bottom: 0px; font-size: 40px"";>מוכנים לשלם: <span id=""c_p_y""></span></p>","7","evaluation","12","7","6B,18B,22C,24C,29A","75","11","7","","","","","","","","","","","","","",""
"","","","","","html-keyboard-response","95","231648","0.0-17.0-2.25","d74af97c-a382-4c34-9edb-a5864ebe3b0e","null","<p style=""text-align: center;"">+</p>","null","fixation","","","","","","","","","","","","","","","","","","","",""
"","","","","","html-slider-response","96","232654","0.0-17.0-0.26","d74af97c-a382-4c34-9edb-a5864ebe3b0e","1000","
                  <p style=""text-align: center;"">₪58
                                                <br>30%</p>
                  <p id=""wtp"" style=""text-align:center; margin-top: 0px; margin-bottom: 0px; font-size: 40px"";>&ensp;</p>","-","viewing","0","19","13C,30A","","","","","","","","","","","","","","","","",""
"","","","","","html-slider-response","97","236593","0.0-17.0-1.26","d74af97c-a382-4c34-9edb-a5864ebe3b0e","3938","
                  <p style=""text-align: center;"">₪58
                                                <br>30%</p>
                  <p id=""wtp"" style=""text-align:center; margin-top: 0px; margin-bottom: 0px; font-size: 40px"";>מוכנים לשלם: <span id=""c_p_y""></span></p>","15","evaluation","61","19","13C,30A","30","58","15","","","","","","","","","","","","","",""
"","","","","","html-keyboard-response","98","238080","0.0-17.0-2.26","d74af97c-a382-4c34-9edb-a5864ebe3b0e","null","<p style=""text-align: center;"">+</p>","null","fixation","","","","","","","","","","","","","","","","","","","",""
"","","","","","html-slider-response","99","239087","0.0-17.0-0.27","d74af97c-a382-4c34-9edb-a5864ebe3b0e","1000","
                  <p style=""text-align: center;"">₪43
                                                <br>75%</p>
                  <p id=""wtp"" style=""text-align:center; margin-top: 0px; margin-bottom: 0px; font-size: 40px"";>&ensp;</p>","-","viewing","0","18","11B,19B,24A,26A","","","","","","","","","","","","","","","","",""
"","","","","","html-slider-response","100","242409","0.0-17.0-1.27","d74af97c-a382-4c34-9edb-a5864ebe3b0e","3321","
                  <p style=""text-align: center;"">₪43
                                                <br>75%</p>
                  <p id=""wtp"" style=""text-align:center; margin-top: 0px; margin-bottom: 0px; font-size: 40px"";>מוכנים לשלם: <span id=""c_p_y""></span></p>","32","evaluation","37","18","11B,19B,24A,26A","75","43","32","","","","","","","","","","","","","",""
"","","","","","html-keyboard-response","101","243029","0.0-17.0-2.27","d74af97c-a382-4c34-9edb-a5864ebe3b0e","null","<p style=""text-align: center;"">+</p>","null","fixation","","","","","","","","","","","","","","","","","","","",""
"","","","","","html-slider-response","102","244030","0.0-17.0-0.28","d74af97c-a382-4c34-9edb-a5864ebe3b0e","1000","
                  <p style=""text-align: center;"">₪36
                                                <br>75%</p>
                  <p id=""wtp"" style=""text-align:center; margin-top: 0px; margin-bottom: 0px; font-size: 40px"";>&ensp;</p>","-","viewing","0","14","4B,5A,13B,16B","","","","","","","","","","","","","","","","",""
"","","","","","html-slider-response","103","245601","0.0-17.0-1.28","d74af97c-a382-4c34-9edb-a5864ebe3b0e","1569","
                  <p style=""text-align: center;"">₪36
                                                <br>75%</p>
                  <p id=""wtp"" style=""text-align:center; margin-top: 0px; margin-bottom: 0px; font-size: 40px"";>מוכנים לשלם: <span id=""c_p_y""></span></p>","22","evaluation","37","14","4B,5A,13B,16B","75","36","22","","","","","","","","","","","","","",""
"","","","","","html-keyboard-response","104","246764","0.0-17.0-2.28","d74af97c-a382-4c34-9edb-a5864ebe3b0e","null","<p style=""text-align: center;"">+</p>","null","fixation","","","","","","","","","","","","","","","","","","","",""
"","","","","","html-slider-response","105","247772","0.0-17.0-0.29","d74af97c-a382-4c34-9edb-a5864ebe3b0e","1000","
                  <p style=""text-align: center;"">₪76
                                                <br>65%</p>
                  <p id=""wtp"" style=""text-align:center; margin-top: 0px; margin-bottom: 0px; font-size: 40px"";>&ensp;</p>","-","viewing","0","29","8C,19A,24B","","","","","","","","","","","","","","","","",""
"","","","","","html-slider-response","106","249505","0.0-17.0-1.29","d74af97c-a382-4c34-9edb-a5864ebe3b0e","1732","
                  <p style=""text-align: center;"">₪76
                                                <br>65%</p>
                  <p id=""wtp"" style=""text-align:center; margin-top: 0px; margin-bottom: 0px; font-size: 40px"";>מוכנים לשלם: <span id=""c_p_y""></span></p>","22","evaluation","78","29","8C,19A,24B","65","76","22","","","","","","","","","","","","","",""
"","","","","","html-keyboard-response","107","250300","0.0-17.0-2.29","d74af97c-a382-4c34-9edb-a5864ebe3b0e","null","<p style=""text-align: center;"">+</p>","null","fixation","","","","","","","","","","","","","","","","","","","",""
"","","","","","html-slider-response","108","251302","0.0-17.0-0.30","d74af97c-a382-4c34-9edb-a5864ebe3b0e","1000","
                  <p style=""text-align: center;"">₪4
                                                <br>50%</p>
                  <p id=""wtp"" style=""text-align:center; margin-top: 0px; margin-bottom: 0px; font-size: 40px"";>&ensp;</p>","-","viewing","0","2","4C,17B","","","","","","","","","","","","","","","","",""
"","","","","","html-slider-response","109","253777","0.0-17.0-1.30","d74af97c-a382-4c34-9edb-a5864ebe3b0e","2474","
                  <p style=""text-align: center;"">₪4
                                                <br>50%</p>
                  <p id=""wtp"" style=""text-align:center; margin-top: 0px; margin-bottom: 0px; font-size: 40px"";>מוכנים לשלם: <span id=""c_p_y""></span></p>","1","evaluation","30","2","4C,17B","50","4","1","","","","","","","","","","","","","",""
"","","","","","html-keyboard-response","110","255177","0.0-17.0-2.30","d74af97c-a382-4c34-9edb-a5864ebe3b0e","null","<p style=""text-align: center;"">+</p>","null","fixation","","","","","","","","","","","","","","","","","","","",""
"","","","","","html-keyboard-response","111","256182","0.0-18.0","d74af97c-a382-4c34-9edb-a5864ebe3b0e","null","<p style=""text-align: center;"">+</p>","null","fixation","","","","","","","","","","","","","","","","","","","",""
"","","","","","html-keyboard-response","112","262176","0.0-19.0","d74af97c-a382-4c34-9edb-a5864ebe3b0e","null","<p>הפסקה.
          <br>לחצו כדי להמשיך.</p>","1","scan_wait","","","","","","","","","","","","","","","","","","","",""
"","","","","","html-keyboard-response","113","263185","0.0-20.0","d74af97c-a382-4c34-9edb-a5864ebe3b0e","null","<p style=""text-align: center;"">+</p>","null","fixation","","","","","","","","","","","","","","","","","","","",""
"","","","","","html-slider-response","114","264203","0.0-21.0-0.0","d74af97c-a382-4c34-9edb-a5864ebe3b0e","1000","
                  <p style=""text-align: center;"">₪71
                                                <br>45%</p>
                  <p id=""wtp"" style=""text-align:center; margin-top: 0px; margin-bottom: 0px; font-size: 40px"";>&ensp;</p>","-","viewing","0","26","2B,16A","","","","","","","","","","","","","","","","",""
"","","","","","html-slider-response","115","266193","0.0-21.0-1.0","d74af97c-a382-4c34-9edb-a5864ebe3b0e","1988","
                  <p style=""text-align: center;"">₪71
                                                <br>45%</p>
                  <p id=""wtp"" style=""text-align:center; margin-top: 0px; margin-bottom: 0px; font-size: 40px"";>מוכנים לשלם: <span id=""c_p_y""></span></p>","29","evaluation","20","26","2B,16A","45","71","29","","","","","","","","","","","","","",""
"","","","","","html-keyboard-response","116","267178","0.0-21.0-2.0","d74af97c-a382-4c34-9edb-a5864ebe3b0e","null","<p style=""text-align: center;"">+</p>","null","fixation","","","","","","","","","","","","","","","","","","","",""
"","","","","","html-slider-response","117","268181","0.0-21.0-0.1","d74af97c-a382-4c34-9edb-a5864ebe3b0e","1000","
                  <p style=""text-align: center;"">₪61
                                                <br>55%</p>
                  <p id=""wtp"" style=""text-align:center; margin-top: 0px; margin-bottom: 0px; font-size: 40px"";>&ensp;</p>","-","viewing","0","23","7B,26B","","","","","","","","","","","","","","","","",""
"","","","","","html-slider-response","118","269129","0.0-21.0-1.1","d74af97c-a382-4c34-9edb-a5864ebe3b0e","946","
                  <p style=""text-align: center;"">₪61
                                                <br>55%</p>
                  <p id=""wtp"" style=""text-align:center; margin-top: 0px; margin-bottom: 0px; font-size: 40px"";>מוכנים לשלם: <span id=""c_p_y""></span></p>","28","evaluation","51","23","7B,26B","55","61","28","","","","","","","","","","","","","",""
"","","","","","html-keyboard-response","119","270187","0.0-21.0-2.1","d74af97c-a382-4c34-9edb-a5864ebe3b0e","null","<p style=""text-align: center;"">+</p>","null","fixation","","","","","","","","","","","","","","","","","","","",""
"","","","","","html-slider-response","120","271188","0.0-21.0-0.2","d74af97c-a382-4c34-9edb-a5864ebe3b0e","1000","
                  <p style=""text-align: center;"">₪11
                                                <br>45%</p>
                  <p id=""wtp"" style=""text-align:center; margin-top: 0px; margin-bottom: 0px; font-size: 40px"";>&ensp;</p>","-","viewing","0","6","14B,21C,25C","","","","","","","","","","","","","","","","",""
"","","","","","html-slider-response","121","274289","0.0-21.0-1.2","d74af97c-a382-4c34-9edb-a5864ebe3b0e","3099","
                  <p style=""text-align: center;"">₪11
                                                <br>45%</p>
                  <p id=""wtp"" style=""text-align:center; margin-top: 0px; margin-bottom: 0px; font-size: 40px"";>מוכנים לשלם: <span id=""c_p_y""></span></p>","3","evaluation","20","6","14B,21C,25C","45","11","4","","","","","","","","","","","","","",""
"","","","","","html-keyboard-response","122","275729","0.0-21.0-2.2","d74af97c-a382-4c34-9edb-a5864ebe3b0e","null","<p style=""text-align: center;"">+</p>","null","fixation","","","","","","","","","","","","","","","","","","","",""
"","","","","","html-slider-response","123","276743","0.0-21.0-0.3","d74af97c-a382-4c34-9edb-a5864ebe3b0e","1000","
                  <p style=""text-align: center;"">₪43
                                                <br>60%</p>
                  <p id=""wtp"" style=""text-align:center; margin-top: 0px; margin-bottom: 0px; font-size: 40px"";>&ensp;</p>","-","viewing","0","17","2A,7A,9A,15B","","","","","","","","","","","","","","","","",""
"","","","","","html-slider-response","124","279129","0.0-21.0-1.3","d74af97c-a382-4c34-9edb-a5864ebe3b0e","2384","
                  <p style=""text-align: center;"">₪43
                                                <br>60%</p>
                  <p id=""wtp"" style=""text-align:center; margin-top: 0px; margin-bottom: 0px; font-size: 40px"";>מוכנים לשלם: <span id=""c_p_y""></span></p>","19","evaluation","1","17","2A,7A,9A,15B","60","43","19","","","","","","","","","","","","","",""
"","","","","","html-keyboard-response","125","280031","0.0-21.0-2.3","d74af97c-a382-4c34-9edb-a5864ebe3b0e","null","<p style=""text-align: center;"">+</p>","null","fixation","","","","","","","","","","","","","","","","","","","",""
"","","","","","html-slider-response","126","281033","0.0-21.0-0.4","d74af97c-a382-4c34-9edb-a5864ebe3b0e","1000","
                  <p style=""text-align: center;"">₪64
                                                <br>25%</p>
                  <p id=""wtp"" style=""text-align:center; margin-top: 0px; margin-bottom: 0px; font-size: 40px"";>&ensp;</p>","-","viewing","0","24","6A,21A","","","","","","","","","","","","","","","","",""
"","","","","","html-slider-response","127","283089","0.0-21.0-1.4","d74af97c-a382-4c34-9edb-a5864ebe3b0e","2054","
                  <p style=""text-align: center;"">₪64
                                                <br>25%</p>
                  <p id=""wtp"" style=""text-align:center; margin-top: 0px; margin-bottom: 0px; font-size: 40px"";>מוכנים לשלם: <span id=""c_p_y""></span></p>","9","evaluation","43","24","6A,21A","25","64","10","","","","","","","","","","","","","",""
"","","","","","html-keyboard-response","128","283960","0.0-21.0-2.4","d74af97c-a382-4c34-9edb-a5864ebe3b0e","null","<p style=""text-align: center;"">+</p>","null","fixation","","","","","","","","","","","","","","","","","","","",""
"","","","","","html-slider-response","129","284971","0.0-21.0-0.5","d74af97c-a382-4c34-9edb-a5864ebe3b0e","1000","
                  <p style=""text-align: center;"">₪36
                                                <br>30%</p>
                  <p id=""wtp"" style=""text-align:center; margin-top: 0px; margin-bottom: 0px; font-size: 40px"";>&ensp;</p>","-","viewing","0","11","3C,20A,22A","","","","","","","","","","","","","","","","",""
"","","","","","html-slider-response","130","286185","0.0-21.0-1.5","d74af97c-a382-4c34-9edb-a5864ebe3b0e","1212","
                  <p style=""text-align: center;"">₪36
                                                <br>30%</p>
                  <p id=""wtp"" style=""text-align:center; margin-top: 0px; margin-bottom: 0px; font-size: 40px"";>מוכנים לשלם: <span id=""c_p_y""></span></p>","8","evaluation","72","11","3C,20A,22A","30","36","9","","","","","","","","","","","","","",""
"","","","","","html-keyboard-response","131","286936","0.0-21.0-2.5","d74af97c-a382-4c34-9edb-a5864ebe3b0e","null","<p style=""text-align: center;"">+</p>","null","fixation","","","","","","","","","","","","","","","","","","","",""
"","","","","","html-slider-response","132","287940","0.0-21.0-0.6","d74af97c-a382-4c34-9edb-a5864ebe3b0e","1000","
                  <p style=""text-align: center;"">₪36
                                                <br>60%</p>
                  <p id=""wtp"" style=""text-align:center; margin-top: 0px; margin-bottom: 0px; font-size: 40px"";>&ensp;</p>","-","viewing","0","12","1C,7C,15C","","","","","","","","","","","","","","","","",""
"","","","","","html-slider-response","133","290057","0.0-21.0-1.6","d74af97c-a382-4c34-9edb-a5864ebe3b0e","2116","
                  <p style=""text-align: center;"">₪36
                                                <br>60%</p>
                  <p id=""wtp"" style=""text-align:center; margin-top: 0px; margin-bottom: 0px; font-size: 40px"";>מוכנים לשלם: <span id=""c_p_y""></span></p>","17","evaluation","38","12","1C,7C,15C","60","36","17","","","","","","","","","","","","","",""
"","","","","","html-keyboard-response","134","290704","0.0-21.0-2.6","d74af97c-a382-4c34-9edb-a5864ebe3b0e","null","<p style=""text-align: center;"">+</p>","null","fixation","","","","","","","","","","","","","","","","","","","",""
"","","","","","html-slider-response","135","291719","0.0-21.0-0.7","d74af97c-a382-4c34-9edb-a5864ebe3b0e","1000","
                  <p style=""text-align: center;"">₪58
                                                <br>40%</p>
                  <p id=""wtp"" style=""text-align:center; margin-top: 0px; margin-bottom: 0px; font-size: 40px"";>&ensp;</p>","-","viewing","0","20","10C,13A,19C,21B","","","","","","","","","","","","","","","","",""
"","","","","","html-slider-response","136","295736","0.0-21.0-1.7","d74af97c-a382-4c34-9edb-a5864ebe3b0e","null","
                  <p style=""text-align: center;"">₪58
                                                <br>40%</p>
                  <p id=""wtp"" style=""text-align:center; margin-top: 0px; margin-bottom: 0px; font-size: 40px"";>מוכנים לשלם: <span id=""c_p_y""></span></p>","null","evaluation","12","20","10C,13A,19C,21B","40","58","21","","","","","","","","","","","","","",""
"","","","","","html-keyboard-response","137","296738","0.0-21.0-2.7","d74af97c-a382-4c34-9edb-a5864ebe3b0e","null","<p style=""text-align: center;"">+</p>","null","fixation","","","","","","","","","","","","","","","","","","","",""
"","","","","","html-slider-response","138","297751","0.0-21.0-0.8","d74af97c-a382-4c34-9edb-a5864ebe3b0e","1000","
                  <p style=""text-align: center;"">₪79
                                                <br>65%</p>
                  <p id=""wtp"" style=""text-align:center; margin-top: 0px; margin-bottom: 0px; font-size: 40px"";>&ensp;</p>","-","viewing","0","31","8A","","","","","","","","","","","","","","","","",""
"","","","","","html-slider-response","139","300073","0.0-21.0-1.8","d74af97c-a382-4c34-9edb-a5864ebe3b0e","2321","
                  <p style=""text-align: center;"">₪79
                                                <br>65%</p>
                  <p id=""wtp"" style=""text-align:center; margin-top: 0px; margin-bottom: 0px; font-size: 40px"";>מוכנים לשלם: <span id=""c_p_y""></span></p>","30","evaluation","24","31","8A","65","79","30","","","","","","","","","","","","","",""
"","","","","","html-keyboard-response","140","301116","0.0-21.0-2.8","d74af97c-a382-4c34-9edb-a5864ebe3b0e","null","<p style=""text-align: center;"">+</p>","null","fixation","","","","","","","","","","","","","","","","","","","",""
"","","","","","html-slider-response","141","302131","0.0-21.0-0.9","d74af97c-a382-4c34-9edb-a5864ebe3b0e","1000","
                  <p style=""text-align: center;"">₪36
                                                <br>75%</p>
                  <p id=""wtp"" style=""text-align:center; margin-top: 0px; margin-bottom: 0px; font-size: 40px"";>&ensp;</p>","-","viewing","0","14","4B,5A,13B,16B","","","","","","","","","","","","","","","","",""
"","","","","","html-slider-response","142","304281","0.0-21.0-1.9","d74af97c-a382-4c34-9edb-a5864ebe3b0e","2149","
                  <p style=""text-align: center;"">₪36
                                                <br>75%</p>
                  <p id=""wtp"" style=""text-align:center; margin-top: 0px; margin-bottom: 0px; font-size: 40px"";>מוכנים לשלם: <span id=""c_p_y""></span></p>","18","evaluation","67","14","4B,5A,13B,16B","75","36","18","","","","","","","","","","","","","",""
"","","","","","html-keyboard-response","143","305104","0.0-21.0-2.9","d74af97c-a382-4c34-9edb-a5864ebe3b0e","null","<p style=""text-align: center;"">+</p>","null","fixation","","","","","","","","","","","","","","","","","","","",""
"","","","","","html-slider-response","144","306106","0.0-21.0-0.10","d74af97c-a382-4c34-9edb-a5864ebe3b0e","1000","
                  <p style=""text-align: center;"">₪39
                                                <br>60%</p>
                  <p id=""wtp"" style=""text-align:center; margin-top: 0px; margin-bottom: 0px; font-size: 40px"";>&ensp;</p>","-","viewing","0","15","9C,25B","","","","","","","","","","","","","","","","",""
"","","","","","html-slider-response","145","308513","0.0-21.0-1.10","d74af97c-a382-4c34-9edb-a5864ebe3b0e","2406","
                  <p style=""text-align: center;"">₪39
                                                <br>60%</p>
                  <p id=""wtp"" style=""text-align:center; margin-top: 0px; margin-bottom: 0px; font-size: 40px"";>מוכנים לשלם: <span id=""c_p_y""></span></p>","18","evaluation","31","15","9C,25B","60","39","18","","","","","","","","","","","","","",""
"","","","","","html-keyboard-response","146","309352","0.0-21.0-2.10","d74af97c-a382-4c34-9edb-a5864ebe3b0e","null","<p style=""text-align: center;"">+</p>","null","fixation","","","","","","","","","","","","","","","","","","","",""
"","","","","","html-slider-response","147","310355","0.0-21.0-0.11","d74af97c-a382-4c34-9edb-a5864ebe3b0e","1000","
                  <p style=""text-align: center;"">₪4
                                                <br>75%</p>
                  <p id=""wtp"" style=""text-align:center; margin-top: 0px; margin-bottom: 0px; font-size: 40px"";>&ensp;</p>","-","viewing","0","3","12B,20B,23B,27C,29C","","","","","","","","","","","","","","","","",""
"","","","","","html-slider-response","148","311857","0.0-21.0-1.11","d74af97c-a382-4c34-9edb-a5864ebe3b0e","1502","
                  <p style=""text-align: center;"">₪4
                                                <br>75%</p>
                  <p id=""wtp"" style=""text-align:center; margin-top: 0px; margin-bottom: 0px; font-size: 40px"";>מוכנים לשלם: <span id=""c_p_y""></span></p>","1","evaluation","39","3","12B,20B,23B,27C,29C","75","4","2","","","","","","","","","","","","","",""
"","","","","","html-keyboard-response","149","313313","0.0-21.0-2.11","d74af97c-a382-4c34-9edb-a5864ebe3b0e","null","<p style=""text-align: center;"">+</p>","null","fixation","","","","","","","","","","","","","","","","","","","",""
"","","","","","html-slider-response","150","314325","0.0-21.0-0.12","d74af97c-a382-4c34-9edb-a5864ebe3b0e","1000","
                  <p style=""text-align: center;"">₪61
                                                <br>45%</p>
                  <p id=""wtp"" style=""text-align:center; margin-top: 0px; margin-bottom: 0px; font-size: 40px"";>&ensp;</p>","-","viewing","0","22","10A,11A","","","","","","","","","","","","","","","","",""
"","","","","","html-slider-response","151","317545","0.0-21.0-1.12","d74af97c-a382-4c34-9edb-a5864ebe3b0e","3218","
                  <p style=""text-align: center;"">₪61
                                                <br>45%</p>
                  <p id=""wtp"" style=""text-align:center; margin-top: 0px; margin-bottom: 0px; font-size: 40px"";>מוכנים לשלם: <span id=""c_p_y""></span></p>","25","evaluation","64","22","10A,11A","45","61","25","","","","","","","","","","","","","",""
"","","","","","html-keyboard-response","152","318350","0.0-21.0-2.12","d74af97c-a382-4c34-9edb-a5864ebe3b0e","null","<p style=""text-align: center;"">+</p>","null","fixation","","","","","","","","","","","","","","","","","","","",""
"","","","","","html-slider-response","153","319353","0.0-21.0-0.13","d74af97c-a382-4c34-9edb-a5864ebe3b0e","1000","
                  <p style=""text-align: center;"">₪71
                                                <br>55%</p>
                  <p id=""wtp"" style=""text-align:center; margin-top: 0px; margin-bottom: 0px; font-size: 40px"";>&ensp;</p>","-","viewing","0","27","5B,18A","","","","","","","","","","","","","","","","",""
"","","","","","html-slider-response","154","321497","0.0-21.0-1.13","d74af97c-a382-4c34-9edb-a5864ebe3b0e","2142","
                  <p style=""text-align: center;"">₪71
                                                <br>55%</p>
                  <p id=""wtp"" style=""text-align:center; margin-top: 0px; margin-bottom: 0px; font-size: 40px"";>מוכנים לשלם: <span id=""c_p_y""></span></p>","30","evaluation","20","27","5B,18A","55","71","30","","","","","","","","","","","","","",""
"","","","","","html-keyboard-response","155","322150","0.0-21.0-2.13","d74af97c-a382-4c34-9edb-a5864ebe3b0e","null","<p style=""text-align: center;"">+</p>","null","fixation","","","","","","","","","","","","","","","","","","","",""
"","","","","","html-slider-response","156","323154","0.0-21.0-0.14","d74af97c-a382-4c34-9edb-a5864ebe3b0e","1000","
                  <p style=""text-align: center;"">₪71
                                                <br>75%</p>
                  <p id=""wtp"" style=""text-align:center; margin-top: 0px; margin-bottom: 0px; font-size: 40px"";>&ensp;</p>","-","viewing","0","28","8B","","","","","","","","","","","","","","","","",""
"","","","","","html-slider-response","157","326297","0.0-21.0-1.14","d74af97c-a382-4c34-9edb-a5864ebe3b0e","3142","
                  <p style=""text-align: center;"">₪71
                                                <br>75%</p>
                  <p id=""wtp"" style=""text-align:center; margin-top: 0px; margin-bottom: 0px; font-size: 40px"";>מוכנים לשלם: <span id=""c_p_y""></span></p>","54","evaluation","59","28","8B","75","71","54","","","","","","","","","","","","","",""
"","","","","","html-keyboard-response","158","326861","0.0-21.0-2.14","d74af97c-a382-4c34-9edb-a5864ebe3b0e","null","<p style=""text-align: center;"">+</p>","null","fixation","","","","","","","","","","","","","","","","","","","",""
"","","","","","html-slider-response","159","327865","0.0-21.0-0.15","d74af97c-a382-4c34-9edb-a5864ebe3b0e","1000","
                  <p style=""text-align: center;"">₪43
                                                <br>75%</p>
                  <p id=""wtp"" style=""text-align:center; margin-top: 0px; margin-bottom: 0px; font-size: 40px"";>&ensp;</p>","-","viewing","0","18","11B,19B,24A,26A","","","","","","","","","","","","","","","","",""
"","","","","","html-slider-response","160","330601","0.0-21.0-1.15","d74af97c-a382-4c34-9edb-a5864ebe3b0e","2735","
                  <p style=""text-align: center;"">₪43
                                                <br>75%</p>
                  <p id=""wtp"" style=""text-align:center; margin-top: 0px; margin-bottom: 0px; font-size: 40px"";>מוכנים לשלם: <span id=""c_p_y""></span></p>","37","evaluation","60","18","11B,19B,24A,26A","75","43","37","","","","","","","","","","","","","",""
"","","","","","html-keyboard-response","161","331987","0.0-21.0-2.15","d74af97c-a382-4c34-9edb-a5864ebe3b0e","null","<p style=""text-align: center;"">+</p>","null","fixation","","","","","","","","","","","","","","","","","","","",""
"","","","","","html-slider-response","162","332989","0.0-21.0-0.16","d74af97c-a382-4c34-9edb-a5864ebe3b0e","1000","
                  <p style=""text-align: center;"">₪18
                                                <br>50%</p>
                  <p id=""wtp"" style=""text-align:center; margin-top: 0px; margin-bottom: 0px; font-size: 40px"";>&ensp;</p>","-","viewing","0","10","2C,16C,22B,28A","","","","","","","","","","","","","","","","",""
"","","","","","html-slider-response","163","334233","0.0-21.0-1.16","d74af97c-a382-4c34-9edb-a5864ebe3b0e","1243","
                  <p style=""text-align: center;"">₪18
                                                <br>50%</p>
                  <p id=""wtp"" style=""text-align:center; margin-top: 0px; margin-bottom: 0px; font-size: 40px"";>מוכנים לשלם: <span id=""c_p_y""></span></p>","5","evaluation","57","10","2C,16C,22B,28A","50","18","6","","","","","","","","","","","","","",""
"","","","","","html-keyboard-response","164","334837","0.0-21.0-2.16","d74af97c-a382-4c34-9edb-a5864ebe3b0e","null","<p style=""text-align: center;"">+</p>","null","fixation","","","","","","","","","","","","","","","","","","","",""
"","","","","","html-slider-response","165","335854","0.0-21.0-0.17","d74af97c-a382-4c34-9edb-a5864ebe3b0e","1000","
                  <p style=""text-align: center;"">₪11
                                                <br>25%</p>
                  <p id=""wtp"" style=""text-align:center; margin-top: 0px; margin-bottom: 0px; font-size: 40px"";>&ensp;</p>","-","viewing","0","5","12A,27B,28B,30B","","","","","","","","","","","","","","","","",""
"","","","","","html-slider-response","166","337449","0.0-21.0-1.17","d74af97c-a382-4c34-9edb-a5864ebe3b0e","1594","
                  <p style=""text-align: center;"">₪11
                                                <br>25%</p>
                  <p id=""wtp"" style=""text-align:center; margin-top: 0px; margin-bottom: 0px; font-size: 40px"";>מוכנים לשלם: <span id=""c_p_y""></span></p>","5","evaluation","80","5","12A,27B,28B,30B","25","11","5","","","","","","","","","","","","","",""
"","","","","","html-keyboard-response","167","338568","0.0-21.0-2.17","d74af97c-a382-4c34-9edb-a5864ebe3b0e","null","<p style=""text-align: center;"">+</p>","null","fixation","","","","","","","","","","","","","","","","","","","",""
"","","","","","html-slider-response","168","339583","0.0-21.0-0.18","d74af97c-a382-4c34-9edb-a5864ebe3b0e","1000","
                  <p style=""text-align: center;"">₪39
                                                <br>65%</p>
                  <p id=""wtp"" style=""text-align:center; margin-top: 0px; margin-bottom: 0px; font-size: 40px"";>&ensp;</p>","-","viewing","0","16","1A,15A,26C","","","","","","","","","","","","","","","","",""
"","","","","","html-slider-response","169","343585","0.0-21.0-1.18","d74af97c-a382-4c34-9edb-a5864ebe3b0e","null","
                  <p style=""text-align: center;"">₪39
                                                <br>65%</p>
                  <p id=""wtp"" style=""text-align:center; margin-top: 0px; margin-bottom: 0px; font-size: 40px"";>מוכנים לשלם: <span id=""c_p_y""></span></p>","null","evaluation","13","16","1A,15A,26C","65","39","21","","","","","","","","","","","","","",""
"","","","","","html-keyboard-response","170","344941","0.0-21.0-2.18","d74af97c-a382-4c34-9edb-a5864ebe3b0e","null","<p style=""text-align: center;"">+</p>","null","fixation","","","","","","","","","","","","","","","","","","","",""
"","","","","","html-slider-response","171","345946","0.0-21.0-0.19","d74af97c-a382-4c34-9edb-a5864ebe3b0e","1000","
                  <p style=""text-align: center;"">₪4
                                                <br>25%</p>
                  <p id=""wtp"" style=""text-align:center; margin-top: 0px; margin-bottom: 0px; font-size: 40px"";>&ensp;</p>","-","viewing","0","1","6C,29B,30C","","","","","","","","","","","","","","","","",""
"","","","","","html-slider-response","172","347081","0.0-21.0-1.19","d74af97c-a382-4c34-9edb-a5864ebe3b0e","1134","
                  <p style=""text-align: center;"">₪4
                                                <br>25%</p>
                  <p id=""wtp"" style=""text-align:center; margin-top: 0px; margin-bottom: 0px; font-size: 40px"";>מוכנים לשלם: <span id=""c_p_y""></span></p>","1","evaluation","5","1","6C,29B,30C","25","4","1","","","","","","","","","","","","","",""
"","","","","","html-keyboard-response","173","348011","0.0-21.0-2.19","d74af97c-a382-4c34-9edb-a5864ebe3b0e","null","<p style=""text-align: center;"">+</p>","null","fixation","","","","","","","","","","","","","","","","","","","",""
"","","","","","html-slider-response","174","349023","0.0-21.0-0.20","d74af97c-a382-4c34-9edb-a5864ebe3b0e","1000","
                  <p style=""text-align: center;"">₪11
                                                <br>75%</p>
                  <p id=""wtp"" style=""text-align:center; margin-top: 0px; margin-bottom: 0px; font-size: 40px"";>&ensp;</p>","-","viewing","0","7","6B,18B,22C,24C,29A","","","","","","","","","","","","","","","","",""
"","","","","","html-slider-response","175","352209","0.0-21.0-1.20","d74af97c-a382-4c34-9edb-a5864ebe3b0e","3185","
                  <p style=""text-align: center;"">₪11
                                                <br>75%</p>
                  <p id=""wtp"" style=""text-align:center; margin-top: 0px; margin-bottom: 0px; font-size: 40px"";>מוכנים לשלם: <span id=""c_p_y""></span></p>","7","evaluation","12","7","6B,18B,22C,24C,29A","75","11","7","","","","","","","","","","","","","",""
"","","","","","html-keyboard-response","176","353223","0.0-21.0-2.20","d74af97c-a382-4c34-9edb-a5864ebe3b0e","null","<p style=""text-align: center;"">+</p>","null","fixation","","","","","","","","","","","","","","","","","","","",""
"","","","","","html-slider-response","177","354224","0.0-21.0-0.21","d74af97c-a382-4c34-9edb-a5864ebe3b0e","1000","
                  <p style=""text-align: center;"">₪4
                                                <br>50%</p>
                  <p id=""wtp"" style=""text-align:center; margin-top: 0px; margin-bottom: 0px; font-size: 40px"";>&ensp;</p>","-","viewing","0","2","4C,17B","","","","","","","","","","","","","","","","",""
"","","","","","html-slider-response","178","355897","0.0-21.0-1.21","d74af97c-a382-4c34-9edb-a5864ebe3b0e","1672","
                  <p style=""text-align: center;"">₪4
                                                <br>50%</p>
                  <p id=""wtp"" style=""text-align:center; margin-top: 0px; margin-bottom: 0px; font-size: 40px"";>מוכנים לשלם: <span id=""c_p_y""></span></p>","1","evaluation","38","2","4C,17B","50","4","2","","","","","","","","","","","","","",""
"","","","","","html-keyboard-response","179","357071","0.0-21.0-2.21","d74af97c-a382-4c34-9edb-a5864ebe3b0e","null","<p style=""text-align: center;"">+</p>","null","fixation","","","","","","","","","","","","","","","","","","","",""
"","","","","","html-slider-response","180","358077","0.0-21.0-0.22","d74af97c-a382-4c34-9edb-a5864ebe3b0e","1000","
                  <p style=""text-align: center;"">₪11
                                                <br>20%</p>
                  <p id=""wtp"" style=""text-align:center; margin-top: 0px; margin-bottom: 0px; font-size: 40px"";>&ensp;</p>","-","viewing","0","4","12C,17C,23C,28C","","","","","","","","","","","","","","","","",""
"","","","","","html-slider-response","181","360329","0.0-21.0-1.22","d74af97c-a382-4c34-9edb-a5864ebe3b0e","2251","
                  <p style=""text-align: center;"">₪11
                                                <br>20%</p>
                  <p id=""wtp"" style=""text-align:center; margin-top: 0px; margin-bottom: 0px; font-size: 40px"";>מוכנים לשלם: <span id=""c_p_y""></span></p>","2","evaluation","38","4","12C,17C,23C,28C","20","11","2","","","","","","","","","","","","","",""
"","","","","","html-keyboard-response","182","361435","0.0-21.0-2.22","d74af97c-a382-4c34-9edb-a5864ebe3b0e","null","<p style=""text-align: center;"">+</p>","null","fixation","","","","","","","","","","","","","","","","","","","",""
"","","","","","html-slider-response","183","362442","0.0-21.0-0.23","d74af97c-a382-4c34-9edb-a5864ebe3b0e","1000","
                  <p style=""text-align: center;"">₪16
                                                <br>20%</p>
                  <p id=""wtp"" style=""text-align:center; margin-top: 0px; margin-bottom: 0px; font-size: 40px"";>&ensp;</p>","-","viewing","0","8","14C,17A,20C,27A","","","","","","","","","","","","","","","","",""
"","","","","","html-slider-response","184","363201","0.0-21.0-1.23","d74af97c-a382-4c34-9edb-a5864ebe3b0e","758","
                  <p style=""text-align: center;"">₪16
                                                <br>20%</p>
                  <p id=""wtp"" style=""text-align:center; margin-top: 0px; margin-bottom: 0px; font-size: 40px"";>מוכנים לשלם: <span id=""c_p_y""></span></p>","5","evaluation","79","8","14C,17A,20C,27A","20","16","5","","","","","","","","","","","","","",""
"","","","","","html-keyboard-response","185","363767","0.0-21.0-2.23","d74af97c-a382-4c34-9edb-a5864ebe3b0e","null","<p style=""text-align: center;"">+</p>","null","fixation","","","","","","","","","","","","","","","","","","","",""
"","","","","","html-slider-response","186","364782","0.0-21.0-0.24","d74af97c-a382-4c34-9edb-a5864ebe3b0e","1000","
                  <p style=""text-align: center;"">₪58
                                                <br>30%</p>
                  <p id=""wtp"" style=""text-align:center; margin-top: 0px; margin-bottom: 0px; font-size: 40px"";>&ensp;</p>","-","viewing","0","19","13C,30A","","","","","","","","","","","","","","","","",""
"","","","","","html-slider-response","187","367161","0.0-21.0-1.24","d74af97c-a382-4c34-9edb-a5864ebe3b0e","2377","
                  <p style=""text-align: center;"">₪58
                                                <br>30%</p>
                  <p id=""wtp"" style=""text-align:center; margin-top: 0px; margin-bottom: 0px; font-size: 40px"";>מוכנים לשלם: <span id=""c_p_y""></span></p>","9","evaluation","14","19","13C,30A","30","58","9","","","","","","","","","","","","","",""
"","","","","","html-keyboard-response","188","368233","0.0-21.0-2.24","d74af97c-a382-4c34-9edb-a5864ebe3b0e","null","<p style=""text-align: center;"">+</p>","null","fixation","","","","","","","","","","","","","","","","","","","",""
"","","","","","html-slider-response","189","369238","0.0-21.0-0.25","d74af97c-a382-4c34-9edb-a5864ebe3b0e","1000","
                  <p style=""text-align: center;"">₪79
                                                <br>40%</p>
                  <p id=""wtp"" style=""text-align:center; margin-top: 0px; margin-bottom: 0px; font-size: 40px"";>&ensp;</p>","-","viewing","0","30","9B","","","","","","","","","","","","","","","","",""
"","","","","","html-slider-response","190","372504","0.0-21.0-1.25","d74af97c-a382-4c34-9edb-a5864ebe3b0e","3266","
                  <p style=""text-align: center;"">₪79
                                                <br>40%</p>
                  <p id=""wtp"" style=""text-align:center; margin-top: 0px; margin-bottom: 0px; font-size: 40px"";>מוכנים לשלם: <span id=""c_p_y""></span></p>","25","evaluation","15","30","9B","40","79","25","","","","","","","","","","","","","",""
"","","","","","html-keyboard-response","191","373308","0.0-21.0-2.25","d74af97c-a382-4c34-9edb-a5864ebe3b0e","null","<p style=""text-align: center;"">+</p>","null","fixation","","","","","","","","","","","","","","","","","","","",""
"","","","","","html-slider-response","192","374310","0.0-21.0-0.26","d74af97c-a382-4c34-9edb-a5864ebe3b0e","1000","
                  <p style=""text-align: center;"">₪18
                                                <br>25%</p>
                  <p id=""wtp"" style=""text-align:center; margin-top: 0px; margin-bottom: 0px; font-size: 40px"";>&ensp;</p>","-","viewing","0","9","14A,23A","","","","","","","","","","","","","","","","",""
"","","","","","html-slider-response","193","377473","0.0-21.0-1.26","d74af97c-a382-4c34-9edb-a5864ebe3b0e","3162","
                  <p style=""text-align: center;"">₪18
                                                <br>25%</p>
                  <p id=""wtp"" style=""text-align:center; margin-top: 0px; margin-bottom: 0px; font-size: 40px"";>מוכנים לשלם: <span id=""c_p_y""></span></p>","2","evaluation","3","9","14A,23A","25","18","2","","","","","","","","","","","","","",""
"","","","","","html-keyboard-response","194","378788","0.0-21.0-2.26","d74af97c-a382-4c34-9edb-a5864ebe3b0e","null","<p style=""text-align: center;"">+</p>","null","fixation","","","","","","","","","","","","","","","","","","","",""
"","","","","","html-slider-response","195","379803","0.0-21.0-0.27","d74af97c-a382-4c34-9edb-a5864ebe3b0e","1000","
                  <p style=""text-align: center;"">₪58
                                                <br>45%</p>
                  <p id=""wtp"" style=""text-align:center; margin-top: 0px; margin-bottom: 0px; font-size: 40px"";>&ensp;</p>","-","viewing","0","21","11C,18C,25A","","","","","","","","","","","","","","","","",""
"","","","","","html-slider-response","196","382177","0.0-21.0-1.27","d74af97c-a382-4c34-9edb-a5864ebe3b0e","2372","
                  <p style=""text-align: center;"">₪58
                                                <br>45%</p>
                  <p id=""wtp"" style=""text-align:center; margin-top: 0px; margin-bottom: 0px; font-size: 40px"";>מוכנים לשלם: <span id=""c_p_y""></span></p>","17","evaluation","58","21","11C,18C,25A","45","58","17","","","","","","","","","","","","","",""
"","","","","","html-keyboard-response","197","383050","0.0-21.0-2.27","d74af97c-a382-4c34-9edb-a5864ebe3b0e","null","<p style=""text-align: center;"">+</p>","null","fixation","","","","","","","","","","","","","","","","","","","",""
"","","","","","html-slider-response","198","384062","0.0-21.0-0.28","d74af97c-a382-4c34-9edb-a5864ebe3b0e","1000","
                  <p style=""text-align: center;"">₪64
                                                <br>50%</p>
                  <p id=""wtp"" style=""text-align:center; margin-top: 0px; margin-bottom: 0px; font-size: 40px"";>&ensp;</p>","-","viewing","0","25","1B,3B,4A","","","","","","","","","","","","","","","","",""
"","","","","","html-slider-response","199","385865","0.0-21.0-1.28","d74af97c-a382-4c34-9edb-a5864ebe3b0e","1801","
                  <p style=""text-align: center;"">₪64
                                                <br>50%</p>
                  <p id=""wtp"" style=""text-align:center; margin-top: 0px; margin-bottom: 0px; font-size: 40px"";>מוכנים לשלם: <span id=""c_p_y""></span></p>","27","evaluation","79","25","1B,3B,4A","50","64","27","","","","","","","","","","","","","",""
"","","","","","html-keyboard-response","200","387062","0.0-21.0-2.28","d74af97c-a382-4c34-9edb-a5864ebe3b0e","null","<p style=""text-align: center;"">+</p>","null","fixation","","","","","","","","","","","","","","","","","","","",""
"","","","","","html-slider-response","201","388066","0.0-21.0-0.29","d74af97c-a382-4c34-9edb-a5864ebe3b0e","1000","
                  <p style=""text-align: center;"">₪36
                                                <br>70%</p>
                  <p id=""wtp"" style=""text-align:center; margin-top: 0px; margin-bottom: 0px; font-size: 40px"";>&ensp;</p>","-","viewing","0","13","3A,5C,10B","","","","","","","","","","","","","","","","",""
"","","","","","html-slider-response","202","389657","0.0-21.0-1.29","d74af97c-a382-4c34-9edb-a5864ebe3b0e","1589","
                  <p style=""text-align: center;"">₪36
                                                <br>70%</p>
                  <p id=""wtp"" style=""text-align:center; margin-top: 0px; margin-bottom: 0px; font-size: 40px"";>מוכנים לשלם: <span id=""c_p_y""></span></p>","23","evaluation","0","13","3A,5C,10B","70","36","23","","","","","","","","","","","","","",""
"","","","","","html-keyboard-response","203","390386","0.0-21.0-2.29","d74af97c-a382-4c34-9edb-a5864ebe3b0e","null","<p style=""text-align: center;"">+</p>","null","fixation","","","","","","","","","","","","","","","","","","","",""
"","","","","","html-slider-response","204","391391","0.0-21.0-0.30","d74af97c-a382-4c34-9edb-a5864ebe3b0e","1000","
                  <p style=""text-align: center;"">₪76
                                                <br>65%</p>
                  <p id=""wtp"" style=""text-align:center; margin-top: 0px; margin-bottom: 0px; font-size: 40px"";>&ensp;</p>","-","viewing","0","29","8C,19A,24B","","","","","","","","","","","","","","","","",""
"","","","","","html-slider-response","205","394121","0.0-21.0-1.30","d74af97c-a382-4c34-9edb-a5864ebe3b0e","2729","
                  <p style=""text-align: center;"">₪76
                                                <br>65%</p>
                  <p id=""wtp"" style=""text-align:center; margin-top: 0px; margin-bottom: 0px; font-size: 40px"";>מוכנים לשלם: <span id=""c_p_y""></span></p>","32","evaluation","58","29","8C,19A,24B","65","76","32","","","","","","","","","","","","","",""
"","","","","","html-keyboard-response","206","394989","0.0-21.0-2.30","d74af97c-a382-4c34-9edb-a5864ebe3b0e","null","<p style=""text-align: center;"">+</p>","null","fixation","","","","","","","","","","","","","","","","","","","",""
"","","","","","html-keyboard-response","207","395993","0.0-22.0","d74af97c-a382-4c34-9edb-a5864ebe3b0e","null","<p style=""text-align: center;"">+</p>","null","fixation","","","","","","","","","","","","","","","","","","","",""
"","","","","","html-keyboard-response","208","401496","0.0-23.0","d74af97c-a382-4c34-9edb-a5864ebe3b0e","null","<p>הפסקה.
          <br>לחצו כדי להמשיך.</p>","1","scan_wait","","","","","","","","","","","","","","","","","","","",""
"","","","","","html-keyboard-response","209","402510","0.0-24.0","d74af97c-a382-4c34-9edb-a5864ebe3b0e","null","<p style=""text-align: center;"">+</p>","null","fixation","","","","","","","","","","","","","","","","","","","",""
"","","","","","html-slider-response","210","403517","0.0-25.0-0.0","d74af97c-a382-4c34-9edb-a5864ebe3b0e","1000","
                  <p style=""text-align: center;"">₪76
                                                <br>65%</p>
                  <p id=""wtp"" style=""text-align:center; margin-top: 0px; margin-bottom: 0px; font-size: 40px"";>&ensp;</p>","-","viewing","0","29","8C,19A,24B","","","","","","","","","","","","","","","","",""
"","","","","","html-slider-response","211","405985","0.0-25.0-1.0","d74af97c-a382-4c34-9edb-a5864ebe3b0e","2466","
                  <p style=""text-align: center;"">₪76
                                                <br>65%</p>
                  <p id=""wtp"" style=""text-align:center; margin-top: 0px; margin-bottom: 0px; font-size: 40px"";>מוכנים לשלם: <span id=""c_p_y""></span></p>","38","evaluation","62","29","8C,19A,24B","65","76","38","","","","","","","","","","","","","",""
"","","","","","html-keyboard-response","212","407293","0.0-25.0-2.0","d74af97c-a382-4c34-9edb-a5864ebe3b0e","null","<p style=""text-align: center;"">+</p>","null","fixation","","","","","","","","","","","","","","","","","","","",""
"","","","","","html-slider-response","213","408310","0.0-25.0-0.1","d74af97c-a382-4c34-9edb-a5864ebe3b0e","1000","
                  <p style=""text-align: center;"">₪58
                                                <br>45%</p>
                  <p id=""wtp"" style=""text-align:center; margin-top: 0px; margin-bottom: 0px; font-size: 40px"";>&ensp;</p>","-","viewing","0","21","11C,18C,25A","","","","","","","","","","","","","","","","",""
"","","","","","html-slider-response","214","409953","0.0-25.0-1.1","d74af97c-a382-4c34-9edb-a5864ebe3b0e","1641","
                  <p style=""text-align: center;"">₪58
                                                <br>45%</p>
                  <p id=""wtp"" style=""text-align:center; margin-top: 0px; margin-bottom: 0px; font-size: 40px"";>מוכנים לשלם: <span id=""c_p_y""></span></p>","31","evaluation","0","21","11C,18C,25A","45","58","31","","","","","","","","","","","","","",""
"","","","","","html-keyboard-response","215","410675","0.0-25.0-2.1","d74af97c-a382-4c34-9edb-a5864ebe3b0e","null","<p style=""text-align: center;"">+</p>","null","fixation","","","","","","","","","","","","","","","","","","","",""
"","","","","","html-slider-response","216","411681","0.0-25.0-0.2","d74af97c-a382-4c34-9edb-a5864ebe3b0e","1000","
                  <p style=""text-align: center;"">₪58
                                                <br>40%</p>
                  <p id=""wtp"" style=""text-align:center; margin-top: 0px; margin-bottom: 0px; font-size: 40px"";>&ensp;</p>","-","viewing","0","20","10C,13A,19C,21B","","","","","","","","","","","","","","","","",""
"","","","","","html-slider-response","217","413257","0.0-25.0-1.2","d74af97c-a382-4c34-9edb-a5864ebe3b0e","1574","
                  <p style=""text-align: center;"">₪58
                                                <br>40%</p>
                  <p id=""wtp"" style=""text-align:center; margin-top: 0px; margin-bottom: 0px; font-size: 40px"";>מוכנים לשלם: <span id=""c_p_y""></span></p>","34","evaluation","7","20","10C,13A,19C,21B","40","58","34","","","","","","","","","","","","","",""
"","","","","","html-keyboard-response","218","414068","0.0-25.0-2.2","d74af97c-a382-4c34-9edb-a5864ebe3b0e","null","<p style=""text-align: center;"">+</p>","null","fixation","","","","","","","","","","","","","","","","","","","",""
"","","","","","html-slider-response","219","415073","0.0-25.0-0.3","d74af97c-a382-4c34-9edb-a5864ebe3b0e","1000","
                  <p style=""text-align: center;"">₪16
                                                <br>20%</p>
                  <p id=""wtp"" style=""text-align:center; margin-top: 0px; margin-bottom: 0px; font-size: 40px"";>&ensp;</p>","-","viewing","0","8","14C,17A,20C,27A","","","","","","","","","","","","","","","","",""
"","","","","","html-slider-response","220","417657","0.0-25.0-1.3","d74af97c-a382-4c34-9edb-a5864ebe3b0e","2583","
                  <p style=""text-align: center;"">₪16
                                                <br>20%</p>
                  <p id=""wtp"" style=""text-align:center; margin-top: 0px; margin-bottom: 0px; font-size: 40px"";>מוכנים לשלם: <span id=""c_p_y""></span></p>","3","evaluation","51","8","14C,17A,20C,27A","20","16","3","","","","","","","","","","","","","",""
"","","","","","html-keyboard-response","221","418776","0.0-25.0-2.3","d74af97c-a382-4c34-9edb-a5864ebe3b0e","null","<p style=""text-align: center;"">+</p>","null","fixation","","","","","","","","","","","","","","","","","","","",""
"","","","","","html-slider-response","222","419778","0.0-25.0-0.4","d74af97c-a382-4c34-9edb-a5864ebe3b0e","1000","
                  <p style=""text-align: center;"">₪4
                                                <br>25%</p>
                  <p id=""wtp"" style=""text-align:center; margin-top: 0px; margin-bottom: 0px; font-size: 40px"";>&ensp;</p>","-","viewing","0","1","6C,29B,30C","","","","","","","","","","","","","","","","",""
"","","","","","html-slider-response","223","422312","0.0-25.0-1.4","d74af97c-a382-4c34-9edb-a5864ebe3b0e","2534","
                  <p style=""text-align: center;"">₪4
                                                <br>25%</p>
                  <p id=""wtp"" style=""text-align:center; margin-top: 0px; margin-bottom: 0px; font-size: 40px"";>מוכנים לשלם: <span id=""c_p_y""></span></p>","0","evaluation","12","1","6C,29B,30C","25","4","0","","","","","","","","","","","","","",""
"","","","","","html-keyboard-response","224","423134","0.0-25.0-2.4","d74af97c-a382-4c34-9edb-a5864ebe3b0e","null","<p style=""text-align: center;"">+</p>","null","fixation","","","","","","","","","","","","","","","","","","","",""
"","","","","","html-slider-response","225","424149","0.0-25.0-0.5","d74af97c-a382-4c34-9edb-a5864ebe3b0e","1000","
                  <p style=""text-align: center;"">₪71
                                                <br>75%</p>
                  <p id=""wtp"" style=""text-align:center; margin-top: 0px; margin-bottom: 0px; font-size: 40px"";>&ensp;</p>","-","viewing","0","28","8B","","","","","","","","","","","","","","","","",""
"","","","","","html-slider-response","226","427080","0.0-25.0-1.5","d74af97c-a382-4c34-9edb-a5864ebe3b0e","2930","
                  <p style=""text-align: center;"">₪71
                                                <br>75%</p>
                  <p id=""wtp"" style=""text-align:center; margin-top: 0px; margin-bottom: 0px; font-size: 40px"";>מוכנים לשלם: <span id=""c_p_y""></span></p>","56","evaluation","18","28","8B","75","71","55","","","","","","","","","","","","","",""
"","","","","","html-keyboard-response","227","428428","0.0-25.0-2.5","d74af97c-a382-4c34-9edb-a5864ebe3b0e","null","<p style=""text-align: center;"">+</p>","null","fixation","","","","","","","","","","","","","","","","","","","",""
"","","","","","html-slider-response","228","429430","0.0-25.0-0.6","d74af97c-a382-4c34-9edb-a5864ebe3b0e","1000","
                  <p style=""text-align: center;"">₪58
                                                <br>30%</p>
                  <p id=""wtp"" style=""text-align:center; margin-top: 0px; margin-bottom: 0px; font-size: 40px"";>&ensp;</p>","-","viewing","0","19","13C,30A","","","","","","","","","","","","","","","","",""
"","","","","","html-slider-response","229","431928","0.0-25.0-1.6","d74af97c-a382-4c34-9edb-a5864ebe3b0e","2497","
                  <p style=""text-align: center;"">₪58
                                                <br>30%</p>
                  <p id=""wtp"" style=""text-align:center; margin-top: 0px; margin-bottom: 0px; font-size: 40px"";>מוכנים לשלם: <span id=""c_p_y""></span></p>","19","evaluation","62","19","13C,30A","30","58","19","","","","","","","","","","","","","",""
"","","","","","html-keyboard-response","230","432633","0.0-25.0-2.6","d74af97c-a382-4c34-9edb-a5864ebe3b0e","null","<p style=""text-align: center;"">+</p>","null","fixation","","","","","","","","","","","","","","","","","","","",""
"","","","","","html-slider-response","231","433641","0.0-25.0-0.7","d74af97c-a382-4c34-9edb-a5864ebe3b0e","1000","
                  <p style=""text-align: center;"">₪71
                                                <br>45%</p>
                  <p id=""wtp"" style=""text-align:center; margin-top: 0px; margin-bottom: 0px; font-size: 40px"";>&ensp;</p>","-","viewing","0","26","2B,16A","","","","","","","","","","","","","","","","",""
"","","","","","html-slider-response","232","435768","0.0-25.0-1.7","d74af97c-a382-4c34-9edb-a5864ebe3b0e","2126","
                  <p style=""text-align: center;"">₪71
                                                <br>45%</p>
                  <p id=""wtp"" style=""text-align:center; margin-top: 0px; margin-bottom: 0px; font-size: 40px"";>מוכנים לשלם: <span id=""c_p_y""></span></p>","14","evaluation","41","26","2B,16A","45","71","15","","","","","","","","","","","","","",""
"","","","","","html-keyboard-response","233","436945","0.0-25.0-2.7","d74af97c-a382-4c34-9edb-a5864ebe3b0e","null","<p style=""text-align: center;"">+</p>","null","fixation","","","","","","","","","","","","","","","","","","","",""
"","","","","","html-slider-response","234","437951","0.0-25.0-0.8","d74af97c-a382-4c34-9edb-a5864ebe3b0e","1000","
                  <p style=""text-align: center;"">₪18
                                                <br>50%</p>
                  <p id=""wtp"" style=""text-align:center; margin-top: 0px; margin-bottom: 0px; font-size: 40px"";>&ensp;</p>","-","viewing","0","10","2C,16C,22B,28A","","","","","","","","","","","","","","","","",""
"","","","","","html-slider-response","235","439728","0.0-25.0-1.8","d74af97c-a382-4c34-9edb-a5864ebe3b0e","1776","
                  <p style=""text-align: center;"">₪18
                                                <br>50%</p>
                  <p id=""wtp"" style=""text-align:center; margin-top: 0px; margin-bottom: 0px; font-size: 40px"";>מוכנים לשלם: <span id=""c_p_y""></span></p>","5","evaluation","57","10","2C,16C,22B,28A","50","18","5","","","","","","","","","","","","","",""
"","","","","","html-keyboard-response","236","441082","0.0-25.0-2.8","d74af97c-a382-4c34-9edb-a5864ebe3b0e","null","<p style=""text-align: center;"">+</p>","null","fixation","","","","","","","","","","","","","","","","","","","",""
"","","","","","html-slider-response","237","442085","0.0-25.0-0.9","d74af97c-a382-4c34-9edb-a5864ebe3b0e","1000","
                  <p style=""text-align: center;"">₪79
                                                <br>65%</p>
                  <p id=""wtp"" style=""text-align:center; margin-top: 0px; margin-bottom: 0px; font-size: 40px"";>&ensp;</p>","-","viewing","0","31","8A","","","","","","","","","","","","","","","","",""
"","","","","","html-slider-response","238","444176","0.0-25.0-1.9","d74af97c-a382-4c34-9edb-a5864ebe3b0e","2090","
                  <p style=""text-align: center;"">₪79
                                                <br>65%</p>
                  <p id=""wtp"" style=""text-align:center; margin-top: 0px; margin-bottom: 0px; font-size: 40px"";>מוכנים לשלם: <span id=""c_p_y""></span></p>","24","evaluation","80","31","8A","65","79","24","","","","","","","","","","","","","",""
"","","","","","html-keyboard-response","239","445417","0.0-25.0-2.9","d74af97c-a382-4c34-9edb-a5864ebe3b0e","null","<p style=""text-align: center;"">+</p>","null","fixation","","","","","","","","","","","","","","","","","","","",""
"","","","","","html-slider-response","240","446423","0.0-25.0-0.10","d74af97c-a382-4c34-9edb-a5864ebe3b0e","1000","
                  <p style=""text-align: center;"">₪36
                                                <br>30%</p>
                  <p id=""wtp"" style=""text-align:center; margin-top: 0px; margin-bottom: 0px; font-size: 40px"";>&ensp;</p>","-","viewing","0","11","3C,20A,22A","","","","","","","","","","","","","","","","",""
"","","","","","html-slider-response","241","448304","0.0-25.0-1.10","d74af97c-a382-4c34-9edb-a5864ebe3b0e","1880","
                  <p style=""text-align: center;"">₪36
                                                <br>30%</p>
                  <p id=""wtp"" style=""text-align:center; margin-top: 0px; margin-bottom: 0px; font-size: 40px"";>מוכנים לשלם: <span id=""c_p_y""></span></p>","6","evaluation","40","11","3C,20A,22A","30","36","6","","","","","","","","","","","","","",""
"","","","","","html-keyboard-response","242","449579","0.0-25.0-2.10","d74af97c-a382-4c34-9edb-a5864ebe3b0e","null","<p style=""text-align: center;"">+</p>","null","fixation","","","","","","","","","","","","","","","","","","","",""
"","","","","","html-slider-response","243","450582","0.0-25.0-0.11","d74af97c-a382-4c34-9edb-a5864ebe3b0e","1000","
                  <p style=""text-align: center;"">₪11
                                                <br>25%</p>
                  <p id=""wtp"" style=""text-align:center; margin-top: 0px; margin-bottom: 0px; font-size: 40px"";>&ensp;</p>","-","viewing","0","5","12A,27B,28B,30B","","","","","","","","","","","","","","","","",""
"","","","","","html-slider-response","244","453232","0.0-25.0-1.11","d74af97c-a382-4c34-9edb-a5864ebe3b0e","2649","
                  <p style=""text-align: center;"">₪11
                                                <br>25%</p>
                  <p id=""wtp"" style=""text-align:center; margin-top: 0px; margin-bottom: 0px; font-size: 40px"";>מוכנים לשלם: <span id=""c_p_y""></span></p>","2","evaluation","80","5","12A,27B,28B,30B","25","11","2","","","","","","","","","","","","","",""
"","","","","","html-keyboard-response","245","453814","0.0-25.0-2.11","d74af97c-a382-4c34-9edb-a5864ebe3b0e","null","<p style=""text-align: center;"">+</p>","null","fixation","","","","","","","","","","","","","","","","","","","",""
"","","","","","html-slider-response","246","454818","0.0-25.0-0.12","d74af97c-a382-4c34-9edb-a5864ebe3b0e","1000","
                  <p style=""text-align: center;"">₪11
                                                <br>20%</p>
                  <p id=""wtp"" style=""text-align:center; margin-top: 0px; margin-bottom: 0px; font-size: 40px"";>&ensp;</p>","-","viewing","0","4","12C,17C,23C,28C","","","","","","","","","","","","","","","","",""
"","","","","","html-slider-response","247","456496","0.0-25.0-1.12","d74af97c-a382-4c34-9edb-a5864ebe3b0e","1677","
                  <p style=""text-align: center;"">₪11
                                                <br>20%</p>
                  <p id=""wtp"" style=""text-align:center; margin-top: 0px; margin-bottom: 0px; font-size: 40px"";>מוכנים לשלם: <span id=""c_p_y""></span></p>","1","evaluation","42","4","12C,17C,23C,28C","20","11","1","","","","","","","","","","","","","",""
"","","","","","html-keyboard-response","248","457325","0.0-25.0-2.12","d74af97c-a382-4c34-9edb-a5864ebe3b0e","null","<p style=""text-align: center;"">+</p>","null","fixation","","","","","","","","","","","","","","","","","","","",""
"","","","","","html-slider-response","249","458339","0.0-25.0-0.13","d74af97c-a382-4c34-9edb-a5864ebe3b0e","1000","
                  <p style=""text-align: center;"">₪79
                                                <br>40%</p>
                  <p id=""wtp"" style=""text-align:center; margin-top: 0px; margin-bottom: 0px; font-size: 40px"";>&ensp;</p>","-","viewing","0","30","9B","","","","","","","","","","","","","","","","",""
"","","","","","html-slider-response","250","460936","0.0-25.0-1.13","d74af97c-a382-4c34-9edb-a5864ebe3b0e","2596","
                  <p style=""text-align: center;"">₪79
                                                <br>40%</p>
                  <p id=""wtp"" style=""text-align:center; margin-top: 0px; margin-bottom: 0px; font-size: 40px"";>מוכנים לשלם: <span id=""c_p_y""></span></p>","27","evaluation","24","30","9B","40","79","27","","","","","","","","","","","","","",""
"","","","","","html-keyboard-response","251","461668","0.0-25.0-2.13","d74af97c-a382-4c34-9edb-a5864ebe3b0e","null","<p style=""text-align: center;"">+</p>","null","fixation","","","","","","","","","","","","","","","","","","","",""
"","","","","","html-slider-response","252","462671","0.0-25.0-0.14","d74af97c-a382-4c34-9edb-a5864ebe3b0e","1000","
                  <p style=""text-align: center;"">₪36
                                                <br>70%</p>
                  <p id=""wtp"" style=""text-align:center; margin-top: 0px; margin-bottom: 0px; font-size: 40px"";>&ensp;</p>","-","viewing","0","13","3A,5C,10B","","","","","","","","","","","","","","","","",""
"","","","","","html-slider-response","253","465048","0.0-25.0-1.14","d74af97c-a382-4c34-9edb-a5864ebe3b0e","2376","
                  <p style=""text-align: center;"">₪36
                                                <br>70%</p>
                  <p id=""wtp"" style=""text-align:center; margin-top: 0px; margin-bottom: 0px; font-size: 40px"";>מוכנים לשלם: <span id=""c_p_y""></span></p>","26","evaluation","63","13","3A,5C,10B","70","36","26","","","","","","","","","","","","","",""
"","","","","","html-keyboard-response","254","465968","0.0-25.0-2.14","d74af97c-a382-4c34-9edb-a5864ebe3b0e","null","<p style=""text-align: center;"">+</p>","null","fixation","","","","","","","","","","","","","","","","","","","",""
"","","","","","html-slider-response","255","466977","0.0-25.0-0.15","d74af97c-a382-4c34-9edb-a5864ebe3b0e","1000","
