"success","timeout","failed_images","failed_audio","failed_video","trial_type","trial_index","time_elapsed","internal_node_id","subject_id","rt","stimulus","response","part","slider_start","ID","set_ID","prob","amount","last_location","actual_choice","actual_EV","binary_id","trinary_id","catch","A_key","D_key","choice_prob","choice_amount","chosen_part","potential_prize_prob","potential_prize_amount","won_prize","total_prize","prize_cost","remaining_budget","accuracy"
"true","false","[]","[]","[]","preload","0","123","0.0-0.0","8f7cbfba-4a71-49e1-ad8a-3dbd13a8714c","","","","","","","","","","","","","","","","","","","","","","","","","","",""
"","","","","","html-keyboard-response","1","1198954","0.0-1.0","8f7cbfba-4a71-49e1-ad8a-3dbd13a8714c","null","
          <h1>שלום וברוכים הבאים!</h1>
          <p>לפניכם ניסוי בקבלת החלטות עם שני חלקים.
          <br><br>לחצו על העכבר כדי להמשיך.</p>","0","example","","","","","","","","","","","","","","","","","","","","","","",""
"","","","","","html-keyboard-response","2","1206649","0.0-2.0","8f7cbfba-4a71-49e1-ad8a-3dbd13a8714c","null","
        <h1>חלק 1</h1>
        <p>בקרוב יוצגו בפניכם הגרלות.
        <br>עליכם לבחור את המחיר המירבי שתהיו מוכנים לשלם כדי להשתתף בהגרלה שתוצג.
        <br>יש לכם תקציב של ₪80 לכל הגרלה. 
        <br>נסו להעריך כל הגרלה בנפרד ולחשוב כמה היא שווה עבורכם, ₪80 זמינים לכל הגרלה בנפרד.
        <br><br>לחצו על העכבר כדי להמשיך.</p>","1","instructions","","","","","","","","","","","","","","","","","","","","","","",""
"","","","","","html-keyboard-response","3","1209505","0.0-3.0","8f7cbfba-4a71-49e1-ad8a-3dbd13a8714c","null","
        <p>בסוף הניסוי, המחשב יבחר את אחת ההגרלות ויקבע מחיר לכרטיס עבורה. 
        <br>במידה והמחיר שבחרתם נמוך מהמחיר שנבחר על ידי המחשב, לא תשתתפו בהגרלה ותשארו עם מלוא התקציב.
        <br>במידה והמחיר שבחרתם גבוה מהמחיר שנבחר על ידי המחשב, תשלמו את המחיר שנקבע ותשתתפו בהגרלה.
        <br><br>לחצו על העכבר כדי להמשיך.</p>","1","instructions","","","","","","","","","","","","","","","","","","","","","","",""
"","","","","","html-slider-response","4","1223570","0.0-4.0","8f7cbfba-4a71-49e1-ad8a-3dbd13a8714c","13958","
        <p style=""font-size: 42px;"">נתחיל עם דוגמא: 
        <br>ההגרלה מטה מציעה 65% סיכוי לזכות ב-₪40 
        <br>&emsp;&emsp;&emsp;&emsp;&emsp;&emsp;&emsp;&emsp;&ensp;35% סיכוי לזכות ב-₪0.
        <br><br>מה המחיר המירבי שתהיו מוכנים לשלם על כרטיס להגרלה זו בין 0 ל-₪80?
        <br>הזיזו את העכבר על פני המלבן ולחצו כדי לבצע בחירה.</p>
        
        <p style=""text-align: center;"">₪40<br>65%</p>

        <p id=""wtp"" style=""text-align:center; margin-top: 0px; margin-bottom: 0px; font-size: 40px"";>מוכנים לשלם: <span id=""c_p_y""></span></p>","24","example","16","","","","","","","","","","","","","","","","","","","","","",""
"","","","","","html-keyboard-response","5","1228113","0.0-5.0","8f7cbfba-4a71-49e1-ad8a-3dbd13a8714c","null","<p>יפה מאוד!
                <br> בחרתם שתהיו מוכנים לשלם ₪24 כדי להשתתף בהגרלה:
                <br><p style=""text-align: center;"">₪40<br>65%</p>
                <p>נשמע נכון?
                <br>נניח שהגרלה זו נבחרה בסוף הניסוי.
                <br>כעת המחשב יקבע מחיר עבורה באקראי.
                <br>לחצו על העכבר להמשך.</p>","1","example","","","","","","","","","","","","","","","","","","","","","","",""
"","","","","","html-keyboard-response","6","1234473","0.0-6.0","8f7cbfba-4a71-49e1-ad8a-3dbd13a8714c","null","<p>המחשב קבע מחיר: ₪76
                <br>ואתם בחרתם לשלם לכל היותר: ₪24
                <br><br>מכיוון שהמחיר שבחרתם נמוך מהמחיר שנקבע, לא תתשתתפו בהגרלה.
                <br>במקרה כזה, בסוף הניסוי תקבלו את כל התקציב ההתחלתי של ₪80.
                <br><br>לחצו על העכבר להמשך.</p>","1","example","","","","","","","","","","","","","","","","","","","","","","",""
"","","","","","html-slider-response","7","1245610","0.0-7.0","8f7cbfba-4a71-49e1-ad8a-3dbd13a8714c","10885","<p style=""font-size: 42px;"">הנה עוד דוגמא:
                <br>ההגרלה מטה מציעה 35% סיכוי לזכות ב-₪18 
                <br>&emsp;&emsp;&emsp;&emsp;&emsp;&emsp;&emsp;&emsp;&ensp;65% סיכוי לזכות ב-₪0.</p>
        
                <p style=""text-align: center;"">₪18<br>35%</p>
                <p id=""wtp"" style=""text-align:center; margin-top: 0px; margin-bottom: 0px; font-size: 40px"";>מוכנים לשלם: <span id=""c_p_y""></span></p>","2","example","11","","","","","","","","","","","","","","","","","","","","","",""
"","","","","","html-keyboard-response","8","1249745","0.0-8.0","8f7cbfba-4a71-49e1-ad8a-3dbd13a8714c","null","<p>הייתם מוכנים לשלם  ₪2 כדי להשתתף בהגרלה:
                <p style=""text-align: center;"">₪18<br>35%</p>
                <p>כעת נניח שהמחשב בחר את ההגרלה הזו בסוף הניסוי, וקבע עבורה מחיר.
                <br><br>לחצו על העכבר כדי להמשיך.</p>","1","instructions","","","","","","","","","","","","","","","","","","","","","","",""
"","","","","","html-keyboard-response","9","1256261","0.0-9.0","8f7cbfba-4a71-49e1-ad8a-3dbd13a8714c","null","<p>המחשב קבע מחיר להגרלה: ₪2
                <br>ואתם בחרתם לשלם לכל היותר: ₪2
                <br><br>כעת המחיר שנקבע זהה לזה שבחרתם, אז תשלמו את המחיר שקבע המחשב (₪2) ותשתתפו בהגרלה.
                <br>במקרה כזה, תסיימו את הניסוי עם תקציב של ₪78 ועם סיכוי לזכות ב-₪18 נוספים מההגרלה.
                <br>כלומר, תוכלו לקבל ₪78 אם לא תזכו בהגרלה, או ₪96 אם תזכו בהגרלה.
                <br><br>לחצו על העכבר להמשך.</p>","1","example","","","","","","","","","","","","","","","","","","","","","","",""
"","","","","","html-keyboard-response","10","1265589","0.0-10.0","8f7cbfba-4a71-49e1-ad8a-3dbd13a8714c","null","<p>במהלך הניסוי, קודם תראו את ההגרלה ורק לאחר מכן תוכלו לבחור.
                <p>כמו כן, יהיו לכם מספר שניות מוגבל להגיב.
                <p>בואו ננסה זאת עם ההגרלה הקודמת.
                <br>לחצו על העכבר כדי להמשיך.</p>","1","instructions","","","","","","","","","","","","","","","","","","","","","","",""
"","","","","","html-slider-response","11","1266870","0.0-11.0","8f7cbfba-4a71-49e1-ad8a-3dbd13a8714c","1000","
                    <p style=""text-align: center;"">₪18<br>35%</p>
                    <p id=""wtp"" style=""text-align:center; margin-top: 0px; margin-bottom: 0px; font-size: 40px"";>&ensp;</p>","42","instructions","0","","","","","","","","","","","","","","","","","","","","","",""
"","","","","","html-slider-response","12","1271139","0.0-12.0","8f7cbfba-4a71-49e1-ad8a-3dbd13a8714c","null","
                    <p style=""text-align: center;"">₪18<br>35%</p>
                    <p id=""wtp"" style=""text-align:center; margin-top: 0px; margin-bottom: 0px; font-size: 40px"";>מוכנים לשלם: <span id=""c_p_y""></span></p>","null","instructions","74","","","","","","","","","","","","","","","","","","","","","",""
"","","","","","html-keyboard-response","13","1271597","0.0-13.0","8f7cbfba-4a71-49e1-ad8a-3dbd13a8714c","null","<p>לא הגבתם בזמן המוקצב לתגובה. 
                <br>נסו להגיב מהר יותר בפעם הבאה.
                <br><br>לחצו על העכבר כדי להמשיך.</p>","1","instructions","","","","","","","","","","","","","","","","","","","","","","",""
"","","","","","html-slider-response","14","1275858","0.0-14.0-0.0","8f7cbfba-4a71-49e1-ad8a-3dbd13a8714c","null","
                    <p style=""text-align: center;"">₪40<br>65%</p>
                    <p id=""wtp"" style=""text-align:center; margin-top: 0px; margin-bottom: 0px; font-size: 40px"";>מוכנים לשלם: <span id=""c_p_y""></span></p>","null","instructions","7","","","","","","","","","","","","","","","","","","","","","",""
"","","","","","html-keyboard-response","15","1278877","0.0-14.0-1.0","8f7cbfba-4a71-49e1-ad8a-3dbd13a8714c","null","<p>לא הגבתם בזמן המוקצב לתגובה. 
                <br>נסו להגיב מהר יותר בפעם הבאה.
                <br><br>לחצו על העכבר כדי להמשיך.</p>","1","instructions","","","","","","","","","","","","","","","","","","","","","","",""
"","","","","","html-keyboard-response","16","1283845","0.0-15.0","8f7cbfba-4a71-49e1-ad8a-3dbd13a8714c","null","<p>כעת נתחיל את הניסוי.
                <br><br>אתם תראו הגרלות ותתבקשו לבחור כמה תהיו מוכנים לשלם כדי להשתתף בהן.
                <br>יש לכם תקציב של ₪80 עבור כל הגרלה.
                <br>בסוף הניסוי הגרלה אחת תבחר באקראי ותשוחק.
                <br><br>לחצו על העכבר כדי להתחיל את הניסוי.</p>","1","instructions","","","","","","","","","","","","","","","","","","","","","","",""
"","","","","","html-keyboard-response","17","1285106","0.0-16.0","8f7cbfba-4a71-49e1-ad8a-3dbd13a8714c","null","<p style=""text-align: center;"">+</p>","null","fixation","","","","","","","","","","","","","","","","","","","","","","",""
"","","","","","html-slider-response","18","1286119","0.0-17.0-0.0","8f7cbfba-4a71-49e1-ad8a-3dbd13a8714c","1000","
                  <p style=""text-align: center;"">₪64
                                                <br>25%</p>
                  <p id=""wtp"" style=""text-align:center; margin-top: 0px; margin-bottom: 0px; font-size: 40px"";>&ensp;</p>","-","viewing","0","24","6A,21A","","","","","","","","","","","","","","","","","","","",""
"","","","","","html-slider-response","19","1288517","0.0-17.0-1.0","8f7cbfba-4a71-49e1-ad8a-3dbd13a8714c","2396","
                  <p style=""text-align: center;"">₪64
                                                <br>25%</p>
                  <p id=""wtp"" style=""text-align:center; margin-top: 0px; margin-bottom: 0px; font-size: 40px"";>מוכנים לשלם: <span id=""c_p_y""></span></p>","9","evaluation","17","24","6A,21A","25","64","9","","","","","","","","","","","","","","","","",""
"","","","","","html-keyboard-response","20","1289914","0.0-17.0-2.0","8f7cbfba-4a71-49e1-ad8a-3dbd13a8714c","null","<p style=""text-align: center;"">+</p>","null","fixation","","","","","","","","","","","","","","","","","","","","","","",""
"","","","","","html-slider-response","21","1290932","0.0-17.0-0.1","8f7cbfba-4a71-49e1-ad8a-3dbd13a8714c","1000","
                  <p style=""text-align: center;"">₪71
                                                <br>45%</p>
                  <p id=""wtp"" style=""text-align:center; margin-top: 0px; margin-bottom: 0px; font-size: 40px"";>&ensp;</p>","-","viewing","0","26","2B,16A","","","","","","","","","","","","","","","","","","","",""
"","","","","","html-slider-response","22","1293285","0.0-17.0-1.1","8f7cbfba-4a71-49e1-ad8a-3dbd13a8714c","2352","
                  <p style=""text-align: center;"">₪71
                                                <br>45%</p>
                  <p id=""wtp"" style=""text-align:center; margin-top: 0px; margin-bottom: 0px; font-size: 40px"";>מוכנים לשלם: <span id=""c_p_y""></span></p>","30","evaluation","38","26","2B,16A","45","71","30","","","","","","","","","","","","","","","","",""
"","","","","","html-keyboard-response","23","1294200","0.0-17.0-2.1","8f7cbfba-4a71-49e1-ad8a-3dbd13a8714c","null","<p style=""text-align: center;"">+</p>","null","fixation","","","","","","","","","","","","","","","","","","","","","","",""
"","","","","","html-slider-response","24","1295211","0.0-17.0-0.2","8f7cbfba-4a71-49e1-ad8a-3dbd13a8714c","1000","
                  <p style=""text-align: center;"">₪79
                                                <br>65%</p>
                  <p id=""wtp"" style=""text-align:center; margin-top: 0px; margin-bottom: 0px; font-size: 40px"";>&ensp;</p>","-","viewing","0","31","8A","","","","","","","","","","","","","","","","","","","",""
"","","","","","html-slider-response","25","1297173","0.0-17.0-1.2","8f7cbfba-4a71-49e1-ad8a-3dbd13a8714c","1961","
                  <p style=""text-align: center;"">₪79
                                                <br>65%</p>
                  <p id=""wtp"" style=""text-align:center; margin-top: 0px; margin-bottom: 0px; font-size: 40px"";>מוכנים לשלם: <span id=""c_p_y""></span></p>","33","evaluation","8","31","8A","65","79","33","","","","","","","","","","","","","","","","",""
"","","","","","html-keyboard-response","26","1298427","0.0-17.0-2.2","8f7cbfba-4a71-49e1-ad8a-3dbd13a8714c","null","<p style=""text-align: center;"">+</p>","null","fixation","","","","","","","","","","","","","","","","","","","","","","",""
"","","","","","html-slider-response","27","1299434","0.0-17.0-0.3","8f7cbfba-4a71-49e1-ad8a-3dbd13a8714c","1000","
                  <p style=""text-align: center;"">₪4
                                                <br>50%</p>
                  <p id=""wtp"" style=""text-align:center; margin-top: 0px; margin-bottom: 0px; font-size: 40px"";>&ensp;</p>","-","viewing","0","2","4C,17B","","","","","","","","","","","","","","","","","","","",""
"","","","","","html-slider-response","28","1301661","0.0-17.0-1.3","8f7cbfba-4a71-49e1-ad8a-3dbd13a8714c","2226","
                  <p style=""text-align: center;"">₪4
                                                <br>50%</p>
                  <p id=""wtp"" style=""text-align:center; margin-top: 0px; margin-bottom: 0px; font-size: 40px"";>מוכנים לשלם: <span id=""c_p_y""></span></p>","1","evaluation","31","2","4C,17B","50","4","1","","","","","","","","","","","","","","","","",""
"","","","","","html-keyboard-response","29","1303028","0.0-17.0-2.3","8f7cbfba-4a71-49e1-ad8a-3dbd13a8714c","null","<p style=""text-align: center;"">+</p>","null","fixation","","","","","","","","","","","","","","","","","","","","","","",""
"","","","","","html-slider-response","30","1304032","0.0-17.0-0.4","8f7cbfba-4a71-49e1-ad8a-3dbd13a8714c","1000","
                  <p style=""text-align: center;"">₪64
                                                <br>50%</p>
                  <p id=""wtp"" style=""text-align:center; margin-top: 0px; margin-bottom: 0px; font-size: 40px"";>&ensp;</p>","-","viewing","0","25","1B,3B,4A","","","","","","","","","","","","","","","","","","","",""
"","","","","","html-slider-response","31","1306965","0.0-17.0-1.4","8f7cbfba-4a71-49e1-ad8a-3dbd13a8714c","2932","
                  <p style=""text-align: center;"">₪64
                                                <br>50%</p>
                  <p id=""wtp"" style=""text-align:center; margin-top: 0px; margin-bottom: 0px; font-size: 40px"";>מוכנים לשלם: <span id=""c_p_y""></span></p>","24","evaluation","62","25","1B,3B,4A","50","64","24","","","","","","","","","","","","","","","","",""
"","","","","","html-keyboard-response","32","1307850","0.0-17.0-2.4","8f7cbfba-4a71-49e1-ad8a-3dbd13a8714c","null","<p style=""text-align: center;"">+</p>","null","fixation","","","","","","","","","","","","","","","","","","","","","","",""
"","","","","","html-slider-response","33","1308864","0.0-17.0-0.5","8f7cbfba-4a71-49e1-ad8a-3dbd13a8714c","1000","
                  <p style=""text-align: center;"">₪36
                                                <br>60%</p>
                  <p id=""wtp"" style=""text-align:center; margin-top: 0px; margin-bottom: 0px; font-size: 40px"";>&ensp;</p>","-","viewing","0","12","1C,7C,15C","","","","","","","","","","","","","","","","","","","",""
"","","","","","html-slider-response","34","1312541","0.0-17.0-1.5","8f7cbfba-4a71-49e1-ad8a-3dbd13a8714c","3676","
                  <p style=""text-align: center;"">₪36
                                                <br>60%</p>
                  <p id=""wtp"" style=""text-align:center; margin-top: 0px; margin-bottom: 0px; font-size: 40px"";>מוכנים לשלם: <span id=""c_p_y""></span></p>","13","evaluation","0","12","1C,7C,15C","60","36","14","","","","","","","","","","","","","","","","",""
"","","","","","html-keyboard-response","35","1313117","0.0-17.0-2.5","8f7cbfba-4a71-49e1-ad8a-3dbd13a8714c","null","<p style=""text-align: center;"">+</p>","null","fixation","","","","","","","","","","","","","","","","","","","","","","",""
"","","","","","html-slider-response","36","1314123","0.0-17.0-0.6","8f7cbfba-4a71-49e1-ad8a-3dbd13a8714c","1000","
                  <p style=""text-align: center;"">₪4
                                                <br>25%</p>
                  <p id=""wtp"" style=""text-align:center; margin-top: 0px; margin-bottom: 0px; font-size: 40px"";>&ensp;</p>","-","viewing","0","1","6C,29B,30C","","","","","","","","","","","","","","","","","","","",""
"","","","","","html-slider-response","37","1316321","0.0-17.0-1.6","8f7cbfba-4a71-49e1-ad8a-3dbd13a8714c","2200","
                  <p style=""text-align: center;"">₪4
                                                <br>25%</p>
                  <p id=""wtp"" style=""text-align:center; margin-top: 0px; margin-bottom: 0px; font-size: 40px"";>מוכנים לשלם: <span id=""c_p_y""></span></p>","2","evaluation","38","1","6C,29B,30C","25","4","2","","","","","","","","","","","","","","","","",""
"","","","","","html-keyboard-response","38","1317273","0.0-17.0-2.6","8f7cbfba-4a71-49e1-ad8a-3dbd13a8714c","null","<p style=""text-align: center;"">+</p>","null","fixation","","","","","","","","","","","","","","","","","","","","","","",""
"","","","","","html-slider-response","39","1318286","0.0-17.0-0.7","8f7cbfba-4a71-49e1-ad8a-3dbd13a8714c","1000","
                  <p style=""text-align: center;"">₪11
                                                <br>75%</p>
                  <p id=""wtp"" style=""text-align:center; margin-top: 0px; margin-bottom: 0px; font-size: 40px"";>&ensp;</p>","-","viewing","0","7","6B,18B,22C,24C,29A","","","","","","","","","","","","","","","","","","","",""
"","","","","","html-slider-response","40","1321577","0.0-17.0-1.7","8f7cbfba-4a71-49e1-ad8a-3dbd13a8714c","3290","
                  <p style=""text-align: center;"">₪11
                                                <br>75%</p>
                  <p id=""wtp"" style=""text-align:center; margin-top: 0px; margin-bottom: 0px; font-size: 40px"";>מוכנים לשלם: <span id=""c_p_y""></span></p>","7","evaluation","29","7","6B,18B,22C,24C,29A","75","11","7","","","","","","","","","","","","","","","","",""
"","","","","","html-keyboard-response","41","1322694","0.0-17.0-2.7","8f7cbfba-4a71-49e1-ad8a-3dbd13a8714c","null","<p style=""text-align: center;"">+</p>","null","fixation","","","","","","","","","","","","","","","","","","","","","","",""
"","","","","","html-slider-response","42","1323698","0.0-17.0-0.8","8f7cbfba-4a71-49e1-ad8a-3dbd13a8714c","1000","
                  <p style=""text-align: center;"">₪79
                                                <br>40%</p>
                  <p id=""wtp"" style=""text-align:center; margin-top: 0px; margin-bottom: 0px; font-size: 40px"";>&ensp;</p>","-","viewing","0","30","9B","","","","","","","","","","","","","","","","","","","",""
"","","","","","html-slider-response","43","1326529","0.0-17.0-1.8","8f7cbfba-4a71-49e1-ad8a-3dbd13a8714c","2830","
                  <p style=""text-align: center;"">₪79
                                                <br>40%</p>
                  <p id=""wtp"" style=""text-align:center; margin-top: 0px; margin-bottom: 0px; font-size: 40px"";>מוכנים לשלם: <span id=""c_p_y""></span></p>","27","evaluation","0","30","9B","40","79","27","","","","","","","","","","","","","","","","",""
"","","","","","html-keyboard-response","44","1327504","0.0-17.0-2.8","8f7cbfba-4a71-49e1-ad8a-3dbd13a8714c","null","<p style=""text-align: center;"">+</p>","null","fixation","","","","","","","","","","","","","","","","","","","","","","",""
"","","","","","html-slider-response","45","1328514","0.0-17.0-0.9","8f7cbfba-4a71-49e1-ad8a-3dbd13a8714c","1000","
                  <p style=""text-align: center;"">₪61
                                                <br>55%</p>
                  <p id=""wtp"" style=""text-align:center; margin-top: 0px; margin-bottom: 0px; font-size: 40px"";>&ensp;</p>","-","viewing","0","23","7B,26B","","","","","","","","","","","","","","","","","","","",""
"","","","","","html-slider-response","46","1332526","0.0-17.0-1.9","8f7cbfba-4a71-49e1-ad8a-3dbd13a8714c","null","
                  <p style=""text-align: center;"">₪61
                                                <br>55%</p>
                  <p id=""wtp"" style=""text-align:center; margin-top: 0px; margin-bottom: 0px; font-size: 40px"";>מוכנים לשלם: <span id=""c_p_y""></span></p>","null","evaluation","49","23","7B,26B","55","61","28","","","","","","","","","","","","","","","","",""
"","","","","","html-keyboard-response","47","1333758","0.0-17.0-2.9","8f7cbfba-4a71-49e1-ad8a-3dbd13a8714c","null","<p style=""text-align: center;"">+</p>","null","fixation","","","","","","","","","","","","","","","","","","","","","","",""
"","","","","","html-slider-response","48","1334774","0.0-17.0-0.10","8f7cbfba-4a71-49e1-ad8a-3dbd13a8714c","1000","
                  <p style=""text-align: center;"">₪58
                                                <br>45%</p>
                  <p id=""wtp"" style=""text-align:center; margin-top: 0px; margin-bottom: 0px; font-size: 40px"";>&ensp;</p>","-","viewing","0","21","11C,18C,25A","","","","","","","","","","","","","","","","","","","",""
"","","","","","html-slider-response","49","1338177","0.0-17.0-1.10","8f7cbfba-4a71-49e1-ad8a-3dbd13a8714c","3402","
                  <p style=""text-align: center;"">₪58
                                                <br>45%</p>
                  <p id=""wtp"" style=""text-align:center; margin-top: 0px; margin-bottom: 0px; font-size: 40px"";>מוכנים לשלם: <span id=""c_p_y""></span></p>","10","evaluation","38","21","11C,18C,25A","45","58","10","","","","","","","","","","","","","","","","",""
"","","","","","html-keyboard-response","50","1339663","0.0-17.0-2.10","8f7cbfba-4a71-49e1-ad8a-3dbd13a8714c","null","<p style=""text-align: center;"">+</p>","null","fixation","","","","","","","","","","","","","","","","","","","","","","",""
"","","","","","html-slider-response","51","1340670","0.0-17.0-0.11","8f7cbfba-4a71-49e1-ad8a-3dbd13a8714c","1000","
                  <p style=""text-align: center;"">₪16
                                                <br>20%</p>
                  <p id=""wtp"" style=""text-align:center; margin-top: 0px; margin-bottom: 0px; font-size: 40px"";>&ensp;</p>","-","viewing","0","8","14C,17A,20C,27A","","","","","","","","","","","","","","","","","","","",""
"","","","","","html-slider-response","52","1342801","0.0-17.0-1.11","8f7cbfba-4a71-49e1-ad8a-3dbd13a8714c","2131","
                  <p style=""text-align: center;"">₪16
                                                <br>20%</p>
                  <p id=""wtp"" style=""text-align:center; margin-top: 0px; margin-bottom: 0px; font-size: 40px"";>מוכנים לשלם: <span id=""c_p_y""></span></p>","15","evaluation","11","8","14C,17A,20C,27A","20","16","16","","","","","","","","","","","","","","","","",""
"","","","","","html-keyboard-response","53","1344078","0.0-17.0-2.11","8f7cbfba-4a71-49e1-ad8a-3dbd13a8714c","null","<p style=""text-align: center;"">+</p>","null","fixation","","","","","","","","","","","","","","","","","","","","","","",""
"","","","","","html-slider-response","54","1345090","0.0-17.0-0.12","8f7cbfba-4a71-49e1-ad8a-3dbd13a8714c","1000","
                  <p style=""text-align: center;"">₪39
                                                <br>65%</p>
                  <p id=""wtp"" style=""text-align:center; margin-top: 0px; margin-bottom: 0px; font-size: 40px"";>&ensp;</p>","-","viewing","0","16","1A,15A,26C","","","","","","","","","","","","","","","","","","","",""
"","","","","","html-slider-response","55","1347649","0.0-17.0-1.12","8f7cbfba-4a71-49e1-ad8a-3dbd13a8714c","2558","
                  <p style=""text-align: center;"">₪39
                                                <br>65%</p>
                  <p id=""wtp"" style=""text-align:center; margin-top: 0px; margin-bottom: 0px; font-size: 40px"";>מוכנים לשלם: <span id=""c_p_y""></span></p>","19","evaluation","30","16","1A,15A,26C","65","39","19","","","","","","","","","","","","","","","","",""
"","","","","","html-keyboard-response","56","1348771","0.0-17.0-2.12","8f7cbfba-4a71-49e1-ad8a-3dbd13a8714c","null","<p style=""text-align: center;"">+</p>","null","fixation","","","","","","","","","","","","","","","","","","","","","","",""
"","","","","","html-slider-response","57","1349782","0.0-17.0-0.13","8f7cbfba-4a71-49e1-ad8a-3dbd13a8714c","1000","
                  <p style=""text-align: center;"">₪36
                                                <br>70%</p>
                  <p id=""wtp"" style=""text-align:center; margin-top: 0px; margin-bottom: 0px; font-size: 40px"";>&ensp;</p>","-","viewing","0","13","3A,5C,10B","","","","","","","","","","","","","","","","","","","",""
"","","","","","html-slider-response","58","1353521","0.0-17.0-1.13","8f7cbfba-4a71-49e1-ad8a-3dbd13a8714c","3738","
                  <p style=""text-align: center;"">₪36
                                                <br>70%</p>
                  <p id=""wtp"" style=""text-align:center; margin-top: 0px; margin-bottom: 0px; font-size: 40px"";>מוכנים לשלם: <span id=""c_p_y""></span></p>","17","evaluation","70","13","3A,5C,10B","70","36","17","","","","","","","","","","","","","","","","",""
"","","","","","html-keyboard-response","59","1354564","0.0-17.0-2.13","8f7cbfba-4a71-49e1-ad8a-3dbd13a8714c","null","<p style=""text-align: center;"">+</p>","null","fixation","","","","","","","","","","","","","","","","","","","","","","",""
"","","","","","html-slider-response","60","1355570","0.0-17.0-0.14","8f7cbfba-4a71-49e1-ad8a-3dbd13a8714c","1000","
                  <p style=""text-align: center;"">₪76
                                                <br>65%</p>
                  <p id=""wtp"" style=""text-align:center; margin-top: 0px; margin-bottom: 0px; font-size: 40px"";>&ensp;</p>","-","viewing","0","29","8C,19A,24B","","","","","","","","","","","","","","","","","","","",""
"","","","","","html-slider-response","61","1358825","0.0-17.0-1.14","8f7cbfba-4a71-49e1-ad8a-3dbd13a8714c","3254","
                  <p style=""text-align: center;"">₪76
                                                <br>65%</p>
                  <p id=""wtp"" style=""text-align:center; margin-top: 0px; margin-bottom: 0px; font-size: 40px"";>מוכנים לשלם: <span id=""c_p_y""></span></p>","38","evaluation","18","29","8C,19A,24B","65","76","38","","","","","","","","","","","","","","","","",""
"","","","","","html-keyboard-response","62","1359853","0.0-17.0-2.14","8f7cbfba-4a71-49e1-ad8a-3dbd13a8714c","null","<p style=""text-align: center;"">+</p>","null","fixation","","","","","","","","","","","","","","","","","","","","","","",""
"","","","","","html-slider-response","63","1360871","0.0-17.0-0.15","8f7cbfba-4a71-49e1-ad8a-3dbd13a8714c","1000","
                  <p style=""text-align: center;"">₪36
                                                <br>75%</p>
                  <p id=""wtp"" style=""text-align:center; margin-top: 0px; margin-bottom: 0px; font-size: 40px"";>&ensp;</p>","-","viewing","0","14","4B,5A,13B,16B","","","","","","","","","","","","","","","","","","","",""
"","","","","","html-slider-response","64","1363441","0.0-17.0-1.15","8f7cbfba-4a71-49e1-ad8a-3dbd13a8714c","2569","
                  <p style=""text-align: center;"">₪36
                                                <br>75%</p>
                  <p id=""wtp"" style=""text-align:center; margin-top: 0px; margin-bottom: 0px; font-size: 40px"";>מוכנים לשלם: <span id=""c_p_y""></span></p>","17","evaluation","40","14","4B,5A,13B,16B","75","36","17","","","","","","","","","","","","","","","","",""
"","","","","","html-keyboard-response","65","1364440","0.0-17.0-2.15","8f7cbfba-4a71-49e1-ad8a-3dbd13a8714c","null","<p style=""text-align: center;"">+</p>","null","fixation","","","","","","","","","","","","","","","","","","","","","","",""
"","","","","","html-slider-response","66","1365450","0.0-17.0-0.16","8f7cbfba-4a71-49e1-ad8a-3dbd13a8714c","1000","
                  <p style=""text-align: center;"">₪71
                                                <br>55%</p>
                  <p id=""wtp"" style=""text-align:center; margin-top: 0px; margin-bottom: 0px; font-size: 40px"";>&ensp;</p>","-","viewing","0","27","5B,18A","","","","","","","","","","","","","","","","","","","",""
"","","","","","html-slider-response","67","1368825","0.0-17.0-1.16","8f7cbfba-4a71-49e1-ad8a-3dbd13a8714c","3374","
                  <p style=""text-align: center;"">₪71
                                                <br>55%</p>
                  <p id=""wtp"" style=""text-align:center; margin-top: 0px; margin-bottom: 0px; font-size: 40px"";>מוכנים לשלם: <span id=""c_p_y""></span></p>","32","evaluation","57","27","5B,18A","55","71","32","","","","","","","","","","","","","","","","",""
"","","","","","html-keyboard-response","68","1369424","0.0-17.0-2.16","8f7cbfba-4a71-49e1-ad8a-3dbd13a8714c","null","<p style=""text-align: center;"">+</p>","null","fixation","","","","","","","","","","","","","","","","","","","","","","",""
"","","","","","html-slider-response","69","1370435","0.0-17.0-0.17","8f7cbfba-4a71-49e1-ad8a-3dbd13a8714c","1000","
                  <p style=""text-align: center;"">₪71
                                                <br>75%</p>
                  <p id=""wtp"" style=""text-align:center; margin-top: 0px; margin-bottom: 0px; font-size: 40px"";>&ensp;</p>","-","viewing","0","28","8B","","","","","","","","","","","","","","","","","","","",""
"","","","","","html-slider-response","70","1374153","0.0-17.0-1.17","8f7cbfba-4a71-49e1-ad8a-3dbd13a8714c","3717","
                  <p style=""text-align: center;"">₪71
                                                <br>75%</p>
                  <p id=""wtp"" style=""text-align:center; margin-top: 0px; margin-bottom: 0px; font-size: 40px"";>מוכנים לשלם: <span id=""c_p_y""></span></p>","44","evaluation","12","28","8B","75","71","44","","","","","","","","","","","","","","","","",""
"","","","","","html-keyboard-response","71","1375184","0.0-17.0-2.17","8f7cbfba-4a71-49e1-ad8a-3dbd13a8714c","null","<p style=""text-align: center;"">+</p>","null","fixation","","","","","","","","","","","","","","","","","","","","","","",""
"","","","","","html-slider-response","72","1376185","0.0-17.0-0.18","8f7cbfba-4a71-49e1-ad8a-3dbd13a8714c","1000","
                  <p style=""text-align: center;"">₪36
                                                <br>30%</p>
                  <p id=""wtp"" style=""text-align:center; margin-top: 0px; margin-bottom: 0px; font-size: 40px"";>&ensp;</p>","-","viewing","0","11","3C,20A,22A","","","","","","","","","","","","","","","","","","","",""
"","","","","","html-slider-response","73","1378149","0.0-17.0-1.18","8f7cbfba-4a71-49e1-ad8a-3dbd13a8714c","1962","
                  <p style=""text-align: center;"">₪36
                                                <br>30%</p>
                  <p id=""wtp"" style=""text-align:center; margin-top: 0px; margin-bottom: 0px; font-size: 40px"";>מוכנים לשלם: <span id=""c_p_y""></span></p>","14","evaluation","77","11","3C,20A,22A","30","36","14","","","","","","","","","","","","","","","","",""
"","","","","","html-keyboard-response","74","1379219","0.0-17.0-2.18","8f7cbfba-4a71-49e1-ad8a-3dbd13a8714c","null","<p style=""text-align: center;"">+</p>","null","fixation","","","","","","","","","","","","","","","","","","","","","","",""
"","","","","","html-slider-response","75","1380223","0.0-17.0-0.19","8f7cbfba-4a71-49e1-ad8a-3dbd13a8714c","1000","
                  <p style=""text-align: center;"">₪43
                                                <br>60%</p>
                  <p id=""wtp"" style=""text-align:center; margin-top: 0px; margin-bottom: 0px; font-size: 40px"";>&ensp;</p>","-","viewing","0","17","2A,7A,9A,15B","","","","","","","","","","","","","","","","","","","",""
"","","","","","html-slider-response","76","1382725","0.0-17.0-1.19","8f7cbfba-4a71-49e1-ad8a-3dbd13a8714c","2501","
                  <p style=""text-align: center;"">₪43
                                                <br>60%</p>
                  <p id=""wtp"" style=""text-align:center; margin-top: 0px; margin-bottom: 0px; font-size: 40px"";>מוכנים לשלם: <span id=""c_p_y""></span></p>","28","evaluation","0","17","2A,7A,9A,15B","60","43","28","","","","","","","","","","","","","","","","",""
"","","","","","html-keyboard-response","77","1383578","0.0-17.0-2.19","8f7cbfba-4a71-49e1-ad8a-3dbd13a8714c","null","<p style=""text-align: center;"">+</p>","null","fixation","","","","","","","","","","","","","","","","","","","","","","",""
"","","","","","html-slider-response","78","1384592","0.0-17.0-0.20","8f7cbfba-4a71-49e1-ad8a-3dbd13a8714c","1000","
                  <p style=""text-align: center;"">₪58
                                                <br>40%</p>
                  <p id=""wtp"" style=""text-align:center; margin-top: 0px; margin-bottom: 0px; font-size: 40px"";>&ensp;</p>","-","viewing","0","20","10C,13A,19C,21B","","","","","","","","","","","","","","","","","","","",""
"","","","","","html-slider-response","79","1387965","0.0-17.0-1.20","8f7cbfba-4a71-49e1-ad8a-3dbd13a8714c","3372","
                  <p style=""text-align: center;"">₪58
                                                <br>40%</p>
                  <p id=""wtp"" style=""text-align:center; margin-top: 0px; margin-bottom: 0px; font-size: 40px"";>מוכנים לשלם: <span id=""c_p_y""></span></p>","16","evaluation","57","20","10C,13A,19C,21B","40","58","16","","","","","","","","","","","","","","","","",""
"","","","","","html-keyboard-response","80","1389107","0.0-17.0-2.20","8f7cbfba-4a71-49e1-ad8a-3dbd13a8714c","null","<p style=""text-align: center;"">+</p>","null","fixation","","","","","","","","","","","","","","","","","","","","","","",""
"","","","","","html-slider-response","81","1390117","0.0-17.0-0.21","8f7cbfba-4a71-49e1-ad8a-3dbd13a8714c","1000","
                  <p style=""text-align: center;"">₪61
                                                <br>45%</p>
                  <p id=""wtp"" style=""text-align:center; margin-top: 0px; margin-bottom: 0px; font-size: 40px"";>&ensp;</p>","-","viewing","0","22","10A,11A","","","","","","","","","","","","","","","","","","","",""
"","","","","","html-slider-response","82","1392421","0.0-17.0-1.21","8f7cbfba-4a71-49e1-ad8a-3dbd13a8714c","2304","
                  <p style=""text-align: center;"">₪61
                                                <br>45%</p>
                  <p id=""wtp"" style=""text-align:center; margin-top: 0px; margin-bottom: 0px; font-size: 40px"";>מוכנים לשלם: <span id=""c_p_y""></span></p>","15","evaluation","66","22","10A,11A","45","61","15","","","","","","","","","","","","","","","","",""
"","","","","","html-keyboard-response","83","1393548","0.0-17.0-2.21","8f7cbfba-4a71-49e1-ad8a-3dbd13a8714c","null","<p style=""text-align: center;"">+</p>","null","fixation","","","","","","","","","","","","","","","","","","","","","","",""
"","","","","","html-slider-response","84","1394560","0.0-17.0-0.22","8f7cbfba-4a71-49e1-ad8a-3dbd13a8714c","1000","
                  <p style=""text-align: center;"">₪11
                                                <br>25%</p>
                  <p id=""wtp"" style=""text-align:center; margin-top: 0px; margin-bottom: 0px; font-size: 40px"";>&ensp;</p>","-","viewing","0","5","12A,27B,28B,30B","","","","","","","","","","","","","","","","","","","",""
"","","","","","html-slider-response","85","1397781","0.0-17.0-1.22","8f7cbfba-4a71-49e1-ad8a-3dbd13a8714c","3220","
                  <p style=""text-align: center;"">₪11
                                                <br>25%</p>
                  <p id=""wtp"" style=""text-align:center; margin-top: 0px; margin-bottom: 0px; font-size: 40px"";>מוכנים לשלם: <span id=""c_p_y""></span></p>","4","evaluation","62","5","12A,27B,28B,30B","25","11","4","","","","","","","","","","","","","","","","",""
"","","","","","html-keyboard-response","86","1398446","0.0-17.0-2.22","8f7cbfba-4a71-49e1-ad8a-3dbd13a8714c","null","<p style=""text-align: center;"">+</p>","null","fixation","","","","","","","","","","","","","","","","","","","","","","",""
"","","","","","html-slider-response","87","1399448","0.0-17.0-0.23","8f7cbfba-4a71-49e1-ad8a-3dbd13a8714c","1000","
                  <p style=""text-align: center;"">₪18
                                                <br>25%</p>
                  <p id=""wtp"" style=""text-align:center; margin-top: 0px; margin-bottom: 0px; font-size: 40px"";>&ensp;</p>","-","viewing","0","9","14A,23A","","","","","","","","","","","","","","","","","","","",""
"","","","","","html-slider-response","88","1401061","0.0-17.0-1.23","8f7cbfba-4a71-49e1-ad8a-3dbd13a8714c","1612","
                  <p style=""text-align: center;"">₪18
                                                <br>25%</p>
                  <p id=""wtp"" style=""text-align:center; margin-top: 0px; margin-bottom: 0px; font-size: 40px"";>מוכנים לשלם: <span id=""c_p_y""></span></p>","7","evaluation","35","9","14A,23A","25","18","8","","","","","","","","","","","","","","","","",""
"","","","","","html-keyboard-response","89","1402393","0.0-17.0-2.23","8f7cbfba-4a71-49e1-ad8a-3dbd13a8714c","null","<p style=""text-align: center;"">+</p>","null","fixation","","","","","","","","","","","","","","","","","","","","","","",""
"","","","","","html-slider-response","90","1403395","0.0-17.0-0.24","8f7cbfba-4a71-49e1-ad8a-3dbd13a8714c","1000","
                  <p style=""text-align: center;"">₪39
                                                <br>60%</p>
                  <p id=""wtp"" style=""text-align:center; margin-top: 0px; margin-bottom: 0px; font-size: 40px"";>&ensp;</p>","-","viewing","0","15","9C,25B","","","","","","","","","","","","","","","","","","","",""
"","","","","","html-slider-response","91","1407333","0.0-17.0-1.24","8f7cbfba-4a71-49e1-ad8a-3dbd13a8714c","3936","
                  <p style=""text-align: center;"">₪39
                                                <br>60%</p>
                  <p id=""wtp"" style=""text-align:center; margin-top: 0px; margin-bottom: 0px; font-size: 40px"";>מוכנים לשלם: <span id=""c_p_y""></span></p>","22","evaluation","17","15","9C,25B","60","39","22","","","","","","","","","","","","","","","","",""
"","","","","","html-keyboard-response","92","1408754","0.0-17.0-2.24","8f7cbfba-4a71-49e1-ad8a-3dbd13a8714c","null","<p style=""text-align: center;"">+</p>","null","fixation","","","","","","","","","","","","","","","","","","","","","","",""
"","","","","","html-slider-response","93","1409766","0.0-17.0-0.25","8f7cbfba-4a71-49e1-ad8a-3dbd13a8714c","1000","
                  <p style=""text-align: center;"">₪43
                                                <br>75%</p>
                  <p id=""wtp"" style=""text-align:center; margin-top: 0px; margin-bottom: 0px; font-size: 40px"";>&ensp;</p>","-","viewing","0","18","11B,19B,24A,26A","","","","","","","","","","","","","","","","","","","",""
"","","","","","html-slider-response","94","1412637","0.0-17.0-1.25","8f7cbfba-4a71-49e1-ad8a-3dbd13a8714c","2869","
                  <p style=""text-align: center;"">₪43
                                                <br>75%</p>
                  <p id=""wtp"" style=""text-align:center; margin-top: 0px; margin-bottom: 0px; font-size: 40px"";>מוכנים לשלם: <span id=""c_p_y""></span></p>","29","evaluation","56","18","11B,19B,24A,26A","75","43","29","","","","","","","","","","","","","","","","",""
"","","","","","html-keyboard-response","95","1413521","0.0-17.0-2.25","8f7cbfba-4a71-49e1-ad8a-3dbd13a8714c","null","<p style=""text-align: center;"">+</p>","null","fixation","","","","","","","","","","","","","","","","","","","","","","",""
"","","","","","html-slider-response","96","1414539","0.0-17.0-0.26","8f7cbfba-4a71-49e1-ad8a-3dbd13a8714c","1000","
                  <p style=""text-align: center;"">₪4
                                                <br>75%</p>
                  <p id=""wtp"" style=""text-align:center; margin-top: 0px; margin-bottom: 0px; font-size: 40px"";>&ensp;</p>","-","viewing","0","3","12B,20B,23B,27C,29C","","","","","","","","","","","","","","","","","","","",""
"","","","","","html-slider-response","97","1417637","0.0-17.0-1.26","8f7cbfba-4a71-49e1-ad8a-3dbd13a8714c","3096","
                  <p style=""text-align: center;"">₪4
                                                <br>75%</p>
                  <p id=""wtp"" style=""text-align:center; margin-top: 0px; margin-bottom: 0px; font-size: 40px"";>מוכנים לשלם: <span id=""c_p_y""></span></p>","1","evaluation","28","3","12B,20B,23B,27C,29C","75","4","1","","","","","","","","","","","","","","","","",""
"","","","","","html-keyboard-response","98","1418783","0.0-17.0-2.26","8f7cbfba-4a71-49e1-ad8a-3dbd13a8714c","null","<p style=""text-align: center;"">+</p>","null","fixation","","","","","","","","","","","","","","","","","","","","","","",""
"","","","","","html-slider-response","99","1419790","0.0-17.0-0.27","8f7cbfba-4a71-49e1-ad8a-3dbd13a8714c","1000","
                  <p style=""text-align: center;"">₪18
                                                <br>50%</p>
                  <p id=""wtp"" style=""text-align:center; margin-top: 0px; margin-bottom: 0px; font-size: 40px"";>&ensp;</p>","-","viewing","0","10","2C,16C,22B,28A","","","","","","","","","","","","","","","","","","","",""
"","","","","","html-slider-response","100","1423533","0.0-17.0-1.27","8f7cbfba-4a71-49e1-ad8a-3dbd13a8714c","3742","
                  <p style=""text-align: center;"">₪18
                                                <br>50%</p>
                  <p id=""wtp"" style=""text-align:center; margin-top: 0px; margin-bottom: 0px; font-size: 40px"";>מוכנים לשלם: <span id=""c_p_y""></span></p>","9","evaluation","0","10","2C,16C,22B,28A","50","18","9","","","","","","","","","","","","","","","","",""
"","","","","","html-keyboard-response","101","1424134","0.0-17.0-2.27","8f7cbfba-4a71-49e1-ad8a-3dbd13a8714c","null","<p style=""text-align: center;"">+</p>","null","fixation","","","","","","","","","","","","","","","","","","","","","","",""
"","","","","","html-slider-response","102","1425147","0.0-17.0-0.28","8f7cbfba-4a71-49e1-ad8a-3dbd13a8714c","1000","
                  <p style=""text-align: center;"">₪11
                                                <br>45%</p>
                  <p id=""wtp"" style=""text-align:center; margin-top: 0px; margin-bottom: 0px; font-size: 40px"";>&ensp;</p>","-","viewing","0","6","14B,21C,25C","","","","","","","","","","","","","","","","","","","",""
"","","","","","html-slider-response","103","1428429","0.0-17.0-1.28","8f7cbfba-4a71-49e1-ad8a-3dbd13a8714c","3281","
                  <p style=""text-align: center;"">₪11
                                                <br>45%</p>
                  <p id=""wtp"" style=""text-align:center; margin-top: 0px; margin-bottom: 0px; font-size: 40px"";>מוכנים לשלם: <span id=""c_p_y""></span></p>","7","evaluation","7","6","14B,21C,25C","45","11","7","","","","","","","","","","","","","","","","",""
"","","","","","html-keyboard-response","104","1429698","0.0-17.0-2.28","8f7cbfba-4a71-49e1-ad8a-3dbd13a8714c","null","<p style=""text-align: center;"">+</p>","null","fixation","","","","","","","","","","","","","","","","","","","","","","",""
"","","","","","html-slider-response","105","1430700","0.0-17.0-0.29","8f7cbfba-4a71-49e1-ad8a-3dbd13a8714c","1000","
                  <p style=""text-align: center;"">₪58
                                                <br>30%</p>
                  <p id=""wtp"" style=""text-align:center; margin-top: 0px; margin-bottom: 0px; font-size: 40px"";>&ensp;</p>","-","viewing","0","19","13C,30A","","","","","","","","","","","","","","","","","","","",""
"","","","","","html-slider-response","106","1434702","0.0-17.0-1.29","8f7cbfba-4a71-49e1-ad8a-3dbd13a8714c","null","
                  <p style=""text-align: center;"">₪58
                                                <br>30%</p>
                  <p id=""wtp"" style=""text-align:center; margin-top: 0px; margin-bottom: 0px; font-size: 40px"";>מוכנים לשלם: <span id=""c_p_y""></span></p>","null","evaluation","52","19","13C,30A","30","58","11","","","","","","","","","","","","","","","","",""
"","","","","","html-keyboard-response","107","1435290","0.0-17.0-2.29","8f7cbfba-4a71-49e1-ad8a-3dbd13a8714c","null","<p style=""text-align: center;"">+</p>","null","fixation","","","","","","","","","","","","","","","","","","","","","","",""
"","","","","","html-slider-response","108","1436288","0.0-17.0-0.30","8f7cbfba-4a71-49e1-ad8a-3dbd13a8714c","1000","
                  <p style=""text-align: center;"">₪11
                                                <br>20%</p>
                  <p id=""wtp"" style=""text-align:center; margin-top: 0px; margin-bottom: 0px; font-size: 40px"";>&ensp;</p>","-","viewing","0","4","12C,17C,23C,28C","","","","","","","","","","","","","","","","","","","",""
"","","","","","html-slider-response","109","1437409","0.0-17.0-1.30","8f7cbfba-4a71-49e1-ad8a-3dbd13a8714c","1119","
                  <p style=""text-align: center;"">₪11
                                                <br>20%</p>
                  <p id=""wtp"" style=""text-align:center; margin-top: 0px; margin-bottom: 0px; font-size: 40px"";>מוכנים לשלם: <span id=""c_p_y""></span></p>","8","evaluation","79","4","12C,17C,23C,28C","20","11","8","","","","","","","","","","","","","","","","",""
"","","","","","html-keyboard-response","110","1438423","0.0-17.0-2.30","8f7cbfba-4a71-49e1-ad8a-3dbd13a8714c","null","<p style=""text-align: center;"">+</p>","null","fixation","","","","","","","","","","","","","","","","","","","","","","",""
"","","","","","html-keyboard-response","111","1439426","0.0-18.0","8f7cbfba-4a71-49e1-ad8a-3dbd13a8714c","null","<p style=""text-align: center;"">+</p>","null","fixation","","","","","","","","","","","","","","","","","","","","","","",""
"","","","","","html-keyboard-response","112","1440784","0.0-19.0","8f7cbfba-4a71-49e1-ad8a-3dbd13a8714c","null","<p>הפסקה.
          <br>לחצו כדי להמשיך.</p>","1","scan_wait","","","","","","","","","","","","","","","","","","","","","","",""
"","","","","","html-keyboard-response","113","1441788","0.0-20.0","8f7cbfba-4a71-49e1-ad8a-3dbd13a8714c","null","<p style=""text-align: center;"">+</p>","null","fixation","","","","","","","","","","","","","","","","","","","","","","",""
"","","","","","html-slider-response","114","1442795","0.0-21.0-0.0","8f7cbfba-4a71-49e1-ad8a-3dbd13a8714c","1000","
                  <p style=""text-align: center;"">₪16
                                                <br>20%</p>
                  <p id=""wtp"" style=""text-align:center; margin-top: 0px; margin-bottom: 0px; font-size: 40px"";>&ensp;</p>","-","viewing","0","8","14C,17A,20C,27A","","","","","","","","","","","","","","","","","","","",""
"","","","","","html-slider-response","115","1445176","0.0-21.0-1.0","8f7cbfba-4a71-49e1-ad8a-3dbd13a8714c","2380","
                  <p style=""text-align: center;"">₪16
                                                <br>20%</p>
                  <p id=""wtp"" style=""text-align:center; margin-top: 0px; margin-bottom: 0px; font-size: 40px"";>מוכנים לשלם: <span id=""c_p_y""></span></p>","3","evaluation","23","8","14C,17A,20C,27A","20","16","3","","","","","","","","","","","","","","","","",""
"","","","","","html-keyboard-response","116","1446141","0.0-21.0-2.0","8f7cbfba-4a71-49e1-ad8a-3dbd13a8714c","null","<p style=""text-align: center;"">+</p>","null","fixation","","","","","","","","","","","","","","","","","","","","","","",""
"","","","","","html-slider-response","117","1447150","0.0-21.0-0.1","8f7cbfba-4a71-49e1-ad8a-3dbd13a8714c","1000","
                  <p style=""text-align: center;"">₪11
                                                <br>20%</p>
                  <p id=""wtp"" style=""text-align:center; margin-top: 0px; margin-bottom: 0px; font-size: 40px"";>&ensp;</p>","-","viewing","0","4","12C,17C,23C,28C","","","","","","","","","","","","","","","","","","","",""
"","","","","","html-slider-response","118","1448889","0.0-21.0-1.1","8f7cbfba-4a71-49e1-ad8a-3dbd13a8714c","1738","
                  <p style=""text-align: center;"">₪11
                                                <br>20%</p>
                  <p id=""wtp"" style=""text-align:center; margin-top: 0px; margin-bottom: 0px; font-size: 40px"";>מוכנים לשלם: <span id=""c_p_y""></span></p>","9","evaluation","59","4","12C,17C,23C,28C","20","11","10","","","","","","","","","","","","","","","","",""
"","","","","","html-keyboard-response","119","1450261","0.0-21.0-2.1","8f7cbfba-4a71-49e1-ad8a-3dbd13a8714c","null","<p style=""text-align: center;"">+</p>","null","fixation","","","","","","","","","","","","","","","","","","","","","","",""
"","","","","","html-slider-response","120","1451272","0.0-21.0-0.2","8f7cbfba-4a71-49e1-ad8a-3dbd13a8714c","1000","
                  <p style=""text-align: center;"">₪58
                                                <br>30%</p>
                  <p id=""wtp"" style=""text-align:center; margin-top: 0px; margin-bottom: 0px; font-size: 40px"";>&ensp;</p>","-","viewing","0","19","13C,30A","","","","","","","","","","","","","","","","","","","",""
"","","","","","html-slider-response","121","1452889","0.0-21.0-1.2","8f7cbfba-4a71-49e1-ad8a-3dbd13a8714c","1616","
                  <p style=""text-align: center;"">₪58
                                                <br>30%</p>
                  <p id=""wtp"" style=""text-align:center; margin-top: 0px; margin-bottom: 0px; font-size: 40px"";>מוכנים לשלם: <span id=""c_p_y""></span></p>","7","evaluation","74","19","13C,30A","30","58","7","","","","","","","","","","","","","","","","",""
"","","","","","html-keyboard-response","122","1454030","0.0-21.0-2.2","8f7cbfba-4a71-49e1-ad8a-3dbd13a8714c","null","<p style=""text-align: center;"">+</p>","null","fixation","","","","","","","","","","","","","","","","","","","","","","",""
"","","","","","html-slider-response","123","1455045","0.0-21.0-0.3","8f7cbfba-4a71-49e1-ad8a-3dbd13a8714c","1000","
                  <p style=""text-align: center;"">₪79
                                                <br>65%</p>
                  <p id=""wtp"" style=""text-align:center; margin-top: 0px; margin-bottom: 0px; font-size: 40px"";>&ensp;</p>","-","viewing","0","31","8A","","","","","","","","","","","","","","","","","","","",""
"","","","","","html-slider-response","124","1458145","0.0-21.0-1.3","8f7cbfba-4a71-49e1-ad8a-3dbd13a8714c","3098","
                  <p style=""text-align: center;"">₪79
                                                <br>65%</p>
                  <p id=""wtp"" style=""text-align:center; margin-top: 0px; margin-bottom: 0px; font-size: 40px"";>מוכנים לשלם: <span id=""c_p_y""></span></p>","30","evaluation","19","31","8A","65","79","30","","","","","","","","","","","","","","","","",""
"","","","","","html-keyboard-response","125","1458834","0.0-21.0-2.3","8f7cbfba-4a71-49e1-ad8a-3dbd13a8714c","null","<p style=""text-align: center;"">+</p>","null","fixation","","","","","","","","","","","","","","","","","","","","","","",""
"","","","","","html-slider-response","126","1459847","0.0-21.0-0.4","8f7cbfba-4a71-49e1-ad8a-3dbd13a8714c","1000","
                  <p style=""text-align: center;"">₪4
                                                <br>25%</p>
                  <p id=""wtp"" style=""text-align:center; margin-top: 0px; margin-bottom: 0px; font-size: 40px"";>&ensp;</p>","-","viewing","0","1","6C,29B,30C","","","","","","","","","","","","","","","","","","","",""
"","","","","","html-slider-response","127","1461345","0.0-21.0-1.4","8f7cbfba-4a71-49e1-ad8a-3dbd13a8714c","1497","
                  <p style=""text-align: center;"">₪4
                                                <br>25%</p>
                  <p id=""wtp"" style=""text-align:center; margin-top: 0px; margin-bottom: 0px; font-size: 40px"";>מוכנים לשלם: <span id=""c_p_y""></span></p>","2","evaluation","61","1","6C,29B,30C","25","4","3","","","","","","","","","","","","","","","","",""
"","","","","","html-keyboard-response","128","1461928","0.0-21.0-2.4","8f7cbfba-4a71-49e1-ad8a-3dbd13a8714c","null","<p style=""text-align: center;"">+</p>","null","fixation","","","","","","","","","","","","","","","","","","","","","","",""
"","","","","","html-slider-response","129","1462929","0.0-21.0-0.5","8f7cbfba-4a71-49e1-ad8a-3dbd13a8714c","1000","
                  <p style=""text-align: center;"">₪61
                                                <br>45%</p>
                  <p id=""wtp"" style=""text-align:center; margin-top: 0px; margin-bottom: 0px; font-size: 40px"";>&ensp;</p>","-","viewing","0","22","10A,11A","","","","","","","","","","","","","","","","","","","",""
"","","","","","html-slider-response","130","1466936","0.0-21.0-1.5","8f7cbfba-4a71-49e1-ad8a-3dbd13a8714c","null","
                  <p style=""text-align: center;"">₪61
                                                <br>45%</p>
                  <p id=""wtp"" style=""text-align:center; margin-top: 0px; margin-bottom: 0px; font-size: 40px"";>מוכנים לשלם: <span id=""c_p_y""></span></p>","null","evaluation","39","22","10A,11A","45","61","9","","","","","","","","","","","","","","","","",""
"","","","","","html-keyboard-response","131","1468330","0.0-21.0-2.5","8f7cbfba-4a71-49e1-ad8a-3dbd13a8714c","null","<p style=""text-align: center;"">+</p>","null","fixation","","","","","","","","","","","","","","","","","","","","","","",""
"","","","","","html-slider-response","132","1469341","0.0-21.0-0.6","8f7cbfba-4a71-49e1-ad8a-3dbd13a8714c","1000","
                  <p style=""text-align: center;"">₪43
                                                <br>60%</p>
                  <p id=""wtp"" style=""text-align:center; margin-top: 0px; margin-bottom: 0px; font-size: 40px"";>&ensp;</p>","-","viewing","0","17","2A,7A,9A,15B","","","","","","","","","","","","","","","","","","","",""
"","","","","","html-slider-response","133","1471961","0.0-21.0-1.6","8f7cbfba-4a71-49e1-ad8a-3dbd13a8714c","2618","
                  <p style=""text-align: center;"">₪43
                                                <br>60%</p>
                  <p id=""wtp"" style=""text-align:center; margin-top: 0px; margin-bottom: 0px; font-size: 40px"";>מוכנים לשלם: <span id=""c_p_y""></span></p>","25","evaluation","58","17","2A,7A,9A,15B","60","43","25","","","","","","","","","","","","","","","","",""
"","","","","","html-keyboard-response","134","1472722","0.0-21.0-2.6","8f7cbfba-4a71-49e1-ad8a-3dbd13a8714c","null","<p style=""text-align: center;"">+</p>","null","fixation","","","","","","","","","","","","","","","","","","","","","","",""
"","","","","","html-slider-response","135","1473725","0.0-21.0-0.7","8f7cbfba-4a71-49e1-ad8a-3dbd13a8714c","1000","
                  <p style=""text-align: center;"">₪64
                                                <br>25%</p>
                  <p id=""wtp"" style=""text-align:center; margin-top: 0px; margin-bottom: 0px; font-size: 40px"";>&ensp;</p>","-","viewing","0","24","6A,21A","","","","","","","","","","","","","","","","","","","",""
"","","","","","html-slider-response","136","1476561","0.0-21.0-1.7","8f7cbfba-4a71-49e1-ad8a-3dbd13a8714c","2835","
                  <p style=""text-align: center;"">₪64
                                                <br>25%</p>
                  <p id=""wtp"" style=""text-align:center; margin-top: 0px; margin-bottom: 0px; font-size: 40px"";>מוכנים לשלם: <span id=""c_p_y""></span></p>","11","evaluation","0","24","6A,21A","25","64","11","","","","","","","","","","","","","","","","",""
"","","","","","html-keyboard-response","137","1477343","0.0-21.0-2.7","8f7cbfba-4a71-49e1-ad8a-3dbd13a8714c","null","<p style=""text-align: center;"">+</p>","null","fixation","","","","","","","","","","","","","","","","","","","","","","",""
"","","","","","html-slider-response","138","1478350","0.0-21.0-0.8","8f7cbfba-4a71-49e1-ad8a-3dbd13a8714c","1000","
                  <p style=""text-align: center;"">₪64
                                                <br>50%</p>
                  <p id=""wtp"" style=""text-align:center; margin-top: 0px; margin-bottom: 0px; font-size: 40px"";>&ensp;</p>","-","viewing","0","25","1B,3B,4A","","","","","","","","","","","","","","","","","","","",""
"","","","","","html-slider-response","139","1480017","0.0-21.0-1.8","8f7cbfba-4a71-49e1-ad8a-3dbd13a8714c","1665","
                  <p style=""text-align: center;"">₪64
                                                <br>50%</p>
                  <p id=""wtp"" style=""text-align:center; margin-top: 0px; margin-bottom: 0px; font-size: 40px"";>מוכנים לשלם: <span id=""c_p_y""></span></p>","17","evaluation","78","25","1B,3B,4A","50","64","17","","","","","","","","","","","","","","","","",""
"","","","","","html-keyboard-response","140","1481309","0.0-21.0-2.8","8f7cbfba-4a71-49e1-ad8a-3dbd13a8714c","null","<p style=""text-align: center;"">+</p>","null","fixation","","","","","","","","","","","","","","","","","","","","","","",""
"","","","","","html-slider-response","141","1482312","0.0-21.0-0.9","8f7cbfba-4a71-49e1-ad8a-3dbd13a8714c","1000","
                  <p style=""text-align: center;"">₪39
                                                <br>65%</p>
                  <p id=""wtp"" style=""text-align:center; margin-top: 0px; margin-bottom: 0px; font-size: 40px"";>&ensp;</p>","-","viewing","0","16","1A,15A,26C","","","","","","","","","","","","","","","","","","","",""
"","","","","","html-slider-response","142","1485177","0.0-21.0-1.9","8f7cbfba-4a71-49e1-ad8a-3dbd13a8714c","2865","
                  <p style=""text-align: center;"">₪39
                                                <br>65%</p>
                  <p id=""wtp"" style=""text-align:center; margin-top: 0px; margin-bottom: 0px; font-size: 40px"";>מוכנים לשלם: <span id=""c_p_y""></span></p>","19","evaluation","74","16","1A,15A,26C","65","39","19","","","","","","","","","","","","","","","","",""
"","","","","","html-keyboard-response","143","1486104","0.0-21.0-2.9","8f7cbfba-4a71-49e1-ad8a-3dbd13a8714c","null","<p style=""text-align: center;"">+</p>","null","fixation","","","","","","","","","","","","","","","","","","","","","","",""
"","","","","","html-slider-response","144","1487105","0.0-21.0-0.10","8f7cbfba-4a71-49e1-ad8a-3dbd13a8714c","1000","
                  <p style=""text-align: center;"">₪11
                                                <br>45%</p>
                  <p id=""wtp"" style=""text-align:center; margin-top: 0px; margin-bottom: 0px; font-size: 40px"";>&ensp;</p>","-","viewing","0","6","14B,21C,25C","","","","","","","","","","","","","","","","","","","",""
"","","","","","html-slider-response","145","1488233","0.0-21.0-1.10","8f7cbfba-4a71-49e1-ad8a-3dbd13a8714c","1126","
                  <p style=""text-align: center;"">₪11
                                                <br>45%</p>
                  <p id=""wtp"" style=""text-align:center; margin-top: 0px; margin-bottom: 0px; font-size: 40px"";>מוכנים לשלם: <span id=""c_p_y""></span></p>","7","evaluation","46","6","14B,21C,25C","45","11","7","","","","","","","","","","","","","","","","",""
"","","","","","html-keyboard-response","146","1489130","0.0-21.0-2.10","8f7cbfba-4a71-49e1-ad8a-3dbd13a8714c","null","<p style=""text-align: center;"">+</p>","null","fixation","","","","","","","","","","","","","","","","","","","","","","",""
"","","","","","html-slider-response","147","1490131","0.0-21.0-0.11","8f7cbfba-4a71-49e1-ad8a-3dbd13a8714c","1000","
                  <p style=""text-align: center;"">₪18
                                                <br>25%</p>
                  <p id=""wtp"" style=""text-align:center; margin-top: 0px; margin-bottom: 0px; font-size: 40px"";>&ensp;</p>","-","viewing","0","9","14A,23A","","","","","","","","","","","","","","","","","","","",""
"","","","","","html-slider-response","148","1491153","0.0-21.0-1.11","8f7cbfba-4a71-49e1-ad8a-3dbd13a8714c","1020","
                  <p style=""text-align: center;"">₪18
                                                <br>25%</p>
                  <p id=""wtp"" style=""text-align:center; margin-top: 0px; margin-bottom: 0px; font-size: 40px"";>מוכנים לשלם: <span id=""c_p_y""></span></p>","3","evaluation","75","9","14A,23A","25","18","4","","","","","","","","","","","","","","","","",""
"","","","","","html-keyboard-response","149","1492149","0.0-21.0-2.11","8f7cbfba-4a71-49e1-ad8a-3dbd13a8714c","null","<p style=""text-align: center;"">+</p>","null","fixation","","","","","","","","","","","","","","","","","","","","","","",""
"","","","","","html-slider-response","150","1493163","0.0-21.0-0.12","8f7cbfba-4a71-49e1-ad8a-3dbd13a8714c","1000","
                  <p style=""text-align: center;"">₪36
                                                <br>60%</p>
                  <p id=""wtp"" style=""text-align:center; margin-top: 0px; margin-bottom: 0px; font-size: 40px"";>&ensp;</p>","-","viewing","0","12","1C,7C,15C","","","","","","","","","","","","","","","","","","","",""
"","","","","","html-slider-response","151","1495137","0.0-21.0-1.12","8f7cbfba-4a71-49e1-ad8a-3dbd13a8714c","1972","
                  <p style=""text-align: center;"">₪36
                                                <br>60%</p>
                  <p id=""wtp"" style=""text-align:center; margin-top: 0px; margin-bottom: 0px; font-size: 40px"";>מוכנים לשלם: <span id=""c_p_y""></span></p>","26","evaluation","16","12","1C,7C,15C","60","36","26","","","","","","","","","","","","","","","","",""
"","","","","","html-keyboard-response","152","1495736","0.0-21.0-2.12","8f7cbfba-4a71-49e1-ad8a-3dbd13a8714c","null","<p style=""text-align: center;"">+</p>","null","fixation","","","","","","","","","","","","","","","","","","","","","","",""
"","","","","","html-slider-response","153","1496734","0.0-21.0-0.13","8f7cbfba-4a71-49e1-ad8a-3dbd13a8714c","1000","
                  <p style=""text-align: center;"">₪71
                                                <br>45%</p>
                  <p id=""wtp"" style=""text-align:center; margin-top: 0px; margin-bottom: 0px; font-size: 40px"";>&ensp;</p>","-","viewing","0","26","2B,16A","","","","","","","","","","","","","","","","","","","",""
"","","","","","html-slider-response","154","1498372","0.0-21.0-1.13","8f7cbfba-4a71-49e1-ad8a-3dbd13a8714c","1637","
                  <p style=""text-align: center;"">₪71
                                                <br>45%</p>
                  <p id=""wtp"" style=""text-align:center; margin-top: 0px; margin-bottom: 0px; font-size: 40px"";>מוכנים לשלם: <span id=""c_p_y""></span></p>","8","evaluation","29","26","2B,16A","45","71","8","","","","","","","","","","","","","","","","",""
"","","","","","html-keyboard-response","155","1499341","0.0-21.0-2.13","8f7cbfba-4a71-49e1-ad8a-3dbd13a8714c","null","<p style=""text-align: center;"">+</p>","null","fixation","","","","","","","","","","","","","","","","","","","","","","",""
"","","","","","html-slider-response","156","1500346","0.0-21.0-0.14","8f7cbfba-4a71-49e1-ad8a-3dbd13a8714c","1000","
                  <p style=""text-align: center;"">₪79
                                                <br>40%</p>
                  <p id=""wtp"" style=""text-align:center; margin-top: 0px; margin-bottom: 0px; font-size: 40px"";>&ensp;</p>","-","viewing","0","30","9B","","","","","","","","","","","","","","","","","","","",""
"","","","","","html-slider-response","157","1503500","0.0-21.0-1.14","8f7cbfba-4a71-49e1-ad8a-3dbd13a8714c","3153","
                  <p style=""text-align: center;"">₪79
                                                <br>40%</p>
                  <p id=""wtp"" style=""text-align:center; margin-top: 0px; margin-bottom: 0px; font-size: 40px"";>מוכנים לשלם: <span id=""c_p_y""></span></p>","16","evaluation","17","30","9B","40","79","16","","","","","","","","","","","","","","","","",""
"","","","","","html-keyboard-response","158","1504899","0.0-21.0-2.14","8f7cbfba-4a71-49e1-ad8a-3dbd13a8714c","null","<p style=""text-align: center;"">+</p>","null","fixation","","","","","","","","","","","","","","","","","","","","","","",""
"","","","","","html-slider-response","159","1505906","0.0-21.0-0.15","8f7cbfba-4a71-49e1-ad8a-3dbd13a8714c","1000","
                  <p style=""text-align: center;"">₪43
                                                <br>75%</p>
                  <p id=""wtp"" style=""text-align:center; margin-top: 0px; margin-bottom: 0px; font-size: 40px"";>&ensp;</p>","-","viewing","0","18","11B,19B,24A,26A","","","","","","","","","","","","","","","","","","","",""
"","","","","","html-slider-response","160","1508532","0.0-21.0-1.15","8f7cbfba-4a71-49e1-ad8a-3dbd13a8714c","2626","
                  <p style=""text-align: center;"">₪43
                                                <br>75%</p>
                  <p id=""wtp"" style=""text-align:center; margin-top: 0px; margin-bottom: 0px; font-size: 40px"";>מוכנים לשלם: <span id=""c_p_y""></span></p>","30","evaluation","54","18","11B,19B,24A,26A","75","43","30","","","","","","","","","","","","","","","","",""
"","","","","","html-keyboard-response","161","1509284","0.0-21.0-2.15","8f7cbfba-4a71-49e1-ad8a-3dbd13a8714c","null","<p style=""text-align: center;"">+</p>","null","fixation","","","","","","","","","","","","","","","","","","","","","","",""
"","","","","","html-slider-response","162","1510299","0.0-21.0-0.16","8f7cbfba-4a71-49e1-ad8a-3dbd13a8714c","1000","
                  <p style=""text-align: center;"">₪4
                                                <br>50%</p>
                  <p id=""wtp"" style=""text-align:center; margin-top: 0px; margin-bottom: 0px; font-size: 40px"";>&ensp;</p>","-","viewing","0","2","4C,17B","","","","","","","","","","","","","","","","","","","",""
"","","","","","html-slider-response","163","1514301","0.0-21.0-1.16","8f7cbfba-4a71-49e1-ad8a-3dbd13a8714c","null","
                  <p style=""text-align: center;"">₪4
                                                <br>50%</p>
                  <p id=""wtp"" style=""text-align:center; margin-top: 0px; margin-bottom: 0px; font-size: 40px"";>מוכנים לשלם: <span id=""c_p_y""></span></p>","null","evaluation","62","2","4C,17B","50","4","2","","","","","","","","","","","","","","","","",""
"","","","","","html-keyboard-response","164","1514811","0.0-21.0-2.16","8f7cbfba-4a71-49e1-ad8a-3dbd13a8714c","null","<p style=""text-align: center;"">+</p>","null","fixation","","","","","","","","","","","","","","","","","","","","","","",""
"","","","","","html-slider-response","165","1515823","0.0-21.0-0.17","8f7cbfba-4a71-49e1-ad8a-3dbd13a8714c","1000","
                  <p style=""text-align: center;"">₪76
                                                <br>65%</p>
                  <p id=""wtp"" style=""text-align:center; margin-top: 0px; margin-bottom: 0px; font-size: 40px"";>&ensp;</p>","-","viewing","0","29","8C,19A,24B","","","","","","","","","","","","","","","","","","","",""
"","","","","","html-slider-response","166","1518812","0.0-21.0-1.17","8f7cbfba-4a71-49e1-ad8a-3dbd13a8714c","2988","
                  <p style=""text-align: center;"">₪76
                                                <br>65%</p>
                  <p id=""wtp"" style=""text-align:center; margin-top: 0px; margin-bottom: 0px; font-size: 40px"";>מוכנים לשלם: <span id=""c_p_y""></span></p>","26","evaluation","75","29","8C,19A,24B","65","76","26","","","","","","","","","","","","","","","","",""
"","","","","","html-keyboard-response","167","1519811","0.0-21.0-2.17","8f7cbfba-4a71-49e1-ad8a-3dbd13a8714c","null","<p style=""text-align: center;"">+</p>","null","fixation","","","","","","","","","","","","","","","","","","","","","","",""
"","","","","","html-slider-response","168","1520816","0.0-21.0-0.18","8f7cbfba-4a71-49e1-ad8a-3dbd13a8714c","1000","
                  <p style=""text-align: center;"">₪61
                                                <br>55%</p>
                  <p id=""wtp"" style=""text-align:center; margin-top: 0px; margin-bottom: 0px; font-size: 40px"";>&ensp;</p>","-","viewing","0","23","7B,26B","","","","","","","","","","","","","","","","","","","",""
"","","","","","html-slider-response","169","1522725","0.0-21.0-1.18","8f7cbfba-4a71-49e1-ad8a-3dbd13a8714c","1907","
                  <p style=""text-align: center;"">₪61
                                                <br>55%</p>
                  <p id=""wtp"" style=""text-align:center; margin-top: 0px; margin-bottom: 0px; font-size: 40px"";>מוכנים לשלם: <span id=""c_p_y""></span></p>","12","evaluation","62","23","7B,26B","55","61","13","","","","","","","","","","","","","","","","",""
"","","","","","html-keyboard-response","170","1524193","0.0-21.0-2.18","8f7cbfba-4a71-49e1-ad8a-3dbd13a8714c","null","<p style=""text-align: center;"">+</p>","null","fixation","","","","","","","","","","","","","","","","","","","","","","",""
"","","","","","html-slider-response","171","1525208","0.0-21.0-0.19","8f7cbfba-4a71-49e1-ad8a-3dbd13a8714c","1000","
                  <p style=""text-align: center;"">₪36
                                                <br>70%</p>
                  <p id=""wtp"" style=""text-align:center; margin-top: 0px; margin-bottom: 0px; font-size: 40px"";>&ensp;</p>","-","viewing","0","13","3A,5C,10B","","","","","","","","","","","","","","","","","","","",""
"","","","","","html-slider-response","172","1528309","0.0-21.0-1.19","8f7cbfba-4a71-49e1-ad8a-3dbd13a8714c","3100","
                  <p style=""text-align: center;"">₪36
                                                <br>70%</p>
                  <p id=""wtp"" style=""text-align:center; margin-top: 0px; margin-bottom: 0px; font-size: 40px"";>מוכנים לשלם: <span id=""c_p_y""></span></p>","17","evaluation","57","13","3A,5C,10B","70","36","17","","","","","","","","","","","","","","","","",""
"","","","","","html-keyboard-response","173","1529625","0.0-21.0-2.19","8f7cbfba-4a71-49e1-ad8a-3dbd13a8714c","null","<p style=""text-align: center;"">+</p>","null","fixation","","","","","","","","","","","","","","","","","","","","","","",""
"","","","","","html-slider-response","174","1530628","0.0-21.0-0.20","8f7cbfba-4a71-49e1-ad8a-3dbd13a8714c","1000","
                  <p style=""text-align: center;"">₪36
                                                <br>30%</p>
                  <p id=""wtp"" style=""text-align:center; margin-top: 0px; margin-bottom: 0px; font-size: 40px"";>&ensp;</p>","-","viewing","0","11","3C,20A,22A","","","","","","","","","","","","","","","","","","","",""
"","","","","","html-slider-response","175","1531853","0.0-21.0-1.20","8f7cbfba-4a71-49e1-ad8a-3dbd13a8714c","1224","
                  <p style=""text-align: center;"">₪36
                                                <br>30%</p>
                  <p id=""wtp"" style=""text-align:center; margin-top: 0px; margin-bottom: 0px; font-size: 40px"";>מוכנים לשלם: <span id=""c_p_y""></span></p>","4","evaluation","71","11","3C,20A,22A","30","36","4","","","","","","","","","","","","","","","","",""
"","","","","","html-keyboard-response","176","1532850","0.0-21.0-2.20","8f7cbfba-4a71-49e1-ad8a-3dbd13a8714c","null","<p style=""text-align: center;"">+</p>","null","fixation","","","","","","","","","","","","","","","","","","","","","","",""
"","","","","","html-slider-response","177","1533852","0.0-21.0-0.21","8f7cbfba-4a71-49e1-ad8a-3dbd13a8714c","1000","
                  <p style=""text-align: center;"">₪18
                                                <br>50%</p>
                  <p id=""wtp"" style=""text-align:center; margin-top: 0px; margin-bottom: 0px; font-size: 40px"";>&ensp;</p>","-","viewing","0","10","2C,16C,22B,28A","","","","","","","","","","","","","","","","","","","",""
"","","","","","html-slider-response","178","1535764","0.0-21.0-1.21","8f7cbfba-4a71-49e1-ad8a-3dbd13a8714c","1911","
                  <p style=""text-align: center;"">₪18
                                                <br>50%</p>
                  <p id=""wtp"" style=""text-align:center; margin-top: 0px; margin-bottom: 0px; font-size: 40px"";>מוכנים לשלם: <span id=""c_p_y""></span></p>","11","evaluation","1","10","2C,16C,22B,28A","50","18","11","","","","","","","","","","","","","","","","",""
"","","","","","html-keyboard-response","179","1536784","0.0-21.0-2.21","8f7cbfba-4a71-49e1-ad8a-3dbd13a8714c","null","<p style=""text-align: center;"">+</p>","null","fixation","","","","","","","","","","","","","","","","","","","","","","",""
"","","","","","html-slider-response","180","1537788","0.0-21.0-0.22","8f7cbfba-4a71-49e1-ad8a-3dbd13a8714c","1000","
                  <p style=""text-align: center;"">₪58
                                                <br>40%</p>
                  <p id=""wtp"" style=""text-align:center; margin-top: 0px; margin-bottom: 0px; font-size: 40px"";>&ensp;</p>","-","viewing","0","20","10C,13A,19C,21B","","","","","","","","","","","","","","","","","","","",""
"","","","","","html-slider-response","181","1538972","0.0-21.0-1.22","8f7cbfba-4a71-49e1-ad8a-3dbd13a8714c","1184","
                  <p style=""text-align: center;"">₪58
                                                <br>40%</p>
                  <p id=""wtp"" style=""text-align:center; margin-top: 0px; margin-bottom: 0px; font-size: 40px"";>מוכנים לשלם: <span id=""c_p_y""></span></p>","20","evaluation","55","20","10C,13A,19C,21B","40","58","20","","","","","","","","","","","","","","","","",""
"","","","","","html-keyboard-response","182","1539770","0.0-21.0-2.22","8f7cbfba-4a71-49e1-ad8a-3dbd13a8714c","null","<p style=""text-align: center;"">+</p>","null","fixation","","","","","","","","","","","","","","","","","","","","","","",""
"","","","","","html-slider-response","183","1540785","0.0-21.0-0.23","8f7cbfba-4a71-49e1-ad8a-3dbd13a8714c","1000","
                  <p style=""text-align: center;"">₪11
                                                <br>75%</p>
                  <p id=""wtp"" style=""text-align:center; margin-top: 0px; margin-bottom: 0px; font-size: 40px"";>&ensp;</p>","-","viewing","0","7","6B,18B,22C,24C,29A","","","","","","","","","","","","","","","","","","","",""
"","","","","","html-slider-response","184","1543965","0.0-21.0-1.23","8f7cbfba-4a71-49e1-ad8a-3dbd13a8714c","3178","
                  <p style=""text-align: center;"">₪11
                                                <br>75%</p>
                  <p id=""wtp"" style=""text-align:center; margin-top: 0px; margin-bottom: 0px; font-size: 40px"";>מוכנים לשלם: <span id=""c_p_y""></span></p>","6","evaluation","55","7","6B,18B,22C,24C,29A","75","11","6","","","","","","","","","","","","","","","","",""
"","","","","","html-keyboard-response","185","1545354","0.0-21.0-2.23","8f7cbfba-4a71-49e1-ad8a-3dbd13a8714c","null","<p style=""text-align: center;"">+</p>","null","fixation","","","","","","","","","","","","","","","","","","","","","","",""
"","","","","","html-slider-response","186","1546357","0.0-21.0-0.24","8f7cbfba-4a71-49e1-ad8a-3dbd13a8714c","1000","
                  <p style=""text-align: center;"">₪11
                                                <br>25%</p>
                  <p id=""wtp"" style=""text-align:center; margin-top: 0px; margin-bottom: 0px; font-size: 40px"";>&ensp;</p>","-","viewing","0","5","12A,27B,28B,30B","","","","","","","","","","","","","","","","","","","",""
"","","","","","html-slider-response","187","1548805","0.0-21.0-1.24","8f7cbfba-4a71-49e1-ad8a-3dbd13a8714c","2446","
                  <p style=""text-align: center;"">₪11
                                                <br>25%</p>
                  <p id=""wtp"" style=""text-align:center; margin-top: 0px; margin-bottom: 0px; font-size: 40px"";>מוכנים לשלם: <span id=""c_p_y""></span></p>","3","evaluation","35","5","12A,27B,28B,30B","25","11","3","","","","","","","","","","","","","","","","",""
"","","","","","html-keyboard-response","188","1549459","0.0-21.0-2.24","8f7cbfba-4a71-49e1-ad8a-3dbd13a8714c","null","<p style=""text-align: center;"">+</p>","null","fixation","","","","","","","","","","","","","","","","","","","","","","",""
"","","","","","html-slider-response","189","1550462","0.0-21.0-0.25","8f7cbfba-4a71-49e1-ad8a-3dbd13a8714c","1000","
                  <p style=""text-align: center;"">₪71
                                                <br>75%</p>
                  <p id=""wtp"" style=""text-align:center; margin-top: 0px; margin-bottom: 0px; font-size: 40px"";>&ensp;</p>","-","viewing","0","28","8B","","","","","","","","","","","","","","","","","","","",""
"","","","","","html-slider-response","190","1554404","0.0-21.0-1.25","8f7cbfba-4a71-49e1-ad8a-3dbd13a8714c","3942","
                  <p style=""text-align: center;"">₪71
                                                <br>75%</p>
                  <p id=""wtp"" style=""text-align:center; margin-top: 0px; margin-bottom: 0px; font-size: 40px"";>מוכנים לשלם: <span id=""c_p_y""></span></p>","42","evaluation","69","28","8B","75","71","42","","","","","","","","","","","","","","","","",""
"","","","","","html-keyboard-response","191","1555181","0.0-21.0-2.25","8f7cbfba-4a71-49e1-ad8a-3dbd13a8714c","null","<p style=""text-align: center;"">+</p>","null","fixation","","","","","","","","","","","","","","","","","","","","","","",""
"","","","","","html-slider-response","192","1556194","0.0-21.0-0.26","8f7cbfba-4a71-49e1-ad8a-3dbd13a8714c","1000","
                  <p style=""text-align: center;"">₪71
                                                <br>55%</p>
                  <p id=""wtp"" style=""text-align:center; margin-top: 0px; margin-bottom: 0px; font-size: 40px"";>&ensp;</p>","-","viewing","0","27","5B,18A","","","","","","","","","","","","","","","","","","","",""
"","","","","","html-slider-response","193","1560203","0.0-21.0-1.26","8f7cbfba-4a71-49e1-ad8a-3dbd13a8714c","null","
                  <p style=""text-align: center;"">₪71
                                                <br>55%</p>
                  <p id=""wtp"" style=""text-align:center; margin-top: 0px; margin-bottom: 0px; font-size: 40px"";>מוכנים לשלם: <span id=""c_p_y""></span></p>","null","evaluation","29","27","5B,18A","55","71","41","","","","","","","","","","","","","","","","",""
"","","","","","html-keyboard-response","194","1561182","0.0-21.0-2.26","8f7cbfba-4a71-49e1-ad8a-3dbd13a8714c","null","<p style=""text-align: center;"">+</p>","null","fixation","","","","","","","","","","","","","","","","","","","","","","",""
"","","","","","html-slider-response","195","1562198","0.0-21.0-0.27","8f7cbfba-4a71-49e1-ad8a-3dbd13a8714c","1000","
                  <p style=""text-align: center;"">₪36
                                                <br>75%</p>
                  <p id=""wtp"" style=""text-align:center; margin-top: 0px; margin-bottom: 0px; font-size: 40px"";>&ensp;</p>","-","viewing","0","14","4B,5A,13B,16B","","","","","","","","","","","","","","","","","","","",""
"","","","","","html-slider-response","196","1564056","0.0-21.0-1.27","8f7cbfba-4a71-49e1-ad8a-3dbd13a8714c","1858","
                  <p style=""text-align: center;"">₪36
                                                <br>75%</p>
                  <p id=""wtp"" style=""text-align:center; margin-top: 0px; margin-bottom: 0px; font-size: 40px"";>מוכנים לשלם: <span id=""c_p_y""></span></p>","18","evaluation","66","14","4B,5A,13B,16B","75","36","18","","","","","","","","","","","","","","","","",""
"","","","","","html-keyboard-response","197","1565012","0.0-21.0-2.27","8f7cbfba-4a71-49e1-ad8a-3dbd13a8714c","null","<p style=""text-align: center;"">+</p>","null","fixation","","","","","","","","","","","","","","","","","","","","","","",""
"","","","","","html-slider-response","198","1566026","0.0-21.0-0.28","8f7cbfba-4a71-49e1-ad8a-3dbd13a8714c","1000","
                  <p style=""text-align: center;"">₪39
                                                <br>60%</p>
                  <p id=""wtp"" style=""text-align:center; margin-top: 0px; margin-bottom: 0px; font-size: 40px"";>&ensp;</p>","-","viewing","0","15","9C,25B","","","","","","","","","","","","","","","","","","","",""
"","","","","","html-slider-response","199","1568928","0.0-21.0-1.28","8f7cbfba-4a71-49e1-ad8a-3dbd13a8714c","2901","
                  <p style=""text-align: center;"">₪39
                                                <br>60%</p>
                  <p id=""wtp"" style=""text-align:center; margin-top: 0px; margin-bottom: 0px; font-size: 40px"";>מוכנים לשלם: <span id=""c_p_y""></span></p>","24","evaluation","21","15","9C,25B","60","39","24","","","","","","","","","","","","","","","","",""
"","","","","","html-keyboard-response","200","1570381","0.0-21.0-2.28","8f7cbfba-4a71-49e1-ad8a-3dbd13a8714c","null","<p style=""text-align: center;"">+</p>","null","fixation","","","","","","","","","","","","","","","","","","","","","","",""
"","","","","","html-slider-response","201","1571385","0.0-21.0-0.29","8f7cbfba-4a71-49e1-ad8a-3dbd13a8714c","1000","
                  <p style=""text-align: center;"">₪4
                                                <br>75%</p>
                  <p id=""wtp"" style=""text-align:center; margin-top: 0px; margin-bottom: 0px; font-size: 40px"";>&ensp;</p>","-","viewing","0","3","12B,20B,23B,27C,29C","","","","","","","","","","","","","","","","","","","",""
"","","","","","html-slider-response","202","1573448","0.0-21.0-1.29","8f7cbfba-4a71-49e1-ad8a-3dbd13a8714c","2063","
                  <p style=""text-align: center;"">₪4
                                                <br>75%</p>
                  <p id=""wtp"" style=""text-align:center; margin-top: 0px; margin-bottom: 0px; font-size: 40px"";>מוכנים לשלם: <span id=""c_p_y""></span></p>","1","evaluation","76","3","12B,20B,23B,27C,29C","75","4","1","","","","","","","","","","","","","","","","",""
"","","","","","html-keyboard-response","203","1574567","0.0-21.0-2.29","8f7cbfba-4a71-49e1-ad8a-3dbd13a8714c","null","<p style=""text-align: center;"">+</p>","null","fixation","","","","","","","","","","","","","","","","","","","","","","",""
"","","","","","html-slider-response","204","1575580","0.0-21.0-0.30","8f7cbfba-4a71-49e1-ad8a-3dbd13a8714c","1000","
                  <p style=""text-align: center;"">₪58
                                                <br>45%</p>
                  <p id=""wtp"" style=""text-align:center; margin-top: 0px; margin-bottom: 0px; font-size: 40px"";>&ensp;</p>","-","viewing","0","21","11C,18C,25A","","","","","","","","","","","","","","","","","","","",""
"","","","","","html-slider-response","205","1579593","0.0-21.0-1.30","8f7cbfba-4a71-49e1-ad8a-3dbd13a8714c","null","
                  <p style=""text-align: center;"">₪58
                                                <br>45%</p>
                  <p id=""wtp"" style=""text-align:center; margin-top: 0px; margin-bottom: 0px; font-size: 40px"";>מוכנים לשלם: <span id=""c_p_y""></span></p>","null","evaluation","31","21","11C,18C,25A","45","58","5","","","","","","","","","","","","","","","","",""
"","","","","","html-keyboard-response","206","1580449","0.0-21.0-2.30","8f7cbfba-4a71-49e1-ad8a-3dbd13a8714c","null","<p style=""text-align: center;"">+</p>","null","fixation","","","","","","","","","","","","","","","","","","","","","","",""
"","","","","","html-keyboard-response","207","1581460","0.0-22.0","8f7cbfba-4a71-49e1-ad8a-3dbd13a8714c","null","<p style=""text-align: center;"">+</p>","null","fixation","","","","","","","","","","","","","","","","","","","","","","",""
"","","","","","html-keyboard-response","208","1582336","0.0-23.0","8f7cbfba-4a71-49e1-ad8a-3dbd13a8714c","null","<p>הפסקה.
          <br>לחצו כדי להמשיך.</p>","1","scan_wait","","","","","","","","","","","","","","","","","","","","","","",""
"","","","","","html-keyboard-response","209","1583338","0.0-24.0","8f7cbfba-4a71-49e1-ad8a-3dbd13a8714c","null","<p style=""text-align: center;"">+</p>","null","fixation","","","","","","","","","","","","","","","","","","","","","","",""
"","","","","","html-slider-response","210","1584342","0.0-25.0-0.0","8f7cbfba-4a71-49e1-ad8a-3dbd13a8714c","1000","
                  <p style=""text-align: center;"">₪36
                                                <br>30%</p>
                  <p id=""wtp"" style=""text-align:center; margin-top: 0px; margin-bottom: 0px; font-size: 40px"";>&ensp;</p>","-","viewing","0","11","3C,20A,22A","","","","","","","","","","","","","","","","","","","",""
"","","","","","html-slider-response","211","1586784","0.0-25.0-1.0","8f7cbfba-4a71-49e1-ad8a-3dbd13a8714c","2441","
                  <p style=""text-align: center;"">₪36
                                                <br>30%</p>
                  <p id=""wtp"" style=""text-align:center; margin-top: 0px; margin-bottom: 0px; font-size: 40px"";>מוכנים לשלם: <span id=""c_p_y""></span></p>","7","evaluation","27","11","3C,20A,22A","30","36","7","","","","","","","","","","","","","","","","",""
"","","","","","html-keyboard-response","212","1587588","0.0-25.0-2.0","8f7cbfba-4a71-49e1-ad8a-3dbd13a8714c","null","<p style=""text-align: center;"">+</p>","null","fixation","","","","","","","","","","","","","","","","","","","","","","",""
"","","","","","html-slider-response","213","1588593","0.0-25.0-0.1","8f7cbfba-4a71-49e1-ad8a-3dbd13a8714c","1000","
                  <p style=""text-align: center;"">₪61
                                                <br>45%</p>
                  <p id=""wtp"" style=""text-align:center; margin-top: 0px; margin-bottom: 0px; font-size: 40px"";>&ensp;</p>","-","viewing","0","22","10A,11A","","","","","","","","","","","","","","","","","","","",""
"","","","","","html-slider-response","214","1591192","0.0-25.0-1.1","8f7cbfba-4a71-49e1-ad8a-3dbd13a8714c","2598","
                  <p style=""text-align: center;"">₪61
                                                <br>45%</p>
                  <p id=""wtp"" style=""text-align:center; margin-top: 0px; margin-bottom: 0px; font-size: 40px"";>מוכנים לשלם: <span id=""c_p_y""></span></p>","8","evaluation","7","22","10A,11A","45","61","8","","","","","","","","","","","","","","","","",""
"","","","","","html-keyboard-response","215","1592185","0.0-25.0-2.1","8f7cbfba-4a71-49e1-ad8a-3dbd13a8714c","null","<p style=""text-align: center;"">+</p>","null","fixation","","","","","","","","","","","","","","","","","","","","","","",""
"","","","","","html-slider-response","216","1593189","0.0-25.0-0.2","8f7cbfba-4a71-49e1-ad8a-3dbd13a8714c","1000","
                  <p style=""text-align: center;"">₪64
                                                <br>50%</p>
                  <p id=""wtp"" style=""text-align:center; margin-top: 0px; margin-bottom: 0px; font-size: 40px"";>&ensp;</p>","-","viewing","0","25","1B,3B,4A","","","","","","","","","","","","","","","","","","","",""
"","","","","","html-slider-response","217","1594512","0.0-25.0-1.2","8f7cbfba-4a71-49e1-ad8a-3dbd13a8714c","1322","
                  <p style=""text-align: center;"">₪64
                                                <br>50%</p>
                  <p id=""wtp"" style=""text-align:center; margin-top: 0px; margin-bottom: 0px; font-size: 40px"";>מוכנים לשלם: <span id=""c_p_y""></span></p>","20","evaluation","37","25","1B,3B,4A","50","64","20","","","","","","","","","","","","","","","","",""
"","","","","","html-keyboard-response","218","1595035","0.0-25.0-2.2","8f7cbfba-4a71-49e1-ad8a-3dbd13a8714c","null","<p style=""text-align: center;"">+</p>","null","fixation","","","","","","","","","","","","","","","","","","","","","","",""
"","","","","","html-slider-response","219","1596041","0.0-25.0-0.3","8f7cbfba-4a71-49e1-ad8a-3dbd13a8714c","1000","
                  <p style=""text-align: center;"">₪43
                                                <br>60%</p>
                  <p id=""wtp"" style=""text-align:center; margin-top: 0px; margin-bottom: 0px; font-size: 40px"";>&ensp;</p>","-","viewing","0","17","2A,7A,9A,15B","","","","","","","","","","","","","","","","","","","",""
"","","","","","html-slider-response","220","1598464","0.0-25.0-1.3","8f7cbfba-4a71-49e1-ad8a-3dbd13a8714c","2422","
                  <p style=""text-align: center;"">₪43
                                                <br>60%</p>
                  <p id=""wtp"" style=""text-align:center; margin-top: 0px; margin-bottom: 0px; font-size: 40px"";>מוכנים לשלם: <span id=""c_p_y""></span></p>","14","evaluation","23","17","2A,7A,9A,15B","60","43","15","","","","","","","","","","","","","","","","",""
"","","","","","html-keyboard-response","221","1598987","0.0-25.0-2.3","8f7cbfba-4a71-49e1-ad8a-3dbd13a8714c","null","<p style=""text-align: center;"">+</p>","null","fixation","","","","","","","","","","","","","","","","","","","","","","",""
"","","","","","html-slider-response","222","1599993","0.0-25.0-0.4","8f7cbfba-4a71-49e1-ad8a-3dbd13a8714c","1000","
                  <p style=""text-align: center;"">₪36
                                                <br>75%</p>
                  <p id=""wtp"" style=""text-align:center; margin-top: 0px; margin-bottom: 0px; font-size: 40px"";>&ensp;</p>","-","viewing","0","14","4B,5A,13B,16B","","","","","","","","","","","","","","","","","","","",""
"","","","","","html-slider-response","223","1601168","0.0-25.0-1.4","8f7cbfba-4a71-49e1-ad8a-3dbd13a8714c","1174","
                  <p style=""text-align: center;"">₪36
                                                <br>75%</p>
                  <p id=""wtp"" style=""text-align:center; margin-top: 0px; margin-bottom: 0px; font-size: 40px"";>מוכנים לשלם: <span id=""c_p_y""></span></p>","24","evaluation","8","14","4B,5A,13B,16B","75","36","24","","","","","","","","","","","","","","","","",""
"","","","","","html-keyboard-response","224","1601940","0.0-25.0-2.4","8f7cbfba-4a71-49e1-ad8a-3dbd13a8714c","null","<p style=""text-align: center;"">+</p>","null","fixation","","","","","","","","","","","","","","","","","","","","","","",""
"","","","","","html-slider-response","225","1602942","0.0-25.0-0.5","8f7cbfba-4a71-49e1-ad8a-3dbd13a8714c","1000","
                  <p style=""text-align: center;"">₪79
                                                <br>40%</p>
                  <p id=""wtp"" style=""text-align:center; margin-top: 0px; margin-bottom: 0px; font-size: 40px"";>&ensp;</p>","-","viewing","0","30","9B","","","","","","","","","","","","","","","","","","","",""
"","","","","","html-slider-response","226","1604136","0.0-25.0-1.5","8f7cbfba-4a71-49e1-ad8a-3dbd13a8714c","1193","
                  <p style=""text-align: center;"">₪79
                                                <br>40%</p>
                  <p id=""wtp"" style=""text-align:center; margin-top: 0px; margin-bottom: 0px; font-size: 40px"";>מוכנים לשלם: <span id=""c_p_y""></span></p>","9","evaluation","77","30","9B","40","79","9","","","","","","","","","","","","","","","","",""
"","","","","","html-keyboard-response","227","1605587","0.0-25.0-2.5","8f7cbfba-4a71-49e1-ad8a-3dbd13a8714c","null","<p style=""text-align: center;"">+</p>","null","fixation","","","","","","","","","","","","","","","","","","","","","","",""
"","","","","","html-slider-response","228","1606602","0.0-25.0-0.6","8f7cbfba-4a71-49e1-ad8a-3dbd13a8714c","1000","
                  <p style=""text-align: center;"">₪39
                                                <br>65%</p>
                  <p id=""wtp"" style=""text-align:center; margin-top: 0px; margin-bottom: 0px; font-size: 40px"";>&ensp;</p>","-","viewing","0","16","1A,15A,26C","","","","","","","","","","","","","","","","","","","",""
"","","","","","html-slider-response","229","1609064","0.0-25.0-1.6","8f7cbfba-4a71-49e1-ad8a-3dbd13a8714c","2461","
                  <p style=""text-align: center;"">₪39
                                                <br>65%</p>
                  <p id=""wtp"" style=""text-align:center; margin-top: 0px; margin-bottom: 0px; font-size: 40px"";>מוכנים לשלם: <span id=""c_p_y""></span></p>","15","evaluation","69","16","1A,15A,26C","65","39","16","","","","","","","","","","","","","","","","",""
"","","","","","html-keyboard-response","230","1610390","0.0-25.0-2.6","8f7cbfba-4a71-49e1-ad8a-3dbd13a8714c","null","<p style=""text-align: center;"">+</p>","null","fixation","","","","","","","","","","","","","","","","","","","","","","",""
"","","","","","html-slider-response","231","1611401","0.0-25.0-0.7","8f7cbfba-4a71-49e1-ad8a-3dbd13a8714c","1000","
                  <p style=""text-align: center;"">₪71
                                                <br>45%</p>
                  <p id=""wtp"" style=""text-align:center; margin-top: 0px; margin-bottom: 0px; font-size: 40px"";>&ensp;</p>","-","viewing","0","26","2B,16A","","","","","","","","","","","","","","","","","","","",""
"","","","","","html-slider-response","232","1612752","0.0-25.0-1.7","8f7cbfba-4a71-49e1-ad8a-3dbd13a8714c","1350","
                  <p style=""text-align: center;"">₪71
                                                <br>45%</p>
                  <p id=""wtp"" style=""text-align:center; margin-top: 0px; margin-bottom: 0px; font-size: 40px"";>מוכנים לשלם: <span id=""c_p_y""></span></p>","7","evaluation","59","26","2B,16A","45","71","7","","","","","","","","","","","","","","","","",""
"","","","","","html-keyboard-response","233","1613419","0.0-25.0-2.7","8f7cbfba-4a71-49e1-ad8a-3dbd13a8714c","null","<p style=""text-align: center;"">+</p>","null","fixation","","","","","","","","","","","","","","","","","","","","","","",""
"","","","","","html-slider-response","234","1614424","0.0-25.0-0.8","8f7cbfba-4a71-49e1-ad8a-3dbd13a8714c","1000","
                  <p style=""text-align: center;"">₪4
                                                <br>75%</p>
                  <p id=""wtp"" style=""text-align:center; margin-top: 0px; margin-bottom: 0px; font-size: 40px"";>&ensp;</p>","-","viewing","0","3","12B,20B,23B,27C,29C","","","","","","","","","","","","","","","","","","","",""
"","","","","","html-slider-response","235","1615536","0.0-25.0-1.8","8f7cbfba-4a71-49e1-ad8a-3dbd13a8714c","1111","
                  <p style=""text-align: center;"">₪4
                                                <br>75%</p>
                  <p id=""wtp"" style=""text-align:center; margin-top: 0px; margin-bottom: 0px; font-size: 40px"";>מוכנים לשלם: <span id=""c_p_y""></span></p>","0","evaluation","49","3","12B,20B,23B,27C,29C","75","4","0","","","","","","","","","","","","","","","","",""
"","","","","","html-keyboard-response","236","1616443","0.0-25.0-2.8","8f7cbfba-4a71-49e1-ad8a-3dbd13a8714c","null","<p style=""text-align: center;"">+</p>","null","fixation","","","","","","","","","","","","","","","","","","","","","","",""
"","","","","","html-slider-response","237","1617448","0.0-25.0-0.9","8f7cbfba-4a71-49e1-ad8a-3dbd13a8714c","1000","
                  <p style=""text-align: center;"">₪79
                                                <br>65%</p>
                  <p id=""wtp"" style=""text-align:center; margin-top: 0px; margin-bottom: 0px; font-size: 40px"";>&ensp;</p>","-","viewing","0","31","8A","","","","","","","","","","","","","","","","","","","",""
"","","","","","html-slider-response","238","1619924","0.0-25.0-1.9","8f7cbfba-4a71-49e1-ad8a-3dbd13a8714c","2475","
                  <p style=""text-align: center;"">₪79
                                                <br>65%</p>
                  <p id=""wtp"" style=""text-align:center; margin-top: 0px; margin-bottom: 0px; font-size: 40px"";>מוכנים לשלם: <span id=""c_p_y""></span></p>","20","evaluation","52","31","8A","65","79","20","","","","","","","","","","","","","","","","",""
"","","","","","html-keyboard-response","239","1620821","0.0-25.0-2.9","8f7cbfba-4a71-49e1-ad8a-3dbd13a8714c","null","<p style=""text-align: center;"">+</p>","null","fixation","","","","","","","","","","","","","","","","","","","","","","",""
"","","","","","html-slider-response","240","1621825","0.0-25.0-0.10","8f7cbfba-4a71-49e1-ad8a-3dbd13a8714c","1000","
                  <p style=""text-align: center;"">₪11
                                                <br>20%</p>
                  <p id=""wtp"" style=""text-align:center; margin-top: 0px; margin-bottom: 0px; font-size: 40px"";>&ensp;</p>","-","viewing","0","4","12C,17C,23C,28C","","","","","","","","","","","","","","","","","","","",""
"","","","","","html-slider-response","241","1623988","0.0-25.0-1.10","8f7cbfba-4a71-49e1-ad8a-3dbd13a8714c","2162","
                  <p style=""text-align: center;"">₪11
                                                <br>20%</p>
                  <p id=""wtp"" style=""text-align:center; margin-top: 0px; margin-bottom: 0px; font-size: 40px"";>מוכנים לשלם: <span id=""c_p_y""></span></p>","9","evaluation","20","4","12C,17C,23C,28C","20","11","9","","","","","","","","","","","","","","","","",""
"","","","","","html-keyboard-response","242","1625497","0.0-25.0-2.10","8f7cbfba-4a71-49e1-ad8a-3dbd13a8714c","null","<p style=""text-align: center;"">+</p>","null","fixation","","","","","","","","","","","","","","","","","","","","","","",""
"","","","","","html-slider-response","243","1626504","0.0-25.0-0.11","8f7cbfba-4a71-49e1-ad8a-3dbd13a8714c","1000","
                  <p style=""text-align: center;"">₪11
                                                <br>45%</p>
                  <p id=""wtp"" style=""text-align:center; margin-top: 0px; margin-bottom: 0px; font-size: 40px"";>&ensp;</p>","-","viewing","0","6","14B,21C,25C","","","","","","","","","","","","","","","","","","","",""
"","","","","","html-slider-response","244","1628444","0.0-25.0-1.11","8f7cbfba-4a71-49e1-ad8a-3dbd13a8714c","1939","
                  <p style=""text-align: center;"">₪11
                                                <br>45%</p>
                  <p id=""wtp"" style=""text-align:center; margin-top: 0px; margin-bottom: 0px; font-size: 40px"";>מוכנים לשלם: <span id=""c_p_y""></span></p>","14","evaluation","49","6","14B,21C,25C","45","11","14","","","","","","","","","","","","","","","","",""
"","","","","","html-keyboard-response","245","1629639","0.0-25.0-2.11","8f7cbfba-4a71-49e1-ad8a-3dbd13a8714c","null","<p style=""text-align: center;"">+</p>","null","fixation","","","","","","","","","","","","","","","","","","","","","","",""
"","","","","","html-slider-response","246","1630652","0.0-25.0-0.12","8f7cbfba-4a71-49e1-ad8a-3dbd13a8714c","1000","
                  <p style=""text-align: center;"">₪58
                                                <br>45%</p>
                  <p id=""wtp"" style=""text-align:center; margin-top: 0px; margin-bottom: 0px; font-size: 40px"";>&ensp;</p>","-","viewing","0","21","11C,18C,25A","","","","","","","","","","","","","","","","","","","",""
"","","","","","html-slider-response","247","1631612","0.0-25.0-1.12","8f7cbfba-4a71-49e1-ad8a-3dbd13a8714c","959","
                  <p style=""text-align: center;"">₪58
                                                <br>45%</p>
                  <p id=""wtp"" style=""text-align:center; margin-top: 0px; margin-bottom: 0px; font-size: 40px"";>מוכנים לשלם: <span id=""c_p_y""></span></p>","15","evaluation","48","21","11C,18C,25A","45","58","15","","","","","","","","","","","","","","","","",""
"","","","","","html-keyboard-response","248","1632970","0.0-25.0-2.12","8f7cbfba-4a71-49e1-ad8a-3dbd13a8714c","null","<p style=""text-align: center;"">+</p>","null","fixation","","","","","","","","","","","","","","","","","","","","","","",""
