"success","timeout","failed_images","failed_audio","failed_video","trial_type","trial_index","time_elapsed","internal_node_id","subject_id","rt","stimulus","response","part","slider_start","ID","set_ID","prob","amount","last_location","actual_choice","actual_EV","binary_id","trinary_id","catch","A_key","D_key","choice_prob","choice_amount","potential_prize_prob","potential_prize_amount","won_prize","total_prize","remaining_budget","accuracy"
"true","false","[]","[]","[]","preload","0","6","0.0-0.0","eae06661-078d-4d13-b3a9-c58946dbae87","","","","","","","","","","","","","","","","","","","","","","","","",""
"","","","","","html-keyboard-response","1","15519","0.0-1.0","eae06661-078d-4d13-b3a9-c58946dbae87","null","
          <h1>שלום וברוכים הבאים!</h1>
          <p>לפניכם ניסוי בקבלת החלטות עם שני חלקים.
          <br><br>לחצו על העכבר כדי להמשיך.</p>","0","example","","","","","","","","","","","","","","","","","","","","",""
"","","","","","html-keyboard-response","2","29759","0.0-2.0","eae06661-078d-4d13-b3a9-c58946dbae87","null","
        <h1>חלק 1</h1>
        <p>בקרוב יוצגו בפניכם הגרלות.
        <br>עליכם לבחור את המחיר המירבי שתהיו מוכנים לשלם כדי להשתתף בהגרלה שתוצג.
        <br>יש לכם תקציב של ₪80 לכל הגרלה. 
        <br>נסו להעריך כל הגרלה בנפרד ולחשוב כמה היא שווה עבורכם, ₪80 זמינים לכל הגרלה בנפרד.
        <br><br>לחצו על העכבר כדי להמשיך.</p>","1","instructions","","","","","","","","","","","","","","","","","","","","",""
"","","","","","html-keyboard-response","3","38911","0.0-3.0","eae06661-078d-4d13-b3a9-c58946dbae87","null","
        <p>בסוף הניסוי, המחשב יבחר את אחת ההגרלות ויקבע מחיר לכרטיס עבורה. 
        <br>במידה והמחיר שבחרתם נמוך מהמחיר שנבחר על ידי המחשב, לא תשתתפו בהגרלה ותשארו עם מלוא התקציב.
        <br>במידה והמחיר שבחרתם גבוה מהמחיר שנבחר על ידי המחשב, תשלמו את המחיר שנקבע ותשתתפו בהגרלה.
        <br><br>לחצו על העכבר כדי להמשיך.</p>","1","instructions","","","","","","","","","","","","","","","","","","","","",""
"","","","","","html-slider-response","4","63096","0.0-4.0","eae06661-078d-4d13-b3a9-c58946dbae87","24079","
        <p style=""font-size: 42px;"">נתחיל עם דוגמא: 
        <br>ההגרלה מטה מציעה 65% סיכוי לזכות ב-₪40 
        <br>&emsp;&emsp;&emsp;&emsp;&emsp;&emsp;&emsp;&emsp;&ensp;35% סיכוי לזכות ב-₪0.
        <br><br>מה המחיר המירבי שתהיו מוכנים לשלם על כרטיס להגרלה זו בין 0 ל-₪80?
        <br>הזיזו את העכבר על פני המלבן ולחצו כדי לבצע בחירה.</p>
        
        <p style=""text-align: center;"">₪40<br>65%</p>

        <p id=""wtp"" style=""text-align:center; margin-top: 0px; margin-bottom: 0px; font-size: 40px"";>מוכנים לשלם: <span id=""c_p_y""></span></p>","30","example","45","","","","","","","","","","","","","","","","","","","",""
"","","","","","html-keyboard-response","5","75599","0.0-5.0","eae06661-078d-4d13-b3a9-c58946dbae87","null","<p>יפה מאוד!
                <br> בחרתם שתהיו מוכנים לשלם ₪30 כדי להשתתף בהגרלה:
                <br><p style=""text-align: center;"">₪40<br>65%</p>
                <p>נשמע נכון?
                <br>נניח שהגרלה זו נבחרה בסוף הניסוי.
                <br>כעת המחשב יקבע מחיר עבורה באקראי.
                <br>לחצו על העכבר להמשך.</p>","1","example","","","","","","","","","","","","","","","","","","","","",""
"","","","","","html-keyboard-response","6","88039","0.0-6.0","eae06661-078d-4d13-b3a9-c58946dbae87","null","<p>המחשב קבע מחיר: ₪48
                <br>ואתם בחרתם לשלם לכל היותר: ₪30
                <br><br>מכיוון שהמחיר שבחרתם נמוך מהמחיר שנקבע, לא תתשתתפו בהגרלה.
                <br>במקרה כזה, בסוף הניסוי תקבלו את כל התקציב ההתחלתי של ₪80.
                <br><br>לחצו על העכבר להמשך.</p>","1","example","","","","","","","","","","","","","","","","","","","","",""
"","","","","","html-slider-response","7","96680","0.0-7.0","eae06661-078d-4d13-b3a9-c58946dbae87","8376","<p style=""font-size: 42px;"">הנה עוד דוגמא:
                <br>ההגרלה מטה מציעה 35% סיכוי לזכות ב-₪18 
                <br>&emsp;&emsp;&emsp;&emsp;&emsp;&emsp;&emsp;&emsp;&ensp;65% סיכוי לזכות ב-₪0.</p>
        
                <p style=""text-align: center;"">₪18<br>35%</p>
                <p id=""wtp"" style=""text-align:center; margin-top: 0px; margin-bottom: 0px; font-size: 40px"";>מוכנים לשלם: <span id=""c_p_y""></span></p>","10","example","5","","","","","","","","","","","","","","","","","","","",""
"","","","","","html-keyboard-response","8","98768","0.0-8.0","eae06661-078d-4d13-b3a9-c58946dbae87","null","<p>הייתם מוכנים לשלם  ₪10 כדי להשתתף בהגרלה:
                <p style=""text-align: center;"">₪18<br>35%</p>
                <p>כעת נניח שהמחשב בחר את ההגרלה הזו בסוף הניסוי, וקבע עבורה מחיר.
                <br><br>לחצו על העכבר כדי להמשיך.</p>","1","instructions","","","","","","","","","","","","","","","","","","","","",""
"","","","","","html-keyboard-response","9","112991","0.0-9.0","eae06661-078d-4d13-b3a9-c58946dbae87","null","<p>המחשב קבע מחיר להגרלה: ₪1<br>ואתם בחרתם לשלם לכל היותר: ₪10
                <br><br>כעת המחיר שנקבע נמוך מזה שבחרתם, אז תשלמו את המחיר שקבע המחשב (₪1) ותשתתפו בהגרלה.
                <br>במקרה כזה, תסיימו את הניסוי עם תקציב של ₪79 ועם סיכוי לזכות ב-₪18 נוספים מההגרלה.
                <br>כלומר, תוכלו לקבל ₪79 אם לא תזכו בהגרלה, או ₪97 אם תזכו בהגרלה.
                <br><br>לחצו על העכבר להמשך.</p>","1","example","","","","","","","","","","","","","","","","","","","","",""
"","","","","","html-keyboard-response","10","124847","0.0-10.0","eae06661-078d-4d13-b3a9-c58946dbae87","null","<p>במהלך הניסוי, קודם תראו את ההגרלה ורק לאחר מכן תוכלו לבחור.
                <p>כמו כן, יהיו לכם מספר שניות מוגבל להגיב.
                <p>בואו ננסה זאת עם ההגרלה הקודמת.
                <br>לחצו על העכבר כדי להמשיך.</p>","1","instructions","","","","","","","","","","","","","","","","","","","","",""
"","","","","","html-slider-response","11","126107","0.0-11.0","eae06661-078d-4d13-b3a9-c58946dbae87","1000","
                    <p style=""text-align: center;"">₪18<br>35%</p>
                    <p id=""wtp"" style=""text-align:center; margin-top: 0px; margin-bottom: 0px; font-size: 40px"";>&ensp;</p>","40","instructions","0","","","","","","","","","","","","","","","","","","","",""
"","","","","","html-slider-response","12","128832","0.0-12.0","eae06661-078d-4d13-b3a9-c58946dbae87","2464","
                    <p style=""text-align: center;"">₪18<br>35%</p>
                    <p id=""wtp"" style=""text-align:center; margin-top: 0px; margin-bottom: 0px; font-size: 40px"";>מוכנים לשלם: <span id=""c_p_y""></span></p>","8","instructions","7","","","","","","","","","","","","","","","","","","","",""
"","","","","","html-keyboard-response","13","133927","0.0-13.0","eae06661-078d-4d13-b3a9-c58946dbae87","null","<p>יפה. הפעם בחרתם לשלם לכל היותר ₪8.
                <br><br>לחצו על העכבר כדי להמשיך.</p>","1","instructions","","","","","","","","","","","","","","","","","","","","",""
"","","","","","html-keyboard-response","14","149911","0.0-15.0","eae06661-078d-4d13-b3a9-c58946dbae87","null","<p>כעת נתחיל את הניסוי.
                <br><br>אתם תראו הגרלות ותתבקשו לבחור כמה תהיו מוכנים לשלם כדי להשתתף בהן.
                <br>יש לכם תקציב של ₪80 עבור כל הגרלה.
                <br>בסוף הניסוי הגרלה אחת תבחר באקראי ותשוחק.
                <br><br>לחצו על העכבר כדי להתחיל את הניסוי.</p>","1","instructions","","","","","","","","","","","","","","","","","","","","",""
"","","","","","html-keyboard-response","15","151172","0.0-16.0","eae06661-078d-4d13-b3a9-c58946dbae87","null","<p style=""text-align: center;"">+</p>","null","fixation","","","","","","","","","","","","","","","","","","","","",""
"","","","","","html-slider-response","16","152173","0.0-17.0-0.0","eae06661-078d-4d13-b3a9-c58946dbae87","1000","
                  <p style=""text-align: center;"">₪76
                                                <br>65%</p>
                  <p id=""wtp"" style=""text-align:center; margin-top: 0px; margin-bottom: 0px; font-size: 40px"";>&ensp;</p>","-","viewing","0","29","8C,19A,24B","","","","","","","","","","","","","","","","","",""
"","","","","","html-slider-response","17","156176","0.0-17.0-1.0","eae06661-078d-4d13-b3a9-c58946dbae87","null","
                  <p style=""text-align: center;"">₪76
                                                <br>65%</p>
                  <p id=""wtp"" style=""text-align:center; margin-top: 0px; margin-bottom: 0px; font-size: 40px"";>מוכנים לשלם: <span id=""c_p_y""></span></p>","null","evaluation","1","29","8C,19A,24B","65","76","29","","","","","","","","","","","","","","",""
"","","","","","html-keyboard-response","18","157446","0.0-17.0-2.0","eae06661-078d-4d13-b3a9-c58946dbae87","null","<p style=""text-align: center;"">+</p>","null","fixation","","","","","","","","","","","","","","","","","","","","",""
"","","","","","html-slider-response","19","158450","0.0-17.0-0.1","eae06661-078d-4d13-b3a9-c58946dbae87","1000","
                  <p style=""text-align: center;"">₪18
                                                <br>50%</p>
                  <p id=""wtp"" style=""text-align:center; margin-top: 0px; margin-bottom: 0px; font-size: 40px"";>&ensp;</p>","-","viewing","0","10","2C,16C,22B,28A","","","","","","","","","","","","","","","","","",""
"","","","","","html-slider-response","20","161360","0.0-17.0-1.1","eae06661-078d-4d13-b3a9-c58946dbae87","2908","
                  <p style=""text-align: center;"">₪18
                                                <br>50%</p>
                  <p id=""wtp"" style=""text-align:center; margin-top: 0px; margin-bottom: 0px; font-size: 40px"";>מוכנים לשלם: <span id=""c_p_y""></span></p>","8","evaluation","46","10","2C,16C,22B,28A","50","18","9","","","","","","","","","","","","","","",""
"","","","","","html-keyboard-response","21","162186","0.0-17.0-2.1","eae06661-078d-4d13-b3a9-c58946dbae87","null","<p style=""text-align: center;"">+</p>","null","fixation","","","","","","","","","","","","","","","","","","","","",""
"","","","","","html-slider-response","22","163192","0.0-17.0-0.2","eae06661-078d-4d13-b3a9-c58946dbae87","1000","
                  <p style=""text-align: center;"">₪64
                                                <br>50%</p>
                  <p id=""wtp"" style=""text-align:center; margin-top: 0px; margin-bottom: 0px; font-size: 40px"";>&ensp;</p>","-","viewing","0","25","1B,3B,4A","","","","","","","","","","","","","","","","","",""
"","","","","","html-slider-response","23","166384","0.0-17.0-1.2","eae06661-078d-4d13-b3a9-c58946dbae87","3190","
                  <p style=""text-align: center;"">₪64
                                                <br>50%</p>
                  <p id=""wtp"" style=""text-align:center; margin-top: 0px; margin-bottom: 0px; font-size: 40px"";>מוכנים לשלם: <span id=""c_p_y""></span></p>","37","evaluation","52","25","1B,3B,4A","50","64","37","","","","","","","","","","","","","","",""
"","","","","","html-keyboard-response","24","167054","0.0-17.0-2.2","eae06661-078d-4d13-b3a9-c58946dbae87","null","<p style=""text-align: center;"">+</p>","null","fixation","","","","","","","","","","","","","","","","","","","","",""
"","","","","","html-slider-response","25","168056","0.0-17.0-0.3","eae06661-078d-4d13-b3a9-c58946dbae87","1000","
                  <p style=""text-align: center;"">₪11
                                                <br>75%</p>
                  <p id=""wtp"" style=""text-align:center; margin-top: 0px; margin-bottom: 0px; font-size: 40px"";>&ensp;</p>","-","viewing","0","7","6B,18B,22C,24C,29A","","","","","","","","","","","","","","","","","",""
"","","","","","html-slider-response","26","170368","0.0-17.0-1.3","eae06661-078d-4d13-b3a9-c58946dbae87","2310","
                  <p style=""text-align: center;"">₪11
                                                <br>75%</p>
                  <p id=""wtp"" style=""text-align:center; margin-top: 0px; margin-bottom: 0px; font-size: 40px"";>מוכנים לשלם: <span id=""c_p_y""></span></p>","8","evaluation","13","7","6B,18B,22C,24C,29A","75","11","9","","","","","","","","","","","","","","",""
"","","","","","html-keyboard-response","27","171207","0.0-17.0-2.3","eae06661-078d-4d13-b3a9-c58946dbae87","null","<p style=""text-align: center;"">+</p>","null","fixation","","","","","","","","","","","","","","","","","","","","",""
"","","","","","html-slider-response","28","172209","0.0-17.0-0.4","eae06661-078d-4d13-b3a9-c58946dbae87","1000","
                  <p style=""text-align: center;"">₪58
                                                <br>30%</p>
                  <p id=""wtp"" style=""text-align:center; margin-top: 0px; margin-bottom: 0px; font-size: 40px"";>&ensp;</p>","-","viewing","0","19","13C,30A","","","","","","","","","","","","","","","","","",""
"","","","","","html-slider-response","29","175312","0.0-17.0-1.4","eae06661-078d-4d13-b3a9-c58946dbae87","3102","
                  <p style=""text-align: center;"">₪58
                                                <br>30%</p>
                  <p id=""wtp"" style=""text-align:center; margin-top: 0px; margin-bottom: 0px; font-size: 40px"";>מוכנים לשלם: <span id=""c_p_y""></span></p>","15","evaluation","41","19","13C,30A","30","58","16","","","","","","","","","","","","","","",""
"","","","","","html-keyboard-response","30","175904","0.0-17.0-2.4","eae06661-078d-4d13-b3a9-c58946dbae87","null","<p style=""text-align: center;"">+</p>","null","fixation","","","","","","","","","","","","","","","","","","","","",""
"","","","","","html-slider-response","31","176906","0.0-17.0-0.5","eae06661-078d-4d13-b3a9-c58946dbae87","1000","
                  <p style=""text-align: center;"">₪11
                                                <br>20%</p>
                  <p id=""wtp"" style=""text-align:center; margin-top: 0px; margin-bottom: 0px; font-size: 40px"";>&ensp;</p>","-","viewing","0","4","12C,17C,23C,28C","","","","","","","","","","","","","","","","","",""
"","","","","","html-slider-response","32","179647","0.0-17.0-1.5","eae06661-078d-4d13-b3a9-c58946dbae87","2740","
                  <p style=""text-align: center;"">₪11
                                                <br>20%</p>
                  <p id=""wtp"" style=""text-align:center; margin-top: 0px; margin-bottom: 0px; font-size: 40px"";>מוכנים לשלם: <span id=""c_p_y""></span></p>","7","evaluation","77","4","12C,17C,23C,28C","20","11","8","","","","","","","","","","","","","","",""
"","","","","","html-keyboard-response","33","180483","0.0-17.0-2.5","eae06661-078d-4d13-b3a9-c58946dbae87","null","<p style=""text-align: center;"">+</p>","null","fixation","","","","","","","","","","","","","","","","","","","","",""
"","","","","","html-slider-response","34","181485","0.0-17.0-0.6","eae06661-078d-4d13-b3a9-c58946dbae87","1000","
                  <p style=""text-align: center;"">₪4
                                                <br>75%</p>
                  <p id=""wtp"" style=""text-align:center; margin-top: 0px; margin-bottom: 0px; font-size: 40px"";>&ensp;</p>","-","viewing","0","3","12B,20B,23B,27C,29C","","","","","","","","","","","","","","","","","",""
"","","","","","html-slider-response","35","184111","0.0-17.0-1.6","eae06661-078d-4d13-b3a9-c58946dbae87","2625","
                  <p style=""text-align: center;"">₪4
                                                <br>75%</p>
                  <p id=""wtp"" style=""text-align:center; margin-top: 0px; margin-bottom: 0px; font-size: 40px"";>מוכנים לשלם: <span id=""c_p_y""></span></p>","1","evaluation","13","3","12B,20B,23B,27C,29C","75","4","2","","","","","","","","","","","","","","",""
"","","","","","html-keyboard-response","36","185230","0.0-17.0-2.6","eae06661-078d-4d13-b3a9-c58946dbae87","null","<p style=""text-align: center;"">+</p>","null","fixation","","","","","","","","","","","","","","","","","","","","",""
"","","","","","html-slider-response","37","186242","0.0-17.0-0.7","eae06661-078d-4d13-b3a9-c58946dbae87","1000","
                  <p style=""text-align: center;"">₪36
                                                <br>70%</p>
                  <p id=""wtp"" style=""text-align:center; margin-top: 0px; margin-bottom: 0px; font-size: 40px"";>&ensp;</p>","-","viewing","0","13","3A,5C,10B","","","","","","","","","","","","","","","","","",""
"","","","","","html-slider-response","38","188591","0.0-17.0-1.7","eae06661-078d-4d13-b3a9-c58946dbae87","2348","
                  <p style=""text-align: center;"">₪36
                                                <br>70%</p>
                  <p id=""wtp"" style=""text-align:center; margin-top: 0px; margin-bottom: 0px; font-size: 40px"";>מוכנים לשלם: <span id=""c_p_y""></span></p>","23","evaluation","69","13","3A,5C,10B","70","36","23","","","","","","","","","","","","","","",""
"","","","","","html-keyboard-response","39","189833","0.0-17.0-2.7","eae06661-078d-4d13-b3a9-c58946dbae87","null","<p style=""text-align: center;"">+</p>","null","fixation","","","","","","","","","","","","","","","","","","","","",""
"","","","","","html-slider-response","40","190835","0.0-17.0-0.8","eae06661-078d-4d13-b3a9-c58946dbae87","1000","
                  <p style=""text-align: center;"">₪79
                                                <br>40%</p>
                  <p id=""wtp"" style=""text-align:center; margin-top: 0px; margin-bottom: 0px; font-size: 40px"";>&ensp;</p>","-","viewing","0","30","9B","","","","","","","","","","","","","","","","","",""
"","","","","","html-slider-response","41","193503","0.0-17.0-1.8","eae06661-078d-4d13-b3a9-c58946dbae87","2667","
                  <p style=""text-align: center;"">₪79
                                                <br>40%</p>
                  <p id=""wtp"" style=""text-align:center; margin-top: 0px; margin-bottom: 0px; font-size: 40px"";>מוכנים לשלם: <span id=""c_p_y""></span></p>","34","evaluation","55","30","9B","40","79","34","","","","","","","","","","","","","","",""
"","","","","","html-keyboard-response","42","194675","0.0-17.0-2.8","eae06661-078d-4d13-b3a9-c58946dbae87","null","<p style=""text-align: center;"">+</p>","null","fixation","","","","","","","","","","","","","","","","","","","","",""
"","","","","","html-slider-response","43","195677","0.0-17.0-0.9","eae06661-078d-4d13-b3a9-c58946dbae87","1000","
                  <p style=""text-align: center;"">₪36
                                                <br>60%</p>
                  <p id=""wtp"" style=""text-align:center; margin-top: 0px; margin-bottom: 0px; font-size: 40px"";>&ensp;</p>","-","viewing","0","12","1C,7C,15C","","","","","","","","","","","","","","","","","",""
"","","","","","html-slider-response","44","199279","0.0-17.0-1.9","eae06661-078d-4d13-b3a9-c58946dbae87","3601","
                  <p style=""text-align: center;"">₪36
                                                <br>60%</p>
                  <p id=""wtp"" style=""text-align:center; margin-top: 0px; margin-bottom: 0px; font-size: 40px"";>מוכנים לשלם: <span id=""c_p_y""></span></p>","24","evaluation","28","12","1C,7C,15C","60","36","24","","","","","","","","","","","","","","",""
"","","","","","html-keyboard-response","45","200438","0.0-17.0-2.9","eae06661-078d-4d13-b3a9-c58946dbae87","null","<p style=""text-align: center;"">+</p>","null","fixation","","","","","","","","","","","","","","","","","","","","",""
"","","","","","html-slider-response","46","201440","0.0-17.0-0.10","eae06661-078d-4d13-b3a9-c58946dbae87","1000","
                  <p style=""text-align: center;"">₪43
                                                <br>75%</p>
                  <p id=""wtp"" style=""text-align:center; margin-top: 0px; margin-bottom: 0px; font-size: 40px"";>&ensp;</p>","-","viewing","0","18","11B,19B,24A,26A","","","","","","","","","","","","","","","","","",""
"","","","","","html-slider-response","47","204479","0.0-17.0-1.10","eae06661-078d-4d13-b3a9-c58946dbae87","3038","
                  <p style=""text-align: center;"">₪43
                                                <br>75%</p>
                  <p id=""wtp"" style=""text-align:center; margin-top: 0px; margin-bottom: 0px; font-size: 40px"";>מוכנים לשלם: <span id=""c_p_y""></span></p>","25","evaluation","5","18","11B,19B,24A,26A","75","43","25","","","","","","","","","","","","","","",""
"","","","","","html-keyboard-response","48","205031","0.0-17.0-2.10","eae06661-078d-4d13-b3a9-c58946dbae87","null","<p style=""text-align: center;"">+</p>","null","fixation","","","","","","","","","","","","","","","","","","","","",""
"","","","","","html-slider-response","49","206043","0.0-17.0-0.11","eae06661-078d-4d13-b3a9-c58946dbae87","1000","
                  <p style=""text-align: center;"">₪43
                                                <br>60%</p>
                  <p id=""wtp"" style=""text-align:center; margin-top: 0px; margin-bottom: 0px; font-size: 40px"";>&ensp;</p>","-","viewing","0","17","2A,7A,9A,15B","","","","","","","","","","","","","","","","","",""
"","","","","","html-slider-response","50","209039","0.0-17.0-1.11","eae06661-078d-4d13-b3a9-c58946dbae87","2995","
                  <p style=""text-align: center;"">₪43
                                                <br>60%</p>
                  <p id=""wtp"" style=""text-align:center; margin-top: 0px; margin-bottom: 0px; font-size: 40px"";>מוכנים לשלם: <span id=""c_p_y""></span></p>","35","evaluation","7","17","2A,7A,9A,15B","60","43","35","","","","","","","","","","","","","","",""
"","","","","","html-keyboard-response","51","210181","0.0-17.0-2.11","eae06661-078d-4d13-b3a9-c58946dbae87","null","<p style=""text-align: center;"">+</p>","null","fixation","","","","","","","","","","","","","","","","","","","","",""
"","","","","","html-slider-response","52","211183","0.0-17.0-0.12","eae06661-078d-4d13-b3a9-c58946dbae87","1000","
                  <p style=""text-align: center;"">₪61
                                                <br>45%</p>
                  <p id=""wtp"" style=""text-align:center; margin-top: 0px; margin-bottom: 0px; font-size: 40px"";>&ensp;</p>","-","viewing","0","22","10A,11A","","","","","","","","","","","","","","","","","",""
"","","","","","html-slider-response","53","213863","0.0-17.0-1.12","eae06661-078d-4d13-b3a9-c58946dbae87","2679","
                  <p style=""text-align: center;"">₪61
                                                <br>45%</p>
                  <p id=""wtp"" style=""text-align:center; margin-top: 0px; margin-bottom: 0px; font-size: 40px"";>מוכנים לשלם: <span id=""c_p_y""></span></p>","45","evaluation","38","22","10A,11A","45","61","45","","","","","","","","","","","","","","",""
"","","","","","html-keyboard-response","54","214942","0.0-17.0-2.12","eae06661-078d-4d13-b3a9-c58946dbae87","null","<p style=""text-align: center;"">+</p>","null","fixation","","","","","","","","","","","","","","","","","","","","",""
"","","","","","html-slider-response","55","215944","0.0-17.0-0.13","eae06661-078d-4d13-b3a9-c58946dbae87","1000","
                  <p style=""text-align: center;"">₪16
                                                <br>20%</p>
                  <p id=""wtp"" style=""text-align:center; margin-top: 0px; margin-bottom: 0px; font-size: 40px"";>&ensp;</p>","-","viewing","0","8","14C,17A,20C,27A","","","","","","","","","","","","","","","","","",""
"","","","","","html-slider-response","56","217191","0.0-17.0-1.13","eae06661-078d-4d13-b3a9-c58946dbae87","1247","
                  <p style=""text-align: center;"">₪16
                                                <br>20%</p>
                  <p id=""wtp"" style=""text-align:center; margin-top: 0px; margin-bottom: 0px; font-size: 40px"";>מוכנים לשלם: <span id=""c_p_y""></span></p>","2","evaluation","57","8","14C,17A,20C,27A","20","16","3","","","","","","","","","","","","","","",""
"","","","","","html-keyboard-response","57","218477","0.0-17.0-2.13","eae06661-078d-4d13-b3a9-c58946dbae87","null","<p style=""text-align: center;"">+</p>","null","fixation","","","","","","","","","","","","","","","","","","","","",""
"","","","","","html-slider-response","58","219479","0.0-17.0-0.14","eae06661-078d-4d13-b3a9-c58946dbae87","1000","
                  <p style=""text-align: center;"">₪39
                                                <br>65%</p>
                  <p id=""wtp"" style=""text-align:center; margin-top: 0px; margin-bottom: 0px; font-size: 40px"";>&ensp;</p>","-","viewing","0","16","1A,15A,26C","","","","","","","","","","","","","","","","","",""
"","","","","","html-slider-response","59","223493","0.0-17.0-1.14","eae06661-078d-4d13-b3a9-c58946dbae87","null","
                  <p style=""text-align: center;"">₪39
                                                <br>65%</p>
                  <p id=""wtp"" style=""text-align:center; margin-top: 0px; margin-bottom: 0px; font-size: 40px"";>מוכנים לשלם: <span id=""c_p_y""></span></p>","null","evaluation","62","16","1A,15A,26C","65","39","38","","","","","","","","","","","","","","",""
"","","","","","html-keyboard-response","60","224520","0.0-17.0-2.14","eae06661-078d-4d13-b3a9-c58946dbae87","null","<p style=""text-align: center;"">+</p>","null","fixation","","","","","","","","","","","","","","","","","","","","",""
"","","","","","html-slider-response","61","225537","0.0-17.0-0.15","eae06661-078d-4d13-b3a9-c58946dbae87","1000","
                  <p style=""text-align: center;"">₪36
                                                <br>30%</p>
                  <p id=""wtp"" style=""text-align:center; margin-top: 0px; margin-bottom: 0px; font-size: 40px"";>&ensp;</p>","-","viewing","0","11","3C,20A,22A","","","","","","","","","","","","","","","","","",""
"","","","","","html-slider-response","62","227335","0.0-17.0-1.15","eae06661-078d-4d13-b3a9-c58946dbae87","1797","
                  <p style=""text-align: center;"">₪36
                                                <br>30%</p>
                  <p id=""wtp"" style=""text-align:center; margin-top: 0px; margin-bottom: 0px; font-size: 40px"";>מוכנים לשלם: <span id=""c_p_y""></span></p>","20","evaluation","7","11","3C,20A,22A","30","36","20","","","","","","","","","","","","","","",""
"","","","","","html-keyboard-response","63","228368","0.0-17.0-2.15","eae06661-078d-4d13-b3a9-c58946dbae87","null","<p style=""text-align: center;"">+</p>","null","fixation","","","","","","","","","","","","","","","","","","","","",""
"","","","","","html-slider-response","64","229370","0.0-17.0-0.16","eae06661-078d-4d13-b3a9-c58946dbae87","1000","
                  <p style=""text-align: center;"">₪79
                                                <br>65%</p>
                  <p id=""wtp"" style=""text-align:center; margin-top: 0px; margin-bottom: 0px; font-size: 40px"";>&ensp;</p>","-","viewing","0","31","8A","","","","","","","","","","","","","","","","","",""
"","","","","","html-slider-response","65","231223","0.0-17.0-1.16","eae06661-078d-4d13-b3a9-c58946dbae87","1852","
                  <p style=""text-align: center;"">₪79
                                                <br>65%</p>
                  <p id=""wtp"" style=""text-align:center; margin-top: 0px; margin-bottom: 0px; font-size: 40px"";>מוכנים לשלם: <span id=""c_p_y""></span></p>","51","evaluation","58","31","8A","65","79","51","","","","","","","","","","","","","","",""
"","","","","","html-keyboard-response","66","232250","0.0-17.0-2.16","eae06661-078d-4d13-b3a9-c58946dbae87","null","<p style=""text-align: center;"">+</p>","null","fixation","","","","","","","","","","","","","","","","","","","","",""
"","","","","","html-slider-response","67","233264","0.0-17.0-0.17","eae06661-078d-4d13-b3a9-c58946dbae87","1000","
                  <p style=""text-align: center;"">₪36
                                                <br>75%</p>
                  <p id=""wtp"" style=""text-align:center; margin-top: 0px; margin-bottom: 0px; font-size: 40px"";>&ensp;</p>","-","viewing","0","14","4B,5A,13B,16B","","","","","","","","","","","","","","","","","",""
"","","","","","html-slider-response","68","235823","0.0-17.0-1.17","eae06661-078d-4d13-b3a9-c58946dbae87","2558","
                  <p style=""text-align: center;"">₪36
                                                <br>75%</p>
                  <p id=""wtp"" style=""text-align:center; margin-top: 0px; margin-bottom: 0px; font-size: 40px"";>מוכנים לשלם: <span id=""c_p_y""></span></p>","31","evaluation","47","14","4B,5A,13B,16B","75","36","31","","","","","","","","","","","","","","",""
"","","","","","html-keyboard-response","69","236334","0.0-17.0-2.17","eae06661-078d-4d13-b3a9-c58946dbae87","null","<p style=""text-align: center;"">+</p>","null","fixation","","","","","","","","","","","","","","","","","","","","",""
"","","","","","html-slider-response","70","237336","0.0-17.0-0.18","eae06661-078d-4d13-b3a9-c58946dbae87","1000","
                  <p style=""text-align: center;"">₪61
                                                <br>55%</p>
                  <p id=""wtp"" style=""text-align:center; margin-top: 0px; margin-bottom: 0px; font-size: 40px"";>&ensp;</p>","-","viewing","0","23","7B,26B","","","","","","","","","","","","","","","","","",""
"","","","","","html-slider-response","71","239432","0.0-17.0-1.18","eae06661-078d-4d13-b3a9-c58946dbae87","2094","
                  <p style=""text-align: center;"">₪61
                                                <br>55%</p>
                  <p id=""wtp"" style=""text-align:center; margin-top: 0px; margin-bottom: 0px; font-size: 40px"";>מוכנים לשלם: <span id=""c_p_y""></span></p>","42","evaluation","47","23","7B,26B","55","61","42","","","","","","","","","","","","","","",""
"","","","","","html-keyboard-response","72","240308","0.0-17.0-2.18","eae06661-078d-4d13-b3a9-c58946dbae87","null","<p style=""text-align: center;"">+</p>","null","fixation","","","","","","","","","","","","","","","","","","","","",""
"","","","","","html-slider-response","73","241319","0.0-17.0-0.19","eae06661-078d-4d13-b3a9-c58946dbae87","1000","
                  <p style=""text-align: center;"">₪11
                                                <br>45%</p>
                  <p id=""wtp"" style=""text-align:center; margin-top: 0px; margin-bottom: 0px; font-size: 40px"";>&ensp;</p>","-","viewing","0","6","14B,21C,25C","","","","","","","","","","","","","","","","","",""
"","","","","","html-slider-response","74","242928","0.0-17.0-1.19","eae06661-078d-4d13-b3a9-c58946dbae87","1607","
                  <p style=""text-align: center;"">₪11
                                                <br>45%</p>
                  <p id=""wtp"" style=""text-align:center; margin-top: 0px; margin-bottom: 0px; font-size: 40px"";>מוכנים לשלם: <span id=""c_p_y""></span></p>","9","evaluation","74","6","14B,21C,25C","45","11","10","","","","","","","","","","","","","","",""
"","","","","","html-keyboard-response","75","244284","0.0-17.0-2.19","eae06661-078d-4d13-b3a9-c58946dbae87","null","<p style=""text-align: center;"">+</p>","null","fixation","","","","","","","","","","","","","","","","","","","","",""
"","","","","","html-slider-response","76","245285","0.0-17.0-0.20","eae06661-078d-4d13-b3a9-c58946dbae87","1000","
                  <p style=""text-align: center;"">₪71
                                                <br>75%</p>
                  <p id=""wtp"" style=""text-align:center; margin-top: 0px; margin-bottom: 0px; font-size: 40px"";>&ensp;</p>","-","viewing","0","28","8B","","","","","","","","","","","","","","","","","",""
"","","","","","html-slider-response","77","247600","0.0-17.0-1.20","eae06661-078d-4d13-b3a9-c58946dbae87","2314","
                  <p style=""text-align: center;"">₪71
                                                <br>75%</p>
                  <p id=""wtp"" style=""text-align:center; margin-top: 0px; margin-bottom: 0px; font-size: 40px"";>מוכנים לשלם: <span id=""c_p_y""></span></p>","30","evaluation","30","28","8B","75","71","30","","","","","","","","","","","","","","",""
"","","","","","html-keyboard-response","78","249029","0.0-17.0-2.20","eae06661-078d-4d13-b3a9-c58946dbae87","null","<p style=""text-align: center;"">+</p>","null","fixation","","","","","","","","","","","","","","","","","","","","",""
"","","","","","html-slider-response","79","250035","0.0-17.0-0.21","eae06661-078d-4d13-b3a9-c58946dbae87","1000","
                  <p style=""text-align: center;"">₪11
                                                <br>25%</p>
                  <p id=""wtp"" style=""text-align:center; margin-top: 0px; margin-bottom: 0px; font-size: 40px"";>&ensp;</p>","-","viewing","0","5","12A,27B,28B,30B","","","","","","","","","","","","","","","","","",""
"","","","","","html-slider-response","80","252920","0.0-17.0-1.21","eae06661-078d-4d13-b3a9-c58946dbae87","2884","
                  <p style=""text-align: center;"">₪11
                                                <br>25%</p>
                  <p id=""wtp"" style=""text-align:center; margin-top: 0px; margin-bottom: 0px; font-size: 40px"";>מוכנים לשלם: <span id=""c_p_y""></span></p>","5","evaluation","11","5","12A,27B,28B,30B","25","11","6","","","","","","","","","","","","","","",""
"","","","","","html-keyboard-response","81","253612","0.0-17.0-2.21","eae06661-078d-4d13-b3a9-c58946dbae87","null","<p style=""text-align: center;"">+</p>","null","fixation","","","","","","","","","","","","","","","","","","","","",""
"","","","","","html-slider-response","82","254614","0.0-17.0-0.22","eae06661-078d-4d13-b3a9-c58946dbae87","1000","
                  <p style=""text-align: center;"">₪71
                                                <br>45%</p>
                  <p id=""wtp"" style=""text-align:center; margin-top: 0px; margin-bottom: 0px; font-size: 40px"";>&ensp;</p>","-","viewing","0","26","2B,16A","","","","","","","","","","","","","","","","","",""
"","","","","","html-slider-response","83","256848","0.0-17.0-1.22","eae06661-078d-4d13-b3a9-c58946dbae87","2233","
                  <p style=""text-align: center;"">₪71
                                                <br>45%</p>
                  <p id=""wtp"" style=""text-align:center; margin-top: 0px; margin-bottom: 0px; font-size: 40px"";>מוכנים לשלם: <span id=""c_p_y""></span></p>","49","evaluation","11","26","2B,16A","45","71","49","","","","","","","","","","","","","","",""
"","","","","","html-keyboard-response","84","257601","0.0-17.0-2.22","eae06661-078d-4d13-b3a9-c58946dbae87","null","<p style=""text-align: center;"">+</p>","null","fixation","","","","","","","","","","","","","","","","","","","","",""
"","","","","","html-slider-response","85","258603","0.0-17.0-0.23","eae06661-078d-4d13-b3a9-c58946dbae87","1000","
                  <p style=""text-align: center;"">₪64
                                                <br>25%</p>
                  <p id=""wtp"" style=""text-align:center; margin-top: 0px; margin-bottom: 0px; font-size: 40px"";>&ensp;</p>","-","viewing","0","24","6A,21A","","","","","","","","","","","","","","","","","",""
"","","","","","html-slider-response","86","260672","0.0-17.0-1.23","eae06661-078d-4d13-b3a9-c58946dbae87","2068","
                  <p style=""text-align: center;"">₪64
                                                <br>25%</p>
                  <p id=""wtp"" style=""text-align:center; margin-top: 0px; margin-bottom: 0px; font-size: 40px"";>מוכנים לשלם: <span id=""c_p_y""></span></p>","11","evaluation","15","24","6A,21A","25","64","12","","","","","","","","","","","","","","",""
"","","","","","html-keyboard-response","87","261662","0.0-17.0-2.23","eae06661-078d-4d13-b3a9-c58946dbae87","null","<p style=""text-align: center;"">+</p>","null","fixation","","","","","","","","","","","","","","","","","","","","",""
"","","","","","html-slider-response","88","262670","0.0-17.0-0.24","eae06661-078d-4d13-b3a9-c58946dbae87","1000","
                  <p style=""text-align: center;"">₪39
                                                <br>60%</p>
                  <p id=""wtp"" style=""text-align:center; margin-top: 0px; margin-bottom: 0px; font-size: 40px"";>&ensp;</p>","-","viewing","0","15","9C,25B","","","","","","","","","","","","","","","","","",""
"","","","","","html-slider-response","89","264816","0.0-17.0-1.24","eae06661-078d-4d13-b3a9-c58946dbae87","2145","
                  <p style=""text-align: center;"">₪39
                                                <br>60%</p>
                  <p id=""wtp"" style=""text-align:center; margin-top: 0px; margin-bottom: 0px; font-size: 40px"";>מוכנים לשלם: <span id=""c_p_y""></span></p>","30","evaluation","33","15","9C,25B","60","39","30","","","","","","","","","","","","","","",""
"","","","","","html-keyboard-response","90","266294","0.0-17.0-2.24","eae06661-078d-4d13-b3a9-c58946dbae87","null","<p style=""text-align: center;"">+</p>","null","fixation","","","","","","","","","","","","","","","","","","","","",""
"","","","","","html-slider-response","91","267303","0.0-17.0-0.25","eae06661-078d-4d13-b3a9-c58946dbae87","1000","
                  <p style=""text-align: center;"">₪58
                                                <br>45%</p>
                  <p id=""wtp"" style=""text-align:center; margin-top: 0px; margin-bottom: 0px; font-size: 40px"";>&ensp;</p>","-","viewing","0","21","11C,18C,25A","","","","","","","","","","","","","","","","","",""
"","","","","","html-slider-response","92","269104","0.0-17.0-1.25","eae06661-078d-4d13-b3a9-c58946dbae87","1800","
                  <p style=""text-align: center;"">₪58
                                                <br>45%</p>
                  <p id=""wtp"" style=""text-align:center; margin-top: 0px; margin-bottom: 0px; font-size: 40px"";>מוכנים לשלם: <span id=""c_p_y""></span></p>","33","evaluation","66","21","11C,18C,25A","45","58","33","","","","","","","","","","","","","","",""
"","","","","","html-keyboard-response","93","270441","0.0-17.0-2.25","eae06661-078d-4d13-b3a9-c58946dbae87","null","<p style=""text-align: center;"">+</p>","null","fixation","","","","","","","","","","","","","","","","","","","","",""
"","","","","","html-slider-response","94","271454","0.0-17.0-0.26","eae06661-078d-4d13-b3a9-c58946dbae87","1000","
                  <p style=""text-align: center;"">₪4
                                                <br>25%</p>
                  <p id=""wtp"" style=""text-align:center; margin-top: 0px; margin-bottom: 0px; font-size: 40px"";>&ensp;</p>","-","viewing","0","1","6C,29B,30C","","","","","","","","","","","","","","","","","",""
"","","","","","html-slider-response","95","273568","0.0-17.0-1.26","eae06661-078d-4d13-b3a9-c58946dbae87","2113","
                  <p style=""text-align: center;"">₪4
                                                <br>25%</p>
                  <p id=""wtp"" style=""text-align:center; margin-top: 0px; margin-bottom: 0px; font-size: 40px"";>מוכנים לשלם: <span id=""c_p_y""></span></p>","3","evaluation","52","1","6C,29B,30C","25","4","4","","","","","","","","","","","","","","",""
"","","","","","html-keyboard-response","96","274630","0.0-17.0-2.26","eae06661-078d-4d13-b3a9-c58946dbae87","null","<p style=""text-align: center;"">+</p>","null","fixation","","","","","","","","","","","","","","","","","","","","",""
"","","","","","html-slider-response","97","275632","0.0-17.0-0.27","eae06661-078d-4d13-b3a9-c58946dbae87","1000","
                  <p style=""text-align: center;"">₪58
                                                <br>40%</p>
                  <p id=""wtp"" style=""text-align:center; margin-top: 0px; margin-bottom: 0px; font-size: 40px"";>&ensp;</p>","-","viewing","0","20","10C,13A,19C,21B","","","","","","","","","","","","","","","","","",""
"","","","","","html-slider-response","98","277976","0.0-17.0-1.27","eae06661-078d-4d13-b3a9-c58946dbae87","2343","
                  <p style=""text-align: center;"">₪58
                                                <br>40%</p>
                  <p id=""wtp"" style=""text-align:center; margin-top: 0px; margin-bottom: 0px; font-size: 40px"";>מוכנים לשלם: <span id=""c_p_y""></span></p>","30","evaluation","42","20","10C,13A,19C,21B","40","58","30","","","","","","","","","","","","","","",""
"","","","","","html-keyboard-response","99","279094","0.0-17.0-2.27","eae06661-078d-4d13-b3a9-c58946dbae87","null","<p style=""text-align: center;"">+</p>","null","fixation","","","","","","","","","","","","","","","","","","","","",""
"","","","","","html-slider-response","100","280097","0.0-17.0-0.28","eae06661-078d-4d13-b3a9-c58946dbae87","1000","
                  <p style=""text-align: center;"">₪18
                                                <br>25%</p>
                  <p id=""wtp"" style=""text-align:center; margin-top: 0px; margin-bottom: 0px; font-size: 40px"";>&ensp;</p>","-","viewing","0","9","14A,23A","","","","","","","","","","","","","","","","","",""
"","","","","","html-slider-response","101","282040","0.0-17.0-1.28","eae06661-078d-4d13-b3a9-c58946dbae87","1942","
                  <p style=""text-align: center;"">₪18
                                                <br>25%</p>
                  <p id=""wtp"" style=""text-align:center; margin-top: 0px; margin-bottom: 0px; font-size: 40px"";>מוכנים לשלם: <span id=""c_p_y""></span></p>","9","evaluation","66","9","14A,23A","25","18","9","","","","","","","","","","","","","","",""
"","","","","","html-keyboard-response","102","283514","0.0-17.0-2.28","eae06661-078d-4d13-b3a9-c58946dbae87","null","<p style=""text-align: center;"">+</p>","null","fixation","","","","","","","","","","","","","","","","","","","","",""
"","","","","","html-slider-response","103","284521","0.0-17.0-0.29","eae06661-078d-4d13-b3a9-c58946dbae87","1000","
                  <p style=""text-align: center;"">₪4
                                                <br>50%</p>
                  <p id=""wtp"" style=""text-align:center; margin-top: 0px; margin-bottom: 0px; font-size: 40px"";>&ensp;</p>","-","viewing","0","2","4C,17B","","","","","","","","","","","","","","","","","",""
"","","","","","html-slider-response","104","285984","0.0-17.0-1.29","eae06661-078d-4d13-b3a9-c58946dbae87","1462","
                  <p style=""text-align: center;"">₪4
                                                <br>50%</p>
                  <p id=""wtp"" style=""text-align:center; margin-top: 0px; margin-bottom: 0px; font-size: 40px"";>מוכנים לשלם: <span id=""c_p_y""></span></p>","2","evaluation","38","2","4C,17B","50","4","3","","","","","","","","","","","","","","",""
"","","","","","html-keyboard-response","105","286614","0.0-17.0-2.29","eae06661-078d-4d13-b3a9-c58946dbae87","null","<p style=""text-align: center;"">+</p>","null","fixation","","","","","","","","","","","","","","","","","","","","",""
"","","","","","html-slider-response","106","287616","0.0-17.0-0.30","eae06661-078d-4d13-b3a9-c58946dbae87","1000","
                  <p style=""text-align: center;"">₪71
                                                <br>55%</p>
                  <p id=""wtp"" style=""text-align:center; margin-top: 0px; margin-bottom: 0px; font-size: 40px"";>&ensp;</p>","-","viewing","0","27","5B,18A","","","","","","","","","","","","","","","","","",""
"","","","","","html-slider-response","107","290432","0.0-17.0-1.30","eae06661-078d-4d13-b3a9-c58946dbae87","2815","
                  <p style=""text-align: center;"">₪71
                                                <br>55%</p>
                  <p id=""wtp"" style=""text-align:center; margin-top: 0px; margin-bottom: 0px; font-size: 40px"";>מוכנים לשלם: <span id=""c_p_y""></span></p>","45","evaluation","6","27","5B,18A","55","71","45","","","","","","","","","","","","","","",""
"","","","","","html-keyboard-response","108","291416","0.0-17.0-2.30","eae06661-078d-4d13-b3a9-c58946dbae87","null","<p style=""text-align: center;"">+</p>","null","fixation","","","","","","","","","","","","","","","","","","","","",""
"","","","","","html-keyboard-response","109","292427","0.0-18.0","eae06661-078d-4d13-b3a9-c58946dbae87","null","<p style=""text-align: center;"">+</p>","null","fixation","","","","","","","","","","","","","","","","","","","","",""
"","","","","","html-keyboard-response","110","294848","0.0-19.0","eae06661-078d-4d13-b3a9-c58946dbae87","null","<p>הפסקה.
          <br>לחצו כדי להמשיך.</p>","1","scan_wait","","","","","","","","","","","","","","","","","","","","",""
"","","","","","html-keyboard-response","111","295850","0.0-20.0","eae06661-078d-4d13-b3a9-c58946dbae87","null","<p style=""text-align: center;"">+</p>","null","fixation","","","","","","","","","","","","","","","","","","","","",""
"","","","","","html-slider-response","112","296852","0.0-21.0-0.0","eae06661-078d-4d13-b3a9-c58946dbae87","1000","
                  <p style=""text-align: center;"">₪58
                                                <br>40%</p>
                  <p id=""wtp"" style=""text-align:center; margin-top: 0px; margin-bottom: 0px; font-size: 40px"";>&ensp;</p>","-","viewing","0","20","10C,13A,19C,21B","","","","","","","","","","","","","","","","","",""
"","","","","","html-slider-response","113","299007","0.0-21.0-1.0","eae06661-078d-4d13-b3a9-c58946dbae87","2155","
                  <p style=""text-align: center;"">₪58
                                                <br>40%</p>
                  <p id=""wtp"" style=""text-align:center; margin-top: 0px; margin-bottom: 0px; font-size: 40px"";>מוכנים לשלם: <span id=""c_p_y""></span></p>","36","evaluation","63","20","10C,13A,19C,21B","40","58","36","","","","","","","","","","","","","","",""
"","","","","","html-keyboard-response","114","299584","0.0-21.0-2.0","eae06661-078d-4d13-b3a9-c58946dbae87","null","<p style=""text-align: center;"">+</p>","null","fixation","","","","","","","","","","","","","","","","","","","","",""
"","","","","","html-slider-response","115","300585","0.0-21.0-0.1","eae06661-078d-4d13-b3a9-c58946dbae87","1000","
                  <p style=""text-align: center;"">₪61
                                                <br>55%</p>
                  <p id=""wtp"" style=""text-align:center; margin-top: 0px; margin-bottom: 0px; font-size: 40px"";>&ensp;</p>","-","viewing","0","23","7B,26B","","","","","","","","","","","","","","","","","",""
"","","","","","html-slider-response","116","302927","0.0-21.0-1.1","eae06661-078d-4d13-b3a9-c58946dbae87","2341","
                  <p style=""text-align: center;"">₪61
                                                <br>55%</p>
                  <p id=""wtp"" style=""text-align:center; margin-top: 0px; margin-bottom: 0px; font-size: 40px"";>מוכנים לשלם: <span id=""c_p_y""></span></p>","50","evaluation","33","23","7B,26B","55","61","50","","","","","","","","","","","","","","",""
"","","","","","html-keyboard-response","117","304090","0.0-21.0-2.1","eae06661-078d-4d13-b3a9-c58946dbae87","null","<p style=""text-align: center;"">+</p>","null","fixation","","","","","","","","","","","","","","","","","","","","",""
"","","","","","html-slider-response","118","305103","0.0-21.0-0.2","eae06661-078d-4d13-b3a9-c58946dbae87","1000","
                  <p style=""text-align: center;"">₪36
                                                <br>70%</p>
                  <p id=""wtp"" style=""text-align:center; margin-top: 0px; margin-bottom: 0px; font-size: 40px"";>&ensp;</p>","-","viewing","0","13","3A,5C,10B","","","","","","","","","","","","","","","","","",""
"","","","","","html-slider-response","119","306503","0.0-21.0-1.2","eae06661-078d-4d13-b3a9-c58946dbae87","1399","
                  <p style=""text-align: center;"">₪36
                                                <br>70%</p>
                  <p id=""wtp"" style=""text-align:center; margin-top: 0px; margin-bottom: 0px; font-size: 40px"";>מוכנים לשלם: <span id=""c_p_y""></span></p>","30","evaluation","66","13","3A,5C,10B","70","36","31","","","","","","","","","","","","","","",""
"","","","","","html-keyboard-response","120","307011","0.0-21.0-2.2","eae06661-078d-4d13-b3a9-c58946dbae87","null","<p style=""text-align: center;"">+</p>","null","fixation","","","","","","","","","","","","","","","","","","","","",""
"","","","","","html-slider-response","121","308012","0.0-21.0-0.3","eae06661-078d-4d13-b3a9-c58946dbae87","1000","
                  <p style=""text-align: center;"">₪58
                                                <br>30%</p>
                  <p id=""wtp"" style=""text-align:center; margin-top: 0px; margin-bottom: 0px; font-size: 40px"";>&ensp;</p>","-","viewing","0","19","13C,30A","","","","","","","","","","","","","","","","","",""
"","","","","","html-slider-response","122","309695","0.0-21.0-1.3","eae06661-078d-4d13-b3a9-c58946dbae87","1682","
                  <p style=""text-align: center;"">₪58
                                                <br>30%</p>
                  <p id=""wtp"" style=""text-align:center; margin-top: 0px; margin-bottom: 0px; font-size: 40px"";>מוכנים לשלם: <span id=""c_p_y""></span></p>","32","evaluation","9","19","13C,30A","30","58","32","","","","","","","","","","","","","","",""
"","","","","","html-keyboard-response","123","310900","0.0-21.0-2.3","eae06661-078d-4d13-b3a9-c58946dbae87","null","<p style=""text-align: center;"">+</p>","null","fixation","","","","","","","","","","","","","","","","","","","","",""
"","","","","","html-slider-response","124","311903","0.0-21.0-0.4","eae06661-078d-4d13-b3a9-c58946dbae87","1000","
                  <p style=""text-align: center;"">₪58
                                                <br>45%</p>
                  <p id=""wtp"" style=""text-align:center; margin-top: 0px; margin-bottom: 0px; font-size: 40px"";>&ensp;</p>","-","viewing","0","21","11C,18C,25A","","","","","","","","","","","","","","","","","",""
"","","","","","html-slider-response","125","313935","0.0-21.0-1.4","eae06661-078d-4d13-b3a9-c58946dbae87","2031","
                  <p style=""text-align: center;"">₪58
                                                <br>45%</p>
                  <p id=""wtp"" style=""text-align:center; margin-top: 0px; margin-bottom: 0px; font-size: 40px"";>מוכנים לשלם: <span id=""c_p_y""></span></p>","33","evaluation","11","21","11C,18C,25A","45","58","33","","","","","","","","","","","","","","",""
"","","","","","html-keyboard-response","126","314658","0.0-21.0-2.4","eae06661-078d-4d13-b3a9-c58946dbae87","null","<p style=""text-align: center;"">+</p>","null","fixation","","","","","","","","","","","","","","","","","","","","",""
"","","","","","html-slider-response","127","315659","0.0-21.0-0.5","eae06661-078d-4d13-b3a9-c58946dbae87","1000","
                  <p style=""text-align: center;"">₪39
                                                <br>60%</p>
                  <p id=""wtp"" style=""text-align:center; margin-top: 0px; margin-bottom: 0px; font-size: 40px"";>&ensp;</p>","-","viewing","0","15","9C,25B","","","","","","","","","","","","","","","","","",""
"","","","","","html-slider-response","128","317599","0.0-21.0-1.5","eae06661-078d-4d13-b3a9-c58946dbae87","1939","
                  <p style=""text-align: center;"">₪39
                                                <br>60%</p>
                  <p id=""wtp"" style=""text-align:center; margin-top: 0px; margin-bottom: 0px; font-size: 40px"";>מוכנים לשלם: <span id=""c_p_y""></span></p>","32","evaluation","65","15","9C,25B","60","39","32","","","","","","","","","","","","","","",""
"","","","","","html-keyboard-response","129","318834","0.0-21.0-2.5","eae06661-078d-4d13-b3a9-c58946dbae87","null","<p style=""text-align: center;"">+</p>","null","fixation","","","","","","","","","","","","","","","","","","","","",""
"","","","","","html-slider-response","130","319837","0.0-21.0-0.6","eae06661-078d-4d13-b3a9-c58946dbae87","1000","
                  <p style=""text-align: center;"">₪36
                                                <br>30%</p>
                  <p id=""wtp"" style=""text-align:center; margin-top: 0px; margin-bottom: 0px; font-size: 40px"";>&ensp;</p>","-","viewing","0","11","3C,20A,22A","","","","","","","","","","","","","","","","","",""
"","","","","","html-slider-response","131","322023","0.0-21.0-1.6","eae06661-078d-4d13-b3a9-c58946dbae87","2185","
                  <p style=""text-align: center;"">₪36
                                                <br>30%</p>
                  <p id=""wtp"" style=""text-align:center; margin-top: 0px; margin-bottom: 0px; font-size: 40px"";>מוכנים לשלם: <span id=""c_p_y""></span></p>","22","evaluation","28","11","3C,20A,22A","30","36","23","","","","","","","","","","","","","","",""
"","","","","","html-keyboard-response","132","323406","0.0-21.0-2.6","eae06661-078d-4d13-b3a9-c58946dbae87","null","<p style=""text-align: center;"">+</p>","null","fixation","","","","","","","","","","","","","","","","","","","","",""
"","","","","","html-slider-response","133","324407","0.0-21.0-0.7","eae06661-078d-4d13-b3a9-c58946dbae87","1000","
                  <p style=""text-align: center;"">₪18
                                                <br>50%</p>
                  <p id=""wtp"" style=""text-align:center; margin-top: 0px; margin-bottom: 0px; font-size: 40px"";>&ensp;</p>","-","viewing","0","10","2C,16C,22B,28A","","","","","","","","","","","","","","","","","",""
"","","","","","html-slider-response","134","325655","0.0-21.0-1.7","eae06661-078d-4d13-b3a9-c58946dbae87","1248","
                  <p style=""text-align: center;"">₪18
                                                <br>50%</p>
                  <p id=""wtp"" style=""text-align:center; margin-top: 0px; margin-bottom: 0px; font-size: 40px"";>מוכנים לשלם: <span id=""c_p_y""></span></p>","10","evaluation","57","10","2C,16C,22B,28A","50","18","10","","","","","","","","","","","","","","",""
"","","","","","html-keyboard-response","135","327151","0.0-21.0-2.7","eae06661-078d-4d13-b3a9-c58946dbae87","null","<p style=""text-align: center;"">+</p>","null","fixation","","","","","","","","","","","","","","","","","","","","",""
"","","","","","html-slider-response","136","328153","0.0-21.0-0.8","eae06661-078d-4d13-b3a9-c58946dbae87","1000","
                  <p style=""text-align: center;"">₪61
                                                <br>45%</p>
                  <p id=""wtp"" style=""text-align:center; margin-top: 0px; margin-bottom: 0px; font-size: 40px"";>&ensp;</p>","-","viewing","0","22","10A,11A","","","","","","","","","","","","","","","","","",""
"","","","","","html-slider-response","137","330431","0.0-21.0-1.8","eae06661-078d-4d13-b3a9-c58946dbae87","2277","
                  <p style=""text-align: center;"">₪61
                                                <br>45%</p>
                  <p id=""wtp"" style=""text-align:center; margin-top: 0px; margin-bottom: 0px; font-size: 40px"";>מוכנים לשלם: <span id=""c_p_y""></span></p>","45","evaluation","3","22","10A,11A","45","61","45","","","","","","","","","","","","","","",""
"","","","","","html-keyboard-response","138","331210","0.0-21.0-2.8","eae06661-078d-4d13-b3a9-c58946dbae87","null","<p style=""text-align: center;"">+</p>","null","fixation","","","","","","","","","","","","","","","","","","","","",""
"","","","","","html-slider-response","139","332212","0.0-21.0-0.9","eae06661-078d-4d13-b3a9-c58946dbae87","1000","
                  <p style=""text-align: center;"">₪43
                                                <br>75%</p>
                  <p id=""wtp"" style=""text-align:center; margin-top: 0px; margin-bottom: 0px; font-size: 40px"";>&ensp;</p>","-","viewing","0","18","11B,19B,24A,26A","","","","","","","","","","","","","","","","","",""
"","","","","","html-slider-response","140","334327","0.0-21.0-1.9","eae06661-078d-4d13-b3a9-c58946dbae87","2114","
                  <p style=""text-align: center;"">₪43
                                                <br>75%</p>
                  <p id=""wtp"" style=""text-align:center; margin-top: 0px; margin-bottom: 0px; font-size: 40px"";>מוכנים לשלם: <span id=""c_p_y""></span></p>","35","evaluation","51","18","11B,19B,24A,26A","75","43","35","","","","","","","","","","","","","","",""
"","","","","","html-keyboard-response","141","334849","0.0-21.0-2.9","eae06661-078d-4d13-b3a9-c58946dbae87","null","<p style=""text-align: center;"">+</p>","null","fixation","","","","","","","","","","","","","","","","","","","","",""
"","","","","","html-slider-response","142","335851","0.0-21.0-0.10","eae06661-078d-4d13-b3a9-c58946dbae87","1000","
                  <p style=""text-align: center;"">₪79
                                                <br>65%</p>
                  <p id=""wtp"" style=""text-align:center; margin-top: 0px; margin-bottom: 0px; font-size: 40px"";>&ensp;</p>","-","viewing","0","31","8A","","","","","","","","","","","","","","","","","",""
"","","","","","html-slider-response","143","338423","0.0-21.0-1.10","eae06661-078d-4d13-b3a9-c58946dbae87","2571","
                  <p style=""text-align: center;"">₪79
                                                <br>65%</p>
                  <p id=""wtp"" style=""text-align:center; margin-top: 0px; margin-bottom: 0px; font-size: 40px"";>מוכנים לשלם: <span id=""c_p_y""></span></p>","37","evaluation","66","31","8A","65","79","37","","","","","","","","","","","","","","",""
"","","","","","html-keyboard-response","144","339249","0.0-21.0-2.10","eae06661-078d-4d13-b3a9-c58946dbae87","null","<p style=""text-align: center;"">+</p>","null","fixation","","","","","","","","","","","","","","","","","","","","",""
"","","","","","html-slider-response","145","340251","0.0-21.0-0.11","eae06661-078d-4d13-b3a9-c58946dbae87","1000","
                  <p style=""text-align: center;"">₪64
                                                <br>50%</p>
                  <p id=""wtp"" style=""text-align:center; margin-top: 0px; margin-bottom: 0px; font-size: 40px"";>&ensp;</p>","-","viewing","0","25","1B,3B,4A","","","","","","","","","","","","","","","","","",""
"","","","","","html-slider-response","146","341615","0.0-21.0-1.11","eae06661-078d-4d13-b3a9-c58946dbae87","1363","
                  <p style=""text-align: center;"">₪64
                                                <br>50%</p>
                  <p id=""wtp"" style=""text-align:center; margin-top: 0px; margin-bottom: 0px; font-size: 40px"";>מוכנים לשלם: <span id=""c_p_y""></span></p>","56","evaluation","17","25","1B,3B,4A","50","64","56","","","","","","","","","","","","","","",""
"","","","","","html-keyboard-response","147","342816","0.0-21.0-2.11","eae06661-078d-4d13-b3a9-c58946dbae87","null","<p style=""text-align: center;"">+</p>","null","fixation","","","","","","","","","","","","","","","","","","","","",""
"","","","","","html-slider-response","148","343818","0.0-21.0-0.12","eae06661-078d-4d13-b3a9-c58946dbae87","1000","
                  <p style=""text-align: center;"">₪79
                                                <br>40%</p>
                  <p id=""wtp"" style=""text-align:center; margin-top: 0px; margin-bottom: 0px; font-size: 40px"";>&ensp;</p>","-","viewing","0","30","9B","","","","","","","","","","","","","","","","","",""
"","","","","","html-slider-response","149","345247","0.0-21.0-1.12","eae06661-078d-4d13-b3a9-c58946dbae87","1428","
                  <p style=""text-align: center;"">₪79
                                                <br>40%</p>
                  <p id=""wtp"" style=""text-align:center; margin-top: 0px; margin-bottom: 0px; font-size: 40px"";>מוכנים לשלם: <span id=""c_p_y""></span></p>","48","evaluation","52","30","9B","40","79","48","","","","","","","","","","","","","","",""
"","","","","","html-keyboard-response","150","346381","0.0-21.0-2.12","eae06661-078d-4d13-b3a9-c58946dbae87","null","<p style=""text-align: center;"">+</p>","null","fixation","","","","","","","","","","","","","","","","","","","","",""
"","","","","","html-slider-response","151","347383","0.0-21.0-0.13","eae06661-078d-4d13-b3a9-c58946dbae87","1000","
                  <p style=""text-align: center;"">₪11
                                                <br>45%</p>
                  <p id=""wtp"" style=""text-align:center; margin-top: 0px; margin-bottom: 0px; font-size: 40px"";>&ensp;</p>","-","viewing","0","6","14B,21C,25C","","","","","","","","","","","","","","","","","",""
"","","","","","html-slider-response","152","349663","0.0-21.0-1.13","eae06661-078d-4d13-b3a9-c58946dbae87","2279","
                  <p style=""text-align: center;"">₪11
                                                <br>45%</p>
                  <p id=""wtp"" style=""text-align:center; margin-top: 0px; margin-bottom: 0px; font-size: 40px"";>מוכנים לשלם: <span id=""c_p_y""></span></p>","7","evaluation","20","6","14B,21C,25C","45","11","7","","","","","","","","","","","","","","",""
"","","","","","html-keyboard-response","153","350466","0.0-21.0-2.13","eae06661-078d-4d13-b3a9-c58946dbae87","null","<p style=""text-align: center;"">+</p>","null","fixation","","","","","","","","","","","","","","","","","","","","",""
"","","","","","html-slider-response","154","351484","0.0-21.0-0.14","eae06661-078d-4d13-b3a9-c58946dbae87","1000","
                  <p style=""text-align: center;"">₪36
                                                <br>75%</p>
                  <p id=""wtp"" style=""text-align:center; margin-top: 0px; margin-bottom: 0px; font-size: 40px"";>&ensp;</p>","-","viewing","0","14","4B,5A,13B,16B","","","","","","","","","","","","","","","","","",""
"","","","","","html-slider-response","155","352831","0.0-21.0-1.14","eae06661-078d-4d13-b3a9-c58946dbae87","1346","
                  <p style=""text-align: center;"">₪36
                                                <br>75%</p>
                  <p id=""wtp"" style=""text-align:center; margin-top: 0px; margin-bottom: 0px; font-size: 40px"";>מוכנים לשלם: <span id=""c_p_y""></span></p>","31","evaluation","39","14","4B,5A,13B,16B","75","36","32","","","","","","","","","","","","","","",""
"","","","","","html-keyboard-response","156","353839","0.0-21.0-2.14","eae06661-078d-4d13-b3a9-c58946dbae87","null","<p style=""text-align: center;"">+</p>","null","fixation","","","","","","","","","","","","","","","","","","","","",""
"","","","","","html-slider-response","157","354849","0.0-21.0-0.15","eae06661-078d-4d13-b3a9-c58946dbae87","1000","
                  <p style=""text-align: center;"">₪71
                                                <br>55%</p>
                  <p id=""wtp"" style=""text-align:center; margin-top: 0px; margin-bottom: 0px; font-size: 40px"";>&ensp;</p>","-","viewing","0","27","5B,18A","","","","","","","","","","","","","","","","","",""
"","","","","","html-slider-response","158","357151","0.0-21.0-1.15","eae06661-078d-4d13-b3a9-c58946dbae87","2301","
                  <p style=""text-align: center;"">₪71
                                                <br>55%</p>
                  <p id=""wtp"" style=""text-align:center; margin-top: 0px; margin-bottom: 0px; font-size: 40px"";>מוכנים לשלם: <span id=""c_p_y""></span></p>","55","evaluation","59","27","5B,18A","55","71","54","","","","","","","","","","","","","","",""
"","","","","","html-keyboard-response","159","358265","0.0-21.0-2.15","eae06661-078d-4d13-b3a9-c58946dbae87","null","<p style=""text-align: center;"">+</p>","null","fixation","","","","","","","","","","","","","","","","","","","","",""
"","","","","","html-slider-response","160","359268","0.0-21.0-0.16","eae06661-078d-4d13-b3a9-c58946dbae87","1000","
                  <p style=""text-align: center;"">₪11
                                                <br>20%</p>
                  <p id=""wtp"" style=""text-align:center; margin-top: 0px; margin-bottom: 0px; font-size: 40px"";>&ensp;</p>","-","viewing","0","4","12C,17C,23C,28C","","","","","","","","","","","","","","","","","",""
"","","","","","html-slider-response","161","360552","0.0-21.0-1.16","eae06661-078d-4d13-b3a9-c58946dbae87","1283","
                  <p style=""text-align: center;"">₪11
                                                <br>20%</p>
                  <p id=""wtp"" style=""text-align:center; margin-top: 0px; margin-bottom: 0px; font-size: 40px"";>מוכנים לשלם: <span id=""c_p_y""></span></p>","5","evaluation","29","4","12C,17C,23C,28C","20","11","6","","","","","","","","","","","","","","",""
"","","","","","html-keyboard-response","162","361907","0.0-21.0-2.16","eae06661-078d-4d13-b3a9-c58946dbae87","null","<p style=""text-align: center;"">+</p>","null","fixation","","","","","","","","","","","","","","","","","","","","",""
"","","","","","html-slider-response","163","362921","0.0-21.0-0.17","eae06661-078d-4d13-b3a9-c58946dbae87","1000","
                  <p style=""text-align: center;"">₪11
                                                <br>75%</p>
                  <p id=""wtp"" style=""text-align:center; margin-top: 0px; margin-bottom: 0px; font-size: 40px"";>&ensp;</p>","-","viewing","0","7","6B,18B,22C,24C,29A","","","","","","","","","","","","","","","","","",""
"","","","","","html-slider-response","164","365368","0.0-21.0-1.17","eae06661-078d-4d13-b3a9-c58946dbae87","2446","
                  <p style=""text-align: center;"">₪11
                                                <br>75%</p>
                  <p id=""wtp"" style=""text-align:center; margin-top: 0px; margin-bottom: 0px; font-size: 40px"";>מוכנים לשלם: <span id=""c_p_y""></span></p>","9","evaluation","8","7","6B,18B,22C,24C,29A","75","11","9","","","","","","","","","","","","","","",""
"","","","","","html-keyboard-response","165","366278","0.0-21.0-2.17","eae06661-078d-4d13-b3a9-c58946dbae87","null","<p style=""text-align: center;"">+</p>","null","fixation","","","","","","","","","","","","","","","","","","","","",""
"","","","","","html-slider-response","166","367281","0.0-21.0-0.18","eae06661-078d-4d13-b3a9-c58946dbae87","1000","
                  <p style=""text-align: center;"">₪36
                                                <br>60%</p>
                  <p id=""wtp"" style=""text-align:center; margin-top: 0px; margin-bottom: 0px; font-size: 40px"";>&ensp;</p>","-","viewing","0","12","1C,7C,15C","","","","","","","","","","","","","","","","","",""
"","","","","","html-slider-response","167","368432","0.0-21.0-1.18","eae06661-078d-4d13-b3a9-c58946dbae87","1150","
                  <p style=""text-align: center;"">₪36
                                                <br>60%</p>
                  <p id=""wtp"" style=""text-align:center; margin-top: 0px; margin-bottom: 0px; font-size: 40px"";>מוכנים לשלם: <span id=""c_p_y""></span></p>","33","evaluation","44","12","1C,7C,15C","60","36","33","","","","","","","","","","","","","","",""
"","","","","","html-keyboard-response","168","369706","0.0-21.0-2.18","eae06661-078d-4d13-b3a9-c58946dbae87","null","<p style=""text-align: center;"">+</p>","null","fixation","","","","","","","","","","","","","","","","","","","","",""
"","","","","","html-slider-response","169","370709","0.0-21.0-0.19","eae06661-078d-4d13-b3a9-c58946dbae87","1000","
                  <p style=""text-align: center;"">₪71
                                                <br>45%</p>
                  <p id=""wtp"" style=""text-align:center; margin-top: 0px; margin-bottom: 0px; font-size: 40px"";>&ensp;</p>","-","viewing","0","26","2B,16A","","","","","","","","","","","","","","","","","",""
"","","","","","html-slider-response","170","372952","0.0-21.0-1.19","eae06661-078d-4d13-b3a9-c58946dbae87","2242","
                  <p style=""text-align: center;"">₪71
                                                <br>45%</p>
                  <p id=""wtp"" style=""text-align:center; margin-top: 0px; margin-bottom: 0px; font-size: 40px"";>מוכנים לשלם: <span id=""c_p_y""></span></p>","33","evaluation","65","26","2B,16A","45","71","33","","","","","","","","","","","","","","",""
"","","","","","html-keyboard-response","171","374447","0.0-21.0-2.19","eae06661-078d-4d13-b3a9-c58946dbae87","null","<p style=""text-align: center;"">+</p>","null","fixation","","","","","","","","","","","","","","","","","","","","",""
"","","","","","html-slider-response","172","375454","0.0-21.0-0.20","eae06661-078d-4d13-b3a9-c58946dbae87","1000","
                  <p style=""text-align: center;"">₪4
                                                <br>75%</p>
                  <p id=""wtp"" style=""text-align:center; margin-top: 0px; margin-bottom: 0px; font-size: 40px"";>&ensp;</p>","-","viewing","0","3","12B,20B,23B,27C,29C","","","","","","","","","","","","","","","","","",""
"","","","","","html-slider-response","173","376656","0.0-21.0-1.20","eae06661-078d-4d13-b3a9-c58946dbae87","1201","
                  <p style=""text-align: center;"">₪4
                                                <br>75%</p>
                  <p id=""wtp"" style=""text-align:center; margin-top: 0px; margin-bottom: 0px; font-size: 40px"";>מוכנים לשלם: <span id=""c_p_y""></span></p>","0","evaluation","15","3","12B,20B,23B,27C,29C","75","4","1","","","","","","","","","","","","","","",""
"","","","","","html-keyboard-response","174","377257","0.0-21.0-2.20","eae06661-078d-4d13-b3a9-c58946dbae87","null","<p style=""text-align: center;"">+</p>","null","fixation","","","","","","","","","","","","","","","","","","","","",""
"","","","","","html-slider-response","175","378265","0.0-21.0-0.21","eae06661-078d-4d13-b3a9-c58946dbae87","1000","
                  <p style=""text-align: center;"">₪43
                                                <br>60%</p>
                  <p id=""wtp"" style=""text-align:center; margin-top: 0px; margin-bottom: 0px; font-size: 40px"";>&ensp;</p>","-","viewing","0","17","2A,7A,9A,15B","","","","","","","","","","","","","","","","","",""
"","","","","","html-slider-response","176","381256","0.0-21.0-1.21","eae06661-078d-4d13-b3a9-c58946dbae87","2989","
                  <p style=""text-align: center;"">₪43
                                                <br>60%</p>
                  <p id=""wtp"" style=""text-align:center; margin-top: 0px; margin-bottom: 0px; font-size: 40px"";>מוכנים לשלם: <span id=""c_p_y""></span></p>","32","evaluation","16","17","2A,7A,9A,15B","60","43","32","","","","","","","","","","","","","","",""
"","","","","","html-keyboard-response","177","382383","0.0-21.0-2.21","eae06661-078d-4d13-b3a9-c58946dbae87","null","<p style=""text-align: center;"">+</p>","null","fixation","","","","","","","","","","","","","","","","","","","","",""
"","","","","","html-slider-response","178","383388","0.0-21.0-0.22","eae06661-078d-4d13-b3a9-c58946dbae87","1000","
                  <p style=""text-align: center;"">₪4
                                                <br>25%</p>
                  <p id=""wtp"" style=""text-align:center; margin-top: 0px; margin-bottom: 0px; font-size: 40px"";>&ensp;</p>","-","viewing","0","1","6C,29B,30C","","","","","","","","","","","","","","","","","",""
"","","","","","html-slider-response","179","384832","0.0-21.0-1.22","eae06661-078d-4d13-b3a9-c58946dbae87","1443","
                  <p style=""text-align: center;"">₪4
                                                <br>25%</p>
                  <p id=""wtp"" style=""text-align:center; margin-top: 0px; margin-bottom: 0px; font-size: 40px"";>מוכנים לשלם: <span id=""c_p_y""></span></p>","1","evaluation","60","1","6C,29B,30C","25","4","1","","","","","","","","","","","","","","",""
"","","","","","html-keyboard-response","180","385363","0.0-21.0-2.22","eae06661-078d-4d13-b3a9-c58946dbae87","null","<p style=""text-align: center;"">+</p>","null","fixation","","","","","","","","","","","","","","","","","","","","",""
"","","","","","html-slider-response","181","386365","0.0-21.0-0.23","eae06661-078d-4d13-b3a9-c58946dbae87","1000","
                  <p style=""text-align: center;"">₪16
                                                <br>20%</p>
                  <p id=""wtp"" style=""text-align:center; margin-top: 0px; margin-bottom: 0px; font-size: 40px"";>&ensp;</p>","-","viewing","0","8","14C,17A,20C,27A","","","","","","","","","","","","","","","","","",""
"","","","","","html-slider-response","182","387952","0.0-21.0-1.23","eae06661-078d-4d13-b3a9-c58946dbae87","1586","
                  <p style=""text-align: center;"">₪16
                                                <br>20%</p>
                  <p id=""wtp"" style=""text-align:center; margin-top: 0px; margin-bottom: 0px; font-size: 40px"";>מוכנים לשלם: <span id=""c_p_y""></span></p>","6","evaluation","41","8","14C,17A,20C,27A","20","16","6","","","","","","","","","","","","","","",""
"","","","","","html-keyboard-response","183","388733","0.0-21.0-2.23","eae06661-078d-4d13-b3a9-c58946dbae87","null","<p style=""text-align: center;"">+</p>","null","fixation","","","","","","","","","","","","","","","","","","","","",""
"","","","","","html-slider-response","184","389736","0.0-21.0-0.24","eae06661-078d-4d13-b3a9-c58946dbae87","1000","
                  <p style=""text-align: center;"">₪39
                                                <br>65%</p>
                  <p id=""wtp"" style=""text-align:center; margin-top: 0px; margin-bottom: 0px; font-size: 40px"";>&ensp;</p>","-","viewing","0","16","1A,15A,26C","","","","","","","","","","","","","","","","","",""
"","","","","","html-slider-response","185","392400","0.0-21.0-1.24","eae06661-078d-4d13-b3a9-c58946dbae87","2662","
                  <p style=""text-align: center;"">₪39
                                                <br>65%</p>
                  <p id=""wtp"" style=""text-align:center; margin-top: 0px; margin-bottom: 0px; font-size: 40px"";>מוכנים לשלם: <span id=""c_p_y""></span></p>","28","evaluation","60","16","1A,15A,26C","65","39","28","","","","","","","","","","","","","","",""
"","","","","","html-keyboard-response","186","393400","0.0-21.0-2.24","eae06661-078d-4d13-b3a9-c58946dbae87","null","<p style=""text-align: center;"">+</p>","null","fixation","","","","","","","","","","","","","","","","","","","","",""
"","","","","","html-slider-response","187","394413","0.0-21.0-0.25","eae06661-078d-4d13-b3a9-c58946dbae87","1000","
                  <p style=""text-align: center;"">₪76
                                                <br>65%</p>
                  <p id=""wtp"" style=""text-align:center; margin-top: 0px; margin-bottom: 0px; font-size: 40px"";>&ensp;</p>","-","viewing","0","29","8C,19A,24B","","","","","","","","","","","","","","","","","",""
"","","","","","html-slider-response","188","395528","0.0-21.0-1.25","eae06661-078d-4d13-b3a9-c58946dbae87","1113","
                  <p style=""text-align: center;"">₪76
                                                <br>65%</p>
                  <p id=""wtp"" style=""text-align:center; margin-top: 0px; margin-bottom: 0px; font-size: 40px"";>מוכנים לשלם: <span id=""c_p_y""></span></p>","51","evaluation","3","29","8C,19A,24B","65","76","50","","","","","","","","","","","","","","",""
"","","","","","html-keyboard-response","189","396677","0.0-21.0-2.25","eae06661-078d-4d13-b3a9-c58946dbae87","null","<p style=""text-align: center;"">+</p>","null","fixation","","","","","","","","","","","","","","","","","","","","",""
"","","","","","html-slider-response","190","397688","0.0-21.0-0.26","eae06661-078d-4d13-b3a9-c58946dbae87","1000","
                  <p style=""text-align: center;"">₪64
                                                <br>25%</p>
                  <p id=""wtp"" style=""text-align:center; margin-top: 0px; margin-bottom: 0px; font-size: 40px"";>&ensp;</p>","-","viewing","0","24","6A,21A","","","","","","","","","","","","","","","","","",""
"","","","","","html-slider-response","191","399441","0.0-21.0-1.26","eae06661-078d-4d13-b3a9-c58946dbae87","1752","
                  <p style=""text-align: center;"">₪64
                                                <br>25%</p>
                  <p id=""wtp"" style=""text-align:center; margin-top: 0px; margin-bottom: 0px; font-size: 40px"";>מוכנים לשלם: <span id=""c_p_y""></span></p>","21","evaluation","75","24","6A,21A","25","64","21","","","","","","","","","","","","","","",""
"","","","","","html-keyboard-response","192","400717","0.0-21.0-2.26","eae06661-078d-4d13-b3a9-c58946dbae87","null","<p style=""text-align: center;"">+</p>","null","fixation","","","","","","","","","","","","","","","","","","","","",""
"","","","","","html-slider-response","193","401720","0.0-21.0-0.27","eae06661-078d-4d13-b3a9-c58946dbae87","1000","
                  <p style=""text-align: center;"">₪11
                                                <br>25%</p>
                  <p id=""wtp"" style=""text-align:center; margin-top: 0px; margin-bottom: 0px; font-size: 40px"";>&ensp;</p>","-","viewing","0","5","12A,27B,28B,30B","","","","","","","","","","","","","","","","","",""
"","","","","","html-slider-response","194","403768","0.0-21.0-1.27","eae06661-078d-4d13-b3a9-c58946dbae87","2046","
                  <p style=""text-align: center;"">₪11
                                                <br>25%</p>
                  <p id=""wtp"" style=""text-align:center; margin-top: 0px; margin-bottom: 0px; font-size: 40px"";>מוכנים לשלם: <span id=""c_p_y""></span></p>","2","evaluation","80","5","12A,27B,28B,30B","25","11","3","","","","","","","","","","","","","","",""
"","","","","","html-keyboard-response","195","404271","0.0-21.0-2.27","eae06661-078d-4d13-b3a9-c58946dbae87","null","<p style=""text-align: center;"">+</p>","null","fixation","","","","","","","","","","","","","","","","","","","","",""
"","","","","","html-slider-response","196","405273","0.0-21.0-0.28","eae06661-078d-4d13-b3a9-c58946dbae87","1000","
                  <p style=""text-align: center;"">₪4
                                                <br>50%</p>
                  <p id=""wtp"" style=""text-align:center; margin-top: 0px; margin-bottom: 0px; font-size: 40px"";>&ensp;</p>","-","viewing","0","2","4C,17B","","","","","","","","","","","","","","","","","",""
"","","","","","html-slider-response","197","406344","0.0-21.0-1.28","eae06661-078d-4d13-b3a9-c58946dbae87","1070","
                  <p style=""text-align: center;"">₪4
                                                <br>50%</p>
                  <p id=""wtp"" style=""text-align:center; margin-top: 0px; margin-bottom: 0px; font-size: 40px"";>מוכנים לשלם: <span id=""c_p_y""></span></p>","2","evaluation","48","2","4C,17B","50","4","3","","","","","","","","","","","","","","",""
"","","","","","html-keyboard-response","198","407388","0.0-21.0-2.28","eae06661-078d-4d13-b3a9-c58946dbae87","null","<p style=""text-align: center;"">+</p>","null","fixation","","","","","","","","","","","","","","","","","","","","",""
"","","","","","html-slider-response","199","408395","0.0-21.0-0.29","eae06661-078d-4d13-b3a9-c58946dbae87","1000","
                  <p style=""text-align: center;"">₪18
                                                <br>25%</p>
                  <p id=""wtp"" style=""text-align:center; margin-top: 0px; margin-bottom: 0px; font-size: 40px"";>&ensp;</p>","-","viewing","0","9","14A,23A","","","","","","","","","","","","","","","","","",""
"","","","","","html-slider-response","200","410040","0.0-21.0-1.29","eae06661-078d-4d13-b3a9-c58946dbae87","1644","
                  <p style=""text-align: center;"">₪18
                                                <br>25%</p>
                  <p id=""wtp"" style=""text-align:center; margin-top: 0px; margin-bottom: 0px; font-size: 40px"";>מוכנים לשלם: <span id=""c_p_y""></span></p>","8","evaluation","17","9","14A,23A","25","18","8","","","","","","","","","","","","","","",""
"","","","","","html-keyboard-response","201","410571","0.0-21.0-2.29","eae06661-078d-4d13-b3a9-c58946dbae87","null","<p style=""text-align: center;"">+</p>","null","fixation","","","","","","","","","","","","","","","","","","","","",""
"","","","","","html-slider-response","202","411576","0.0-21.0-0.30","eae06661-078d-4d13-b3a9-c58946dbae87","1000","
                  <p style=""text-align: center;"">₪71
                                                <br>75%</p>
                  <p id=""wtp"" style=""text-align:center; margin-top: 0px; margin-bottom: 0px; font-size: 40px"";>&ensp;</p>","-","viewing","0","28","8B","","","","","","","","","","","","","","","","","",""
"","","","","","html-slider-response","203","413000","0.0-21.0-1.30","eae06661-078d-4d13-b3a9-c58946dbae87","1422","
                  <p style=""text-align: center;"">₪71
                                                <br>75%</p>
                  <p id=""wtp"" style=""text-align:center; margin-top: 0px; margin-bottom: 0px; font-size: 40px"";>מוכנים לשלם: <span id=""c_p_y""></span></p>","58","evaluation","28","28","8B","75","71","58","","","","","","","","","","","","","","",""
"","","","","","html-keyboard-response","204","414073","0.0-21.0-2.30","eae06661-078d-4d13-b3a9-c58946dbae87","null","<p style=""text-align: center;"">+</p>","null","fixation","","","","","","","","","","","","","","","","","","","","",""
"","","","","","html-keyboard-response","205","415073","0.0-22.0","eae06661-078d-4d13-b3a9-c58946dbae87","null","<p style=""text-align: center;"">+</p>","null","fixation","","","","","","","","","","","","","","","","","","","","",""
"","","","","","html-keyboard-response","206","423831","0.0-23.0","eae06661-078d-4d13-b3a9-c58946dbae87","null","<p>הפסקה.
          <br>לחצו כדי להמשיך.</p>","1","scan_wait","","","","","","","","","","","","","","","","","","","","",""
"","","","","","html-keyboard-response","207","424848","0.0-24.0","eae06661-078d-4d13-b3a9-c58946dbae87","null","<p style=""text-align: center;"">+</p>","null","fixation","","","","","","","","","","","","","","","","","","","","",""
"","","","","","html-slider-response","208","425855","0.0-25.0-0.0","eae06661-078d-4d13-b3a9-c58946dbae87","1000","
                  <p style=""text-align: center;"">₪36
                                                <br>70%</p>
                  <p id=""wtp"" style=""text-align:center; margin-top: 0px; margin-bottom: 0px; font-size: 40px"";>&ensp;</p>","-","viewing","0","13","3A,5C,10B","","","","","","","","","","","","","","","","","",""
"","","","","","html-slider-response","209","428263","0.0-25.0-1.0","eae06661-078d-4d13-b3a9-c58946dbae87","2407","
                  <p style=""text-align: center;"">₪36
                                                <br>70%</p>
                  <p id=""wtp"" style=""text-align:center; margin-top: 0px; margin-bottom: 0px; font-size: 40px"";>מוכנים לשלם: <span id=""c_p_y""></span></p>","30","evaluation","75","13","3A,5C,10B","70","36","30","","","","","","","","","","","","","","",""
"","","","","","html-keyboard-response","210","429473","0.0-25.0-2.0","eae06661-078d-4d13-b3a9-c58946dbae87","null","<p style=""text-align: center;"">+</p>","null","fixation","","","","","","","","","","","","","","","","","","","","",""
"","","","","","html-slider-response","211","430480","0.0-25.0-0.1","eae06661-078d-4d13-b3a9-c58946dbae87","1000","
                  <p style=""text-align: center;"">₪76
                                                <br>65%</p>
                  <p id=""wtp"" style=""text-align:center; margin-top: 0px; margin-bottom: 0px; font-size: 40px"";>&ensp;</p>","-","viewing","0","29","8C,19A,24B","","","","","","","","","","","","","","","","","",""
"","","","","","html-slider-response","212","431600","0.0-25.0-1.1","eae06661-078d-4d13-b3a9-c58946dbae87","1119","
                  <p style=""text-align: center;"">₪76
                                                <br>65%</p>
                  <p id=""wtp"" style=""text-align:center; margin-top: 0px; margin-bottom: 0px; font-size: 40px"";>מוכנים לשלם: <span id=""c_p_y""></span></p>","54","evaluation","17","29","8C,19A,24B","65","76","54","","","","","","","","","","","","","","",""
"","","","","","html-keyboard-response","213","433006","0.0-25.0-2.1","eae06661-078d-4d13-b3a9-c58946dbae87","null","<p style=""text-align: center;"">+</p>","null","fixation","","","","","","","","","","","","","","","","","","","","",""
"","","","","","html-slider-response","214","434017","0.0-25.0-0.2","eae06661-078d-4d13-b3a9-c58946dbae87","1000","
                  <p style=""text-align: center;"">₪79
                                                <br>40%</p>
                  <p id=""wtp"" style=""text-align:center; margin-top: 0px; margin-bottom: 0px; font-size: 40px"";>&ensp;</p>","-","viewing","0","30","9B","","","","","","","","","","","","","","","","","",""
"","","","","","html-slider-response","215","435272","0.0-25.0-1.2","eae06661-078d-4d13-b3a9-c58946dbae87","1253","
                  <p style=""text-align: center;"">₪79
                                                <br>40%</p>
                  <p id=""wtp"" style=""text-align:center; margin-top: 0px; margin-bottom: 0px; font-size: 40px"";>מוכנים לשלם: <span id=""c_p_y""></span></p>","41","evaluation","75","30","9B","40","79","41","","","","","","","","","","","","","","",""
"","","","","","html-keyboard-response","216","436354","0.0-25.0-2.2","eae06661-078d-4d13-b3a9-c58946dbae87","null","<p style=""text-align: center;"">+</p>","null","fixation","","","","","","","","","","","","","","","","","","","","",""
"","","","","","html-slider-response","217","437371","0.0-25.0-0.3","eae06661-078d-4d13-b3a9-c58946dbae87","1000","
                  <p style=""text-align: center;"">₪64
                                                <br>50%</p>
                  <p id=""wtp"" style=""text-align:center; margin-top: 0px; margin-bottom: 0px; font-size: 40px"";>&ensp;</p>","-","viewing","0","25","1B,3B,4A","","","","","","","","","","","","","","","","","",""
"","","","","","html-slider-response","218","439600","0.0-25.0-1.3","eae06661-078d-4d13-b3a9-c58946dbae87","2228","
                  <p style=""text-align: center;"">₪64
                                                <br>50%</p>
                  <p id=""wtp"" style=""text-align:center; margin-top: 0px; margin-bottom: 0px; font-size: 40px"";>מוכנים לשלם: <span id=""c_p_y""></span></p>","21","evaluation","9","25","1B,3B,4A","50","64","22","","","","","","","","","","","","","","",""
"","","","","","html-keyboard-response","219","440129","0.0-25.0-2.3","eae06661-078d-4d13-b3a9-c58946dbae87","null","<p style=""text-align: center;"">+</p>","null","fixation","","","","","","","","","","","","","","","","","","","","",""
"","","","","","html-slider-response","220","441137","0.0-25.0-0.4","eae06661-078d-4d13-b3a9-c58946dbae87","1000","
                  <p style=""text-align: center;"">₪11
                                                <br>20%</p>
                  <p id=""wtp"" style=""text-align:center; margin-top: 0px; margin-bottom: 0px; font-size: 40px"";>&ensp;</p>","-","viewing","0","4","12C,17C,23C,28C","","","","","","","","","","","","","","","","","",""
"","","","","","html-slider-response","221","442104","0.0-25.0-1.4","eae06661-078d-4d13-b3a9-c58946dbae87","965","
                  <p style=""text-align: center;"">₪11
                                                <br>20%</p>
                  <p id=""wtp"" style=""text-align:center; margin-top: 0px; margin-bottom: 0px; font-size: 40px"";>מוכנים לשלם: <span id=""c_p_y""></span></p>","2","evaluation","27","4","12C,17C,23C,28C","20","11","3","","","","","","","","","","","","","","",""
"","","","","","html-keyboard-response","222","443223","0.0-25.0-2.4","eae06661-078d-4d13-b3a9-c58946dbae87","null","<p style=""text-align: center;"">+</p>","null","fixation","","","","","","","","","","","","","","","","","","","","",""
"","","","","","html-slider-response","223","444234","0.0-25.0-0.5","eae06661-078d-4d13-b3a9-c58946dbae87","1000","
                  <p style=""text-align: center;"">₪4
                                                <br>75%</p>
                  <p id=""wtp"" style=""text-align:center; margin-top: 0px; margin-bottom: 0px; font-size: 40px"";>&ensp;</p>","-","viewing","0","3","12B,20B,23B,27C,29C","","","","","","","","","","","","","","","","","",""
"","","","","","html-slider-response","224","446432","0.0-25.0-1.5","eae06661-078d-4d13-b3a9-c58946dbae87","2196","
                  <p style=""text-align: center;"">₪4
                                                <br>75%</p>
                  <p id=""wtp"" style=""text-align:center; margin-top: 0px; margin-bottom: 0px; font-size: 40px"";>מוכנים לשלם: <span id=""c_p_y""></span></p>","3","evaluation","54","3","12B,20B,23B,27C,29C","75","4","4","","","","","","","","","","","","","","",""
"","","","","","html-keyboard-response","225","447536","0.0-25.0-2.5","eae06661-078d-4d13-b3a9-c58946dbae87","null","<p style=""text-align: center;"">+</p>","null","fixation","","","","","","","","","","","","","","","","","","","","",""
"","","","","","html-slider-response","226","448542","0.0-25.0-0.6","eae06661-078d-4d13-b3a9-c58946dbae87","1000","
                  <p style=""text-align: center;"">₪64
                                                <br>25%</p>
                  <p id=""wtp"" style=""text-align:center; margin-top: 0px; margin-bottom: 0px; font-size: 40px"";>&ensp;</p>","-","viewing","0","24","6A,21A","","","","","","","","","","","","","","","","","",""
"","","","","","html-slider-response","227","450632","0.0-25.0-1.6","eae06661-078d-4d13-b3a9-c58946dbae87","2088","
                  <p style=""text-align: center;"">₪64
                                                <br>25%</p>
                  <p id=""wtp"" style=""text-align:center; margin-top: 0px; margin-bottom: 0px; font-size: 40px"";>מוכנים לשלם: <span id=""c_p_y""></span></p>","25","evaluation","57","24","6A,21A","25","64","25","","","","","","","","","","","","","","",""
"","","","","","html-keyboard-response","228","451622","0.0-25.0-2.6","eae06661-078d-4d13-b3a9-c58946dbae87","null","<p style=""text-align: center;"">+</p>","null","fixation","","","","","","","","","","","","","","","","","","","","",""
"","","","","","html-slider-response","229","452624","0.0-25.0-0.7","eae06661-078d-4d13-b3a9-c58946dbae87","1000","
                  <p style=""text-align: center;"">₪58
                                                <br>40%</p>
                  <p id=""wtp"" style=""text-align:center; margin-top: 0px; margin-bottom: 0px; font-size: 40px"";>&ensp;</p>","-","viewing","0","20","10C,13A,19C,21B","","","","","","","","","","","","","","","","","",""
"","","","","","html-slider-response","230","454296","0.0-25.0-1.7","eae06661-078d-4d13-b3a9-c58946dbae87","1671","
                  <p style=""text-align: center;"">₪58
                                                <br>40%</p>
                  <p id=""wtp"" style=""text-align:center; margin-top: 0px; margin-bottom: 0px; font-size: 40px"";>מוכנים לשלם: <span id=""c_p_y""></span></p>","21","evaluation","35","20","10C,13A,19C,21B","40","58","21","","","","","","","","","","","","","","",""
"","","","","","html-keyboard-response","231","455405","0.0-25.0-2.7","eae06661-078d-4d13-b3a9-c58946dbae87","null","<p style=""text-align: center;"">+</p>","null","fixation","","","","","","","","","","","","","","","","","","","","",""
"","","","","","html-slider-response","232","456410","0.0-25.0-0.8","eae06661-078d-4d13-b3a9-c58946dbae87","1000","
                  <p style=""text-align: center;"">₪39
                                                <br>60%</p>
                  <p id=""wtp"" style=""text-align:center; margin-top: 0px; margin-bottom: 0px; font-size: 40px"";>&ensp;</p>","-","viewing","0","15","9C,25B","","","","","","","","","","","","","","","","","",""
"","","","","","html-slider-response","233","458256","0.0-25.0-1.8","eae06661-078d-4d13-b3a9-c58946dbae87","1845","
                  <p style=""text-align: center;"">₪39
                                                <br>60%</p>
                  <p id=""wtp"" style=""text-align:center; margin-top: 0px; margin-bottom: 0px; font-size: 40px"";>מוכנים לשלם: <span id=""c_p_y""></span></p>","21","evaluation","29","15","9C,25B","60","39","21","","","","","","","","","","","","","","",""
"","","","","","html-keyboard-response","234","459584","0.0-25.0-2.8","eae06661-078d-4d13-b3a9-c58946dbae87","null","<p style=""text-align: center;"">+</p>","null","fixation","","","","","","","","","","","","","","","","","","","","",""
"","","","","","html-slider-response","235","460588","0.0-25.0-0.9","eae06661-078d-4d13-b3a9-c58946dbae87","1000","
                  <p style=""text-align: center;"">₪61
                                                <br>45%</p>
                  <p id=""wtp"" style=""text-align:center; margin-top: 0px; margin-bottom: 0px; font-size: 40px"";>&ensp;</p>","-","viewing","0","22","10A,11A","","","","","","","","","","","","","","","","","",""
"","","","","","html-slider-response","236","462504","0.0-25.0-1.9","eae06661-078d-4d13-b3a9-c58946dbae87","1915","
                  <p style=""text-align: center;"">₪61
                                                <br>45%</p>
                  <p id=""wtp"" style=""text-align:center; margin-top: 0px; margin-bottom: 0px; font-size: 40px"";>מוכנים לשלם: <span id=""c_p_y""></span></p>","45","evaluation","28","22","10A,11A","45","61","45","","","","","","","","","","","","","","",""
"","","","","","html-keyboard-response","237","463900","0.0-25.0-2.9","eae06661-078d-4d13-b3a9-c58946dbae87","null","<p style=""text-align: center;"">+</p>","null","fixation","","","","","","","","","","","","","","","","","","","","",""
"","","","","","html-slider-response","238","464904","0.0-25.0-0.10","eae06661-078d-4d13-b3a9-c58946dbae87","1000","
                  <p style=""text-align: center;"">₪71
                                                <br>55%</p>
                  <p id=""wtp"" style=""text-align:center; margin-top: 0px; margin-bottom: 0px; font-size: 40px"";>&ensp;</p>","-","viewing","0","27","5B,18A","","","","","","","","","","","","","","","","","",""
"","","","","","html-slider-response","239","466008","0.0-25.0-1.10","eae06661-078d-4d13-b3a9-c58946dbae87","1102","
                  <p style=""text-align: center;"">₪71
                                                <br>55%</p>
                  <p id=""wtp"" style=""text-align:center; margin-top: 0px; margin-bottom: 0px; font-size: 40px"";>מוכנים לשלם: <span id=""c_p_y""></span></p>","47","evaluation","39","27","5B,18A","55","71","47","","","","","","","","","","","","","","",""
"","","","","","html-keyboard-response","240","467503","0.0-25.0-2.10","eae06661-078d-4d13-b3a9-c58946dbae87","null","<p style=""text-align: center;"">+</p>","null","fixation","","","","","","","","","","","","","","","","","","","","",""
"","","","","","html-slider-response","241","468518","0.0-25.0-0.11","eae06661-078d-4d13-b3a9-c58946dbae87","1000","
                  <p style=""text-align: center;"">₪39
                                                <br>65%</p>
                  <p id=""wtp"" style=""text-align:center; margin-top: 0px; margin-bottom: 0px; font-size: 40px"";>&ensp;</p>","-","viewing","0","16","1A,15A,26C","","","","","","","","","","","","","","","","","",""
"","","","","","html-slider-response","242","470880","0.0-25.0-1.11","eae06661-078d-4d13-b3a9-c58946dbae87","2361","
                  <p style=""text-align: center;"">₪39
                                                <br>65%</p>
                  <p id=""wtp"" style=""text-align:center; margin-top: 0px; margin-bottom: 0px; font-size: 40px"";>מוכנים לשלם: <span id=""c_p_y""></span></p>","29","evaluation","5","16","1A,15A,26C","65","39","30","","","","","","","","","","","","","","",""
"","","","","","html-keyboard-response","243","471401","0.0-25.0-2.11","eae06661-078d-4d13-b3a9-c58946dbae87","null","<p style=""text-align: center;"">+</p>","null","fixation","","","","","","","","","","","","","","","","","","","","",""
"","","","","","html-slider-response","244","472404","0.0-25.0-0.12","eae06661-078d-4d13-b3a9-c58946dbae87","1000","
                  <p style=""text-align: center;"">₪4
                                                <br>50%</p>
                  <p id=""wtp"" style=""text-align:center; margin-top: 0px; margin-bottom: 0px; font-size: 40px"";>&ensp;</p>","-","viewing","0","2","4C,17B","","","","","","","","","","","","","","","","","",""
"","","","","","html-slider-response","245","473256","0.0-25.0-1.12","eae06661-078d-4d13-b3a9-c58946dbae87","850","
                  <p style=""text-align: center;"">₪4
                                                <br>50%</p>
                  <p id=""wtp"" style=""text-align:center; margin-top: 0px; margin-bottom: 0px; font-size: 40px"";>מוכנים לשלם: <span id=""c_p_y""></span></p>","2","evaluation","59","2","4C,17B","50","4","3","","","","","","","","","","","","","","",""
"","","","","","html-keyboard-response","246","474493","0.0-25.0-2.12","eae06661-078d-4d13-b3a9-c58946dbae87","null","<p style=""text-align: center;"">+</p>","null","fixation","","","","","","","","","","","","","","","","","","","","",""
"","","","","","html-slider-response","247","475505","0.0-25.0-0.13","eae06661-078d-4d13-b3a9-c58946dbae87","1000","
                  <p style=""text-align: center;"">₪16
                                                <br>20%</p>
                  <p id=""wtp"" style=""text-align:center; margin-top: 0px; margin-bottom: 0px; font-size: 40px"";>&ensp;</p>","-","viewing","0","8","14C,17A,20C,27A","","","","","","","","","","","","","","","","","",""
"","","","","","html-slider-response","248","477400","0.0-25.0-1.13","eae06661-078d-4d13-b3a9-c58946dbae87","1893","
                  <p style=""text-align: center;"">₪16
                                                <br>20%</p>
                  <p id=""wtp"" style=""text-align:center; margin-top: 0px; margin-bottom: 0px; font-size: 40px"";>מוכנים לשלם: <span id=""c_p_y""></span></p>","12","evaluation","51","8","14C,17A,20C,27A","20","16","12","","","","","","","","","","","","","","",""
"","","","","","html-keyboard-response","249","478238","0.0-25.0-2.13","eae06661-078d-4d13-b3a9-c58946dbae87","null","<p style=""text-align: center;"">+</p>","null","fixation","","","","","","","","","","","","","","","","","","","","",""
"","","","","","html-slider-response","250","479244","0.0-25.0-0.14","eae06661-078d-4d13-b3a9-c58946dbae87","1000","
                  <p style=""text-align: center;"">₪61
                                                <br>55%</p>
                  <p id=""wtp"" style=""text-align:center; margin-top: 0px; margin-bottom: 0px; font-size: 40px"";>&ensp;</p>","-","viewing","0","23","7B,26B","","","","","","","","","","","","","","","","","",""
"","","","","","html-slider-response","251","482248","0.0-25.0-1.14","eae06661-078d-4d13-b3a9-c58946dbae87","3003","
                  <p style=""text-align: center;"">₪61
                                                <br>55%</p>
                  <p id=""wtp"" style=""text-align:center; margin-top: 0px; margin-bottom: 0px; font-size: 40px"";>מוכנים לשלם: <span id=""c_p_y""></span></p>","46","evaluation","56","23","7B,26B","55","61","46","","","","","","","","","","","","","","",""
"","","","","","html-keyboard-response","252","483701","0.0-25.0-2.14","eae06661-078d-4d13-b3a9-c58946dbae87","null","<p style=""text-align: center;"">+</p>","null","fixation","","","","","","","","","","","","","","","","","","","","",""
"","","","","","html-slider-response","253","484704","0.0-25.0-0.15","eae06661-078d-4d13-b3a9-c58946dbae87","1000","
