"success","timeout","failed_images","failed_audio","failed_video","trial_type","trial_index","time_elapsed","internal_node_id","subject_id","rt","stimulus","response","part","slider_start","ID","set_ID","prob","amount","last_location","actual_choice","actual_EV","binary_id","trinary_id","catch","A_key","D_key","choice_prob","choice_amount","potential_prize_prob","potential_prize_amount","won_prize","total_prize","accuracy"
"true","false","[]","[]","[]","preload","0","14","0.0-0.0","c0eec679-0e2d-40b6-946a-bc307eeeb08a","","","","","","","","","","","","","","","","","","","","","","","",""
"","","","","","html-keyboard-response","1","18133","0.0-1.0","c0eec679-0e2d-40b6-946a-bc307eeeb08a","null","
          <h1>שלום וברוכים הבאים!</h1>
          <p>לפניכם ניסוי בקבלת החלטות עם שני חלקים.
          <br><br>לחצו על העכבר כדי להמשיך.</p>","0","example","","","","","","","","","","","","","","","","","","","",""
"","","","","","html-keyboard-response","2","36212","0.0-2.0","c0eec679-0e2d-40b6-946a-bc307eeeb08a","null","
        <h1>חלק 1</h1>
        <p>בקרוב יוצגו בפניכם הגרלות.
        <br>עליכם לבחור את המחיר המירבי שתהיו מוכנים לשלם כדי להשתתף בהגרלה שתוצג.
        <br>יש לכם תקציב של ₪80 לכל הגרלה. 
        <br>נסו להעריך כל הגרלה בנפרד ולחשוב כמה היא שווה עבורכם, ₪80 זמינים לכל הגרלה בנפרד.
        <br><br>לחצו על העכבר כדי להמשיך.</p>","1","instructions","","","","","","","","","","","","","","","","","","","",""
"","","","","","html-keyboard-response","3","64173","0.0-3.0","c0eec679-0e2d-40b6-946a-bc307eeeb08a","null","
        <p>בסוף הניסוי, המחשב יבחר את אחת ההגרלות ויקבע מחיר לכרטיס עבורה. 
        <br>במידה והמחיר שבחרתם נמוך מהמחיר שנבחר על ידי המחשב, לא תשתתפו בהגרלה ותשארו עם מלוא התקציב.
        <br>במידה והמחיר שבחרתם גבוה מהמחיר שנבחר על ידי המחשב, תשלמו את המחיר שנקבע ותשתתפו בהגרלה.
        <br><br>לחצו על העכבר כדי להמשיך.</p>","1","instructions","","","","","","","","","","","","","","","","","","","",""
"","","","","","html-slider-response","4","95645","0.0-4.0","c0eec679-0e2d-40b6-946a-bc307eeeb08a","31355","
        <p style=""font-size: 42px;"">נתחיל עם דוגמא: 
        <br>ההגרלה מטה מציעה 65% סיכוי לזכות ב-₪40 
        <br>&emsp;&emsp;&emsp;&emsp;&emsp;&emsp;&emsp;&emsp;&ensp;35% סיכוי לזכות ב-₪0.
        <br><br>מה המחיר המירבי שתהיו מוכנים לשלם על כרטיס להגרלה זו בין 0 ל-₪80?
        <br>הזיזו את העכבר על פני המלבן ולחצו כדי לבצע בחירה.</p>
        
        <p style=""text-align: center;"">₪40<br>65%</p>

        <p id=""wtp"" style=""text-align:center; margin-top: 0px; margin-bottom: 0px; font-size: 40px"";>מוכנים לשלם: <span id=""c_p_y""></span></p>","25","example","70","","","","","","","","","","","","","","","","","","",""
"","","","","","html-keyboard-response","5","110069","0.0-5.0","c0eec679-0e2d-40b6-946a-bc307eeeb08a","null","<p>יפה מאוד!
                <br> בחרתם שתהיו מוכנים לשלם ₪25 כדי להשתתף בהגרלה:
                <br><p style=""text-align: center;"">₪40<br>65%</p>
                <p>נשמע נכון?
                <br>נניח שהגרלה זו נבחרה בסוף הניסוי.
                <br>כעת המחשב יקבע מחיר עבורה באקראי.
                <br>לחצו על העכבר להמשך.</p>","1","example","","","","","","","","","","","","","","","","","","","",""
"","","","","","html-keyboard-response","6","130261","0.0-6.0","c0eec679-0e2d-40b6-946a-bc307eeeb08a","null","<p>המחשב קבע מחיר: ₪35
                <br>ואתם בחרתם לשלם לכל היותר: ₪25
                <br><br>מכיוון שהמחיר שבחרתם נמוך מהמחיר שנקבע, לא תתשתתפו בהגרלה.
                <br>במקרה כזה, בסוף הניסוי תקבלו את כל התקציב ההתחלתי של ₪80.
                <br><br>לחצו על העכבר להמשך.</p>","1","example","","","","","","","","","","","","","","","","","","","",""
"","","","","","html-slider-response","7","146109","0.0-7.0","c0eec679-0e2d-40b6-946a-bc307eeeb08a","15591","<p style=""font-size: 42px;"">הנה עוד דוגמא:
                <br>ההגרלה מטה מציעה 35% סיכוי לזכות ב-₪18 
                <br>&emsp;&emsp;&emsp;&emsp;&emsp;&emsp;&emsp;&emsp;&ensp;65% סיכוי לזכות ב-₪0.</p>
        
                <p style=""text-align: center;"">₪18<br>35%</p>
                <p id=""wtp"" style=""text-align:center; margin-top: 0px; margin-bottom: 0px; font-size: 40px"";>מוכנים לשלם: <span id=""c_p_y""></span></p>","7","example","36","","","","","","","","","","","","","","","","","","",""
"","","","","","html-keyboard-response","8","159620","0.0-8.0","c0eec679-0e2d-40b6-946a-bc307eeeb08a","null","<p>הייתם מוכנים לשלם  ₪7 כדי להשתתף בהגרלה:
                <p style=""text-align: center;"">₪18<br>35%</p>
                <p>כעת נניח שהמחשב בחר את ההגרלה הזו בסוף הניסוי, וקבע עבורה מחיר.
                <br><br>לחצו על העכבר כדי להמשיך.</p>","1","instructions","","","","","","","","","","","","","","","","","","","",""
"","","","","","html-keyboard-response","9","188260","0.0-9.0","c0eec679-0e2d-40b6-946a-bc307eeeb08a","null","<p>המחשב קבע מחיר להגרלה: ₪3<br>ואתם בחרתם לשלם לכל היותר: ₪7
                <br><br>כעת המחיר שנקבע נמוך מזה שבחרתם, אז תשלמו את המחיר שקבע המחשב (₪3) ותשתתפו בהגרלה.
                <br>במקרה כזה, תסיימו את הניסוי עם תקציב של ₪77 ועם סיכוי לזכות ב-₪18 נוספים מההגרלה.
                <br>כלומר, תוכלו לקבל ₪77 אם לא תזכו בהגרלה, או ₪95 אם תזכו בהגרלה.
                <br><br>לחצו על העכבר להמשך.</p>","1","example","","","","","","","","","","","","","","","","","","","",""
"","","","","","html-keyboard-response","10","202797","0.0-10.0","c0eec679-0e2d-40b6-946a-bc307eeeb08a","null","<p>במהלך הניסוי, קודם תראו את ההגרלה ורק לאחר מכן תוכלו לבחור.
                <p>כמו כן, יהיו לכם מספר שניות מוגבל להגיב.
                <p>בואו ננסה זאת עם ההגרלה הקודמת.
                <br>לחצו על העכבר כדי להמשיך.</p>","1","instructions","","","","","","","","","","","","","","","","","","","",""
"","","","","","html-slider-response","11","204068","0.0-11.0","c0eec679-0e2d-40b6-946a-bc307eeeb08a","1000","
                    <p style=""text-align: center;"">₪18<br>35%</p>
                    <p id=""wtp"" style=""text-align:center; margin-top: 0px; margin-bottom: 0px; font-size: 40px"";>&ensp;</p>","35","instructions","0","","","","","","","","","","","","","","","","","","",""
"","","","","","html-slider-response","12","208329","0.0-12.0","c0eec679-0e2d-40b6-946a-bc307eeeb08a","null","
                    <p style=""text-align: center;"">₪18<br>35%</p>
                    <p id=""wtp"" style=""text-align:center; margin-top: 0px; margin-bottom: 0px; font-size: 40px"";>מוכנים לשלם: <span id=""c_p_y""></span></p>","null","instructions","35","","","","","","","","","","","","","","","","","","",""
"","","","","","html-keyboard-response","13","210181","0.0-13.0","c0eec679-0e2d-40b6-946a-bc307eeeb08a","null","<p>לא הגבתם בזמן המוקצב לתגובה. 
                <br>נסו להגיב מהר יותר בפעם הבאה.
                <br><br>לחצו על העכבר כדי להמשיך.</p>","1","instructions","","","","","","","","","","","","","","","","","","","",""
"","","","","","html-slider-response","14","214438","0.0-14.0-0.0","c0eec679-0e2d-40b6-946a-bc307eeeb08a","null","
                    <p style=""text-align: center;"">₪40<br>65%</p>
                    <p id=""wtp"" style=""text-align:center; margin-top: 0px; margin-bottom: 0px; font-size: 40px"";>מוכנים לשלם: <span id=""c_p_y""></span></p>","null","instructions","13","","","","","","","","","","","","","","","","","","",""
"","","","","","html-keyboard-response","15","214877","0.0-14.0-1.0","c0eec679-0e2d-40b6-946a-bc307eeeb08a","null","<p>לא הגבתם בזמן המוקצב לתגובה. 
                <br>נסו להגיב מהר יותר בפעם הבאה.
                <br><br>לחצו על העכבר כדי להמשיך.</p>","1","instructions","","","","","","","","","","","","","","","","","","","",""
"","","","","","html-keyboard-response","16","216197","0.0-15.0","c0eec679-0e2d-40b6-946a-bc307eeeb08a","null","<p>כעת נתחיל את הניסוי.
                <br><br>אתם תראו הגרלות ותתבקשו לבחור כמה תהיו מוכנים לשלם כדי להשתתף בהן.
                <br>יש לכם תקציב של ₪80 עבור כל הגרלה.
                <br>בסוף הניסוי הגרלה אחת תבחר באקראי ותשוחק.
                <br><br>לחצו על העכבר כדי להתחיל את הניסוי.</p>","1","instructions","","","","","","","","","","","","","","","","","","","",""
"","","","","","html-keyboard-response","17","217448","0.0-16.0","c0eec679-0e2d-40b6-946a-bc307eeeb08a","null","<p style=""text-align: center;"">+</p>","null","fixation","","","","","","","","","","","","","","","","","","","",""
"","","","","","html-slider-response","18","218451","0.0-17.0-0.0","c0eec679-0e2d-40b6-946a-bc307eeeb08a","1000","
                  <p style=""text-align: center;"">₪36
                                                <br>30%</p>
                  <p id=""wtp"" style=""text-align:center; margin-top: 0px; margin-bottom: 0px; font-size: 40px"";>&ensp;</p>","-","viewing","0","11","3C,20A,22A","","","","","","","","","","","","","","","","",""
"","","","","","html-slider-response","19","221829","0.0-17.0-1.0","c0eec679-0e2d-40b6-946a-bc307eeeb08a","3377","
                  <p style=""text-align: center;"">₪36
                                                <br>30%</p>
                  <p id=""wtp"" style=""text-align:center; margin-top: 0px; margin-bottom: 0px; font-size: 40px"";>מוכנים לשלם: <span id=""c_p_y""></span></p>","17","evaluation","58","11","3C,20A,22A","30","36","17","","","","","","","","","","","","","",""
"","","","","","html-keyboard-response","20","222476","0.0-17.0-2.0","c0eec679-0e2d-40b6-946a-bc307eeeb08a","null","<p style=""text-align: center;"">+</p>","null","fixation","","","","","","","","","","","","","","","","","","","",""
"","","","","","html-slider-response","21","223484","0.0-17.0-0.1","c0eec679-0e2d-40b6-946a-bc307eeeb08a","1000","
                  <p style=""text-align: center;"">₪71
                                                <br>45%</p>
                  <p id=""wtp"" style=""text-align:center; margin-top: 0px; margin-bottom: 0px; font-size: 40px"";>&ensp;</p>","-","viewing","0","26","2B,16A","","","","","","","","","","","","","","","","",""
"","","","","","html-slider-response","22","227495","0.0-17.0-1.1","c0eec679-0e2d-40b6-946a-bc307eeeb08a","null","
                  <p style=""text-align: center;"">₪71
                                                <br>45%</p>
                  <p id=""wtp"" style=""text-align:center; margin-top: 0px; margin-bottom: 0px; font-size: 40px"";>מוכנים לשלם: <span id=""c_p_y""></span></p>","null","evaluation","32","26","2B,16A","45","71","18","","","","","","","","","","","","","",""
"","","","","","html-keyboard-response","23","228313","0.0-17.0-2.1","c0eec679-0e2d-40b6-946a-bc307eeeb08a","null","<p style=""text-align: center;"">+</p>","null","fixation","","","","","","","","","","","","","","","","","","","",""
"","","","","","html-slider-response","24","229329","0.0-17.0-0.2","c0eec679-0e2d-40b6-946a-bc307eeeb08a","1000","
                  <p style=""text-align: center;"">₪71
                                                <br>55%</p>
                  <p id=""wtp"" style=""text-align:center; margin-top: 0px; margin-bottom: 0px; font-size: 40px"";>&ensp;</p>","-","viewing","0","27","5B,18A","","","","","","","","","","","","","","","","",""
"","","","","","html-slider-response","25","233061","0.0-17.0-1.2","c0eec679-0e2d-40b6-946a-bc307eeeb08a","3730","
                  <p style=""text-align: center;"">₪71
                                                <br>55%</p>
                  <p id=""wtp"" style=""text-align:center; margin-top: 0px; margin-bottom: 0px; font-size: 40px"";>מוכנים לשלם: <span id=""c_p_y""></span></p>","28","evaluation","57","27","5B,18A","55","71","28","","","","","","","","","","","","","",""
"","","","","","html-keyboard-response","26","233860","0.0-17.0-2.2","c0eec679-0e2d-40b6-946a-bc307eeeb08a","null","<p style=""text-align: center;"">+</p>","null","fixation","","","","","","","","","","","","","","","","","","","",""
"","","","","","html-slider-response","27","234867","0.0-17.0-0.3","c0eec679-0e2d-40b6-946a-bc307eeeb08a","1000","
                  <p style=""text-align: center;"">₪36
                                                <br>75%</p>
                  <p id=""wtp"" style=""text-align:center; margin-top: 0px; margin-bottom: 0px; font-size: 40px"";>&ensp;</p>","-","viewing","0","14","4B,5A,13B,16B","","","","","","","","","","","","","","","","",""
"","","","","","html-slider-response","28","238873","0.0-17.0-1.3","c0eec679-0e2d-40b6-946a-bc307eeeb08a","null","
                  <p style=""text-align: center;"">₪36
                                                <br>75%</p>
                  <p id=""wtp"" style=""text-align:center; margin-top: 0px; margin-bottom: 0px; font-size: 40px"";>מוכנים לשלם: <span id=""c_p_y""></span></p>","null","evaluation","18","14","4B,5A,13B,16B","75","36","30","","","","","","","","","","","","","",""
"","","","","","html-keyboard-response","29","239745","0.0-17.0-2.3","c0eec679-0e2d-40b6-946a-bc307eeeb08a","null","<p style=""text-align: center;"">+</p>","null","fixation","","","","","","","","","","","","","","","","","","","",""
"","","","","","html-slider-response","30","240762","0.0-17.0-0.4","c0eec679-0e2d-40b6-946a-bc307eeeb08a","1000","
                  <p style=""text-align: center;"">₪36
                                                <br>60%</p>
                  <p id=""wtp"" style=""text-align:center; margin-top: 0px; margin-bottom: 0px; font-size: 40px"";>&ensp;</p>","-","viewing","0","12","1C,7C,15C","","","","","","","","","","","","","","","","",""
"","","","","","html-slider-response","31","243653","0.0-17.0-1.4","c0eec679-0e2d-40b6-946a-bc307eeeb08a","2890","
                  <p style=""text-align: center;"">₪36
                                                <br>60%</p>
                  <p id=""wtp"" style=""text-align:center; margin-top: 0px; margin-bottom: 0px; font-size: 40px"";>מוכנים לשלם: <span id=""c_p_y""></span></p>","25","evaluation","62","12","1C,7C,15C","60","36","25","","","","","","","","","","","","","",""
"","","","","","html-keyboard-response","32","244797","0.0-17.0-2.4","c0eec679-0e2d-40b6-946a-bc307eeeb08a","null","<p style=""text-align: center;"">+</p>","null","fixation","","","","","","","","","","","","","","","","","","","",""
"","","","","","html-slider-response","33","245800","0.0-17.0-0.5","c0eec679-0e2d-40b6-946a-bc307eeeb08a","1000","
                  <p style=""text-align: center;"">₪79
                                                <br>40%</p>
                  <p id=""wtp"" style=""text-align:center; margin-top: 0px; margin-bottom: 0px; font-size: 40px"";>&ensp;</p>","-","viewing","0","30","9B","","","","","","","","","","","","","","","","",""
"","","","","","html-slider-response","34","249801","0.0-17.0-1.5","c0eec679-0e2d-40b6-946a-bc307eeeb08a","null","
                  <p style=""text-align: center;"">₪79
                                                <br>40%</p>
                  <p id=""wtp"" style=""text-align:center; margin-top: 0px; margin-bottom: 0px; font-size: 40px"";>מוכנים לשלם: <span id=""c_p_y""></span></p>","null","evaluation","15","30","9B","40","79","43","","","","","","","","","","","","","",""
"","","","","","html-keyboard-response","35","250808","0.0-17.0-2.5","c0eec679-0e2d-40b6-946a-bc307eeeb08a","null","<p style=""text-align: center;"">+</p>","null","fixation","","","","","","","","","","","","","","","","","","","",""
"","","","","","html-slider-response","36","251810","0.0-17.0-0.6","c0eec679-0e2d-40b6-946a-bc307eeeb08a","1000","
                  <p style=""text-align: center;"">₪64
                                                <br>50%</p>
                  <p id=""wtp"" style=""text-align:center; margin-top: 0px; margin-bottom: 0px; font-size: 40px"";>&ensp;</p>","-","viewing","0","25","1B,3B,4A","","","","","","","","","","","","","","","","",""
"","","","","","html-slider-response","37","255309","0.0-17.0-1.6","c0eec679-0e2d-40b6-946a-bc307eeeb08a","3498","
                  <p style=""text-align: center;"">₪64
                                                <br>50%</p>
                  <p id=""wtp"" style=""text-align:center; margin-top: 0px; margin-bottom: 0px; font-size: 40px"";>מוכנים לשלם: <span id=""c_p_y""></span></p>","25","evaluation","50","25","1B,3B,4A","50","64","25","","","","","","","","","","","","","",""
"","","","","","html-keyboard-response","38","256779","0.0-17.0-2.6","c0eec679-0e2d-40b6-946a-bc307eeeb08a","null","<p style=""text-align: center;"">+</p>","null","fixation","","","","","","","","","","","","","","","","","","","",""
"","","","","","html-slider-response","39","257786","0.0-17.0-0.7","c0eec679-0e2d-40b6-946a-bc307eeeb08a","1000","
                  <p style=""text-align: center;"">₪11
                                                <br>20%</p>
                  <p id=""wtp"" style=""text-align:center; margin-top: 0px; margin-bottom: 0px; font-size: 40px"";>&ensp;</p>","-","viewing","0","4","12C,17C,23C,28C","","","","","","","","","","","","","","","","",""
"","","","","","html-slider-response","40","261790","0.0-17.0-1.7","c0eec679-0e2d-40b6-946a-bc307eeeb08a","null","
                  <p style=""text-align: center;"">₪11
                                                <br>20%</p>
                  <p id=""wtp"" style=""text-align:center; margin-top: 0px; margin-bottom: 0px; font-size: 40px"";>מוכנים לשלם: <span id=""c_p_y""></span></p>","null","evaluation","13","4","12C,17C,23C,28C","20","11","7","","","","","","","","","","","","","",""
"","","","","","html-keyboard-response","41","262853","0.0-17.0-2.7","c0eec679-0e2d-40b6-946a-bc307eeeb08a","null","<p style=""text-align: center;"">+</p>","null","fixation","","","","","","","","","","","","","","","","","","","",""
"","","","","","html-slider-response","42","263856","0.0-17.0-0.8","c0eec679-0e2d-40b6-946a-bc307eeeb08a","1000","
                  <p style=""text-align: center;"">₪71
                                                <br>75%</p>
                  <p id=""wtp"" style=""text-align:center; margin-top: 0px; margin-bottom: 0px; font-size: 40px"";>&ensp;</p>","-","viewing","0","28","8B","","","","","","","","","","","","","","","","",""
"","","","","","html-slider-response","43","267871","0.0-17.0-1.8","c0eec679-0e2d-40b6-946a-bc307eeeb08a","null","
                  <p style=""text-align: center;"">₪71
                                                <br>75%</p>
                  <p id=""wtp"" style=""text-align:center; margin-top: 0px; margin-bottom: 0px; font-size: 40px"";>מוכנים לשלם: <span id=""c_p_y""></span></p>","null","evaluation","61","28","8B","75","71","35","","","","","","","","","","","","","",""
"","","","","","html-keyboard-response","44","269042","0.0-17.0-2.8","c0eec679-0e2d-40b6-946a-bc307eeeb08a","null","<p style=""text-align: center;"">+</p>","null","fixation","","","","","","","","","","","","","","","","","","","",""
"","","","","","html-slider-response","45","270045","0.0-17.0-0.9","c0eec679-0e2d-40b6-946a-bc307eeeb08a","1000","
                  <p style=""text-align: center;"">₪11
                                                <br>25%</p>
                  <p id=""wtp"" style=""text-align:center; margin-top: 0px; margin-bottom: 0px; font-size: 40px"";>&ensp;</p>","-","viewing","0","5","12A,27B,28B,30B","","","","","","","","","","","","","","","","",""
"","","","","","html-slider-response","46","274054","0.0-17.0-1.9","c0eec679-0e2d-40b6-946a-bc307eeeb08a","null","
                  <p style=""text-align: center;"">₪11
                                                <br>25%</p>
                  <p id=""wtp"" style=""text-align:center; margin-top: 0px; margin-bottom: 0px; font-size: 40px"";>מוכנים לשלם: <span id=""c_p_y""></span></p>","null","evaluation","10","5","12A,27B,28B,30B","25","11","2","","","","","","","","","","","","","",""
"","","","","","html-keyboard-response","47","275049","0.0-17.0-2.9","c0eec679-0e2d-40b6-946a-bc307eeeb08a","null","<p style=""text-align: center;"">+</p>","null","fixation","","","","","","","","","","","","","","","","","","","",""
"","","","","","html-slider-response","48","276051","0.0-17.0-0.10","c0eec679-0e2d-40b6-946a-bc307eeeb08a","1000","
                  <p style=""text-align: center;"">₪11
                                                <br>45%</p>
                  <p id=""wtp"" style=""text-align:center; margin-top: 0px; margin-bottom: 0px; font-size: 40px"";>&ensp;</p>","-","viewing","0","6","14B,21C,25C","","","","","","","","","","","","","","","","",""
"","","","","","html-slider-response","49","278813","0.0-17.0-1.10","c0eec679-0e2d-40b6-946a-bc307eeeb08a","2760","
                  <p style=""text-align: center;"">₪11
                                                <br>45%</p>
                  <p id=""wtp"" style=""text-align:center; margin-top: 0px; margin-bottom: 0px; font-size: 40px"";>מוכנים לשלם: <span id=""c_p_y""></span></p>","3","evaluation","53","6","14B,21C,25C","45","11","3","","","","","","","","","","","","","",""
"","","","","","html-keyboard-response","50","279535","0.0-17.0-2.10","c0eec679-0e2d-40b6-946a-bc307eeeb08a","null","<p style=""text-align: center;"">+</p>","null","fixation","","","","","","","","","","","","","","","","","","","",""
"","","","","","html-slider-response","51","280538","0.0-17.0-0.11","c0eec679-0e2d-40b6-946a-bc307eeeb08a","1000","
                  <p style=""text-align: center;"">₪36
                                                <br>70%</p>
                  <p id=""wtp"" style=""text-align:center; margin-top: 0px; margin-bottom: 0px; font-size: 40px"";>&ensp;</p>","-","viewing","0","13","3A,5C,10B","","","","","","","","","","","","","","","","",""
"","","","","","html-slider-response","52","283261","0.0-17.0-1.11","c0eec679-0e2d-40b6-946a-bc307eeeb08a","2722","
                  <p style=""text-align: center;"">₪36
                                                <br>70%</p>
                  <p id=""wtp"" style=""text-align:center; margin-top: 0px; margin-bottom: 0px; font-size: 40px"";>מוכנים לשלם: <span id=""c_p_y""></span></p>","9","evaluation","1","13","3A,5C,10B","70","36","10","","","","","","","","","","","","","",""
"","","","","","html-keyboard-response","53","284202","0.0-17.0-2.11","c0eec679-0e2d-40b6-946a-bc307eeeb08a","null","<p style=""text-align: center;"">+</p>","null","fixation","","","","","","","","","","","","","","","","","","","",""
"","","","","","html-slider-response","54","285207","0.0-17.0-0.12","c0eec679-0e2d-40b6-946a-bc307eeeb08a","1000","
                  <p style=""text-align: center;"">₪11
                                                <br>75%</p>
                  <p id=""wtp"" style=""text-align:center; margin-top: 0px; margin-bottom: 0px; font-size: 40px"";>&ensp;</p>","-","viewing","0","7","6B,18B,22C,24C,29A","","","","","","","","","","","","","","","","",""
"","","","","","html-slider-response","55","289209","0.0-17.0-1.12","c0eec679-0e2d-40b6-946a-bc307eeeb08a","null","
                  <p style=""text-align: center;"">₪11
                                                <br>75%</p>
                  <p id=""wtp"" style=""text-align:center; margin-top: 0px; margin-bottom: 0px; font-size: 40px"";>מוכנים לשלם: <span id=""c_p_y""></span></p>","null","evaluation","51","7","6B,18B,22C,24C,29A","75","11","3","","","","","","","","","","","","","",""
"","","","","","html-keyboard-response","56","290408","0.0-17.0-2.12","c0eec679-0e2d-40b6-946a-bc307eeeb08a","null","<p style=""text-align: center;"">+</p>","null","fixation","","","","","","","","","","","","","","","","","","","",""
"","","","","","html-slider-response","57","291411","0.0-17.0-0.13","c0eec679-0e2d-40b6-946a-bc307eeeb08a","1000","
                  <p style=""text-align: center;"">₪58
                                                <br>40%</p>
                  <p id=""wtp"" style=""text-align:center; margin-top: 0px; margin-bottom: 0px; font-size: 40px"";>&ensp;</p>","-","viewing","0","20","10C,13A,19C,21B","","","","","","","","","","","","","","","","",""
"","","","","","html-slider-response","58","295413","0.0-17.0-1.13","c0eec679-0e2d-40b6-946a-bc307eeeb08a","null","
                  <p style=""text-align: center;"">₪58
                                                <br>40%</p>
                  <p id=""wtp"" style=""text-align:center; margin-top: 0px; margin-bottom: 0px; font-size: 40px"";>מוכנים לשלם: <span id=""c_p_y""></span></p>","null","evaluation","35","20","10C,13A,19C,21B","40","58","14","","","","","","","","","","","","","",""
"","","","","","html-keyboard-response","59","296870","0.0-17.0-2.13","c0eec679-0e2d-40b6-946a-bc307eeeb08a","null","<p style=""text-align: center;"">+</p>","null","fixation","","","","","","","","","","","","","","","","","","","",""
"","","","","","html-slider-response","60","297873","0.0-17.0-0.14","c0eec679-0e2d-40b6-946a-bc307eeeb08a","1000","
                  <p style=""text-align: center;"">₪43
                                                <br>75%</p>
                  <p id=""wtp"" style=""text-align:center; margin-top: 0px; margin-bottom: 0px; font-size: 40px"";>&ensp;</p>","-","viewing","0","18","11B,19B,24A,26A","","","","","","","","","","","","","","","","",""
"","","","","","html-slider-response","61","301886","0.0-17.0-1.14","c0eec679-0e2d-40b6-946a-bc307eeeb08a","null","
                  <p style=""text-align: center;"">₪43
                                                <br>75%</p>
                  <p id=""wtp"" style=""text-align:center; margin-top: 0px; margin-bottom: 0px; font-size: 40px"";>מוכנים לשלם: <span id=""c_p_y""></span></p>","null","evaluation","52","18","11B,19B,24A,26A","75","43","13","","","","","","","","","","","","","",""
"","","","","","html-keyboard-response","62","302970","0.0-17.0-2.14","c0eec679-0e2d-40b6-946a-bc307eeeb08a","null","<p style=""text-align: center;"">+</p>","null","fixation","","","","","","","","","","","","","","","","","","","",""
"","","","","","html-slider-response","63","303982","0.0-17.0-0.15","c0eec679-0e2d-40b6-946a-bc307eeeb08a","1000","
                  <p style=""text-align: center;"">₪18
                                                <br>50%</p>
                  <p id=""wtp"" style=""text-align:center; margin-top: 0px; margin-bottom: 0px; font-size: 40px"";>&ensp;</p>","-","viewing","0","10","2C,16C,22B,28A","","","","","","","","","","","","","","","","",""
"","","","","","html-slider-response","64","305957","0.0-17.0-1.15","c0eec679-0e2d-40b6-946a-bc307eeeb08a","1974","
                  <p style=""text-align: center;"">₪18
                                                <br>50%</p>
                  <p id=""wtp"" style=""text-align:center; margin-top: 0px; margin-bottom: 0px; font-size: 40px"";>מוכנים לשלם: <span id=""c_p_y""></span></p>","7","evaluation","68","10","2C,16C,22B,28A","50","18","8","","","","","","","","","","","","","",""
"","","","","","html-keyboard-response","65","307063","0.0-17.0-2.15","c0eec679-0e2d-40b6-946a-bc307eeeb08a","null","<p style=""text-align: center;"">+</p>","null","fixation","","","","","","","","","","","","","","","","","","","",""
"","","","","","html-slider-response","66","308065","0.0-17.0-0.16","c0eec679-0e2d-40b6-946a-bc307eeeb08a","1000","
                  <p style=""text-align: center;"">₪64
                                                <br>25%</p>
                  <p id=""wtp"" style=""text-align:center; margin-top: 0px; margin-bottom: 0px; font-size: 40px"";>&ensp;</p>","-","viewing","0","24","6A,21A","","","","","","","","","","","","","","","","",""
"","","","","","html-slider-response","67","311717","0.0-17.0-1.16","c0eec679-0e2d-40b6-946a-bc307eeeb08a","3651","
                  <p style=""text-align: center;"">₪64
                                                <br>25%</p>
                  <p id=""wtp"" style=""text-align:center; margin-top: 0px; margin-bottom: 0px; font-size: 40px"";>מוכנים לשלם: <span id=""c_p_y""></span></p>","12","evaluation","31","24","6A,21A","25","64","13","","","","","","","","","","","","","",""
"","","","","","html-keyboard-response","68","312882","0.0-17.0-2.16","c0eec679-0e2d-40b6-946a-bc307eeeb08a","null","<p style=""text-align: center;"">+</p>","null","fixation","","","","","","","","","","","","","","","","","","","",""
"","","","","","html-slider-response","69","313892","0.0-17.0-0.17","c0eec679-0e2d-40b6-946a-bc307eeeb08a","1000","
                  <p style=""text-align: center;"">₪4
                                                <br>50%</p>
                  <p id=""wtp"" style=""text-align:center; margin-top: 0px; margin-bottom: 0px; font-size: 40px"";>&ensp;</p>","-","viewing","0","2","4C,17B","","","","","","","","","","","","","","","","",""
"","","","","","html-slider-response","70","317069","0.0-17.0-1.17","c0eec679-0e2d-40b6-946a-bc307eeeb08a","3174","
                  <p style=""text-align: center;"">₪4
                                                <br>50%</p>
                  <p id=""wtp"" style=""text-align:center; margin-top: 0px; margin-bottom: 0px; font-size: 40px"";>מוכנים לשלם: <span id=""c_p_y""></span></p>","0","evaluation","9","2","4C,17B","50","4","1","","","","","","","","","","","","","",""
"","","","","","html-keyboard-response","71","318381","0.0-17.0-2.17","c0eec679-0e2d-40b6-946a-bc307eeeb08a","null","<p style=""text-align: center;"">+</p>","null","fixation","","","","","","","","","","","","","","","","","","","",""
"","","","","","html-slider-response","72","319397","0.0-17.0-0.18","c0eec679-0e2d-40b6-946a-bc307eeeb08a","1000","
                  <p style=""text-align: center;"">₪76
                                                <br>65%</p>
                  <p id=""wtp"" style=""text-align:center; margin-top: 0px; margin-bottom: 0px; font-size: 40px"";>&ensp;</p>","-","viewing","0","29","8C,19A,24B","","","","","","","","","","","","","","","","",""
"","","","","","html-slider-response","73","323405","0.0-17.0-1.18","c0eec679-0e2d-40b6-946a-bc307eeeb08a","null","
                  <p style=""text-align: center;"">₪76
                                                <br>65%</p>
                  <p id=""wtp"" style=""text-align:center; margin-top: 0px; margin-bottom: 0px; font-size: 40px"";>מוכנים לשלם: <span id=""c_p_y""></span></p>","null","evaluation","30","29","8C,19A,24B","65","76","23","","","","","","","","","","","","","",""
"","","","","","html-keyboard-response","74","323996","0.0-17.0-2.18","c0eec679-0e2d-40b6-946a-bc307eeeb08a","null","<p style=""text-align: center;"">+</p>","null","fixation","","","","","","","","","","","","","","","","","","","",""
"","","","","","html-slider-response","75","325003","0.0-17.0-0.19","c0eec679-0e2d-40b6-946a-bc307eeeb08a","1000","
                  <p style=""text-align: center;"">₪39
                                                <br>65%</p>
                  <p id=""wtp"" style=""text-align:center; margin-top: 0px; margin-bottom: 0px; font-size: 40px"";>&ensp;</p>","-","viewing","0","16","1A,15A,26C","","","","","","","","","","","","","","","","",""
"","","","","","html-slider-response","76","329005","0.0-17.0-1.19","c0eec679-0e2d-40b6-946a-bc307eeeb08a","null","
                  <p style=""text-align: center;"">₪39
                                                <br>65%</p>
                  <p id=""wtp"" style=""text-align:center; margin-top: 0px; margin-bottom: 0px; font-size: 40px"";>מוכנים לשלם: <span id=""c_p_y""></span></p>","null","evaluation","12","16","1A,15A,26C","65","39","16","","","","","","","","","","","","","",""
"","","","","","html-keyboard-response","77","329521","0.0-17.0-2.19","c0eec679-0e2d-40b6-946a-bc307eeeb08a","null","<p style=""text-align: center;"">+</p>","null","fixation","","","","","","","","","","","","","","","","","","","",""
"","","","","","html-slider-response","78","330535","0.0-17.0-0.20","c0eec679-0e2d-40b6-946a-bc307eeeb08a","1000","
                  <p style=""text-align: center;"">₪4
                                                <br>75%</p>
                  <p id=""wtp"" style=""text-align:center; margin-top: 0px; margin-bottom: 0px; font-size: 40px"";>&ensp;</p>","-","viewing","0","3","12B,20B,23B,27C,29C","","","","","","","","","","","","","","","","",""
"","","","","","html-slider-response","79","332660","0.0-17.0-1.20","c0eec679-0e2d-40b6-946a-bc307eeeb08a","2124","
                  <p style=""text-align: center;"">₪4
                                                <br>75%</p>
                  <p id=""wtp"" style=""text-align:center; margin-top: 0px; margin-bottom: 0px; font-size: 40px"";>מוכנים לשלם: <span id=""c_p_y""></span></p>","1","evaluation","20","3","12B,20B,23B,27C,29C","75","4","2","","","","","","","","","","","","","",""
"","","","","","html-keyboard-response","80","333470","0.0-17.0-2.20","c0eec679-0e2d-40b6-946a-bc307eeeb08a","null","<p style=""text-align: center;"">+</p>","null","fixation","","","","","","","","","","","","","","","","","","","",""
"","","","","","html-slider-response","81","334481","0.0-17.0-0.21","c0eec679-0e2d-40b6-946a-bc307eeeb08a","1000","
                  <p style=""text-align: center;"">₪79
                                                <br>65%</p>
                  <p id=""wtp"" style=""text-align:center; margin-top: 0px; margin-bottom: 0px; font-size: 40px"";>&ensp;</p>","-","viewing","0","31","8A","","","","","","","","","","","","","","","","",""
"","","","","","html-slider-response","82","338388","0.0-17.0-1.21","c0eec679-0e2d-40b6-946a-bc307eeeb08a","3906","
                  <p style=""text-align: center;"">₪79
                                                <br>65%</p>
                  <p id=""wtp"" style=""text-align:center; margin-top: 0px; margin-bottom: 0px; font-size: 40px"";>מוכנים לשלם: <span id=""c_p_y""></span></p>","24","evaluation","15","31","8A","65","79","24","","","","","","","","","","","","","",""
"","","","","","html-keyboard-response","83","339011","0.0-17.0-2.21","c0eec679-0e2d-40b6-946a-bc307eeeb08a","null","<p style=""text-align: center;"">+</p>","null","fixation","","","","","","","","","","","","","","","","","","","",""
"","","","","","html-slider-response","84","340013","0.0-17.0-0.22","c0eec679-0e2d-40b6-946a-bc307eeeb08a","1000","
                  <p style=""text-align: center;"">₪4
                                                <br>25%</p>
                  <p id=""wtp"" style=""text-align:center; margin-top: 0px; margin-bottom: 0px; font-size: 40px"";>&ensp;</p>","-","viewing","0","1","6C,29B,30C","","","","","","","","","","","","","","","","",""
"","","","","","html-slider-response","85","342237","0.0-17.0-1.22","c0eec679-0e2d-40b6-946a-bc307eeeb08a","2222","
                  <p style=""text-align: center;"">₪4
                                                <br>25%</p>
                  <p id=""wtp"" style=""text-align:center; margin-top: 0px; margin-bottom: 0px; font-size: 40px"";>מוכנים לשלם: <span id=""c_p_y""></span></p>","0","evaluation","80","1","6C,29B,30C","25","4","1","","","","","","","","","","","","","",""
"","","","","","html-keyboard-response","86","342966","0.0-17.0-2.22","c0eec679-0e2d-40b6-946a-bc307eeeb08a","null","<p style=""text-align: center;"">+</p>","null","fixation","","","","","","","","","","","","","","","","","","","",""
"","","","","","html-slider-response","87","343969","0.0-17.0-0.23","c0eec679-0e2d-40b6-946a-bc307eeeb08a","1000","
                  <p style=""text-align: center;"">₪61
                                                <br>45%</p>
                  <p id=""wtp"" style=""text-align:center; margin-top: 0px; margin-bottom: 0px; font-size: 40px"";>&ensp;</p>","-","viewing","0","22","10A,11A","","","","","","","","","","","","","","","","",""
"","","","","","html-slider-response","88","346749","0.0-17.0-1.23","c0eec679-0e2d-40b6-946a-bc307eeeb08a","2778","
                  <p style=""text-align: center;"">₪61
                                                <br>45%</p>
                  <p id=""wtp"" style=""text-align:center; margin-top: 0px; margin-bottom: 0px; font-size: 40px"";>מוכנים לשלם: <span id=""c_p_y""></span></p>","20","evaluation","57","22","10A,11A","45","61","21","","","","","","","","","","","","","",""
"","","","","","html-keyboard-response","89","348226","0.0-17.0-2.23","c0eec679-0e2d-40b6-946a-bc307eeeb08a","null","<p style=""text-align: center;"">+</p>","null","fixation","","","","","","","","","","","","","","","","","","","",""
"","","","","","html-slider-response","90","349228","0.0-17.0-0.24","c0eec679-0e2d-40b6-946a-bc307eeeb08a","1000","
                  <p style=""text-align: center;"">₪43
                                                <br>60%</p>
                  <p id=""wtp"" style=""text-align:center; margin-top: 0px; margin-bottom: 0px; font-size: 40px"";>&ensp;</p>","-","viewing","0","17","2A,7A,9A,15B","","","","","","","","","","","","","","","","",""
"","","","","","html-slider-response","91","353234","0.0-17.0-1.24","c0eec679-0e2d-40b6-946a-bc307eeeb08a","null","
                  <p style=""text-align: center;"">₪43
                                                <br>60%</p>
                  <p id=""wtp"" style=""text-align:center; margin-top: 0px; margin-bottom: 0px; font-size: 40px"";>מוכנים לשלם: <span id=""c_p_y""></span></p>","null","evaluation","20","17","2A,7A,9A,15B","60","43","23","","","","","","","","","","","","","",""
"","","","","","html-keyboard-response","92","354654","0.0-17.0-2.24","c0eec679-0e2d-40b6-946a-bc307eeeb08a","null","<p style=""text-align: center;"">+</p>","null","fixation","","","","","","","","","","","","","","","","","","","",""
"","","","","","html-slider-response","93","355661","0.0-17.0-0.25","c0eec679-0e2d-40b6-946a-bc307eeeb08a","1000","
                  <p style=""text-align: center;"">₪58
                                                <br>45%</p>
                  <p id=""wtp"" style=""text-align:center; margin-top: 0px; margin-bottom: 0px; font-size: 40px"";>&ensp;</p>","-","viewing","0","21","11C,18C,25A","","","","","","","","","","","","","","","","",""
"","","","","","html-slider-response","94","359013","0.0-17.0-1.25","c0eec679-0e2d-40b6-946a-bc307eeeb08a","3350","
                  <p style=""text-align: center;"">₪58
                                                <br>45%</p>
                  <p id=""wtp"" style=""text-align:center; margin-top: 0px; margin-bottom: 0px; font-size: 40px"";>מוכנים לשלם: <span id=""c_p_y""></span></p>","16","evaluation","4","21","11C,18C,25A","45","58","17","","","","","","","","","","","","","",""
"","","","","","html-keyboard-response","95","360291","0.0-17.0-2.25","c0eec679-0e2d-40b6-946a-bc307eeeb08a","null","<p style=""text-align: center;"">+</p>","null","fixation","","","","","","","","","","","","","","","","","","","",""
"","","","","","html-slider-response","96","361296","0.0-17.0-0.26","c0eec679-0e2d-40b6-946a-bc307eeeb08a","1000","
                  <p style=""text-align: center;"">₪39
                                                <br>60%</p>
                  <p id=""wtp"" style=""text-align:center; margin-top: 0px; margin-bottom: 0px; font-size: 40px"";>&ensp;</p>","-","viewing","0","15","9C,25B","","","","","","","","","","","","","","","","",""
"","","","","","html-slider-response","97","365302","0.0-17.0-1.26","c0eec679-0e2d-40b6-946a-bc307eeeb08a","null","
                  <p style=""text-align: center;"">₪39
                                                <br>60%</p>
                  <p id=""wtp"" style=""text-align:center; margin-top: 0px; margin-bottom: 0px; font-size: 40px"";>מוכנים לשלם: <span id=""c_p_y""></span></p>","null","evaluation","72","15","9C,25B","60","39","17","","","","","","","","","","","","","",""
"","","","","","html-keyboard-response","98","365979","0.0-17.0-2.26","c0eec679-0e2d-40b6-946a-bc307eeeb08a","null","<p style=""text-align: center;"">+</p>","null","fixation","","","","","","","","","","","","","","","","","","","",""
"","","","","","html-slider-response","99","366982","0.0-17.0-0.27","c0eec679-0e2d-40b6-946a-bc307eeeb08a","1000","
                  <p style=""text-align: center;"">₪58
                                                <br>30%</p>
                  <p id=""wtp"" style=""text-align:center; margin-top: 0px; margin-bottom: 0px; font-size: 40px"";>&ensp;</p>","-","viewing","0","19","13C,30A","","","","","","","","","","","","","","","","",""
"","","","","","html-slider-response","100","370986","0.0-17.0-1.27","c0eec679-0e2d-40b6-946a-bc307eeeb08a","null","
                  <p style=""text-align: center;"">₪58
                                                <br>30%</p>
                  <p id=""wtp"" style=""text-align:center; margin-top: 0px; margin-bottom: 0px; font-size: 40px"";>מוכנים לשלם: <span id=""c_p_y""></span></p>","null","evaluation","55","19","13C,30A","30","58","21","","","","","","","","","","","","","",""
"","","","","","html-keyboard-response","101","372169","0.0-17.0-2.27","c0eec679-0e2d-40b6-946a-bc307eeeb08a","null","<p style=""text-align: center;"">+</p>","null","fixation","","","","","","","","","","","","","","","","","","","",""
"","","","","","html-slider-response","102","373172","0.0-17.0-0.28","c0eec679-0e2d-40b6-946a-bc307eeeb08a","1000","
                  <p style=""text-align: center;"">₪61
                                                <br>55%</p>
                  <p id=""wtp"" style=""text-align:center; margin-top: 0px; margin-bottom: 0px; font-size: 40px"";>&ensp;</p>","-","viewing","0","23","7B,26B","","","","","","","","","","","","","","","","",""
"","","","","","html-slider-response","103","375877","0.0-17.0-1.28","c0eec679-0e2d-40b6-946a-bc307eeeb08a","2702","
                  <p style=""text-align: center;"">₪61
                                                <br>55%</p>
                  <p id=""wtp"" style=""text-align:center; margin-top: 0px; margin-bottom: 0px; font-size: 40px"";>מוכנים לשלם: <span id=""c_p_y""></span></p>","25","evaluation","0","23","7B,26B","55","61","25","","","","","","","","","","","","","",""
"","","","","","html-keyboard-response","104","376651","0.0-17.0-2.28","c0eec679-0e2d-40b6-946a-bc307eeeb08a","null","<p style=""text-align: center;"">+</p>","null","fixation","","","","","","","","","","","","","","","","","","","",""
"","","","","","html-slider-response","105","377658","0.0-17.0-0.29","c0eec679-0e2d-40b6-946a-bc307eeeb08a","1000","
                  <p style=""text-align: center;"">₪16
                                                <br>20%</p>
                  <p id=""wtp"" style=""text-align:center; margin-top: 0px; margin-bottom: 0px; font-size: 40px"";>&ensp;</p>","-","viewing","0","8","14C,17A,20C,27A","","","","","","","","","","","","","","","","",""
"","","","","","html-slider-response","106","381397","0.0-17.0-1.29","c0eec679-0e2d-40b6-946a-bc307eeeb08a","3737","
                  <p style=""text-align: center;"">₪16
                                                <br>20%</p>
                  <p id=""wtp"" style=""text-align:center; margin-top: 0px; margin-bottom: 0px; font-size: 40px"";>מוכנים לשלם: <span id=""c_p_y""></span></p>","2","evaluation","54","8","14C,17A,20C,27A","20","16","3","","","","","","","","","","","","","",""
"","","","","","html-keyboard-response","107","382252","0.0-17.0-2.29","c0eec679-0e2d-40b6-946a-bc307eeeb08a","null","<p style=""text-align: center;"">+</p>","null","fixation","","","","","","","","","","","","","","","","","","","",""
"","","","","","html-slider-response","108","383255","0.0-17.0-0.30","c0eec679-0e2d-40b6-946a-bc307eeeb08a","1000","
                  <p style=""text-align: center;"">₪18
                                                <br>25%</p>
                  <p id=""wtp"" style=""text-align:center; margin-top: 0px; margin-bottom: 0px; font-size: 40px"";>&ensp;</p>","-","viewing","0","9","14A,23A","","","","","","","","","","","","","","","","",""
"","","","","","html-slider-response","109","387257","0.0-17.0-1.30","c0eec679-0e2d-40b6-946a-bc307eeeb08a","null","
                  <p style=""text-align: center;"">₪18
                                                <br>25%</p>
                  <p id=""wtp"" style=""text-align:center; margin-top: 0px; margin-bottom: 0px; font-size: 40px"";>מוכנים לשלם: <span id=""c_p_y""></span></p>","null","evaluation","46","9","14A,23A","25","18","20","","","","","","","","","","","","","",""
"","","","","","html-keyboard-response","110","388016","0.0-17.0-2.30","c0eec679-0e2d-40b6-946a-bc307eeeb08a","null","<p style=""text-align: center;"">+</p>","null","fixation","","","","","","","","","","","","","","","","","","","",""
"","","","","","html-keyboard-response","111","389028","0.0-18.0","c0eec679-0e2d-40b6-946a-bc307eeeb08a","null","<p style=""text-align: center;"">+</p>","null","fixation","","","","","","","","","","","","","","","","","","","",""
"","","","","","html-keyboard-response","112","391476","0.0-19.0","c0eec679-0e2d-40b6-946a-bc307eeeb08a","null","<p>הפסקה.
          <br>לחצו כדי להמשיך.</p>","1","scan_wait","","","","","","","","","","","","","","","","","","","",""
"","","","","","html-keyboard-response","113","392484","0.0-20.0","c0eec679-0e2d-40b6-946a-bc307eeeb08a","null","<p style=""text-align: center;"">+</p>","null","fixation","","","","","","","","","","","","","","","","","","","",""
"","","","","","html-slider-response","114","393500","0.0-21.0-0.0","c0eec679-0e2d-40b6-946a-bc307eeeb08a","1000","
                  <p style=""text-align: center;"">₪64
                                                <br>50%</p>
                  <p id=""wtp"" style=""text-align:center; margin-top: 0px; margin-bottom: 0px; font-size: 40px"";>&ensp;</p>","-","viewing","0","25","1B,3B,4A","","","","","","","","","","","","","","","","",""
"","","","","","html-slider-response","115","396092","0.0-21.0-1.0","c0eec679-0e2d-40b6-946a-bc307eeeb08a","2591","
                  <p style=""text-align: center;"">₪64
                                                <br>50%</p>
                  <p id=""wtp"" style=""text-align:center; margin-top: 0px; margin-bottom: 0px; font-size: 40px"";>מוכנים לשלם: <span id=""c_p_y""></span></p>","24","evaluation","56","25","1B,3B,4A","50","64","24","","","","","","","","","","","","","",""
"","","","","","html-keyboard-response","116","397342","0.0-21.0-2.0","c0eec679-0e2d-40b6-946a-bc307eeeb08a","null","<p style=""text-align: center;"">+</p>","null","fixation","","","","","","","","","","","","","","","","","","","",""
"","","","","","html-slider-response","117","398356","0.0-21.0-0.1","c0eec679-0e2d-40b6-946a-bc307eeeb08a","1000","
                  <p style=""text-align: center;"">₪79
                                                <br>65%</p>
                  <p id=""wtp"" style=""text-align:center; margin-top: 0px; margin-bottom: 0px; font-size: 40px"";>&ensp;</p>","-","viewing","0","31","8A","","","","","","","","","","","","","","","","",""
"","","","","","html-slider-response","118","401524","0.0-21.0-1.1","c0eec679-0e2d-40b6-946a-bc307eeeb08a","3167","
                  <p style=""text-align: center;"">₪79
                                                <br>65%</p>
                  <p id=""wtp"" style=""text-align:center; margin-top: 0px; margin-bottom: 0px; font-size: 40px"";>מוכנים לשלם: <span id=""c_p_y""></span></p>","20","evaluation","73","31","8A","65","79","20","","","","","","","","","","","","","",""
"","","","","","html-keyboard-response","119","402800","0.0-21.0-2.1","c0eec679-0e2d-40b6-946a-bc307eeeb08a","null","<p style=""text-align: center;"">+</p>","null","fixation","","","","","","","","","","","","","","","","","","","",""
"","","","","","html-slider-response","120","403806","0.0-21.0-0.2","c0eec679-0e2d-40b6-946a-bc307eeeb08a","1000","
                  <p style=""text-align: center;"">₪11
                                                <br>25%</p>
                  <p id=""wtp"" style=""text-align:center; margin-top: 0px; margin-bottom: 0px; font-size: 40px"";>&ensp;</p>","-","viewing","0","5","12A,27B,28B,30B","","","","","","","","","","","","","","","","",""
"","","","","","html-slider-response","121","407476","0.0-21.0-1.2","c0eec679-0e2d-40b6-946a-bc307eeeb08a","3669","
                  <p style=""text-align: center;"">₪11
                                                <br>25%</p>
                  <p id=""wtp"" style=""text-align:center; margin-top: 0px; margin-bottom: 0px; font-size: 40px"";>מוכנים לשלם: <span id=""c_p_y""></span></p>","2","evaluation","72","5","12A,27B,28B,30B","25","11","3","","","","","","","","","","","","","",""
"","","","","","html-keyboard-response","122","408821","0.0-21.0-2.2","c0eec679-0e2d-40b6-946a-bc307eeeb08a","null","<p style=""text-align: center;"">+</p>","null","fixation","","","","","","","","","","","","","","","","","","","",""
"","","","","","html-slider-response","123","409824","0.0-21.0-0.3","c0eec679-0e2d-40b6-946a-bc307eeeb08a","1000","
                  <p style=""text-align: center;"">₪61
                                                <br>45%</p>
                  <p id=""wtp"" style=""text-align:center; margin-top: 0px; margin-bottom: 0px; font-size: 40px"";>&ensp;</p>","-","viewing","0","22","10A,11A","","","","","","","","","","","","","","","","",""
"","","","","","html-slider-response","124","412724","0.0-21.0-1.3","c0eec679-0e2d-40b6-946a-bc307eeeb08a","2899","
                  <p style=""text-align: center;"">₪61
                                                <br>45%</p>
                  <p id=""wtp"" style=""text-align:center; margin-top: 0px; margin-bottom: 0px; font-size: 40px"";>מוכנים לשלם: <span id=""c_p_y""></span></p>","17","evaluation","79","22","10A,11A","45","61","18","","","","","","","","","","","","","",""
"","","","","","html-keyboard-response","125","413365","0.0-21.0-2.3","c0eec679-0e2d-40b6-946a-bc307eeeb08a","null","<p style=""text-align: center;"">+</p>","null","fixation","","","","","","","","","","","","","","","","","","","",""
"","","","","","html-slider-response","126","414368","0.0-21.0-0.4","c0eec679-0e2d-40b6-946a-bc307eeeb08a","1000","
                  <p style=""text-align: center;"">₪4
                                                <br>50%</p>
                  <p id=""wtp"" style=""text-align:center; margin-top: 0px; margin-bottom: 0px; font-size: 40px"";>&ensp;</p>","-","viewing","0","2","4C,17B","","","","","","","","","","","","","","","","",""
"","","","","","html-slider-response","127","417180","0.0-21.0-1.4","c0eec679-0e2d-40b6-946a-bc307eeeb08a","2811","
                  <p style=""text-align: center;"">₪4
                                                <br>50%</p>
                  <p id=""wtp"" style=""text-align:center; margin-top: 0px; margin-bottom: 0px; font-size: 40px"";>מוכנים לשלם: <span id=""c_p_y""></span></p>","1","evaluation","42","2","4C,17B","50","4","1","","","","","","","","","","","","","",""
"","","","","","html-keyboard-response","128","418094","0.0-21.0-2.4","c0eec679-0e2d-40b6-946a-bc307eeeb08a","null","<p style=""text-align: center;"">+</p>","null","fixation","","","","","","","","","","","","","","","","","","","",""
"","","","","","html-slider-response","129","419097","0.0-21.0-0.5","c0eec679-0e2d-40b6-946a-bc307eeeb08a","1000","
                  <p style=""text-align: center;"">₪76
                                                <br>65%</p>
                  <p id=""wtp"" style=""text-align:center; margin-top: 0px; margin-bottom: 0px; font-size: 40px"";>&ensp;</p>","-","viewing","0","29","8C,19A,24B","","","","","","","","","","","","","","","","",""
"","","","","","html-slider-response","130","423060","0.0-21.0-1.5","c0eec679-0e2d-40b6-946a-bc307eeeb08a","3962","
                  <p style=""text-align: center;"">₪76
                                                <br>65%</p>
                  <p id=""wtp"" style=""text-align:center; margin-top: 0px; margin-bottom: 0px; font-size: 40px"";>מוכנים לשלם: <span id=""c_p_y""></span></p>","34","evaluation","51","29","8C,19A,24B","65","76","34","","","","","","","","","","","","","",""
"","","","","","html-keyboard-response","131","423583","0.0-21.0-2.5","c0eec679-0e2d-40b6-946a-bc307eeeb08a","null","<p style=""text-align: center;"">+</p>","null","fixation","","","","","","","","","","","","","","","","","","","",""
"","","","","","html-slider-response","132","424594","0.0-21.0-0.6","c0eec679-0e2d-40b6-946a-bc307eeeb08a","1000","
                  <p style=""text-align: center;"">₪18
                                                <br>25%</p>
                  <p id=""wtp"" style=""text-align:center; margin-top: 0px; margin-bottom: 0px; font-size: 40px"";>&ensp;</p>","-","viewing","0","9","14A,23A","","","","","","","","","","","","","","","","",""
"","","","","","html-slider-response","133","428612","0.0-21.0-1.6","c0eec679-0e2d-40b6-946a-bc307eeeb08a","null","
                  <p style=""text-align: center;"">₪18
                                                <br>25%</p>
                  <p id=""wtp"" style=""text-align:center; margin-top: 0px; margin-bottom: 0px; font-size: 40px"";>מוכנים לשלם: <span id=""c_p_y""></span></p>","null","evaluation","72","9","14A,23A","25","18","4","","","","","","","","","","","","","",""
"","","","","","html-keyboard-response","134","429572","0.0-21.0-2.6","c0eec679-0e2d-40b6-946a-bc307eeeb08a","null","<p style=""text-align: center;"">+</p>","null","fixation","","","","","","","","","","","","","","","","","","","",""
"","","","","","html-slider-response","135","430576","0.0-21.0-0.7","c0eec679-0e2d-40b6-946a-bc307eeeb08a","1000","
                  <p style=""text-align: center;"">₪39
                                                <br>65%</p>
                  <p id=""wtp"" style=""text-align:center; margin-top: 0px; margin-bottom: 0px; font-size: 40px"";>&ensp;</p>","-","viewing","0","16","1A,15A,26C","","","","","","","","","","","","","","","","",""
"","","","","","html-slider-response","136","433060","0.0-21.0-1.7","c0eec679-0e2d-40b6-946a-bc307eeeb08a","2483","
                  <p style=""text-align: center;"">₪39
                                                <br>65%</p>
                  <p id=""wtp"" style=""text-align:center; margin-top: 0px; margin-bottom: 0px; font-size: 40px"";>מוכנים לשלם: <span id=""c_p_y""></span></p>","17","evaluation","35","16","1A,15A,26C","65","39","17","","","","","","","","","","","","","",""
"","","","","","html-keyboard-response","137","434400","0.0-21.0-2.7","c0eec679-0e2d-40b6-946a-bc307eeeb08a","null","<p style=""text-align: center;"">+</p>","null","fixation","","","","","","","","","","","","","","","","","","","",""
"","","","","","html-slider-response","138","435415","0.0-21.0-0.8","c0eec679-0e2d-40b6-946a-bc307eeeb08a","1000","
                  <p style=""text-align: center;"">₪16
                                                <br>20%</p>
                  <p id=""wtp"" style=""text-align:center; margin-top: 0px; margin-bottom: 0px; font-size: 40px"";>&ensp;</p>","-","viewing","0","8","14C,17A,20C,27A","","","","","","","","","","","","","","","","",""
"","","","","","html-slider-response","139","438212","0.0-21.0-1.8","c0eec679-0e2d-40b6-946a-bc307eeeb08a","2795","
                  <p style=""text-align: center;"">₪16
                                                <br>20%</p>
                  <p id=""wtp"" style=""text-align:center; margin-top: 0px; margin-bottom: 0px; font-size: 40px"";>מוכנים לשלם: <span id=""c_p_y""></span></p>","3","evaluation","48","8","14C,17A,20C,27A","20","16","4","","","","","","","","","","","","","",""
"","","","","","html-keyboard-response","140","439221","0.0-21.0-2.8","c0eec679-0e2d-40b6-946a-bc307eeeb08a","null","<p style=""text-align: center;"">+</p>","null","fixation","","","","","","","","","","","","","","","","","","","",""
"","","","","","html-slider-response","141","440222","0.0-21.0-0.9","c0eec679-0e2d-40b6-946a-bc307eeeb08a","1000","
                  <p style=""text-align: center;"">₪11
                                                <br>45%</p>
                  <p id=""wtp"" style=""text-align:center; margin-top: 0px; margin-bottom: 0px; font-size: 40px"";>&ensp;</p>","-","viewing","0","6","14B,21C,25C","","","","","","","","","","","","","","","","",""
"","","","","","html-slider-response","142","444157","0.0-21.0-1.9","c0eec679-0e2d-40b6-946a-bc307eeeb08a","3932","
                  <p style=""text-align: center;"">₪11
                                                <br>45%</p>
                  <p id=""wtp"" style=""text-align:center; margin-top: 0px; margin-bottom: 0px; font-size: 40px"";>מוכנים לשלם: <span id=""c_p_y""></span></p>","4","evaluation","70","6","14B,21C,25C","45","11","5","","","","","","","","","","","","","",""
"","","","","","html-keyboard-response","143","445335","0.0-21.0-2.9","c0eec679-0e2d-40b6-946a-bc307eeeb08a","null","<p style=""text-align: center;"">+</p>","null","fixation","","","","","","","","","","","","","","","","","","","",""
"","","","","","html-slider-response","144","446344","0.0-21.0-0.10","c0eec679-0e2d-40b6-946a-bc307eeeb08a","1000","
                  <p style=""text-align: center;"">₪71
                                                <br>45%</p>
                  <p id=""wtp"" style=""text-align:center; margin-top: 0px; margin-bottom: 0px; font-size: 40px"";>&ensp;</p>","-","viewing","0","26","2B,16A","","","","","","","","","","","","","","","","",""
"","","","","","html-slider-response","145","450356","0.0-21.0-1.10","c0eec679-0e2d-40b6-946a-bc307eeeb08a","null","
                  <p style=""text-align: center;"">₪71
                                                <br>45%</p>
                  <p id=""wtp"" style=""text-align:center; margin-top: 0px; margin-bottom: 0px; font-size: 40px"";>מוכנים לשלם: <span id=""c_p_y""></span></p>","null","evaluation","18","26","2B,16A","45","71","21","","","","","","","","","","","","","",""
"","","","","","html-keyboard-response","146","451333","0.0-21.0-2.10","c0eec679-0e2d-40b6-946a-bc307eeeb08a","null","<p style=""text-align: center;"">+</p>","null","fixation","","","","","","","","","","","","","","","","","","","",""
"","","","","","html-slider-response","147","452335","0.0-21.0-0.11","c0eec679-0e2d-40b6-946a-bc307eeeb08a","1000","
                  <p style=""text-align: center;"">₪43
                                                <br>60%</p>
                  <p id=""wtp"" style=""text-align:center; margin-top: 0px; margin-bottom: 0px; font-size: 40px"";>&ensp;</p>","-","viewing","0","17","2A,7A,9A,15B","","","","","","","","","","","","","","","","",""
"","","","","","html-slider-response","148","456338","0.0-21.0-1.11","c0eec679-0e2d-40b6-946a-bc307eeeb08a","null","
                  <p style=""text-align: center;"">₪43
                                                <br>60%</p>
                  <p id=""wtp"" style=""text-align:center; margin-top: 0px; margin-bottom: 0px; font-size: 40px"";>מוכנים לשלם: <span id=""c_p_y""></span></p>","null","evaluation","69","17","2A,7A,9A,15B","60","43","16","","","","","","","","","","","","","",""
"","","","","","html-keyboard-response","149","457693","0.0-21.0-2.11","c0eec679-0e2d-40b6-946a-bc307eeeb08a","null","<p style=""text-align: center;"">+</p>","null","fixation","","","","","","","","","","","","","","","","","","","",""
"","","","","","html-slider-response","150","458702","0.0-21.0-0.12","c0eec679-0e2d-40b6-946a-bc307eeeb08a","1000","
                  <p style=""text-align: center;"">₪58
                                                <br>40%</p>
                  <p id=""wtp"" style=""text-align:center; margin-top: 0px; margin-bottom: 0px; font-size: 40px"";>&ensp;</p>","-","viewing","0","20","10C,13A,19C,21B","","","","","","","","","","","","","","","","",""
"","","","","","html-slider-response","151","462660","0.0-21.0-1.12","c0eec679-0e2d-40b6-946a-bc307eeeb08a","3957","
                  <p style=""text-align: center;"">₪58
                                                <br>40%</p>
                  <p id=""wtp"" style=""text-align:center; margin-top: 0px; margin-bottom: 0px; font-size: 40px"";>מוכנים לשלם: <span id=""c_p_y""></span></p>","16","evaluation","14","20","10C,13A,19C,21B","40","58","17","","","","","","","","","","","","","",""
"","","","","","html-keyboard-response","152","463365","0.0-21.0-2.12","c0eec679-0e2d-40b6-946a-bc307eeeb08a","null","<p style=""text-align: center;"">+</p>","null","fixation","","","","","","","","","","","","","","","","","","","",""
"","","","","","html-slider-response","153","464377","0.0-21.0-0.13","c0eec679-0e2d-40b6-946a-bc307eeeb08a","1000","
                  <p style=""text-align: center;"">₪4
                                                <br>75%</p>
                  <p id=""wtp"" style=""text-align:center; margin-top: 0px; margin-bottom: 0px; font-size: 40px"";>&ensp;</p>","-","viewing","0","3","12B,20B,23B,27C,29C","","","","","","","","","","","","","","","","",""
"","","","","","html-slider-response","154","466196","0.0-21.0-1.13","c0eec679-0e2d-40b6-946a-bc307eeeb08a","1817","
                  <p style=""text-align: center;"">₪4
                                                <br>75%</p>
                  <p id=""wtp"" style=""text-align:center; margin-top: 0px; margin-bottom: 0px; font-size: 40px"";>מוכנים לשלם: <span id=""c_p_y""></span></p>","1","evaluation","34","3","12B,20B,23B,27C,29C","75","4","2","","","","","","","","","","","","","",""
"","","","","","html-keyboard-response","155","467157","0.0-21.0-2.13","c0eec679-0e2d-40b6-946a-bc307eeeb08a","null","<p style=""text-align: center;"">+</p>","null","fixation","","","","","","","","","","","","","","","","","","","",""
"","","","","","html-slider-response","156","468161","0.0-21.0-0.14","c0eec679-0e2d-40b6-946a-bc307eeeb08a","1000","
                  <p style=""text-align: center;"">₪64
                                                <br>25%</p>
                  <p id=""wtp"" style=""text-align:center; margin-top: 0px; margin-bottom: 0px; font-size: 40px"";>&ensp;</p>","-","viewing","0","24","6A,21A","","","","","","","","","","","","","","","","",""
"","","","","","html-slider-response","157","472156","0.0-21.0-1.14","c0eec679-0e2d-40b6-946a-bc307eeeb08a","3994","
                  <p style=""text-align: center;"">₪64
                                                <br>25%</p>
                  <p id=""wtp"" style=""text-align:center; margin-top: 0px; margin-bottom: 0px; font-size: 40px"";>מוכנים לשלם: <span id=""c_p_y""></span></p>","20","evaluation","28","24","6A,21A","25","64","21","","","","","","","","","","","","","",""
"","","","","","html-keyboard-response","158","472966","0.0-21.0-2.14","c0eec679-0e2d-40b6-946a-bc307eeeb08a","null","<p style=""text-align: center;"">+</p>","null","fixation","","","","","","","","","","","","","","","","","","","",""
"","","","","","html-slider-response","159","473973","0.0-21.0-0.15","c0eec679-0e2d-40b6-946a-bc307eeeb08a","1000","
                  <p style=""text-align: center;"">₪36
                                                <br>30%</p>
                  <p id=""wtp"" style=""text-align:center; margin-top: 0px; margin-bottom: 0px; font-size: 40px"";>&ensp;</p>","-","viewing","0","11","3C,20A,22A","","","","","","","","","","","","","","","","",""
"","","","","","html-slider-response","160","477975","0.0-21.0-1.15","c0eec679-0e2d-40b6-946a-bc307eeeb08a","null","
                  <p style=""text-align: center;"">₪36
                                                <br>30%</p>
                  <p id=""wtp"" style=""text-align:center; margin-top: 0px; margin-bottom: 0px; font-size: 40px"";>מוכנים לשלם: <span id=""c_p_y""></span></p>","null","evaluation","12","11","3C,20A,22A","30","36","14","","","","","","","","","","","","","",""
"","","","","","html-keyboard-response","161","478537","0.0-21.0-2.15","c0eec679-0e2d-40b6-946a-bc307eeeb08a","null","<p style=""text-align: center;"">+</p>","null","fixation","","","","","","","","","","","","","","","","","","","",""
"","","","","","html-slider-response","162","479554","0.0-21.0-0.16","c0eec679-0e2d-40b6-946a-bc307eeeb08a","1000","
                  <p style=""text-align: center;"">₪58
                                                <br>45%</p>
                  <p id=""wtp"" style=""text-align:center; margin-top: 0px; margin-bottom: 0px; font-size: 40px"";>&ensp;</p>","-","viewing","0","21","11C,18C,25A","","","","","","","","","","","","","","","","",""
"","","","","","html-slider-response","163","482028","0.0-21.0-1.16","c0eec679-0e2d-40b6-946a-bc307eeeb08a","2473","
                  <p style=""text-align: center;"">₪58
                                                <br>45%</p>
                  <p id=""wtp"" style=""text-align:center; margin-top: 0px; margin-bottom: 0px; font-size: 40px"";>מוכנים לשלם: <span id=""c_p_y""></span></p>","24","evaluation","45","21","11C,18C,25A","45","58","25","","","","","","","","","","","","","",""
"","","","","","html-keyboard-response","164","483205","0.0-21.0-2.16","c0eec679-0e2d-40b6-946a-bc307eeeb08a","null","<p style=""text-align: center;"">+</p>","null","fixation","","","","","","","","","","","","","","","","","","","",""
"","","","","","html-slider-response","165","484207","0.0-21.0-0.17","c0eec679-0e2d-40b6-946a-bc307eeeb08a","1000","
                  <p style=""text-align: center;"">₪11
                                                <br>20%</p>
                  <p id=""wtp"" style=""text-align:center; margin-top: 0px; margin-bottom: 0px; font-size: 40px"";>&ensp;</p>","-","viewing","0","4","12C,17C,23C,28C","","","","","","","","","","","","","","","","",""
"","","","","","html-slider-response","166","488020","0.0-21.0-1.17","c0eec679-0e2d-40b6-946a-bc307eeeb08a","3813","
                  <p style=""text-align: center;"">₪11
                                                <br>20%</p>
                  <p id=""wtp"" style=""text-align:center; margin-top: 0px; margin-bottom: 0px; font-size: 40px"";>מוכנים לשלם: <span id=""c_p_y""></span></p>","2","evaluation","5","4","12C,17C,23C,28C","20","11","3","","","","","","","","","","","","","",""
"","","","","","html-keyboard-response","167","488771","0.0-21.0-2.17","c0eec679-0e2d-40b6-946a-bc307eeeb08a","null","<p style=""text-align: center;"">+</p>","null","fixation","","","","","","","","","","","","","","","","","","","",""
"","","","","","html-slider-response","168","489774","0.0-21.0-0.18","c0eec679-0e2d-40b6-946a-bc307eeeb08a","1000","
                  <p style=""text-align: center;"">₪39
                                                <br>60%</p>
                  <p id=""wtp"" style=""text-align:center; margin-top: 0px; margin-bottom: 0px; font-size: 40px"";>&ensp;</p>","-","viewing","0","15","9C,25B","","","","","","","","","","","","","","","","",""
"","","","","","html-slider-response","169","493789","0.0-21.0-1.18","c0eec679-0e2d-40b6-946a-bc307eeeb08a","null","
                  <p style=""text-align: center;"">₪39
                                                <br>60%</p>
                  <p id=""wtp"" style=""text-align:center; margin-top: 0px; margin-bottom: 0px; font-size: 40px"";>מוכנים לשלם: <span id=""c_p_y""></span></p>","null","evaluation","76","15","9C,25B","60","39","15","","","","","","","","","","","","","",""
"","","","","","html-keyboard-response","170","494807","0.0-21.0-2.18","c0eec679-0e2d-40b6-946a-bc307eeeb08a","null","<p style=""text-align: center;"">+</p>","null","fixation","","","","","","","","","","","","","","","","","","","",""
"","","","","","html-slider-response","171","495809","0.0-21.0-0.19","c0eec679-0e2d-40b6-946a-bc307eeeb08a","1000","
                  <p style=""text-align: center;"">₪11
                                                <br>75%</p>
                  <p id=""wtp"" style=""text-align:center; margin-top: 0px; margin-bottom: 0px; font-size: 40px"";>&ensp;</p>","-","viewing","0","7","6B,18B,22C,24C,29A","","","","","","","","","","","","","","","","",""
"","","","","","html-slider-response","172","498100","0.0-21.0-1.19","c0eec679-0e2d-40b6-946a-bc307eeeb08a","2290","
                  <p style=""text-align: center;"">₪11
                                                <br>75%</p>
                  <p id=""wtp"" style=""text-align:center; margin-top: 0px; margin-bottom: 0px; font-size: 40px"";>מוכנים לשלם: <span id=""c_p_y""></span></p>","3","evaluation","66","7","6B,18B,22C,24C,29A","75","11","3","","","","","","","","","","","","","",""
"","","","","","html-keyboard-response","173","499433","0.0-21.0-2.19","c0eec679-0e2d-40b6-946a-bc307eeeb08a","null","<p style=""text-align: center;"">+</p>","null","fixation","","","","","","","","","","","","","","","","","","","",""
"","","","","","html-slider-response","174","500438","0.0-21.0-0.20","c0eec679-0e2d-40b6-946a-bc307eeeb08a","1000","
                  <p style=""text-align: center;"">₪36
                                                <br>75%</p>
                  <p id=""wtp"" style=""text-align:center; margin-top: 0px; margin-bottom: 0px; font-size: 40px"";>&ensp;</p>","-","viewing","0","14","4B,5A,13B,16B","","","","","","","","","","","","","","","","",""
"","","","","","html-slider-response","175","504442","0.0-21.0-1.20","c0eec679-0e2d-40b6-946a-bc307eeeb08a","null","
                  <p style=""text-align: center;"">₪36
                                                <br>75%</p>
                  <p id=""wtp"" style=""text-align:center; margin-top: 0px; margin-bottom: 0px; font-size: 40px"";>מוכנים לשלם: <span id=""c_p_y""></span></p>","null","evaluation","26","14","4B,5A,13B,16B","75","36","29","","","","","","","","","","","","","",""
"","","","","","html-keyboard-response","176","505928","0.0-21.0-2.20","c0eec679-0e2d-40b6-946a-bc307eeeb08a","null","<p style=""text-align: center;"">+</p>","null","fixation","","","","","","","","","","","","","","","","","","","",""
"","","","","","html-slider-response","177","506934","0.0-21.0-0.21","c0eec679-0e2d-40b6-946a-bc307eeeb08a","1000","
                  <p style=""text-align: center;"">₪79
                                                <br>40%</p>
                  <p id=""wtp"" style=""text-align:center; margin-top: 0px; margin-bottom: 0px; font-size: 40px"";>&ensp;</p>","-","viewing","0","30","9B","","","","","","","","","","","","","","","","",""
"","","","","","html-slider-response","178","509597","0.0-21.0-1.21","c0eec679-0e2d-40b6-946a-bc307eeeb08a","2662","
                  <p style=""text-align: center;"">₪79
                                                <br>40%</p>
                  <p id=""wtp"" style=""text-align:center; margin-top: 0px; margin-bottom: 0px; font-size: 40px"";>מוכנים לשלם: <span id=""c_p_y""></span></p>","27","evaluation","74","30","9B","40","79","27","","","","","","","","","","","","","",""
"","","","","","html-keyboard-response","179","510207","0.0-21.0-2.21","c0eec679-0e2d-40b6-946a-bc307eeeb08a","null","<p style=""text-align: center;"">+</p>","null","fixation","","","","","","","","","","","","","","","","","","","",""
"","","","","","html-slider-response","180","511209","0.0-21.0-0.22","c0eec679-0e2d-40b6-946a-bc307eeeb08a","1000","
                  <p style=""text-align: center;"">₪18
                                                <br>50%</p>
                  <p id=""wtp"" style=""text-align:center; margin-top: 0px; margin-bottom: 0px; font-size: 40px"";>&ensp;</p>","-","viewing","0","10","2C,16C,22B,28A","","","","","","","","","","","","","","","","",""
"","","","","","html-slider-response","181","514029","0.0-21.0-1.22","c0eec679-0e2d-40b6-946a-bc307eeeb08a","2818","
                  <p style=""text-align: center;"">₪18
                                                <br>50%</p>
                  <p id=""wtp"" style=""text-align:center; margin-top: 0px; margin-bottom: 0px; font-size: 40px"";>מוכנים לשלם: <span id=""c_p_y""></span></p>","6","evaluation","68","10","2C,16C,22B,28A","50","18","7","","","","","","","","","","","","","",""
"","","","","","html-keyboard-response","182","515172","0.0-21.0-2.22","c0eec679-0e2d-40b6-946a-bc307eeeb08a","null","<p style=""text-align: center;"">+</p>","null","fixation","","","","","","","","","","","","","","","","","","","",""
"","","","","","html-slider-response","183","516184","0.0-21.0-0.23","c0eec679-0e2d-40b6-946a-bc307eeeb08a","1000","
                  <p style=""text-align: center;"">₪36
                                                <br>70%</p>
                  <p id=""wtp"" style=""text-align:center; margin-top: 0px; margin-bottom: 0px; font-size: 40px"";>&ensp;</p>","-","viewing","0","13","3A,5C,10B","","","","","","","","","","","","","","","","",""
"","","","","","html-slider-response","184","520196","0.0-21.0-1.23","c0eec679-0e2d-40b6-946a-bc307eeeb08a","null","
                  <p style=""text-align: center;"">₪36
                                                <br>70%</p>
                  <p id=""wtp"" style=""text-align:center; margin-top: 0px; margin-bottom: 0px; font-size: 40px"";>מוכנים לשלם: <span id=""c_p_y""></span></p>","null","evaluation","43","13","3A,5C,10B","70","36","24","","","","","","","","","","","","","",""
"","","","","","html-keyboard-response","185","521456","0.0-21.0-2.23","c0eec679-0e2d-40b6-946a-bc307eeeb08a","null","<p style=""text-align: center;"">+</p>","null","fixation","","","","","","","","","","","","","","","","","","","",""
"","","","","","html-slider-response","186","522471","0.0-21.0-0.24","c0eec679-0e2d-40b6-946a-bc307eeeb08a","1000","
                  <p style=""text-align: center;"">₪71
                                                <br>75%</p>
                  <p id=""wtp"" style=""text-align:center; margin-top: 0px; margin-bottom: 0px; font-size: 40px"";>&ensp;</p>","-","viewing","0","28","8B","","","","","","","","","","","","","","","","",""
"","","","","","html-slider-response","187","524605","0.0-21.0-1.24","c0eec679-0e2d-40b6-946a-bc307eeeb08a","2133","
                  <p style=""text-align: center;"">₪71
                                                <br>75%</p>
                  <p id=""wtp"" style=""text-align:center; margin-top: 0px; margin-bottom: 0px; font-size: 40px"";>מוכנים לשלם: <span id=""c_p_y""></span></p>","41","evaluation","11","28","8B","75","71","40","","","","","","","","","","","","","",""
"","","","","","html-keyboard-response","188","525772","0.0-21.0-2.24","c0eec679-0e2d-40b6-946a-bc307eeeb08a","null","<p style=""text-align: center;"">+</p>","null","fixation","","","","","","","","","","","","","","","","","","","",""
"","","","","","html-slider-response","189","526774","0.0-21.0-0.25","c0eec679-0e2d-40b6-946a-bc307eeeb08a","1000","
                  <p style=""text-align: center;"">₪61
                                                <br>55%</p>
                  <p id=""wtp"" style=""text-align:center; margin-top: 0px; margin-bottom: 0px; font-size: 40px"";>&ensp;</p>","-","viewing","0","23","7B,26B","","","","","","","","","","","","","","","","",""
"","","","","","html-slider-response","190","530779","0.0-21.0-1.25","c0eec679-0e2d-40b6-946a-bc307eeeb08a","null","
                  <p style=""text-align: center;"">₪61
                                                <br>55%</p>
                  <p id=""wtp"" style=""text-align:center; margin-top: 0px; margin-bottom: 0px; font-size: 40px"";>מוכנים לשלם: <span id=""c_p_y""></span></p>","null","evaluation","71","23","7B,26B","55","61","26","","","","","","","","","","","","","",""
"","","","","","html-keyboard-response","191","531902","0.0-21.0-2.25","c0eec679-0e2d-40b6-946a-bc307eeeb08a","null","<p style=""text-align: center;"">+</p>","null","fixation","","","","","","","","","","","","","","","","","","","",""
"","","","","","html-slider-response","192","532917","0.0-21.0-0.26","c0eec679-0e2d-40b6-946a-bc307eeeb08a","1000","
                  <p style=""text-align: center;"">₪58
                                                <br>30%</p>
                  <p id=""wtp"" style=""text-align:center; margin-top: 0px; margin-bottom: 0px; font-size: 40px"";>&ensp;</p>","-","viewing","0","19","13C,30A","","","","","","","","","","","","","","","","",""
"","","","","","html-slider-response","193","535789","0.0-21.0-1.26","c0eec679-0e2d-40b6-946a-bc307eeeb08a","2870","
                  <p style=""text-align: center;"">₪58
                                                <br>30%</p>
                  <p id=""wtp"" style=""text-align:center; margin-top: 0px; margin-bottom: 0px; font-size: 40px"";>מוכנים לשלם: <span id=""c_p_y""></span></p>","16","evaluation","43","19","13C,30A","30","58","16","","","","","","","","","","","","","",""
"","","","","","html-keyboard-response","194","537170","0.0-21.0-2.26","c0eec679-0e2d-40b6-946a-bc307eeeb08a","null","<p style=""text-align: center;"">+</p>","null","fixation","","","","","","","","","","","","","","","","","","","",""
"","","","","","html-slider-response","195","538173","0.0-21.0-0.27","c0eec679-0e2d-40b6-946a-bc307eeeb08a","1000","
                  <p style=""text-align: center;"">₪36
                                                <br>60%</p>
                  <p id=""wtp"" style=""text-align:center; margin-top: 0px; margin-bottom: 0px; font-size: 40px"";>&ensp;</p>","-","viewing","0","12","1C,7C,15C","","","","","","","","","","","","","","","","",""
"","","","","","html-slider-response","196","542178","0.0-21.0-1.27","c0eec679-0e2d-40b6-946a-bc307eeeb08a","null","
                  <p style=""text-align: center;"">₪36
                                                <br>60%</p>
                  <p id=""wtp"" style=""text-align:center; margin-top: 0px; margin-bottom: 0px; font-size: 40px"";>מוכנים לשלם: <span id=""c_p_y""></span></p>","null","evaluation","65","12","1C,7C,15C","60","36","22","","","","","","","","","","","","","",""
"","","","","","html-keyboard-response","197","543258","0.0-21.0-2.27","c0eec679-0e2d-40b6-946a-bc307eeeb08a","null","<p style=""text-align: center;"">+</p>","null","fixation","","","","","","","","","","","","","","","","","","","",""
"","","","","","html-slider-response","198","544265","0.0-21.0-0.28","c0eec679-0e2d-40b6-946a-bc307eeeb08a","1000","
                  <p style=""text-align: center;"">₪43
                                                <br>75%</p>
                  <p id=""wtp"" style=""text-align:center; margin-top: 0px; margin-bottom: 0px; font-size: 40px"";>&ensp;</p>","-","viewing","0","18","11B,19B,24A,26A","","","","","","","","","","","","","","","","",""
"","","","","","html-slider-response","199","548267","0.0-21.0-1.28","c0eec679-0e2d-40b6-946a-bc307eeeb08a","null","
                  <p style=""text-align: center;"">₪43
                                                <br>75%</p>
                  <p id=""wtp"" style=""text-align:center; margin-top: 0px; margin-bottom: 0px; font-size: 40px"";>מוכנים לשלם: <span id=""c_p_y""></span></p>","null","evaluation","77","18","11B,19B,24A,26A","75","43","12","","","","","","","","","","","","","",""
"","","","","","html-keyboard-response","200","548822","0.0-21.0-2.28","c0eec679-0e2d-40b6-946a-bc307eeeb08a","null","<p style=""text-align: center;"">+</p>","null","fixation","","","","","","","","","","","","","","","","","","","",""
"","","","","","html-slider-response","201","549835","0.0-21.0-0.29","c0eec679-0e2d-40b6-946a-bc307eeeb08a","1000","
                  <p style=""text-align: center;"">₪4
                                                <br>25%</p>
                  <p id=""wtp"" style=""text-align:center; margin-top: 0px; margin-bottom: 0px; font-size: 40px"";>&ensp;</p>","-","viewing","0","1","6C,29B,30C","","","","","","","","","","","","","","","","",""
"","","","","","html-slider-response","202","553189","0.0-21.0-1.29","c0eec679-0e2d-40b6-946a-bc307eeeb08a","3352","
                  <p style=""text-align: center;"">₪4
                                                <br>25%</p>
                  <p id=""wtp"" style=""text-align:center; margin-top: 0px; margin-bottom: 0px; font-size: 40px"";>מוכנים לשלם: <span id=""c_p_y""></span></p>","0","evaluation","66","1","6C,29B,30C","25","4","1","","","","","","","","","","","","","",""
"","","","","","html-keyboard-response","203","554335","0.0-21.0-2.29","c0eec679-0e2d-40b6-946a-bc307eeeb08a","null","<p style=""text-align: center;"">+</p>","null","fixation","","","","","","","","","","","","","","","","","","","",""
"","","","","","html-slider-response","204","555343","0.0-21.0-0.30","c0eec679-0e2d-40b6-946a-bc307eeeb08a","1000","
                  <p style=""text-align: center;"">₪71
                                                <br>55%</p>
                  <p id=""wtp"" style=""text-align:center; margin-top: 0px; margin-bottom: 0px; font-size: 40px"";>&ensp;</p>","-","viewing","0","27","5B,18A","","","","","","","","","","","","","","","","",""
"","","","","","html-slider-response","205","557621","0.0-21.0-1.30","c0eec679-0e2d-40b6-946a-bc307eeeb08a","2276","
                  <p style=""text-align: center;"">₪71
                                                <br>55%</p>
                  <p id=""wtp"" style=""text-align:center; margin-top: 0px; margin-bottom: 0px; font-size: 40px"";>מוכנים לשלם: <span id=""c_p_y""></span></p>","26","evaluation","71","27","5B,18A","55","71","26","","","","","","","","","","","","","",""
"","","","","","html-keyboard-response","206","558434","0.0-21.0-2.30","c0eec679-0e2d-40b6-946a-bc307eeeb08a","null","<p style=""text-align: center;"">+</p>","null","fixation","","","","","","","","","","","","","","","","","","","",""
"","","","","","html-keyboard-response","207","559450","0.0-22.0","c0eec679-0e2d-40b6-946a-bc307eeeb08a","null","<p style=""text-align: center;"">+</p>","null","fixation","","","","","","","","","","","","","","","","","","","",""
"","","","","","html-keyboard-response","208","560756","0.0-23.0","c0eec679-0e2d-40b6-946a-bc307eeeb08a","null","<p>הפסקה.
          <br>לחצו כדי להמשיך.</p>","1","scan_wait","","","","","","","","","","","","","","","","","","","",""
"","","","","","html-keyboard-response","209","561772","0.0-24.0","c0eec679-0e2d-40b6-946a-bc307eeeb08a","null","<p style=""text-align: center;"">+</p>","null","fixation","","","","","","","","","","","","","","","","","","","",""
"","","","","","html-slider-response","210","562787","0.0-25.0-0.0","c0eec679-0e2d-40b6-946a-bc307eeeb08a","1000","
                  <p style=""text-align: center;"">₪79
                                                <br>40%</p>
                  <p id=""wtp"" style=""text-align:center; margin-top: 0px; margin-bottom: 0px; font-size: 40px"";>&ensp;</p>","-","viewing","0","30","9B","","","","","","","","","","","","","","","","",""
"","","","","","html-slider-response","211","566800","0.0-25.0-1.0","c0eec679-0e2d-40b6-946a-bc307eeeb08a","null","
                  <p style=""text-align: center;"">₪79
                                                <br>40%</p>
                  <p id=""wtp"" style=""text-align:center; margin-top: 0px; margin-bottom: 0px; font-size: 40px"";>מוכנים לשלם: <span id=""c_p_y""></span></p>","null","evaluation","77","30","9B","40","79","28","","","","","","","","","","","","","",""
"","","","","","html-keyboard-response","212","567905","0.0-25.0-2.0","c0eec679-0e2d-40b6-946a-bc307eeeb08a","null","<p style=""text-align: center;"">+</p>","null","fixation","","","","","","","","","","","","","","","","","","","",""
"","","","","","html-slider-response","213","568909","0.0-25.0-0.1","c0eec679-0e2d-40b6-946a-bc307eeeb08a","1000","
                  <p style=""text-align: center;"">₪36
                                                <br>60%</p>
                  <p id=""wtp"" style=""text-align:center; margin-top: 0px; margin-bottom: 0px; font-size: 40px"";>&ensp;</p>","-","viewing","0","12","1C,7C,15C","","","","","","","","","","","","","","","","",""
"","","","","","html-slider-response","214","572412","0.0-25.0-1.1","c0eec679-0e2d-40b6-946a-bc307eeeb08a","3502","
                  <p style=""text-align: center;"">₪36
                                                <br>60%</p>
                  <p id=""wtp"" style=""text-align:center; margin-top: 0px; margin-bottom: 0px; font-size: 40px"";>מוכנים לשלם: <span id=""c_p_y""></span></p>","18","evaluation","56","12","1C,7C,15C","60","36","18","","","","","","","","","","","","","",""
"","","","","","html-keyboard-response","215","572954","0.0-25.0-2.1","c0eec679-0e2d-40b6-946a-bc307eeeb08a","null","<p style=""text-align: center;"">+</p>","null","fixation","","","","","","","","","","","","","","","","","","","",""
"","","","","","html-slider-response","216","573970","0.0-25.0-0.2","c0eec679-0e2d-40b6-946a-bc307eeeb08a","1000","
                  <p style=""text-align: center;"">₪58
                                                <br>30%</p>
                  <p id=""wtp"" style=""text-align:center; margin-top: 0px; margin-bottom: 0px; font-size: 40px"";>&ensp;</p>","-","viewing","0","19","13C,30A","","","","","","","","","","","","","","","","",""
"","","","","","html-slider-response","217","577972","0.0-25.0-1.2","c0eec679-0e2d-40b6-946a-bc307eeeb08a","null","
                  <p style=""text-align: center;"">₪58
                                                <br>30%</p>
                  <p id=""wtp"" style=""text-align:center; margin-top: 0px; margin-bottom: 0px; font-size: 40px"";>מוכנים לשלם: <span id=""c_p_y""></span></p>","null","evaluation","10","19","13C,30A","30","58","25","","","","","","","","","","","","","",""
"","","","","","html-keyboard-response","218","579146","0.0-25.0-2.2","c0eec679-0e2d-40b6-946a-bc307eeeb08a","null","<p style=""text-align: center;"">+</p>","null","fixation","","","","","","","","","","","","","","","","","","","",""
"","","","","","html-slider-response","219","580149","0.0-25.0-0.3","c0eec679-0e2d-40b6-946a-bc307eeeb08a","1000","
                  <p style=""text-align: center;"">₪4
                                                <br>75%</p>
                  <p id=""wtp"" style=""text-align:center; margin-top: 0px; margin-bottom: 0px; font-size: 40px"";>&ensp;</p>","-","viewing","0","3","12B,20B,23B,27C,29C","","","","","","","","","","","","","","","","",""
"","","","","","html-slider-response","220","582676","0.0-25.0-1.3","c0eec679-0e2d-40b6-946a-bc307eeeb08a","2525","
                  <p style=""text-align: center;"">₪4
                                                <br>75%</p>
                  <p id=""wtp"" style=""text-align:center; margin-top: 0px; margin-bottom: 0px; font-size: 40px"";>מוכנים לשלם: <span id=""c_p_y""></span></p>","1","evaluation","59","3","12B,20B,23B,27C,29C","75","4","2","","","","","","","","","","","","","",""
"","","","","","html-keyboard-response","221","584170","0.0-25.0-2.3","c0eec679-0e2d-40b6-946a-bc307eeeb08a","null","<p style=""text-align: center;"">+</p>","null","fixation","","","","","","","","","","","","","","","","","","","",""
"","","","","","html-slider-response","222","585173","0.0-25.0-0.4","c0eec679-0e2d-40b6-946a-bc307eeeb08a","1000","
                  <p style=""text-align: center;"">₪43
                                                <br>60%</p>
                  <p id=""wtp"" style=""text-align:center; margin-top: 0px; margin-bottom: 0px; font-size: 40px"";>&ensp;</p>","-","viewing","0","17","2A,7A,9A,15B","","","","","","","","","","","","","","","","",""
"","","","","","html-slider-response","223","588260","0.0-25.0-1.4","c0eec679-0e2d-40b6-946a-bc307eeeb08a","3086","
                  <p style=""text-align: center;"">₪43
                                                <br>60%</p>
                  <p id=""wtp"" style=""text-align:center; margin-top: 0px; margin-bottom: 0px; font-size: 40px"";>מוכנים לשלם: <span id=""c_p_y""></span></p>","23","evaluation","30","17","2A,7A,9A,15B","60","43","23","","","","","","","","","","","","","",""
"","","","","","html-keyboard-response","224","588827","0.0-25.0-2.4","c0eec679-0e2d-40b6-946a-bc307eeeb08a","null","<p style=""text-align: center;"">+</p>","null","fixation","","","","","","","","","","","","","","","","","","","",""
"","","","","","html-slider-response","225","589844","0.0-25.0-0.5","c0eec679-0e2d-40b6-946a-bc307eeeb08a","1000","
                  <p style=""text-align: center;"">₪39
                                                <br>60%</p>
                  <p id=""wtp"" style=""text-align:center; margin-top: 0px; margin-bottom: 0px; font-size: 40px"";>&ensp;</p>","-","viewing","0","15","9C,25B","","","","","","","","","","","","","","","","",""
"","","","","","html-slider-response","226","593851","0.0-25.0-1.5","c0eec679-0e2d-40b6-946a-bc307eeeb08a","null","
                  <p style=""text-align: center;"">₪39
                                                <br>60%</p>
                  <p id=""wtp"" style=""text-align:center; margin-top: 0px; margin-bottom: 0px; font-size: 40px"";>מוכנים לשלם: <span id=""c_p_y""></span></p>","null","evaluation","50","15","9C,25B","60","39","19","","","","","","","","","","","","","",""
"","","","","","html-keyboard-response","227","594927","0.0-25.0-2.5","c0eec679-0e2d-40b6-946a-bc307eeeb08a","null","<p style=""text-align: center;"">+</p>","null","fixation","","","","","","","","","","","","","","","","","","","",""
"","","","","","html-slider-response","228","595938","0.0-25.0-0.6","c0eec679-0e2d-40b6-946a-bc307eeeb08a","1000","
                  <p style=""text-align: center;"">₪71
                                                <br>75%</p>
                  <p id=""wtp"" style=""text-align:center; margin-top: 0px; margin-bottom: 0px; font-size: 40px"";>&ensp;</p>","-","viewing","0","28","8B","","","","","","","","","","","","","","","","",""
"","","","","","html-slider-response","229","599724","0.0-25.0-1.6","c0eec679-0e2d-40b6-946a-bc307eeeb08a","3783","
                  <p style=""text-align: center;"">₪71
                                                <br>75%</p>
                  <p id=""wtp"" style=""text-align:center; margin-top: 0px; margin-bottom: 0px; font-size: 40px"";>מוכנים לשלם: <span id=""c_p_y""></span></p>","30","evaluation","70","28","8B","75","71","31","","","","","","","","","","","","","",""
"","","","","","html-keyboard-response","230","601119","0.0-25.0-2.6","c0eec679-0e2d-40b6-946a-bc307eeeb08a","null","<p style=""text-align: center;"">+</p>","null","fixation","","","","","","","","","","","","","","","","","","","",""
"","","","","","html-slider-response","231","602126","0.0-25.0-0.7","c0eec679-0e2d-40b6-946a-bc307eeeb08a","1000","
                  <p style=""text-align: center;"">₪11
                                                <br>75%</p>
                  <p id=""wtp"" style=""text-align:center; margin-top: 0px; margin-bottom: 0px; font-size: 40px"";>&ensp;</p>","-","viewing","0","7","6B,18B,22C,24C,29A","","","","","","","","","","","","","","","","",""
"","","","","","html-slider-response","232","605220","0.0-25.0-1.7","c0eec679-0e2d-40b6-946a-bc307eeeb08a","3092","
                  <p style=""text-align: center;"">₪11
                                                <br>75%</p>
                  <p id=""wtp"" style=""text-align:center; margin-top: 0px; margin-bottom: 0px; font-size: 40px"";>מוכנים לשלם: <span id=""c_p_y""></span></p>","3","evaluation","5","7","6B,18B,22C,24C,29A","75","11","4","","","","","","","","","","","","","",""
"","","","","","html-keyboard-response","233","605835","0.0-25.0-2.7","c0eec679-0e2d-40b6-946a-bc307eeeb08a","null","<p style=""text-align: center;"">+</p>","null","fixation","","","","","","","","","","","","","","","","","","","",""
"","","","","","html-slider-response","234","606841","0.0-25.0-0.8","c0eec679-0e2d-40b6-946a-bc307eeeb08a","1000","
                  <p style=""text-align: center;"">₪64
                                                <br>50%</p>
                  <p id=""wtp"" style=""text-align:center; margin-top: 0px; margin-bottom: 0px; font-size: 40px"";>&ensp;</p>","-","viewing","0","25","1B,3B,4A","","","","","","","","","","","","","","","","",""
"","","","","","html-slider-response","235","610844","0.0-25.0-1.8","c0eec679-0e2d-40b6-946a-bc307eeeb08a","null","
                  <p style=""text-align: center;"">₪64
                                                <br>50%</p>
                  <p id=""wtp"" style=""text-align:center; margin-top: 0px; margin-bottom: 0px; font-size: 40px"";>מוכנים לשלם: <span id=""c_p_y""></span></p>","null","evaluation","4","25","1B,3B,4A","50","64","27","","","","","","","","","","","","","",""
"","","","","","html-keyboard-response","236","611419","0.0-25.0-2.8","c0eec679-0e2d-40b6-946a-bc307eeeb08a","null","<p style=""text-align: center;"">+</p>","null","fixation","","","","","","","","","","","","","","","","","","","",""
"","","","","","html-slider-response","237","612427","0.0-25.0-0.9","c0eec679-0e2d-40b6-946a-bc307eeeb08a","1000","
                  <p style=""text-align: center;"">₪36
                                                <br>30%</p>
                  <p id=""wtp"" style=""text-align:center; margin-top: 0px; margin-bottom: 0px; font-size: 40px"";>&ensp;</p>","-","viewing","0","11","3C,20A,22A","","","","","","","","","","","","","","","","",""
"","","","","","html-slider-response","238","615668","0.0-25.0-1.9","c0eec679-0e2d-40b6-946a-bc307eeeb08a","3239","
                  <p style=""text-align: center;"">₪36
                                                <br>30%</p>
                  <p id=""wtp"" style=""text-align:center; margin-top: 0px; margin-bottom: 0px; font-size: 40px"";>מוכנים לשלם: <span id=""c_p_y""></span></p>","7","evaluation","63","11","3C,20A,22A","30","36","7","","","","","","","","","","","","","",""
"","","","","","html-keyboard-response","239","616447","0.0-25.0-2.9","c0eec679-0e2d-40b6-946a-bc307eeeb08a","null","<p style=""text-align: center;"">+</p>","null","fixation","","","","","","","","","","","","","","","","","","","",""
"","","","","","html-slider-response","240","617450","0.0-25.0-0.10","c0eec679-0e2d-40b6-946a-bc307eeeb08a","1000","
                  <p style=""text-align: center;"">₪4
                                                <br>50%</p>
                  <p id=""wtp"" style=""text-align:center; margin-top: 0px; margin-bottom: 0px; font-size: 40px"";>&ensp;</p>","-","viewing","0","2","4C,17B","","","","","","","","","","","","","","","","",""
"","","","","","html-slider-response","241","618972","0.0-25.0-1.10","c0eec679-0e2d-40b6-946a-bc307eeeb08a","1521","
                  <p style=""text-align: center;"">₪4
                                                <br>50%</p>
                  <p id=""wtp"" style=""text-align:center; margin-top: 0px; margin-bottom: 0px; font-size: 40px"";>מוכנים לשלם: <span id=""c_p_y""></span></p>","2","evaluation","22","2","4C,17B","50","4","2","","","","","","","","","","","","","",""
"","","","","","html-keyboard-response","242","619607","0.0-25.0-2.10","c0eec679-0e2d-40b6-946a-bc307eeeb08a","null","<p style=""text-align: center;"">+</p>","null","fixation","","","","","","","","","","","","","","","","","","","",""
"","","","","","html-slider-response","243","620610","0.0-25.0-0.11","c0eec679-0e2d-40b6-946a-bc307eeeb08a","1000","
                  <p style=""text-align: center;"">₪76
                                                <br>65%</p>
                  <p id=""wtp"" style=""text-align:center; margin-top: 0px; margin-bottom: 0px; font-size: 40px"";>&ensp;</p>","-","viewing","0","29","8C,19A,24B","","","","","","","","","","","","","","","","",""
"","","","","","html-slider-response","244","624612","0.0-25.0-1.11","c0eec679-0e2d-40b6-946a-bc307eeeb08a","null","
                  <p style=""text-align: center;"">₪76
                                                <br>65%</p>
                  <p id=""wtp"" style=""text-align:center; margin-top: 0px; margin-bottom: 0px; font-size: 40px"";>מוכנים לשלם: <span id=""c_p_y""></span></p>","null","evaluation","39","29","8C,19A,24B","65","76","25","","","","","","","","","","","","","",""
"","","","","","html-keyboard-response","245","626010","0.0-25.0-2.11","c0eec679-0e2d-40b6-946a-bc307eeeb08a","null","<p style=""text-align: center;"">+</p>","null","fixation","","","","","","","","","","","","","","","","","","","",""
"","","","","","html-slider-response","246","627021","0.0-25.0-0.12","c0eec679-0e2d-40b6-946a-bc307eeeb08a","1000","
                  <p style=""text-align: center;"">₪11
                                                <br>25%</p>
                  <p id=""wtp"" style=""text-align:center; margin-top: 0px; margin-bottom: 0px; font-size: 40px"";>&ensp;</p>","-","viewing","0","5","12A,27B,28B,30B","","","","","","","","","","","","","","","","",""
"","","","","","html-slider-response","247","629372","0.0-25.0-1.12","c0eec679-0e2d-40b6-946a-bc307eeeb08a","2349","
                  <p style=""text-align: center;"">₪11
                                                <br>25%</p>
                  <p id=""wtp"" style=""text-align:center; margin-top: 0px; margin-bottom: 0px; font-size: 40px"";>מוכנים לשלם: <span id=""c_p_y""></span></p>","3","evaluation","72","5","12A,27B,28B,30B","25","11","4","","","","","","","","","","","","","",""
"","","","","","html-keyboard-response","248","630797","0.0-25.0-2.12","c0eec679-0e2d-40b6-946a-bc307eeeb08a","null","<p style=""text-align: center;"">+</p>","null","fixation","","","","","","","","","","","","","","","","","","","",""
"","","","","","html-slider-response","249","631803","0.0-25.0-0.13","c0eec679-0e2d-40b6-946a-bc307eeeb08a","1000","
                  <p style=""text-align: center;"">₪71
                                                <br>45%</p>
                  <p id=""wtp"" style=""text-align:center; margin-top: 0px; margin-bottom: 0px; font-size: 40px"";>&ensp;</p>","-","viewing","0","26","2B,16A","","","","","","","","","","","","","","","","",""
"","","","","","html-slider-response","250","634820","0.0-25.0-1.13","c0eec679-0e2d-40b6-946a-bc307eeeb08a","3015","
                  <p style=""text-align: center;"">₪71
                                                <br>45%</p>
                  <p id=""wtp"" style=""text-align:center; margin-top: 0px; margin-bottom: 0px; font-size: 40px"";>מוכנים לשלם: <span id=""c_p_y""></span></p>","23","evaluation","58","26","2B,16A","45","71","23","","","","","","","","","","","","","",""
"","","","","","html-keyboard-response","251","636206","0.0-25.0-2.13","c0eec679-0e2d-40b6-946a-bc307eeeb08a","null","<p style=""text-align: center;"">+</p>","null","fixation","","","","","","","","","","","","","","","","","","","",""
"","","","","","html-slider-response","252","637208","0.0-25.0-0.14","c0eec679-0e2d-40b6-946a-bc307eeeb08a","1000","
                  <p style=""text-align: center;"">₪58
                                                <br>45%</p>
                  <p id=""wtp"" style=""text-align:center; margin-top: 0px; margin-bottom: 0px; font-size: 40px"";>&ensp;</p>","-","viewing","0","21","11C,18C,25A","","","","","","","","","","","","","","","","",""
"","","","","","html-slider-response","253","641211","0.0-25.0-1.14","c0eec679-0e2d-40b6-946a-bc307eeeb08a","null","
                  <p style=""text-align: center;"">₪58
                                                <br>45%</p>
                  <p id=""wtp"" style=""text-align:center; margin-top: 0px; margin-bottom: 0px; font-size: 40px"";>מוכנים לשלם: <span id=""c_p_y""></span></p>","null","evaluation","75","21","11C,18C,25A","45","58","17","","","","","","","","","","","","","",""
"","","","","","html-keyboard-response","254","642621","0.0-25.0-2.14","c0eec679-0e2d-40b6-946a-bc307eeeb08a","null","<p style=""text-align: center;"">+</p>","null","fixation","","","","","","","","","","","","","","","","","","","",""
