"success","timeout","failed_images","failed_audio","failed_video","trial_type","trial_index","time_elapsed","internal_node_id","subject_id","rt","stimulus","response","part","slider_start","ID","set_ID","prob","amount","last_location","actual_choice","actual_EV","binary_id","trinary_id","catch","direction","A_key","S_key","D_key","choice_prob","choice_amount","won_prize","potential_prize_amount","potential_prize_prob","total_prize","accuracy"
"true","false","[]","[]","[]","preload","0","14","0.0-0.0","a7dc5d5c-803e-4f39-8a22-d6b06eca0234","","","","","","","","","","","","","","","","","","","","","","","","","",""
"","","","","","html-keyboard-response","1","17167","0.0-1.0","a7dc5d5c-803e-4f39-8a22-d6b06eca0234","null","
          <h1>שלום וברוכים הבאים!</h1>
          <p>לפניכם ניסוי בקבלת החלטות עם שני חלקים.
          <br><br>לחצו על העכבר כדי להמשיך.</p>","0","example","","","","","","","","","","","","","","","","","","","","","",""
"","","","","","html-keyboard-response","2","27998","0.0-2.0","a7dc5d5c-803e-4f39-8a22-d6b06eca0234","null","
        <h1>חלק 1</h1>
        <p>בקרוב יוצגו בפניכם הגרלות.
        <br>עליכם לבחור את המחיר המירבי שתהיו מוכנים לשלם כדי להשתתף בהגרלה שתוצג.
        <br>יש לכם תקציב של ₪80 לכל הגרלה. 
        <br>נסו להעריך כל הגרלה בנפרד ולחשוב כמה היא שווה עבורכם, ₪80 זמינים לכל הגרלה בנפרד.
        <br><br>לחצו על העכבר כדי להמשיך.</p>","1","instructions","","","","","","","","","","","","","","","","","","","","","",""
"","","","","","html-keyboard-response","3","38462","0.0-3.0","a7dc5d5c-803e-4f39-8a22-d6b06eca0234","null","
        <p>בסוף הניסוי, המחשב יבחר את אחת ההגרלות ויקבע מחיר לכרטיס עבורה. 
        <br>במידה והמחיר שבחרתם נמוך מהמחיר שנבחר על ידי המחשב, לא תשתתפו בהגרלה ותשארו עם מלוא התקציב.
        <br>במידה והמחיר שבחרתם גבוה מהמחיר שנבחר על ידי המחשב, תשלמו את המחיר שנקבע ותשתתפו בהגרלה.
        <br><br>לחצו על העכבר כדי להמשיך.</p>","1","instructions","","","","","","","","","","","","","","","","","","","","","",""
"","","","","","html-slider-response","4","49431","0.0-4.0","a7dc5d5c-803e-4f39-8a22-d6b06eca0234","10852","
        <p style=""font-size: 42px;"">נתחיל עם דוגמא: 
        <br>ההגרלה מטה מציעה 65% סיכוי לזכות ב-₪40 
        <br>&emsp;&emsp;&emsp;&emsp;&emsp;&emsp;&emsp;&emsp;&ensp;35% סיכוי לזכות ב-₪0.
        <br><br>מה המחיר המירבי שתהיו מוכנים לשלם על כרטיס להגרלה זו בין 0 ל-₪80?
        <br>הזיזו את העכבר על פני המלבן ולחצו כדי לבצע בחירה.</p>
        
        <p style=""text-align: center;"">₪40<br>65%</p>

        <p id=""wtp"" style=""text-align:center; margin-top: 0px; margin-bottom: 0px; font-size: 40px"";>מוכנים לשלם: <span id=""c_p_y""></span></p>","20","example","17","","","","","","","","","","","","","","","","","","","","",""
"","","","","","html-keyboard-response","5","62574","0.0-5.0","a7dc5d5c-803e-4f39-8a22-d6b06eca0234","null","<p>יפה מאוד!
                <br> בחרתם שתהיו מוכנים לשלם ₪20 כדי להשתתף בהגרלה:
                <br><p style=""text-align: center;"">₪40<br>65%</p>
                <p>נשמע נכון?
                <br>נניח שהגרלה זו נבחרה בסוף הניסוי.
                <br>כעת המחשב יקבע מחיר עבורה באקראי.
                <br>לחצו על העכבר להמשך.</p>","1","example","","","","","","","","","","","","","","","","","","","","","",""
"","","","","","html-keyboard-response","6","76862","0.0-6.0","a7dc5d5c-803e-4f39-8a22-d6b06eca0234","null","<p>המחשב קבע מחיר: ₪74
                <br>ואתם בחרתם לשלם לכל היותר: ₪20
                <br><br>מכיוון שהמחיר שבחרתם נמוך מהמחיר שנקבע, לא תתשתתפו בהגרלה.
                <br>במקרה כזה, בסוף הניסוי תקבלו את כל התקציב ההתחלתי של ₪80.
                <br><br>לחצו על העכבר להמשך.</p>","1","example","","","","","","","","","","","","","","","","","","","","","",""
"","","","","","html-slider-response","7","99102","0.0-7.0","a7dc5d5c-803e-4f39-8a22-d6b06eca0234","21983","<p style=""font-size: 42px;"">הנה עוד דוגמא:
                <br>ההגרלה מטה מציעה 35% סיכוי לזכות ב-₪18 
                <br>&emsp;&emsp;&emsp;&emsp;&emsp;&emsp;&emsp;&emsp;&ensp;65% סיכוי לזכות ב-₪0.</p>
        
                <p style=""text-align: center;"">₪18<br>35%</p>
                <p id=""wtp"" style=""text-align:center; margin-top: 0px; margin-bottom: 0px; font-size: 40px"";>מוכנים לשלם: <span id=""c_p_y""></span></p>","6","example","76","","","","","","","","","","","","","","","","","","","","",""
"","","","","","html-keyboard-response","8","104198","0.0-8.0","a7dc5d5c-803e-4f39-8a22-d6b06eca0234","null","<p>הייתם מוכנים לשלם  ₪6 כדי להשתתף בהגרלה:
                <p style=""text-align: center;"">₪18<br>35%</p>
                <p>כעת נניח שהמחשב בחר את ההגרלה הזו בסוף הניסוי, וקבע עבורה מחיר.
                <br><br>לחצו על העכבר כדי להמשיך.</p>","1","instructions","","","","","","","","","","","","","","","","","","","","","",""
"","","","","","html-keyboard-response","9","114630","0.0-9.0","a7dc5d5c-803e-4f39-8a22-d6b06eca0234","null","<p>המחשב קבע מחיר להגרלה: ₪1<br>ואתם בחרתם לשלם לכל היותר: ₪6
                <br><br>כעת המחיר שנקבע נמוך מזה שבחרתם, אז תשלמו את המחיר שקבע המחשב (₪1) ותשתתפו בהגרלה.
                <br>במקרה כזה, תסיימו את הניסוי עם תקציב של ₪79 ועם סיכוי לזכות ב-₪18 נוספים מההגרלה.
                <br>כלומר, תוכלו לקבל ₪79 אם לא תזכו בהגרלה, או ₪97 אם תזכו בהגרלה.
                <br><br>לחצו על העכבר להמשך.</p>","1","example","","","","","","","","","","","","","","","","","","","","","",""
"","","","","","html-keyboard-response","10","129166","0.0-10.0","a7dc5d5c-803e-4f39-8a22-d6b06eca0234","null","<p>במהלך הניסוי, קודם תראו את ההגרלה ורק לאחר מכן תוכלו לבחור.
                <p>כמו כן, יהיו לכם מספר שניות מוגבל להגיב.
                <p>בואו ננסה זאת עם ההגרלה הקודמת.
                <br>לחצו על העכבר כדי להמשיך.</p>","1","instructions","","","","","","","","","","","","","","","","","","","","","",""
"","","","","","html-slider-response","11","130423","0.0-11.0","a7dc5d5c-803e-4f39-8a22-d6b06eca0234","1000","
                    <p style=""text-align: center;"">₪18<br>35%</p>
                    <p id=""wtp"" style=""text-align:center; margin-top: 0px; margin-bottom: 0px; font-size: 40px"";>&ensp;</p>","80","instructions","0","","","","","","","","","","","","","","","","","","","","",""
"","","","","","html-slider-response","12","134684","0.0-12.0","a7dc5d5c-803e-4f39-8a22-d6b06eca0234","null","
                    <p style=""text-align: center;"">₪18<br>35%</p>
                    <p id=""wtp"" style=""text-align:center; margin-top: 0px; margin-bottom: 0px; font-size: 40px"";>מוכנים לשלם: <span id=""c_p_y""></span></p>","null","instructions","8","","","","","","","","","","","","","","","","","","","","",""
"","","","","","html-keyboard-response","13","139902","0.0-13.0","a7dc5d5c-803e-4f39-8a22-d6b06eca0234","null","<p>לא הגבתם בזמן המוקצב לתגובה. 
                <br>נסו להגיב מהר יותר בפעם הבאה.
                <br><br>לחצו על העכבר כדי להמשיך.</p>","1","instructions","","","","","","","","","","","","","","","","","","","","","",""
"","","","","","html-slider-response","14","142206","0.0-14.0-0.0","a7dc5d5c-803e-4f39-8a22-d6b06eca0234","2052","
                    <p style=""text-align: center;"">₪40<br>65%</p>
                    <p id=""wtp"" style=""text-align:center; margin-top: 0px; margin-bottom: 0px; font-size: 40px"";>מוכנים לשלם: <span id=""c_p_y""></span></p>","10","instructions","47","","","","","","","","","","","","","","","","","","","","",""
"","","","","","html-keyboard-response","15","144990","0.0-14.0-1.0","a7dc5d5c-803e-4f39-8a22-d6b06eca0234","null","<p>יפה. הפעם בחרתם לשלם לכל היותר ₪10.
                <br><br>לחצו על העכבר כדי להמשיך.</p>","1","instructions","","","","","","","","","","","","","","","","","","","","","",""
"","","","","","html-keyboard-response","16","152854","0.0-15.0","a7dc5d5c-803e-4f39-8a22-d6b06eca0234","null","<p>כעת נתחיל את הניסוי.
                <br><br>אתם תראו הגרלות ותתבקשו לבחור כמה תהיו מוכנים לשלם כדי להשתתף בהן.
                <br>יש לכם תקציב של ₪80 עבור כל הגרלה.
                <br>בסוף הניסוי הגרלה אחת תבחר באקראי ותשוחק.
                <br><br>לחצו על העכבר כדי להתחיל את הניסוי.</p>","1","instructions","","","","","","","","","","","","","","","","","","","","","",""
"","","","","","html-keyboard-response","17","154106","0.0-16.0","a7dc5d5c-803e-4f39-8a22-d6b06eca0234","null","<p style=""text-align: center;"">+</p>","null","fixation","","","","","","","","","","","","","","","","","","","","","",""
"","","","","","html-slider-response","18","155112","0.0-17.0-0.0","a7dc5d5c-803e-4f39-8a22-d6b06eca0234","1000","
                  <p style=""text-align: center;"">₪11
                                                <br>45%</p>
                  <p id=""wtp"" style=""text-align:center; margin-top: 0px; margin-bottom: 0px; font-size: 40px"";>&ensp;</p>","-","viewing","0","6","14B,21C,25C","","","","","","","","","","","","","","","","","","",""
"","","","","","html-slider-response","19","157230","0.0-17.0-1.0","a7dc5d5c-803e-4f39-8a22-d6b06eca0234","2117","
                  <p style=""text-align: center;"">₪11
                                                <br>45%</p>
                  <p id=""wtp"" style=""text-align:center; margin-top: 0px; margin-bottom: 0px; font-size: 40px"";>מוכנים לשלם: <span id=""c_p_y""></span></p>","9","evaluation","48","6","14B,21C,25C","45","11","9","","","","","","","","","","","","","","","",""
"","","","","","html-keyboard-response","20","157980","0.0-17.0-2.0","a7dc5d5c-803e-4f39-8a22-d6b06eca0234","null","<p style=""text-align: center;"">+</p>","null","fixation","","","","","","","","","","","","","","","","","","","","","",""
"","","","","","html-slider-response","21","158983","0.0-17.0-0.1","a7dc5d5c-803e-4f39-8a22-d6b06eca0234","1000","
                  <p style=""text-align: center;"">₪64
                                                <br>50%</p>
                  <p id=""wtp"" style=""text-align:center; margin-top: 0px; margin-bottom: 0px; font-size: 40px"";>&ensp;</p>","-","viewing","0","25","1B,3B,4A","","","","","","","","","","","","","","","","","","",""
"","","","","","html-slider-response","22","160550","0.0-17.0-1.1","a7dc5d5c-803e-4f39-8a22-d6b06eca0234","1566","
                  <p style=""text-align: center;"">₪64
                                                <br>50%</p>
                  <p id=""wtp"" style=""text-align:center; margin-top: 0px; margin-bottom: 0px; font-size: 40px"";>מוכנים לשלם: <span id=""c_p_y""></span></p>","10","evaluation","21","25","1B,3B,4A","50","64","10","","","","","","","","","","","","","","","",""
"","","","","","html-keyboard-response","23","161891","0.0-17.0-2.1","a7dc5d5c-803e-4f39-8a22-d6b06eca0234","null","<p style=""text-align: center;"">+</p>","null","fixation","","","","","","","","","","","","","","","","","","","","","",""
"","","","","","html-slider-response","24","162893","0.0-17.0-0.2","a7dc5d5c-803e-4f39-8a22-d6b06eca0234","1000","
                  <p style=""text-align: center;"">₪43
                                                <br>60%</p>
                  <p id=""wtp"" style=""text-align:center; margin-top: 0px; margin-bottom: 0px; font-size: 40px"";>&ensp;</p>","-","viewing","0","17","2A,7A,9A,15B","","","","","","","","","","","","","","","","","","",""
"","","","","","html-slider-response","25","165334","0.0-17.0-1.2","a7dc5d5c-803e-4f39-8a22-d6b06eca0234","2440","
                  <p style=""text-align: center;"">₪43
                                                <br>60%</p>
                  <p id=""wtp"" style=""text-align:center; margin-top: 0px; margin-bottom: 0px; font-size: 40px"";>מוכנים לשלם: <span id=""c_p_y""></span></p>","16","evaluation","54","17","2A,7A,9A,15B","60","43","16","","","","","","","","","","","","","","","",""
"","","","","","html-keyboard-response","26","166565","0.0-17.0-2.2","a7dc5d5c-803e-4f39-8a22-d6b06eca0234","null","<p style=""text-align: center;"">+</p>","null","fixation","","","","","","","","","","","","","","","","","","","","","",""
"","","","","","html-slider-response","27","167575","0.0-17.0-0.3","a7dc5d5c-803e-4f39-8a22-d6b06eca0234","1000","
                  <p style=""text-align: center;"">₪4
                                                <br>75%</p>
                  <p id=""wtp"" style=""text-align:center; margin-top: 0px; margin-bottom: 0px; font-size: 40px"";>&ensp;</p>","-","viewing","0","3","12B,20B,23B,27C,29C","","","","","","","","","","","","","","","","","","",""
"","","","","","html-slider-response","28","169638","0.0-17.0-1.3","a7dc5d5c-803e-4f39-8a22-d6b06eca0234","2062","
                  <p style=""text-align: center;"">₪4
                                                <br>75%</p>
                  <p id=""wtp"" style=""text-align:center; margin-top: 0px; margin-bottom: 0px; font-size: 40px"";>מוכנים לשלם: <span id=""c_p_y""></span></p>","1","evaluation","2","3","12B,20B,23B,27C,29C","75","4","1","","","","","","","","","","","","","","","",""
"","","","","","html-keyboard-response","29","170171","0.0-17.0-2.3","a7dc5d5c-803e-4f39-8a22-d6b06eca0234","null","<p style=""text-align: center;"">+</p>","null","fixation","","","","","","","","","","","","","","","","","","","","","",""
"","","","","","html-slider-response","30","171174","0.0-17.0-0.4","a7dc5d5c-803e-4f39-8a22-d6b06eca0234","1000","
                  <p style=""text-align: center;"">₪71
                                                <br>45%</p>
                  <p id=""wtp"" style=""text-align:center; margin-top: 0px; margin-bottom: 0px; font-size: 40px"";>&ensp;</p>","-","viewing","0","26","2B,16A","","","","","","","","","","","","","","","","","","",""
"","","","","","html-slider-response","31","174806","0.0-17.0-1.4","a7dc5d5c-803e-4f39-8a22-d6b06eca0234","3631","
                  <p style=""text-align: center;"">₪71
                                                <br>45%</p>
                  <p id=""wtp"" style=""text-align:center; margin-top: 0px; margin-bottom: 0px; font-size: 40px"";>מוכנים לשלם: <span id=""c_p_y""></span></p>","16","evaluation","59","26","2B,16A","45","71","16","","","","","","","","","","","","","","","",""
"","","","","","html-keyboard-response","32","175538","0.0-17.0-2.4","a7dc5d5c-803e-4f39-8a22-d6b06eca0234","null","<p style=""text-align: center;"">+</p>","null","fixation","","","","","","","","","","","","","","","","","","","","","",""
"","","","","","html-slider-response","33","176544","0.0-17.0-0.5","a7dc5d5c-803e-4f39-8a22-d6b06eca0234","1000","
                  <p style=""text-align: center;"">₪36
                                                <br>70%</p>
                  <p id=""wtp"" style=""text-align:center; margin-top: 0px; margin-bottom: 0px; font-size: 40px"";>&ensp;</p>","-","viewing","0","13","3A,5C,10B","","","","","","","","","","","","","","","","","","",""
"","","","","","html-slider-response","34","179550","0.0-17.0-1.5","a7dc5d5c-803e-4f39-8a22-d6b06eca0234","3004","
                  <p style=""text-align: center;"">₪36
                                                <br>70%</p>
                  <p id=""wtp"" style=""text-align:center; margin-top: 0px; margin-bottom: 0px; font-size: 40px"";>מוכנים לשלם: <span id=""c_p_y""></span></p>","15","evaluation","25","13","3A,5C,10B","70","36","15","","","","","","","","","","","","","","","",""
"","","","","","html-keyboard-response","35","180624","0.0-17.0-2.5","a7dc5d5c-803e-4f39-8a22-d6b06eca0234","null","<p style=""text-align: center;"">+</p>","null","fixation","","","","","","","","","","","","","","","","","","","","","",""
"","","","","","html-slider-response","36","181631","0.0-17.0-0.6","a7dc5d5c-803e-4f39-8a22-d6b06eca0234","1000","
                  <p style=""text-align: center;"">₪71
                                                <br>55%</p>
                  <p id=""wtp"" style=""text-align:center; margin-top: 0px; margin-bottom: 0px; font-size: 40px"";>&ensp;</p>","-","viewing","0","27","5B,18A","","","","","","","","","","","","","","","","","","",""
"","","","","","html-slider-response","37","183287","0.0-17.0-1.6","a7dc5d5c-803e-4f39-8a22-d6b06eca0234","1655","
                  <p style=""text-align: center;"">₪71
                                                <br>55%</p>
                  <p id=""wtp"" style=""text-align:center; margin-top: 0px; margin-bottom: 0px; font-size: 40px"";>מוכנים לשלם: <span id=""c_p_y""></span></p>","27","evaluation","50","27","5B,18A","55","71","27","","","","","","","","","","","","","","","",""
"","","","","","html-keyboard-response","38","184555","0.0-17.0-2.6","a7dc5d5c-803e-4f39-8a22-d6b06eca0234","null","<p style=""text-align: center;"">+</p>","null","fixation","","","","","","","","","","","","","","","","","","","","","",""
"","","","","","html-slider-response","39","185567","0.0-17.0-0.7","a7dc5d5c-803e-4f39-8a22-d6b06eca0234","1000","
                  <p style=""text-align: center;"">₪39
                                                <br>65%</p>
                  <p id=""wtp"" style=""text-align:center; margin-top: 0px; margin-bottom: 0px; font-size: 40px"";>&ensp;</p>","-","viewing","0","16","1A,15A,26C","","","","","","","","","","","","","","","","","","",""
"","","","","","html-slider-response","40","188487","0.0-17.0-1.7","a7dc5d5c-803e-4f39-8a22-d6b06eca0234","2919","
                  <p style=""text-align: center;"">₪39
                                                <br>65%</p>
                  <p id=""wtp"" style=""text-align:center; margin-top: 0px; margin-bottom: 0px; font-size: 40px"";>מוכנים לשלם: <span id=""c_p_y""></span></p>","18","evaluation","11","16","1A,15A,26C","65","39","18","","","","","","","","","","","","","","","",""
"","","","","","html-keyboard-response","41","189187","0.0-17.0-2.7","a7dc5d5c-803e-4f39-8a22-d6b06eca0234","null","<p style=""text-align: center;"">+</p>","null","fixation","","","","","","","","","","","","","","","","","","","","","",""
"","","","","","html-slider-response","42","190189","0.0-17.0-0.8","a7dc5d5c-803e-4f39-8a22-d6b06eca0234","1000","
                  <p style=""text-align: center;"">₪4
                                                <br>50%</p>
                  <p id=""wtp"" style=""text-align:center; margin-top: 0px; margin-bottom: 0px; font-size: 40px"";>&ensp;</p>","-","viewing","0","2","4C,17B","","","","","","","","","","","","","","","","","","",""
"","","","","","html-slider-response","43","192567","0.0-17.0-1.8","a7dc5d5c-803e-4f39-8a22-d6b06eca0234","2376","
                  <p style=""text-align: center;"">₪4
                                                <br>50%</p>
                  <p id=""wtp"" style=""text-align:center; margin-top: 0px; margin-bottom: 0px; font-size: 40px"";>מוכנים לשלם: <span id=""c_p_y""></span></p>","3","evaluation","21","2","4C,17B","50","4","3","","","","","","","","","","","","","","","",""
"","","","","","html-keyboard-response","44","193967","0.0-17.0-2.8","a7dc5d5c-803e-4f39-8a22-d6b06eca0234","null","<p style=""text-align: center;"">+</p>","null","fixation","","","","","","","","","","","","","","","","","","","","","",""
"","","","","","html-slider-response","45","194972","0.0-17.0-0.9","a7dc5d5c-803e-4f39-8a22-d6b06eca0234","1000","
                  <p style=""text-align: center;"">₪79
                                                <br>40%</p>
                  <p id=""wtp"" style=""text-align:center; margin-top: 0px; margin-bottom: 0px; font-size: 40px"";>&ensp;</p>","-","viewing","0","30","9B","","","","","","","","","","","","","","","","","","",""
"","","","","","html-slider-response","46","198974","0.0-17.0-1.9","a7dc5d5c-803e-4f39-8a22-d6b06eca0234","null","
                  <p style=""text-align: center;"">₪79
                                                <br>40%</p>
                  <p id=""wtp"" style=""text-align:center; margin-top: 0px; margin-bottom: 0px; font-size: 40px"";>מוכנים לשלם: <span id=""c_p_y""></span></p>","null","evaluation","66","30","9B","40","79","19","","","","","","","","","","","","","","","",""
"","","","","","html-keyboard-response","47","199564","0.0-17.0-2.9","a7dc5d5c-803e-4f39-8a22-d6b06eca0234","null","<p style=""text-align: center;"">+</p>","null","fixation","","","","","","","","","","","","","","","","","","","","","",""
"","","","","","html-slider-response","48","200566","0.0-17.0-0.10","a7dc5d5c-803e-4f39-8a22-d6b06eca0234","1000","
                  <p style=""text-align: center;"">₪76
                                                <br>65%</p>
                  <p id=""wtp"" style=""text-align:center; margin-top: 0px; margin-bottom: 0px; font-size: 40px"";>&ensp;</p>","-","viewing","0","29","8C,19A,24B","","","","","","","","","","","","","","","","","","",""
"","","","","","html-slider-response","49","202143","0.0-17.0-1.10","a7dc5d5c-803e-4f39-8a22-d6b06eca0234","1575","
                  <p style=""text-align: center;"">₪76
                                                <br>65%</p>
                  <p id=""wtp"" style=""text-align:center; margin-top: 0px; margin-bottom: 0px; font-size: 40px"";>מוכנים לשלם: <span id=""c_p_y""></span></p>","18","evaluation","72","29","8C,19A,24B","65","76","18","","","","","","","","","","","","","","","",""
"","","","","","html-keyboard-response","50","203574","0.0-17.0-2.10","a7dc5d5c-803e-4f39-8a22-d6b06eca0234","null","<p style=""text-align: center;"">+</p>","null","fixation","","","","","","","","","","","","","","","","","","","","","",""
"","","","","","html-slider-response","51","204583","0.0-17.0-0.11","a7dc5d5c-803e-4f39-8a22-d6b06eca0234","1000","
                  <p style=""text-align: center;"">₪11
                                                <br>20%</p>
                  <p id=""wtp"" style=""text-align:center; margin-top: 0px; margin-bottom: 0px; font-size: 40px"";>&ensp;</p>","-","viewing","0","4","12C,17C,23C,28C","","","","","","","","","","","","","","","","","","",""
"","","","","","html-slider-response","52","205855","0.0-17.0-1.11","a7dc5d5c-803e-4f39-8a22-d6b06eca0234","1270","
                  <p style=""text-align: center;"">₪11
                                                <br>20%</p>
                  <p id=""wtp"" style=""text-align:center; margin-top: 0px; margin-bottom: 0px; font-size: 40px"";>מוכנים לשלם: <span id=""c_p_y""></span></p>","3","evaluation","7","4","12C,17C,23C,28C","20","11","3","","","","","","","","","","","","","","","",""
"","","","","","html-keyboard-response","53","207338","0.0-17.0-2.11","a7dc5d5c-803e-4f39-8a22-d6b06eca0234","null","<p style=""text-align: center;"">+</p>","null","fixation","","","","","","","","","","","","","","","","","","","","","",""
"","","","","","html-slider-response","54","208345","0.0-17.0-0.12","a7dc5d5c-803e-4f39-8a22-d6b06eca0234","1000","
                  <p style=""text-align: center;"">₪64
                                                <br>25%</p>
                  <p id=""wtp"" style=""text-align:center; margin-top: 0px; margin-bottom: 0px; font-size: 40px"";>&ensp;</p>","-","viewing","0","24","6A,21A","","","","","","","","","","","","","","","","","","",""
"","","","","","html-slider-response","55","209999","0.0-17.0-1.12","a7dc5d5c-803e-4f39-8a22-d6b06eca0234","1653","
                  <p style=""text-align: center;"">₪64
                                                <br>25%</p>
                  <p id=""wtp"" style=""text-align:center; margin-top: 0px; margin-bottom: 0px; font-size: 40px"";>מוכנים לשלם: <span id=""c_p_y""></span></p>","9","evaluation","62","24","6A,21A","25","64","9","","","","","","","","","","","","","","","",""
"","","","","","html-keyboard-response","56","211271","0.0-17.0-2.12","a7dc5d5c-803e-4f39-8a22-d6b06eca0234","null","<p style=""text-align: center;"">+</p>","null","fixation","","","","","","","","","","","","","","","","","","","","","",""
"","","","","","html-slider-response","57","212273","0.0-17.0-0.13","a7dc5d5c-803e-4f39-8a22-d6b06eca0234","1000","
                  <p style=""text-align: center;"">₪71
                                                <br>75%</p>
                  <p id=""wtp"" style=""text-align:center; margin-top: 0px; margin-bottom: 0px; font-size: 40px"";>&ensp;</p>","-","viewing","0","28","8B","","","","","","","","","","","","","","","","","","",""
"","","","","","html-slider-response","58","214326","0.0-17.0-1.13","a7dc5d5c-803e-4f39-8a22-d6b06eca0234","2053","
                  <p style=""text-align: center;"">₪71
                                                <br>75%</p>
                  <p id=""wtp"" style=""text-align:center; margin-top: 0px; margin-bottom: 0px; font-size: 40px"";>מוכנים לשלם: <span id=""c_p_y""></span></p>","28","evaluation","17","28","8B","75","71","28","","","","","","","","","","","","","","","",""
"","","","","","html-keyboard-response","59","215563","0.0-17.0-2.13","a7dc5d5c-803e-4f39-8a22-d6b06eca0234","null","<p style=""text-align: center;"">+</p>","null","fixation","","","","","","","","","","","","","","","","","","","","","",""
"","","","","","html-slider-response","60","216565","0.0-17.0-0.14","a7dc5d5c-803e-4f39-8a22-d6b06eca0234","1000","
                  <p style=""text-align: center;"">₪79
                                                <br>65%</p>
                  <p id=""wtp"" style=""text-align:center; margin-top: 0px; margin-bottom: 0px; font-size: 40px"";>&ensp;</p>","-","viewing","0","31","8A","","","","","","","","","","","","","","","","","","",""
"","","","","","html-slider-response","61","218775","0.0-17.0-1.14","a7dc5d5c-803e-4f39-8a22-d6b06eca0234","2208","
                  <p style=""text-align: center;"">₪79
                                                <br>65%</p>
                  <p id=""wtp"" style=""text-align:center; margin-top: 0px; margin-bottom: 0px; font-size: 40px"";>מוכנים לשלם: <span id=""c_p_y""></span></p>","33","evaluation","35","31","8A","65","79","33","","","","","","","","","","","","","","","",""
"","","","","","html-keyboard-response","62","219487","0.0-17.0-2.14","a7dc5d5c-803e-4f39-8a22-d6b06eca0234","null","<p style=""text-align: center;"">+</p>","null","fixation","","","","","","","","","","","","","","","","","","","","","",""
"","","","","","html-slider-response","63","220502","0.0-17.0-0.15","a7dc5d5c-803e-4f39-8a22-d6b06eca0234","1000","
                  <p style=""text-align: center;"">₪39
                                                <br>60%</p>
                  <p id=""wtp"" style=""text-align:center; margin-top: 0px; margin-bottom: 0px; font-size: 40px"";>&ensp;</p>","-","viewing","0","15","9C,25B","","","","","","","","","","","","","","","","","","",""
"","","","","","html-slider-response","64","222295","0.0-17.0-1.15","a7dc5d5c-803e-4f39-8a22-d6b06eca0234","1791","
                  <p style=""text-align: center;"">₪39
                                                <br>60%</p>
                  <p id=""wtp"" style=""text-align:center; margin-top: 0px; margin-bottom: 0px; font-size: 40px"";>מוכנים לשלם: <span id=""c_p_y""></span></p>","31","evaluation","53","15","9C,25B","60","39","31","","","","","","","","","","","","","","","",""
"","","","","","html-keyboard-response","65","223120","0.0-17.0-2.15","a7dc5d5c-803e-4f39-8a22-d6b06eca0234","null","<p style=""text-align: center;"">+</p>","null","fixation","","","","","","","","","","","","","","","","","","","","","",""
"","","","","","html-slider-response","66","224132","0.0-17.0-0.16","a7dc5d5c-803e-4f39-8a22-d6b06eca0234","1000","
                  <p style=""text-align: center;"">₪36
                                                <br>30%</p>
                  <p id=""wtp"" style=""text-align:center; margin-top: 0px; margin-bottom: 0px; font-size: 40px"";>&ensp;</p>","-","viewing","0","11","3C,20A,22A","","","","","","","","","","","","","","","","","","",""
"","","","","","html-slider-response","67","226607","0.0-17.0-1.16","a7dc5d5c-803e-4f39-8a22-d6b06eca0234","2474","
                  <p style=""text-align: center;"">₪36
                                                <br>30%</p>
                  <p id=""wtp"" style=""text-align:center; margin-top: 0px; margin-bottom: 0px; font-size: 40px"";>מוכנים לשלם: <span id=""c_p_y""></span></p>","9","evaluation","64","11","3C,20A,22A","30","36","9","","","","","","","","","","","","","","","",""
"","","","","","html-keyboard-response","68","227992","0.0-17.0-2.16","a7dc5d5c-803e-4f39-8a22-d6b06eca0234","null","<p style=""text-align: center;"">+</p>","null","fixation","","","","","","","","","","","","","","","","","","","","","",""
"","","","","","html-slider-response","69","228994","0.0-17.0-0.17","a7dc5d5c-803e-4f39-8a22-d6b06eca0234","1000","
                  <p style=""text-align: center;"">₪58
                                                <br>40%</p>
                  <p id=""wtp"" style=""text-align:center; margin-top: 0px; margin-bottom: 0px; font-size: 40px"";>&ensp;</p>","-","viewing","0","20","10C,13A,19C,21B","","","","","","","","","","","","","","","","","","",""
"","","","","","html-slider-response","70","231630","0.0-17.0-1.17","a7dc5d5c-803e-4f39-8a22-d6b06eca0234","2636","
                  <p style=""text-align: center;"">₪58
                                                <br>40%</p>
                  <p id=""wtp"" style=""text-align:center; margin-top: 0px; margin-bottom: 0px; font-size: 40px"";>מוכנים לשלם: <span id=""c_p_y""></span></p>","21","evaluation","50","20","10C,13A,19C,21B","40","58","21","","","","","","","","","","","","","","","",""
"","","","","","html-keyboard-response","71","232965","0.0-17.0-2.17","a7dc5d5c-803e-4f39-8a22-d6b06eca0234","null","<p style=""text-align: center;"">+</p>","null","fixation","","","","","","","","","","","","","","","","","","","","","",""
"","","","","","html-slider-response","72","233981","0.0-17.0-0.18","a7dc5d5c-803e-4f39-8a22-d6b06eca0234","1000","
                  <p style=""text-align: center;"">₪58
                                                <br>45%</p>
                  <p id=""wtp"" style=""text-align:center; margin-top: 0px; margin-bottom: 0px; font-size: 40px"";>&ensp;</p>","-","viewing","0","21","11C,18C,25A","","","","","","","","","","","","","","","","","","",""
"","","","","","html-slider-response","73","236271","0.0-17.0-1.18","a7dc5d5c-803e-4f39-8a22-d6b06eca0234","2288","
                  <p style=""text-align: center;"">₪58
                                                <br>45%</p>
                  <p id=""wtp"" style=""text-align:center; margin-top: 0px; margin-bottom: 0px; font-size: 40px"";>מוכנים לשלם: <span id=""c_p_y""></span></p>","21","evaluation","44","21","11C,18C,25A","45","58","21","","","","","","","","","","","","","","","",""
"","","","","","html-keyboard-response","74","237468","0.0-17.0-2.18","a7dc5d5c-803e-4f39-8a22-d6b06eca0234","null","<p style=""text-align: center;"">+</p>","null","fixation","","","","","","","","","","","","","","","","","","","","","",""
"","","","","","html-slider-response","75","238472","0.0-17.0-0.19","a7dc5d5c-803e-4f39-8a22-d6b06eca0234","1000","
                  <p style=""text-align: center;"">₪18
                                                <br>50%</p>
                  <p id=""wtp"" style=""text-align:center; margin-top: 0px; margin-bottom: 0px; font-size: 40px"";>&ensp;</p>","-","viewing","0","10","2C,16C,22B,28A","","","","","","","","","","","","","","","","","","",""
"","","","","","html-slider-response","76","240935","0.0-17.0-1.19","a7dc5d5c-803e-4f39-8a22-d6b06eca0234","2461","
                  <p style=""text-align: center;"">₪18
                                                <br>50%</p>
                  <p id=""wtp"" style=""text-align:center; margin-top: 0px; margin-bottom: 0px; font-size: 40px"";>מוכנים לשלם: <span id=""c_p_y""></span></p>","9","evaluation","55","10","2C,16C,22B,28A","50","18","9","","","","","","","","","","","","","","","",""
"","","","","","html-keyboard-response","77","242422","0.0-17.0-2.19","a7dc5d5c-803e-4f39-8a22-d6b06eca0234","null","<p style=""text-align: center;"">+</p>","null","fixation","","","","","","","","","","","","","","","","","","","","","",""
"","","","","","html-slider-response","78","243424","0.0-17.0-0.20","a7dc5d5c-803e-4f39-8a22-d6b06eca0234","1000","
                  <p style=""text-align: center;"">₪61
                                                <br>55%</p>
                  <p id=""wtp"" style=""text-align:center; margin-top: 0px; margin-bottom: 0px; font-size: 40px"";>&ensp;</p>","-","viewing","0","23","7B,26B","","","","","","","","","","","","","","","","","","",""
"","","","","","html-slider-response","79","245911","0.0-17.0-1.20","a7dc5d5c-803e-4f39-8a22-d6b06eca0234","2486","
                  <p style=""text-align: center;"">₪61
                                                <br>55%</p>
                  <p id=""wtp"" style=""text-align:center; margin-top: 0px; margin-bottom: 0px; font-size: 40px"";>מוכנים לשלם: <span id=""c_p_y""></span></p>","22","evaluation","47","23","7B,26B","55","61","22","","","","","","","","","","","","","","","",""
"","","","","","html-keyboard-response","80","247008","0.0-17.0-2.20","a7dc5d5c-803e-4f39-8a22-d6b06eca0234","null","<p style=""text-align: center;"">+</p>","null","fixation","","","","","","","","","","","","","","","","","","","","","",""
"","","","","","html-slider-response","81","248017","0.0-17.0-0.21","a7dc5d5c-803e-4f39-8a22-d6b06eca0234","1000","
                  <p style=""text-align: center;"">₪58
                                                <br>30%</p>
                  <p id=""wtp"" style=""text-align:center; margin-top: 0px; margin-bottom: 0px; font-size: 40px"";>&ensp;</p>","-","viewing","0","19","13C,30A","","","","","","","","","","","","","","","","","","",""
"","","","","","html-slider-response","82","248719","0.0-17.0-1.21","a7dc5d5c-803e-4f39-8a22-d6b06eca0234","700","
                  <p style=""text-align: center;"">₪58
                                                <br>30%</p>
                  <p id=""wtp"" style=""text-align:center; margin-top: 0px; margin-bottom: 0px; font-size: 40px"";>מוכנים לשלם: <span id=""c_p_y""></span></p>","14","evaluation","21","19","13C,30A","30","58","14","","","","","","","","","","","","","","","",""
"","","","","","html-keyboard-response","83","250111","0.0-17.0-2.21","a7dc5d5c-803e-4f39-8a22-d6b06eca0234","null","<p style=""text-align: center;"">+</p>","null","fixation","","","","","","","","","","","","","","","","","","","","","",""
"","","","","","html-slider-response","84","251127","0.0-17.0-0.22","a7dc5d5c-803e-4f39-8a22-d6b06eca0234","1000","
                  <p style=""text-align: center;"">₪16
                                                <br>20%</p>
                  <p id=""wtp"" style=""text-align:center; margin-top: 0px; margin-bottom: 0px; font-size: 40px"";>&ensp;</p>","-","viewing","0","8","14C,17A,20C,27A","","","","","","","","","","","","","","","","","","",""
"","","","","","html-slider-response","85","252703","0.0-17.0-1.22","a7dc5d5c-803e-4f39-8a22-d6b06eca0234","1575","
                  <p style=""text-align: center;"">₪16
                                                <br>20%</p>
                  <p id=""wtp"" style=""text-align:center; margin-top: 0px; margin-bottom: 0px; font-size: 40px"";>מוכנים לשלם: <span id=""c_p_y""></span></p>","11","evaluation","75","8","14C,17A,20C,27A","20","16","11","","","","","","","","","","","","","","","",""
"","","","","","html-keyboard-response","86","253249","0.0-17.0-2.22","a7dc5d5c-803e-4f39-8a22-d6b06eca0234","null","<p style=""text-align: center;"">+</p>","null","fixation","","","","","","","","","","","","","","","","","","","","","",""
"","","","","","html-slider-response","87","254256","0.0-17.0-0.23","a7dc5d5c-803e-4f39-8a22-d6b06eca0234","1000","
                  <p style=""text-align: center;"">₪11
                                                <br>75%</p>
                  <p id=""wtp"" style=""text-align:center; margin-top: 0px; margin-bottom: 0px; font-size: 40px"";>&ensp;</p>","-","viewing","0","7","6B,18B,22C,24C,29A","","","","","","","","","","","","","","","","","","",""
"","","","","","html-slider-response","88","256151","0.0-17.0-1.23","a7dc5d5c-803e-4f39-8a22-d6b06eca0234","1894","
                  <p style=""text-align: center;"">₪11
                                                <br>75%</p>
                  <p id=""wtp"" style=""text-align:center; margin-top: 0px; margin-bottom: 0px; font-size: 40px"";>מוכנים לשלם: <span id=""c_p_y""></span></p>","7","evaluation","18","7","6B,18B,22C,24C,29A","75","11","7","","","","","","","","","","","","","","","",""
"","","","","","html-keyboard-response","89","257181","0.0-17.0-2.23","a7dc5d5c-803e-4f39-8a22-d6b06eca0234","null","<p style=""text-align: center;"">+</p>","null","fixation","","","","","","","","","","","","","","","","","","","","","",""
"","","","","","html-slider-response","90","258195","0.0-17.0-0.24","a7dc5d5c-803e-4f39-8a22-d6b06eca0234","1000","
                  <p style=""text-align: center;"">₪43
                                                <br>75%</p>
                  <p id=""wtp"" style=""text-align:center; margin-top: 0px; margin-bottom: 0px; font-size: 40px"";>&ensp;</p>","-","viewing","0","18","11B,19B,24A,26A","","","","","","","","","","","","","","","","","","",""
"","","","","","html-slider-response","91","259535","0.0-17.0-1.24","a7dc5d5c-803e-4f39-8a22-d6b06eca0234","1339","
                  <p style=""text-align: center;"">₪43
                                                <br>75%</p>
                  <p id=""wtp"" style=""text-align:center; margin-top: 0px; margin-bottom: 0px; font-size: 40px"";>מוכנים לשלם: <span id=""c_p_y""></span></p>","18","evaluation","31","18","11B,19B,24A,26A","75","43","18","","","","","","","","","","","","","","","",""
"","","","","","html-keyboard-response","92","260229","0.0-17.0-2.24","a7dc5d5c-803e-4f39-8a22-d6b06eca0234","null","<p style=""text-align: center;"">+</p>","null","fixation","","","","","","","","","","","","","","","","","","","","","",""
"","","","","","html-slider-response","93","261231","0.0-17.0-0.25","a7dc5d5c-803e-4f39-8a22-d6b06eca0234","1000","
                  <p style=""text-align: center;"">₪11
                                                <br>25%</p>
                  <p id=""wtp"" style=""text-align:center; margin-top: 0px; margin-bottom: 0px; font-size: 40px"";>&ensp;</p>","-","viewing","0","5","12A,27B,28B,30B","","","","","","","","","","","","","","","","","","",""
"","","","","","html-slider-response","94","263095","0.0-17.0-1.25","a7dc5d5c-803e-4f39-8a22-d6b06eca0234","1863","
                  <p style=""text-align: center;"">₪11
                                                <br>25%</p>
                  <p id=""wtp"" style=""text-align:center; margin-top: 0px; margin-bottom: 0px; font-size: 40px"";>מוכנים לשלם: <span id=""c_p_y""></span></p>","3","evaluation","8","5","12A,27B,28B,30B","25","11","3","","","","","","","","","","","","","","","",""
"","","","","","html-keyboard-response","95","264296","0.0-17.0-2.25","a7dc5d5c-803e-4f39-8a22-d6b06eca0234","null","<p style=""text-align: center;"">+</p>","null","fixation","","","","","","","","","","","","","","","","","","","","","",""
"","","","","","html-slider-response","96","265298","0.0-17.0-0.26","a7dc5d5c-803e-4f39-8a22-d6b06eca0234","1000","
                  <p style=""text-align: center;"">₪61
                                                <br>45%</p>
                  <p id=""wtp"" style=""text-align:center; margin-top: 0px; margin-bottom: 0px; font-size: 40px"";>&ensp;</p>","-","viewing","0","22","10A,11A","","","","","","","","","","","","","","","","","","",""
"","","","","","html-slider-response","97","266599","0.0-17.0-1.26","a7dc5d5c-803e-4f39-8a22-d6b06eca0234","1299","
                  <p style=""text-align: center;"">₪61
                                                <br>45%</p>
                  <p id=""wtp"" style=""text-align:center; margin-top: 0px; margin-bottom: 0px; font-size: 40px"";>מוכנים לשלם: <span id=""c_p_y""></span></p>","15","evaluation","38","22","10A,11A","45","61","15","","","","","","","","","","","","","","","",""
"","","","","","html-keyboard-response","98","267852","0.0-17.0-2.26","a7dc5d5c-803e-4f39-8a22-d6b06eca0234","null","<p style=""text-align: center;"">+</p>","null","fixation","","","","","","","","","","","","","","","","","","","","","",""
"","","","","","html-slider-response","99","268855","0.0-17.0-0.27","a7dc5d5c-803e-4f39-8a22-d6b06eca0234","1000","
                  <p style=""text-align: center;"">₪18
                                                <br>25%</p>
                  <p id=""wtp"" style=""text-align:center; margin-top: 0px; margin-bottom: 0px; font-size: 40px"";>&ensp;</p>","-","viewing","0","9","14A,23A","","","","","","","","","","","","","","","","","","",""
"","","","","","html-slider-response","100","269967","0.0-17.0-1.27","a7dc5d5c-803e-4f39-8a22-d6b06eca0234","1110","
                  <p style=""text-align: center;"">₪18
                                                <br>25%</p>
                  <p id=""wtp"" style=""text-align:center; margin-top: 0px; margin-bottom: 0px; font-size: 40px"";>מוכנים לשלם: <span id=""c_p_y""></span></p>","3","evaluation","37","9","14A,23A","25","18","3","","","","","","","","","","","","","","","",""
"","","","","","html-keyboard-response","101","270907","0.0-17.0-2.27","a7dc5d5c-803e-4f39-8a22-d6b06eca0234","null","<p style=""text-align: center;"">+</p>","null","fixation","","","","","","","","","","","","","","","","","","","","","",""
"","","","","","html-slider-response","102","271917","0.0-17.0-0.28","a7dc5d5c-803e-4f39-8a22-d6b06eca0234","1000","
                  <p style=""text-align: center;"">₪4
                                                <br>25%</p>
                  <p id=""wtp"" style=""text-align:center; margin-top: 0px; margin-bottom: 0px; font-size: 40px"";>&ensp;</p>","-","viewing","0","1","6C,29B,30C","","","","","","","","","","","","","","","","","","",""
"","","","","","html-slider-response","103","272663","0.0-17.0-1.28","a7dc5d5c-803e-4f39-8a22-d6b06eca0234","744","
                  <p style=""text-align: center;"">₪4
                                                <br>25%</p>
                  <p id=""wtp"" style=""text-align:center; margin-top: 0px; margin-bottom: 0px; font-size: 40px"";>מוכנים לשלם: <span id=""c_p_y""></span></p>","0","evaluation","71","1","6C,29B,30C","25","4","0","","","","","","","","","","","","","","","",""
"","","","","","html-keyboard-response","104","274101","0.0-17.0-2.28","a7dc5d5c-803e-4f39-8a22-d6b06eca0234","null","<p style=""text-align: center;"">+</p>","null","fixation","","","","","","","","","","","","","","","","","","","","","",""
"","","","","","html-slider-response","105","275103","0.0-17.0-0.29","a7dc5d5c-803e-4f39-8a22-d6b06eca0234","1000","
                  <p style=""text-align: center;"">₪36
                                                <br>60%</p>
                  <p id=""wtp"" style=""text-align:center; margin-top: 0px; margin-bottom: 0px; font-size: 40px"";>&ensp;</p>","-","viewing","0","12","1C,7C,15C","","","","","","","","","","","","","","","","","","",""
"","","","","","html-slider-response","106","277207","0.0-17.0-1.29","a7dc5d5c-803e-4f39-8a22-d6b06eca0234","2102","
                  <p style=""text-align: center;"">₪36
                                                <br>60%</p>
                  <p id=""wtp"" style=""text-align:center; margin-top: 0px; margin-bottom: 0px; font-size: 40px"";>מוכנים לשלם: <span id=""c_p_y""></span></p>","10","evaluation","18","12","1C,7C,15C","60","36","10","","","","","","","","","","","","","","","",""
"","","","","","html-keyboard-response","107","277924","0.0-17.0-2.29","a7dc5d5c-803e-4f39-8a22-d6b06eca0234","null","<p style=""text-align: center;"">+</p>","null","fixation","","","","","","","","","","","","","","","","","","","","","",""
"","","","","","html-slider-response","108","278930","0.0-17.0-0.30","a7dc5d5c-803e-4f39-8a22-d6b06eca0234","1000","
                  <p style=""text-align: center;"">₪36
                                                <br>75%</p>
                  <p id=""wtp"" style=""text-align:center; margin-top: 0px; margin-bottom: 0px; font-size: 40px"";>&ensp;</p>","-","viewing","0","14","4B,5A,13B,16B","","","","","","","","","","","","","","","","","","",""
"","","","","","html-slider-response","109","280263","0.0-17.0-1.30","a7dc5d5c-803e-4f39-8a22-d6b06eca0234","1332","
                  <p style=""text-align: center;"">₪36
                                                <br>75%</p>
                  <p id=""wtp"" style=""text-align:center; margin-top: 0px; margin-bottom: 0px; font-size: 40px"";>מוכנים לשלם: <span id=""c_p_y""></span></p>","21","evaluation","48","14","4B,5A,13B,16B","75","36","21","","","","","","","","","","","","","","","",""
"","","","","","html-keyboard-response","110","281029","0.0-17.0-2.30","a7dc5d5c-803e-4f39-8a22-d6b06eca0234","null","<p style=""text-align: center;"">+</p>","null","fixation","","","","","","","","","","","","","","","","","","","","","",""
"","","","","","html-keyboard-response","111","282031","0.0-18.0","a7dc5d5c-803e-4f39-8a22-d6b06eca0234","null","<p style=""text-align: center;"">+</p>","null","fixation","","","","","","","","","","","","","","","","","","","","","",""
"","","","","","html-keyboard-response","112","285518","0.0-19.0","a7dc5d5c-803e-4f39-8a22-d6b06eca0234","null","<p>הפסקה.
          <br>לחצו כדי להמשיך.</p>","1","scan_wait","","","","","","","","","","","","","","","","","","","","","",""
"","","","","","html-keyboard-response","113","286523","0.0-20.0","a7dc5d5c-803e-4f39-8a22-d6b06eca0234","null","<p style=""text-align: center;"">+</p>","null","fixation","","","","","","","","","","","","","","","","","","","","","",""
"","","","","","html-slider-response","114","287528","0.0-21.0-0.0","a7dc5d5c-803e-4f39-8a22-d6b06eca0234","1000","
                  <p style=""text-align: center;"">₪71
                                                <br>75%</p>
                  <p id=""wtp"" style=""text-align:center; margin-top: 0px; margin-bottom: 0px; font-size: 40px"";>&ensp;</p>","-","viewing","0","28","8B","","","","","","","","","","","","","","","","","","",""
"","","","","","html-slider-response","115","288655","0.0-21.0-1.0","a7dc5d5c-803e-4f39-8a22-d6b06eca0234","1126","
                  <p style=""text-align: center;"">₪71
                                                <br>75%</p>
                  <p id=""wtp"" style=""text-align:center; margin-top: 0px; margin-bottom: 0px; font-size: 40px"";>מוכנים לשלם: <span id=""c_p_y""></span></p>","18","evaluation","6","28","8B","75","71","18","","","","","","","","","","","","","","","",""
"","","","","","html-keyboard-response","116","289572","0.0-21.0-2.0","a7dc5d5c-803e-4f39-8a22-d6b06eca0234","null","<p style=""text-align: center;"">+</p>","null","fixation","","","","","","","","","","","","","","","","","","","","","",""
"","","","","","html-slider-response","117","290584","0.0-21.0-0.1","a7dc5d5c-803e-4f39-8a22-d6b06eca0234","1000","
                  <p style=""text-align: center;"">₪64
                                                <br>25%</p>
                  <p id=""wtp"" style=""text-align:center; margin-top: 0px; margin-bottom: 0px; font-size: 40px"";>&ensp;</p>","-","viewing","0","24","6A,21A","","","","","","","","","","","","","","","","","","",""
"","","","","","html-slider-response","118","291734","0.0-21.0-1.1","a7dc5d5c-803e-4f39-8a22-d6b06eca0234","1149","
                  <p style=""text-align: center;"">₪64
                                                <br>25%</p>
                  <p id=""wtp"" style=""text-align:center; margin-top: 0px; margin-bottom: 0px; font-size: 40px"";>מוכנים לשלם: <span id=""c_p_y""></span></p>","18","evaluation","59","24","6A,21A","25","64","18","","","","","","","","","","","","","","","",""
"","","","","","html-keyboard-response","119","293135","0.0-21.0-2.1","a7dc5d5c-803e-4f39-8a22-d6b06eca0234","null","<p style=""text-align: center;"">+</p>","null","fixation","","","","","","","","","","","","","","","","","","","","","",""
"","","","","","html-slider-response","120","294137","0.0-21.0-0.2","a7dc5d5c-803e-4f39-8a22-d6b06eca0234","1000","
                  <p style=""text-align: center;"">₪11
                                                <br>45%</p>
                  <p id=""wtp"" style=""text-align:center; margin-top: 0px; margin-bottom: 0px; font-size: 40px"";>&ensp;</p>","-","viewing","0","6","14B,21C,25C","","","","","","","","","","","","","","","","","","",""
"","","","","","html-slider-response","121","295295","0.0-21.0-1.2","a7dc5d5c-803e-4f39-8a22-d6b06eca0234","1156","
                  <p style=""text-align: center;"">₪11
                                                <br>45%</p>
                  <p id=""wtp"" style=""text-align:center; margin-top: 0px; margin-bottom: 0px; font-size: 40px"";>מוכנים לשלם: <span id=""c_p_y""></span></p>","1","evaluation","21","6","14B,21C,25C","45","11","1","","","","","","","","","","","","","","","",""
"","","","","","html-keyboard-response","122","296464","0.0-21.0-2.2","a7dc5d5c-803e-4f39-8a22-d6b06eca0234","null","<p style=""text-align: center;"">+</p>","null","fixation","","","","","","","","","","","","","","","","","","","","","",""
"","","","","","html-slider-response","123","297471","0.0-21.0-0.3","a7dc5d5c-803e-4f39-8a22-d6b06eca0234","1000","
                  <p style=""text-align: center;"">₪58
                                                <br>40%</p>
                  <p id=""wtp"" style=""text-align:center; margin-top: 0px; margin-bottom: 0px; font-size: 40px"";>&ensp;</p>","-","viewing","0","20","10C,13A,19C,21B","","","","","","","","","","","","","","","","","","",""
"","","","","","html-slider-response","124","298447","0.0-21.0-1.3","a7dc5d5c-803e-4f39-8a22-d6b06eca0234","975","
                  <p style=""text-align: center;"">₪58
                                                <br>40%</p>
                  <p id=""wtp"" style=""text-align:center; margin-top: 0px; margin-bottom: 0px; font-size: 40px"";>מוכנים לשלם: <span id=""c_p_y""></span></p>","9","evaluation","55","20","10C,13A,19C,21B","40","58","9","","","","","","","","","","","","","","","",""
"","","","","","html-keyboard-response","125","299014","0.0-21.0-2.3","a7dc5d5c-803e-4f39-8a22-d6b06eca0234","null","<p style=""text-align: center;"">+</p>","null","fixation","","","","","","","","","","","","","","","","","","","","","",""
"","","","","","html-slider-response","126","300019","0.0-21.0-0.4","a7dc5d5c-803e-4f39-8a22-d6b06eca0234","1000","
                  <p style=""text-align: center;"">₪16
                                                <br>20%</p>
                  <p id=""wtp"" style=""text-align:center; margin-top: 0px; margin-bottom: 0px; font-size: 40px"";>&ensp;</p>","-","viewing","0","8","14C,17A,20C,27A","","","","","","","","","","","","","","","","","","",""
"","","","","","html-slider-response","127","301319","0.0-21.0-1.4","a7dc5d5c-803e-4f39-8a22-d6b06eca0234","1299","
                  <p style=""text-align: center;"">₪16
                                                <br>20%</p>
                  <p id=""wtp"" style=""text-align:center; margin-top: 0px; margin-bottom: 0px; font-size: 40px"";>מוכנים לשלם: <span id=""c_p_y""></span></p>","4","evaluation","47","8","14C,17A,20C,27A","20","16","4","","","","","","","","","","","","","","","",""
"","","","","","html-keyboard-response","128","302683","0.0-21.0-2.4","a7dc5d5c-803e-4f39-8a22-d6b06eca0234","null","<p style=""text-align: center;"">+</p>","null","fixation","","","","","","","","","","","","","","","","","","","","","",""
"","","","","","html-slider-response","129","303688","0.0-21.0-0.5","a7dc5d5c-803e-4f39-8a22-d6b06eca0234","1000","
                  <p style=""text-align: center;"">₪36
                                                <br>60%</p>
                  <p id=""wtp"" style=""text-align:center; margin-top: 0px; margin-bottom: 0px; font-size: 40px"";>&ensp;</p>","-","viewing","0","12","1C,7C,15C","","","","","","","","","","","","","","","","","","",""
"","","","","","html-slider-response","130","305711","0.0-21.0-1.5","a7dc5d5c-803e-4f39-8a22-d6b06eca0234","2021","
                  <p style=""text-align: center;"">₪36
                                                <br>60%</p>
                  <p id=""wtp"" style=""text-align:center; margin-top: 0px; margin-bottom: 0px; font-size: 40px"";>מוכנים לשלם: <span id=""c_p_y""></span></p>","10","evaluation","39","12","1C,7C,15C","60","36","10","","","","","","","","","","","","","","","",""
"","","","","","html-keyboard-response","131","307057","0.0-21.0-2.5","a7dc5d5c-803e-4f39-8a22-d6b06eca0234","null","<p style=""text-align: center;"">+</p>","null","fixation","","","","","","","","","","","","","","","","","","","","","",""
"","","","","","html-slider-response","132","308073","0.0-21.0-0.6","a7dc5d5c-803e-4f39-8a22-d6b06eca0234","1000","
                  <p style=""text-align: center;"">₪79
                                                <br>65%</p>
                  <p id=""wtp"" style=""text-align:center; margin-top: 0px; margin-bottom: 0px; font-size: 40px"";>&ensp;</p>","-","viewing","0","31","8A","","","","","","","","","","","","","","","","","","",""
"","","","","","html-slider-response","133","309871","0.0-21.0-1.6","a7dc5d5c-803e-4f39-8a22-d6b06eca0234","1796","
                  <p style=""text-align: center;"">₪79
                                                <br>65%</p>
                  <p id=""wtp"" style=""text-align:center; margin-top: 0px; margin-bottom: 0px; font-size: 40px"";>מוכנים לשלם: <span id=""c_p_y""></span></p>","24","evaluation","59","31","8A","65","79","24","","","","","","","","","","","","","","","",""
"","","","","","html-keyboard-response","134","311141","0.0-21.0-2.6","a7dc5d5c-803e-4f39-8a22-d6b06eca0234","null","<p style=""text-align: center;"">+</p>","null","fixation","","","","","","","","","","","","","","","","","","","","","",""
"","","","","","html-slider-response","135","312143","0.0-21.0-0.7","a7dc5d5c-803e-4f39-8a22-d6b06eca0234","1000","
                  <p style=""text-align: center;"">₪43
                                                <br>60%</p>
                  <p id=""wtp"" style=""text-align:center; margin-top: 0px; margin-bottom: 0px; font-size: 40px"";>&ensp;</p>","-","viewing","0","17","2A,7A,9A,15B","","","","","","","","","","","","","","","","","","",""
"","","","","","html-slider-response","136","314295","0.0-21.0-1.7","a7dc5d5c-803e-4f39-8a22-d6b06eca0234","2150","
                  <p style=""text-align: center;"">₪43
                                                <br>60%</p>
                  <p id=""wtp"" style=""text-align:center; margin-top: 0px; margin-bottom: 0px; font-size: 40px"";>מוכנים לשלם: <span id=""c_p_y""></span></p>","16","evaluation","80","17","2A,7A,9A,15B","60","43","16","","","","","","","","","","","","","","","",""
"","","","","","html-keyboard-response","137","315657","0.0-21.0-2.7","a7dc5d5c-803e-4f39-8a22-d6b06eca0234","null","<p style=""text-align: center;"">+</p>","null","fixation","","","","","","","","","","","","","","","","","","","","","",""
"","","","","","html-slider-response","138","316669","0.0-21.0-0.8","a7dc5d5c-803e-4f39-8a22-d6b06eca0234","1000","
                  <p style=""text-align: center;"">₪36
                                                <br>70%</p>
                  <p id=""wtp"" style=""text-align:center; margin-top: 0px; margin-bottom: 0px; font-size: 40px"";>&ensp;</p>","-","viewing","0","13","3A,5C,10B","","","","","","","","","","","","","","","","","","",""
"","","","","","html-slider-response","139","318543","0.0-21.0-1.8","a7dc5d5c-803e-4f39-8a22-d6b06eca0234","1872","
                  <p style=""text-align: center;"">₪36
                                                <br>70%</p>
                  <p id=""wtp"" style=""text-align:center; margin-top: 0px; margin-bottom: 0px; font-size: 40px"";>מוכנים לשלם: <span id=""c_p_y""></span></p>","20","evaluation","78","13","3A,5C,10B","70","36","20","","","","","","","","","","","","","","","",""
"","","","","","html-keyboard-response","140","319815","0.0-21.0-2.8","a7dc5d5c-803e-4f39-8a22-d6b06eca0234","null","<p style=""text-align: center;"">+</p>","null","fixation","","","","","","","","","","","","","","","","","","","","","",""
"","","","","","html-slider-response","141","320831","0.0-21.0-0.9","a7dc5d5c-803e-4f39-8a22-d6b06eca0234","1000","
                  <p style=""text-align: center;"">₪4
                                                <br>75%</p>
                  <p id=""wtp"" style=""text-align:center; margin-top: 0px; margin-bottom: 0px; font-size: 40px"";>&ensp;</p>","-","viewing","0","3","12B,20B,23B,27C,29C","","","","","","","","","","","","","","","","","","",""
"","","","","","html-slider-response","142","322911","0.0-21.0-1.9","a7dc5d5c-803e-4f39-8a22-d6b06eca0234","2078","
                  <p style=""text-align: center;"">₪4
                                                <br>75%</p>
                  <p id=""wtp"" style=""text-align:center; margin-top: 0px; margin-bottom: 0px; font-size: 40px"";>מוכנים לשלם: <span id=""c_p_y""></span></p>","3","evaluation","72","3","12B,20B,23B,27C,29C","75","4","3","","","","","","","","","","","","","","","",""
"","","","","","html-keyboard-response","143","323442","0.0-21.0-2.9","a7dc5d5c-803e-4f39-8a22-d6b06eca0234","null","<p style=""text-align: center;"">+</p>","null","fixation","","","","","","","","","","","","","","","","","","","","","",""
"","","","","","html-slider-response","144","324451","0.0-21.0-0.10","a7dc5d5c-803e-4f39-8a22-d6b06eca0234","1000","
                  <p style=""text-align: center;"">₪11
                                                <br>75%</p>
                  <p id=""wtp"" style=""text-align:center; margin-top: 0px; margin-bottom: 0px; font-size: 40px"";>&ensp;</p>","-","viewing","0","7","6B,18B,22C,24C,29A","","","","","","","","","","","","","","","","","","",""
"","","","","","html-slider-response","145","327935","0.0-21.0-1.10","a7dc5d5c-803e-4f39-8a22-d6b06eca0234","3482","
                  <p style=""text-align: center;"">₪11
                                                <br>75%</p>
                  <p id=""wtp"" style=""text-align:center; margin-top: 0px; margin-bottom: 0px; font-size: 40px"";>מוכנים לשלם: <span id=""c_p_y""></span></p>","7","evaluation","52","7","6B,18B,22C,24C,29A","75","11","7","","","","","","","","","","","","","","","",""
"","","","","","html-keyboard-response","146","329312","0.0-21.0-2.10","a7dc5d5c-803e-4f39-8a22-d6b06eca0234","null","<p style=""text-align: center;"">+</p>","null","fixation","","","","","","","","","","","","","","","","","","","","","",""
"","","","","","html-slider-response","147","330326","0.0-21.0-0.11","a7dc5d5c-803e-4f39-8a22-d6b06eca0234","1000","
                  <p style=""text-align: center;"">₪4
                                                <br>25%</p>
                  <p id=""wtp"" style=""text-align:center; margin-top: 0px; margin-bottom: 0px; font-size: 40px"";>&ensp;</p>","-","viewing","0","1","6C,29B,30C","","","","","","","","","","","","","","","","","","",""
"","","","","","html-slider-response","148","330990","0.0-21.0-1.11","a7dc5d5c-803e-4f39-8a22-d6b06eca0234","663","
                  <p style=""text-align: center;"">₪4
                                                <br>25%</p>
                  <p id=""wtp"" style=""text-align:center; margin-top: 0px; margin-bottom: 0px; font-size: 40px"";>מוכנים לשלם: <span id=""c_p_y""></span></p>","0","evaluation","30","1","6C,29B,30C","25","4","0","","","","","","","","","","","","","","","",""
"","","","","","html-keyboard-response","149","331656","0.0-21.0-2.11","a7dc5d5c-803e-4f39-8a22-d6b06eca0234","null","<p style=""text-align: center;"">+</p>","null","fixation","","","","","","","","","","","","","","","","","","","","","",""
"","","","","","html-slider-response","150","332657","0.0-21.0-0.12","a7dc5d5c-803e-4f39-8a22-d6b06eca0234","1000","
                  <p style=""text-align: center;"">₪79
                                                <br>40%</p>
                  <p id=""wtp"" style=""text-align:center; margin-top: 0px; margin-bottom: 0px; font-size: 40px"";>&ensp;</p>","-","viewing","0","30","9B","","","","","","","","","","","","","","","","","","",""
"","","","","","html-slider-response","151","335223","0.0-21.0-1.12","a7dc5d5c-803e-4f39-8a22-d6b06eca0234","2564","
                  <p style=""text-align: center;"">₪79
                                                <br>40%</p>
                  <p id=""wtp"" style=""text-align:center; margin-top: 0px; margin-bottom: 0px; font-size: 40px"";>מוכנים לשלם: <span id=""c_p_y""></span></p>","29","evaluation","2","30","9B","40","79","29","","","","","","","","","","","","","","","",""
"","","","","","html-keyboard-response","152","336313","0.0-21.0-2.12","a7dc5d5c-803e-4f39-8a22-d6b06eca0234","null","<p style=""text-align: center;"">+</p>","null","fixation","","","","","","","","","","","","","","","","","","","","","",""
"","","","","","html-slider-response","153","337327","0.0-21.0-0.13","a7dc5d5c-803e-4f39-8a22-d6b06eca0234","1000","
                  <p style=""text-align: center;"">₪36
                                                <br>75%</p>
                  <p id=""wtp"" style=""text-align:center; margin-top: 0px; margin-bottom: 0px; font-size: 40px"";>&ensp;</p>","-","viewing","0","14","4B,5A,13B,16B","","","","","","","","","","","","","","","","","","",""
"","","","","","html-slider-response","154","340471","0.0-21.0-1.13","a7dc5d5c-803e-4f39-8a22-d6b06eca0234","3142","
                  <p style=""text-align: center;"">₪36
                                                <br>75%</p>
                  <p id=""wtp"" style=""text-align:center; margin-top: 0px; margin-bottom: 0px; font-size: 40px"";>מוכנים לשלם: <span id=""c_p_y""></span></p>","17","evaluation","41","14","4B,5A,13B,16B","75","36","17","","","","","","","","","","","","","","","",""
"","","","","","html-keyboard-response","155","341686","0.0-21.0-2.13","a7dc5d5c-803e-4f39-8a22-d6b06eca0234","null","<p style=""text-align: center;"">+</p>","null","fixation","","","","","","","","","","","","","","","","","","","","","",""
"","","","","","html-slider-response","156","342703","0.0-21.0-0.14","a7dc5d5c-803e-4f39-8a22-d6b06eca0234","1000","
                  <p style=""text-align: center;"">₪4
                                                <br>50%</p>
                  <p id=""wtp"" style=""text-align:center; margin-top: 0px; margin-bottom: 0px; font-size: 40px"";>&ensp;</p>","-","viewing","0","2","4C,17B","","","","","","","","","","","","","","","","","","",""
"","","","","","html-slider-response","157","344606","0.0-21.0-1.14","a7dc5d5c-803e-4f39-8a22-d6b06eca0234","1903","
                  <p style=""text-align: center;"">₪4
                                                <br>50%</p>
                  <p id=""wtp"" style=""text-align:center; margin-top: 0px; margin-bottom: 0px; font-size: 40px"";>מוכנים לשלם: <span id=""c_p_y""></span></p>","3","evaluation","73","2","4C,17B","50","4","3","","","","","","","","","","","","","","","",""
"","","","","","html-keyboard-response","158","345714","0.0-21.0-2.14","a7dc5d5c-803e-4f39-8a22-d6b06eca0234","null","<p style=""text-align: center;"">+</p>","null","fixation","","","","","","","","","","","","","","","","","","","","","",""
"","","","","","html-slider-response","159","346716","0.0-21.0-0.15","a7dc5d5c-803e-4f39-8a22-d6b06eca0234","1000","
                  <p style=""text-align: center;"">₪18
                                                <br>50%</p>
                  <p id=""wtp"" style=""text-align:center; margin-top: 0px; margin-bottom: 0px; font-size: 40px"";>&ensp;</p>","-","viewing","0","10","2C,16C,22B,28A","","","","","","","","","","","","","","","","","","",""
"","","","","","html-slider-response","160","347783","0.0-21.0-1.15","a7dc5d5c-803e-4f39-8a22-d6b06eca0234","1066","
                  <p style=""text-align: center;"">₪18
                                                <br>50%</p>
                  <p id=""wtp"" style=""text-align:center; margin-top: 0px; margin-bottom: 0px; font-size: 40px"";>מוכנים לשלם: <span id=""c_p_y""></span></p>","8","evaluation","56","10","2C,16C,22B,28A","50","18","8","","","","","","","","","","","","","","","",""
"","","","","","html-keyboard-response","161","348345","0.0-21.0-2.15","a7dc5d5c-803e-4f39-8a22-d6b06eca0234","null","<p style=""text-align: center;"">+</p>","null","fixation","","","","","","","","","","","","","","","","","","","","","",""
"","","","","","html-slider-response","162","349358","0.0-21.0-0.16","a7dc5d5c-803e-4f39-8a22-d6b06eca0234","1000","
                  <p style=""text-align: center;"">₪39
                                                <br>65%</p>
                  <p id=""wtp"" style=""text-align:center; margin-top: 0px; margin-bottom: 0px; font-size: 40px"";>&ensp;</p>","-","viewing","0","16","1A,15A,26C","","","","","","","","","","","","","","","","","","",""
"","","","","","html-slider-response","163","351759","0.0-21.0-1.16","a7dc5d5c-803e-4f39-8a22-d6b06eca0234","2399","
                  <p style=""text-align: center;"">₪39
                                                <br>65%</p>
                  <p id=""wtp"" style=""text-align:center; margin-top: 0px; margin-bottom: 0px; font-size: 40px"";>מוכנים לשלם: <span id=""c_p_y""></span></p>","19","evaluation","9","16","1A,15A,26C","65","39","19","","","","","","","","","","","","","","","",""
"","","","","","html-keyboard-response","164","352669","0.0-21.0-2.16","a7dc5d5c-803e-4f39-8a22-d6b06eca0234","null","<p style=""text-align: center;"">+</p>","null","fixation","","","","","","","","","","","","","","","","","","","","","",""
"","","","","","html-slider-response","165","353684","0.0-21.0-0.17","a7dc5d5c-803e-4f39-8a22-d6b06eca0234","1000","
                  <p style=""text-align: center;"">₪71
                                                <br>55%</p>
                  <p id=""wtp"" style=""text-align:center; margin-top: 0px; margin-bottom: 0px; font-size: 40px"";>&ensp;</p>","-","viewing","0","27","5B,18A","","","","","","","","","","","","","","","","","","",""
"","","","","","html-slider-response","166","355063","0.0-21.0-1.17","a7dc5d5c-803e-4f39-8a22-d6b06eca0234","1378","
                  <p style=""text-align: center;"">₪71
                                                <br>55%</p>
                  <p id=""wtp"" style=""text-align:center; margin-top: 0px; margin-bottom: 0px; font-size: 40px"";>מוכנים לשלם: <span id=""c_p_y""></span></p>","27","evaluation","77","27","5B,18A","55","71","27","","","","","","","","","","","","","","","",""
"","","","","","html-keyboard-response","167","355595","0.0-21.0-2.17","a7dc5d5c-803e-4f39-8a22-d6b06eca0234","null","<p style=""text-align: center;"">+</p>","null","fixation","","","","","","","","","","","","","","","","","","","","","",""
"","","","","","html-slider-response","168","356602","0.0-21.0-0.18","a7dc5d5c-803e-4f39-8a22-d6b06eca0234","1000","
                  <p style=""text-align: center;"">₪11
                                                <br>20%</p>
                  <p id=""wtp"" style=""text-align:center; margin-top: 0px; margin-bottom: 0px; font-size: 40px"";>&ensp;</p>","-","viewing","0","4","12C,17C,23C,28C","","","","","","","","","","","","","","","","","","",""
"","","","","","html-slider-response","169","358215","0.0-21.0-1.18","a7dc5d5c-803e-4f39-8a22-d6b06eca0234","1611","
                  <p style=""text-align: center;"">₪11
                                                <br>20%</p>
                  <p id=""wtp"" style=""text-align:center; margin-top: 0px; margin-bottom: 0px; font-size: 40px"";>מוכנים לשלם: <span id=""c_p_y""></span></p>","7","evaluation","72","4","12C,17C,23C,28C","20","11","7","","","","","","","","","","","","","","","",""
"","","","","","html-keyboard-response","170","359144","0.0-21.0-2.18","a7dc5d5c-803e-4f39-8a22-d6b06eca0234","null","<p style=""text-align: center;"">+</p>","null","fixation","","","","","","","","","","","","","","","","","","","","","",""
"","","","","","html-slider-response","171","360158","0.0-21.0-0.19","a7dc5d5c-803e-4f39-8a22-d6b06eca0234","1000","
                  <p style=""text-align: center;"">₪43
                                                <br>75%</p>
                  <p id=""wtp"" style=""text-align:center; margin-top: 0px; margin-bottom: 0px; font-size: 40px"";>&ensp;</p>","-","viewing","0","18","11B,19B,24A,26A","","","","","","","","","","","","","","","","","","",""
"","","","","","html-slider-response","172","361575","0.0-21.0-1.19","a7dc5d5c-803e-4f39-8a22-d6b06eca0234","1416","
                  <p style=""text-align: center;"">₪43
                                                <br>75%</p>
                  <p id=""wtp"" style=""text-align:center; margin-top: 0px; margin-bottom: 0px; font-size: 40px"";>מוכנים לשלם: <span id=""c_p_y""></span></p>","15","evaluation","63","18","11B,19B,24A,26A","75","43","15","","","","","","","","","","","","","","","",""
"","","","","","html-keyboard-response","173","362964","0.0-21.0-2.19","a7dc5d5c-803e-4f39-8a22-d6b06eca0234","null","<p style=""text-align: center;"">+</p>","null","fixation","","","","","","","","","","","","","","","","","","","","","",""
"","","","","","html-slider-response","174","363979","0.0-21.0-0.20","a7dc5d5c-803e-4f39-8a22-d6b06eca0234","1000","
                  <p style=""text-align: center;"">₪61
                                                <br>55%</p>
                  <p id=""wtp"" style=""text-align:center; margin-top: 0px; margin-bottom: 0px; font-size: 40px"";>&ensp;</p>","-","viewing","0","23","7B,26B","","","","","","","","","","","","","","","","","","",""
"","","","","","html-slider-response","175","365639","0.0-21.0-1.20","a7dc5d5c-803e-4f39-8a22-d6b06eca0234","1658","
                  <p style=""text-align: center;"">₪61
                                                <br>55%</p>
                  <p id=""wtp"" style=""text-align:center; margin-top: 0px; margin-bottom: 0px; font-size: 40px"";>מוכנים לשלם: <span id=""c_p_y""></span></p>","24","evaluation","37","23","7B,26B","55","61","24","","","","","","","","","","","","","","","",""
"","","","","","html-keyboard-response","176","366962","0.0-21.0-2.20","a7dc5d5c-803e-4f39-8a22-d6b06eca0234","null","<p style=""text-align: center;"">+</p>","null","fixation","","","","","","","","","","","","","","","","","","","","","",""
"","","","","","html-slider-response","177","367968","0.0-21.0-0.21","a7dc5d5c-803e-4f39-8a22-d6b06eca0234","1000","
                  <p style=""text-align: center;"">₪71
                                                <br>45%</p>
                  <p id=""wtp"" style=""text-align:center; margin-top: 0px; margin-bottom: 0px; font-size: 40px"";>&ensp;</p>","-","viewing","0","26","2B,16A","","","","","","","","","","","","","","","","","","",""
"","","","","","html-slider-response","178","368687","0.0-21.0-1.21","a7dc5d5c-803e-4f39-8a22-d6b06eca0234","717","
                  <p style=""text-align: center;"">₪71
                                                <br>45%</p>
                  <p id=""wtp"" style=""text-align:center; margin-top: 0px; margin-bottom: 0px; font-size: 40px"";>מוכנים לשלם: <span id=""c_p_y""></span></p>","26","evaluation","12","26","2B,16A","45","71","26","","","","","","","","","","","","","","","",""
"","","","","","html-keyboard-response","179","369804","0.0-21.0-2.21","a7dc5d5c-803e-4f39-8a22-d6b06eca0234","null","<p style=""text-align: center;"">+</p>","null","fixation","","","","","","","","","","","","","","","","","","","","","",""
"","","","","","html-slider-response","180","370821","0.0-21.0-0.22","a7dc5d5c-803e-4f39-8a22-d6b06eca0234","1000","
                  <p style=""text-align: center;"">₪36
                                                <br>30%</p>
                  <p id=""wtp"" style=""text-align:center; margin-top: 0px; margin-bottom: 0px; font-size: 40px"";>&ensp;</p>","-","viewing","0","11","3C,20A,22A","","","","","","","","","","","","","","","","","","",""
"","","","","","html-slider-response","181","371567","0.0-21.0-1.22","a7dc5d5c-803e-4f39-8a22-d6b06eca0234","744","
                  <p style=""text-align: center;"">₪36
                                                <br>30%</p>
                  <p id=""wtp"" style=""text-align:center; margin-top: 0px; margin-bottom: 0px; font-size: 40px"";>מוכנים לשלם: <span id=""c_p_y""></span></p>","15","evaluation","58","11","3C,20A,22A","30","36","15","","","","","","","","","","","","","","","",""
"","","","","","html-keyboard-response","182","372900","0.0-21.0-2.22","a7dc5d5c-803e-4f39-8a22-d6b06eca0234","null","<p style=""text-align: center;"">+</p>","null","fixation","","","","","","","","","","","","","","","","","","","","","",""
"","","","","","html-slider-response","183","373916","0.0-21.0-0.23","a7dc5d5c-803e-4f39-8a22-d6b06eca0234","1000","
                  <p style=""text-align: center;"">₪18
                                                <br>25%</p>
                  <p id=""wtp"" style=""text-align:center; margin-top: 0px; margin-bottom: 0px; font-size: 40px"";>&ensp;</p>","-","viewing","0","9","14A,23A","","","","","","","","","","","","","","","","","","",""
"","","","","","html-slider-response","184","374919","0.0-21.0-1.23","a7dc5d5c-803e-4f39-8a22-d6b06eca0234","1001","
                  <p style=""text-align: center;"">₪18
                                                <br>25%</p>
                  <p id=""wtp"" style=""text-align:center; margin-top: 0px; margin-bottom: 0px; font-size: 40px"";>מוכנים לשלם: <span id=""c_p_y""></span></p>","3","evaluation","75","9","14A,23A","25","18","3","","","","","","","","","","","","","","","",""
"","","","","","html-keyboard-response","185","376336","0.0-21.0-2.23","a7dc5d5c-803e-4f39-8a22-d6b06eca0234","null","<p style=""text-align: center;"">+</p>","null","fixation","","","","","","","","","","","","","","","","","","","","","",""
"","","","","","html-slider-response","186","377344","0.0-21.0-0.24","a7dc5d5c-803e-4f39-8a22-d6b06eca0234","1000","
                  <p style=""text-align: center;"">₪58
                                                <br>45%</p>
                  <p id=""wtp"" style=""text-align:center; margin-top: 0px; margin-bottom: 0px; font-size: 40px"";>&ensp;</p>","-","viewing","0","21","11C,18C,25A","","","","","","","","","","","","","","","","","","",""
"","","","","","html-slider-response","187","378687","0.0-21.0-1.24","a7dc5d5c-803e-4f39-8a22-d6b06eca0234","1341","
                  <p style=""text-align: center;"">₪58
                                                <br>45%</p>
                  <p id=""wtp"" style=""text-align:center; margin-top: 0px; margin-bottom: 0px; font-size: 40px"";>מוכנים לשלם: <span id=""c_p_y""></span></p>","11","evaluation","67","21","11C,18C,25A","45","58","11","","","","","","","","","","","","","","","",""
"","","","","","html-keyboard-response","188","379787","0.0-21.0-2.24","a7dc5d5c-803e-4f39-8a22-d6b06eca0234","null","<p style=""text-align: center;"">+</p>","null","fixation","","","","","","","","","","","","","","","","","","","","","",""
"","","","","","html-slider-response","189","380788","0.0-21.0-0.25","a7dc5d5c-803e-4f39-8a22-d6b06eca0234","1000","
                  <p style=""text-align: center;"">₪61
                                                <br>45%</p>
                  <p id=""wtp"" style=""text-align:center; margin-top: 0px; margin-bottom: 0px; font-size: 40px"";>&ensp;</p>","-","viewing","0","22","10A,11A","","","","","","","","","","","","","","","","","","",""
"","","","","","html-slider-response","190","381735","0.0-21.0-1.25","a7dc5d5c-803e-4f39-8a22-d6b06eca0234","946","
                  <p style=""text-align: center;"">₪61
                                                <br>45%</p>
                  <p id=""wtp"" style=""text-align:center; margin-top: 0px; margin-bottom: 0px; font-size: 40px"";>מוכנים לשלם: <span id=""c_p_y""></span></p>","26","evaluation","40","22","10A,11A","45","61","26","","","","","","","","","","","","","","","",""
"","","","","","html-keyboard-response","191","382515","0.0-21.0-2.25","a7dc5d5c-803e-4f39-8a22-d6b06eca0234","null","<p style=""text-align: center;"">+</p>","null","fixation","","","","","","","","","","","","","","","","","","","","","",""
"","","","","","html-slider-response","192","383528","0.0-21.0-0.26","a7dc5d5c-803e-4f39-8a22-d6b06eca0234","1000","
                  <p style=""text-align: center;"">₪39
                                                <br>60%</p>
                  <p id=""wtp"" style=""text-align:center; margin-top: 0px; margin-bottom: 0px; font-size: 40px"";>&ensp;</p>","-","viewing","0","15","9C,25B","","","","","","","","","","","","","","","","","","",""
"","","","","","html-slider-response","193","385855","0.0-21.0-1.26","a7dc5d5c-803e-4f39-8a22-d6b06eca0234","2326","
                  <p style=""text-align: center;"">₪39
                                                <br>60%</p>
                  <p id=""wtp"" style=""text-align:center; margin-top: 0px; margin-bottom: 0px; font-size: 40px"";>מוכנים לשלם: <span id=""c_p_y""></span></p>","22","evaluation","62","15","9C,25B","60","39","22","","","","","","","","","","","","","","","",""
"","","","","","html-keyboard-response","194","386774","0.0-21.0-2.26","a7dc5d5c-803e-4f39-8a22-d6b06eca0234","null","<p style=""text-align: center;"">+</p>","null","fixation","","","","","","","","","","","","","","","","","","","","","",""
"","","","","","html-slider-response","195","387786","0.0-21.0-0.27","a7dc5d5c-803e-4f39-8a22-d6b06eca0234","1000","
                  <p style=""text-align: center;"">₪11
                                                <br>25%</p>
                  <p id=""wtp"" style=""text-align:center; margin-top: 0px; margin-bottom: 0px; font-size: 40px"";>&ensp;</p>","-","viewing","0","5","12A,27B,28B,30B","","","","","","","","","","","","","","","","","","",""
"","","","","","html-slider-response","196","388783","0.0-21.0-1.27","a7dc5d5c-803e-4f39-8a22-d6b06eca0234","996","
                  <p style=""text-align: center;"">₪11
                                                <br>25%</p>
                  <p id=""wtp"" style=""text-align:center; margin-top: 0px; margin-bottom: 0px; font-size: 40px"";>מוכנים לשלם: <span id=""c_p_y""></span></p>","7","evaluation","16","5","12A,27B,28B,30B","25","11","7","","","","","","","","","","","","","","","",""
"","","","","","html-keyboard-response","197","390131","0.0-21.0-2.27","a7dc5d5c-803e-4f39-8a22-d6b06eca0234","null","<p style=""text-align: center;"">+</p>","null","fixation","","","","","","","","","","","","","","","","","","","","","",""
"","","","","","html-slider-response","198","391143","0.0-21.0-0.28","a7dc5d5c-803e-4f39-8a22-d6b06eca0234","1000","
                  <p style=""text-align: center;"">₪58
                                                <br>30%</p>
                  <p id=""wtp"" style=""text-align:center; margin-top: 0px; margin-bottom: 0px; font-size: 40px"";>&ensp;</p>","-","viewing","0","19","13C,30A","","","","","","","","","","","","","","","","","","",""
"","","","","","html-slider-response","199","393199","0.0-21.0-1.28","a7dc5d5c-803e-4f39-8a22-d6b06eca0234","2055","
                  <p style=""text-align: center;"">₪58
                                                <br>30%</p>
                  <p id=""wtp"" style=""text-align:center; margin-top: 0px; margin-bottom: 0px; font-size: 40px"";>מוכנים לשלם: <span id=""c_p_y""></span></p>","20","evaluation","64","19","13C,30A","30","58","20","","","","","","","","","","","","","","","",""
"","","","","","html-keyboard-response","200","394428","0.0-21.0-2.28","a7dc5d5c-803e-4f39-8a22-d6b06eca0234","null","<p style=""text-align: center;"">+</p>","null","fixation","","","","","","","","","","","","","","","","","","","","","",""
"","","","","","html-slider-response","201","395439","0.0-21.0-0.29","a7dc5d5c-803e-4f39-8a22-d6b06eca0234","1000","
                  <p style=""text-align: center;"">₪76
                                                <br>65%</p>
                  <p id=""wtp"" style=""text-align:center; margin-top: 0px; margin-bottom: 0px; font-size: 40px"";>&ensp;</p>","-","viewing","0","29","8C,19A,24B","","","","","","","","","","","","","","","","","","",""
"","","","","","html-slider-response","202","396975","0.0-21.0-1.29","a7dc5d5c-803e-4f39-8a22-d6b06eca0234","1534","
                  <p style=""text-align: center;"">₪76
                                                <br>65%</p>
                  <p id=""wtp"" style=""text-align:center; margin-top: 0px; margin-bottom: 0px; font-size: 40px"";>מוכנים לשלם: <span id=""c_p_y""></span></p>","26","evaluation","19","29","8C,19A,24B","65","76","26","","","","","","","","","","","","","","","",""
"","","","","","html-keyboard-response","203","398290","0.0-21.0-2.29","a7dc5d5c-803e-4f39-8a22-d6b06eca0234","null","<p style=""text-align: center;"">+</p>","null","fixation","","","","","","","","","","","","","","","","","","","","","",""
"","","","","","html-slider-response","204","399294","0.0-21.0-0.30","a7dc5d5c-803e-4f39-8a22-d6b06eca0234","1000","
                  <p style=""text-align: center;"">₪64
                                                <br>50%</p>
                  <p id=""wtp"" style=""text-align:center; margin-top: 0px; margin-bottom: 0px; font-size: 40px"";>&ensp;</p>","-","viewing","0","25","1B,3B,4A","","","","","","","","","","","","","","","","","","",""
"","","","","","html-slider-response","205","400710","0.0-21.0-1.30","a7dc5d5c-803e-4f39-8a22-d6b06eca0234","1415","
                  <p style=""text-align: center;"">₪64
                                                <br>50%</p>
                  <p id=""wtp"" style=""text-align:center; margin-top: 0px; margin-bottom: 0px; font-size: 40px"";>מוכנים לשלם: <span id=""c_p_y""></span></p>","30","evaluation","46","25","1B,3B,4A","50","64","30","","","","","","","","","","","","","","","",""
"","","","","","html-keyboard-response","206","402014","0.0-21.0-2.30","a7dc5d5c-803e-4f39-8a22-d6b06eca0234","null","<p style=""text-align: center;"">+</p>","null","fixation","","","","","","","","","","","","","","","","","","","","","",""
"","","","","","html-keyboard-response","207","403026","0.0-22.0","a7dc5d5c-803e-4f39-8a22-d6b06eca0234","null","<p style=""text-align: center;"">+</p>","null","fixation","","","","","","","","","","","","","","","","","","","","","",""
"","","","","","html-keyboard-response","208","407662","0.0-23.0","a7dc5d5c-803e-4f39-8a22-d6b06eca0234","null","<p>הפסקה.
          <br>לחצו כדי להמשיך.</p>","1","scan_wait","","","","","","","","","","","","","","","","","","","","","",""
"","","","","","html-keyboard-response","209","408669","0.0-24.0","a7dc5d5c-803e-4f39-8a22-d6b06eca0234","null","<p style=""text-align: center;"">+</p>","null","fixation","","","","","","","","","","","","","","","","","","","","","",""
"","","","","","html-slider-response","210","409685","0.0-25.0-0.0","a7dc5d5c-803e-4f39-8a22-d6b06eca0234","1000","
                  <p style=""text-align: center;"">₪11
                                                <br>45%</p>
                  <p id=""wtp"" style=""text-align:center; margin-top: 0px; margin-bottom: 0px; font-size: 40px"";>&ensp;</p>","-","viewing","0","6","14B,21C,25C","","","","","","","","","","","","","","","","","","",""
"","","","","","html-slider-response","211","411735","0.0-25.0-1.0","a7dc5d5c-803e-4f39-8a22-d6b06eca0234","2049","
                  <p style=""text-align: center;"">₪11
                                                <br>45%</p>
                  <p id=""wtp"" style=""text-align:center; margin-top: 0px; margin-bottom: 0px; font-size: 40px"";>מוכנים לשלם: <span id=""c_p_y""></span></p>","6","evaluation","48","6","14B,21C,25C","45","11","6","","","","","","","","","","","","","","","",""
"","","","","","html-keyboard-response","212","412406","0.0-25.0-2.0","a7dc5d5c-803e-4f39-8a22-d6b06eca0234","null","<p style=""text-align: center;"">+</p>","null","fixation","","","","","","","","","","","","","","","","","","","","","",""
"","","","","","html-slider-response","213","413407","0.0-25.0-0.1","a7dc5d5c-803e-4f39-8a22-d6b06eca0234","1000","
                  <p style=""text-align: center;"">₪11
                                                <br>75%</p>
                  <p id=""wtp"" style=""text-align:center; margin-top: 0px; margin-bottom: 0px; font-size: 40px"";>&ensp;</p>","-","viewing","0","7","6B,18B,22C,24C,29A","","","","","","","","","","","","","","","","","","",""
"","","","","","html-slider-response","214","414446","0.0-25.0-1.1","a7dc5d5c-803e-4f39-8a22-d6b06eca0234","1038","
                  <p style=""text-align: center;"">₪11
                                                <br>75%</p>
                  <p id=""wtp"" style=""text-align:center; margin-top: 0px; margin-bottom: 0px; font-size: 40px"";>מוכנים לשלם: <span id=""c_p_y""></span></p>","9","evaluation","43","7","6B,18B,22C,24C,29A","75","11","9","","","","","","","","","","","","","","","",""
"","","","","","html-keyboard-response","215","415334","0.0-25.0-2.1","a7dc5d5c-803e-4f39-8a22-d6b06eca0234","null","<p style=""text-align: center;"">+</p>","null","fixation","","","","","","","","","","","","","","","","","","","","","",""
"","","","","","html-slider-response","216","416337","0.0-25.0-0.2","a7dc5d5c-803e-4f39-8a22-d6b06eca0234","1000","
                  <p style=""text-align: center;"">₪18
                                                <br>25%</p>
                  <p id=""wtp"" style=""text-align:center; margin-top: 0px; margin-bottom: 0px; font-size: 40px"";>&ensp;</p>","-","viewing","0","9","14A,23A","","","","","","","","","","","","","","","","","","",""
"","","","","","html-slider-response","217","417559","0.0-25.0-1.2","a7dc5d5c-803e-4f39-8a22-d6b06eca0234","1221","
                  <p style=""text-align: center;"">₪18
                                                <br>25%</p>
                  <p id=""wtp"" style=""text-align:center; margin-top: 0px; margin-bottom: 0px; font-size: 40px"";>מוכנים לשלם: <span id=""c_p_y""></span></p>","2","evaluation","18","9","14A,23A","25","18","2","","","","","","","","","","","","","","","",""
"","","","","","html-keyboard-response","218","418251","0.0-25.0-2.2","a7dc5d5c-803e-4f39-8a22-d6b06eca0234","null","<p style=""text-align: center;"">+</p>","null","fixation","","","","","","","","","","","","","","","","","","","","","",""
"","","","","","html-slider-response","219","419256","0.0-25.0-0.3","a7dc5d5c-803e-4f39-8a22-d6b06eca0234","1000","
                  <p style=""text-align: center;"">₪39
                                                <br>60%</p>
                  <p id=""wtp"" style=""text-align:center; margin-top: 0px; margin-bottom: 0px; font-size: 40px"";>&ensp;</p>","-","viewing","0","15","9C,25B","","","","","","","","","","","","","","","","","","",""
"","","","","","html-slider-response","220","421934","0.0-25.0-1.3","a7dc5d5c-803e-4f39-8a22-d6b06eca0234","2677","
                  <p style=""text-align: center;"">₪39
                                                <br>60%</p>
                  <p id=""wtp"" style=""text-align:center; margin-top: 0px; margin-bottom: 0px; font-size: 40px"";>מוכנים לשלם: <span id=""c_p_y""></span></p>","25","evaluation","75","15","9C,25B","60","39","25","","","","","","","","","","","","","","","",""
"","","","","","html-keyboard-response","221","422954","0.0-25.0-2.3","a7dc5d5c-803e-4f39-8a22-d6b06eca0234","null","<p style=""text-align: center;"">+</p>","null","fixation","","","","","","","","","","","","","","","","","","","","","",""
"","","","","","html-slider-response","222","423956","0.0-25.0-0.4","a7dc5d5c-803e-4f39-8a22-d6b06eca0234","1000","
                  <p style=""text-align: center;"">₪61
                                                <br>45%</p>
                  <p id=""wtp"" style=""text-align:center; margin-top: 0px; margin-bottom: 0px; font-size: 40px"";>&ensp;</p>","-","viewing","0","22","10A,11A","","","","","","","","","","","","","","","","","","",""
"","","","","","html-slider-response","223","425150","0.0-25.0-1.4","a7dc5d5c-803e-4f39-8a22-d6b06eca0234","1193","
                  <p style=""text-align: center;"">₪61
                                                <br>45%</p>
                  <p id=""wtp"" style=""text-align:center; margin-top: 0px; margin-bottom: 0px; font-size: 40px"";>מוכנים לשלם: <span id=""c_p_y""></span></p>","29","evaluation","78","22","10A,11A","45","61","29","","","","","","","","","","","","","","","",""
"","","","","","html-keyboard-response","224","425833","0.0-25.0-2.4","a7dc5d5c-803e-4f39-8a22-d6b06eca0234","null","<p style=""text-align: center;"">+</p>","null","fixation","","","","","","","","","","","","","","","","","","","","","",""
"","","","","","html-slider-response","225","426836","0.0-25.0-0.5","a7dc5d5c-803e-4f39-8a22-d6b06eca0234","1000","
                  <p style=""text-align: center;"">₪36
                                                <br>30%</p>
                  <p id=""wtp"" style=""text-align:center; margin-top: 0px; margin-bottom: 0px; font-size: 40px"";>&ensp;</p>","-","viewing","0","11","3C,20A,22A","","","","","","","","","","","","","","","","","","",""
"","","","","","html-slider-response","226","428230","0.0-25.0-1.5","a7dc5d5c-803e-4f39-8a22-d6b06eca0234","1393","
                  <p style=""text-align: center;"">₪36
                                                <br>30%</p>
                  <p id=""wtp"" style=""text-align:center; margin-top: 0px; margin-bottom: 0px; font-size: 40px"";>מוכנים לשלם: <span id=""c_p_y""></span></p>","7","evaluation","64","11","3C,20A,22A","30","36","7","","","","","","","","","","","","","","","",""
"","","","","","html-keyboard-response","227","429452","0.0-25.0-2.5","a7dc5d5c-803e-4f39-8a22-d6b06eca0234","null","<p style=""text-align: center;"">+</p>","null","fixation","","","","","","","","","","","","","","","","","","","","","",""
"","","","","","html-slider-response","228","430466","0.0-25.0-0.6","a7dc5d5c-803e-4f39-8a22-d6b06eca0234","1000","
                  <p style=""text-align: center;"">₪4
                                                <br>50%</p>
                  <p id=""wtp"" style=""text-align:center; margin-top: 0px; margin-bottom: 0px; font-size: 40px"";>&ensp;</p>","-","viewing","0","2","4C,17B","","","","","","","","","","","","","","","","","","",""
"","","","","","html-slider-response","229","432830","0.0-25.0-1.6","a7dc5d5c-803e-4f39-8a22-d6b06eca0234","2364","
                  <p style=""text-align: center;"">₪4
                                                <br>50%</p>
                  <p id=""wtp"" style=""text-align:center; margin-top: 0px; margin-bottom: 0px; font-size: 40px"";>מוכנים לשלם: <span id=""c_p_y""></span></p>","4","evaluation","58","2","4C,17B","50","4","4","","","","","","","","","","","","","","","",""
"","","","","","html-keyboard-response","230","433949","0.0-25.0-2.6","a7dc5d5c-803e-4f39-8a22-d6b06eca0234","null","<p style=""text-align: center;"">+</p>","null","fixation","","","","","","","","","","","","","","","","","","","","","",""
"","","","","","html-slider-response","231","434968","0.0-25.0-0.7","a7dc5d5c-803e-4f39-8a22-d6b06eca0234","1000","
                  <p style=""text-align: center;"">₪43
                                                <br>60%</p>
                  <p id=""wtp"" style=""text-align:center; margin-top: 0px; margin-bottom: 0px; font-size: 40px"";>&ensp;</p>","-","viewing","0","17","2A,7A,9A,15B","","","","","","","","","","","","","","","","","","",""
"","","","","","html-slider-response","232","437382","0.0-25.0-1.7","a7dc5d5c-803e-4f39-8a22-d6b06eca0234","2413","
                  <p style=""text-align: center;"">₪43
                                                <br>60%</p>
                  <p id=""wtp"" style=""text-align:center; margin-top: 0px; margin-bottom: 0px; font-size: 40px"";>מוכנים לשלם: <span id=""c_p_y""></span></p>","21","evaluation","12","17","2A,7A,9A,15B","60","43","21","","","","","","","","","","","","","","","",""
"","","","","","html-keyboard-response","233","438882","0.0-25.0-2.7","a7dc5d5c-803e-4f39-8a22-d6b06eca0234","null","<p style=""text-align: center;"">+</p>","null","fixation","","","","","","","","","","","","","","","","","","","","","",""
"","","","","","html-slider-response","234","439886","0.0-25.0-0.8","a7dc5d5c-803e-4f39-8a22-d6b06eca0234","1000","
                  <p style=""text-align: center;"">₪58
                                                <br>40%</p>
                  <p id=""wtp"" style=""text-align:center; margin-top: 0px; margin-bottom: 0px; font-size: 40px"";>&ensp;</p>","-","viewing","0","20","10C,13A,19C,21B","","","","","","","","","","","","","","","","","","",""
"","","","","","html-slider-response","235","441286","0.0-25.0-1.8","a7dc5d5c-803e-4f39-8a22-d6b06eca0234","1399","
                  <p style=""text-align: center;"">₪58
                                                <br>40%</p>
                  <p id=""wtp"" style=""text-align:center; margin-top: 0px; margin-bottom: 0px; font-size: 40px"";>מוכנים לשלם: <span id=""c_p_y""></span></p>","12","evaluation","80","20","10C,13A,19C,21B","40","58","12","","","","","","","","","","","","","","","",""
"","","","","","html-keyboard-response","236","442693","0.0-25.0-2.8","a7dc5d5c-803e-4f39-8a22-d6b06eca0234","null","<p style=""text-align: center;"">+</p>","null","fixation","","","","","","","","","","","","","","","","","","","","","",""
"","","","","","html-slider-response","237","443708","0.0-25.0-0.9","a7dc5d5c-803e-4f39-8a22-d6b06eca0234","1000","
                  <p style=""text-align: center;"">₪71
                                                <br>75%</p>
                  <p id=""wtp"" style=""text-align:center; margin-top: 0px; margin-bottom: 0px; font-size: 40px"";>&ensp;</p>","-","viewing","0","28","8B","","","","","","","","","","","","","","","","","","",""
"","","","","","html-slider-response","238","446646","0.0-25.0-1.9","a7dc5d5c-803e-4f39-8a22-d6b06eca0234","2937","
                  <p style=""text-align: center;"">₪71
                                                <br>75%</p>
                  <p id=""wtp"" style=""text-align:center; margin-top: 0px; margin-bottom: 0px; font-size: 40px"";>מוכנים לשלם: <span id=""c_p_y""></span></p>","43","evaluation","67","28","8B","75","71","43","","","","","","","","","","","","","","","",""
"","","","","","html-keyboard-response","239","447318","0.0-25.0-2.9","a7dc5d5c-803e-4f39-8a22-d6b06eca0234","null","<p style=""text-align: center;"">+</p>","null","fixation","","","","","","","","","","","","","","","","","","","","","",""
"","","","","","html-slider-response","240","448335","0.0-25.0-0.10","a7dc5d5c-803e-4f39-8a22-d6b06eca0234","1000","
                  <p style=""text-align: center;"">₪43
                                                <br>75%</p>
                  <p id=""wtp"" style=""text-align:center; margin-top: 0px; margin-bottom: 0px; font-size: 40px"";>&ensp;</p>","-","viewing","0","18","11B,19B,24A,26A","","","","","","","","","","","","","","","","","","",""
"","","","","","html-slider-response","241","449750","0.0-25.0-1.10","a7dc5d5c-803e-4f39-8a22-d6b06eca0234","1414","
                  <p style=""text-align: center;"">₪43
                                                <br>75%</p>
                  <p id=""wtp"" style=""text-align:center; margin-top: 0px; margin-bottom: 0px; font-size: 40px"";>מוכנים לשלם: <span id=""c_p_y""></span></p>","23","evaluation","46","18","11B,19B,24A,26A","75","43","23","","","","","","","","","","","","","","","",""
"","","","","","html-keyboard-response","242","451254","0.0-25.0-2.10","a7dc5d5c-803e-4f39-8a22-d6b06eca0234","null","<p style=""text-align: center;"">+</p>","null","fixation","","","","","","","","","","","","","","","","","","","","","",""
"","","","","","html-slider-response","243","452268","0.0-25.0-0.11","a7dc5d5c-803e-4f39-8a22-d6b06eca0234","1000","
                  <p style=""text-align: center;"">₪36
                                                <br>60%</p>
                  <p id=""wtp"" style=""text-align:center; margin-top: 0px; margin-bottom: 0px; font-size: 40px"";>&ensp;</p>","-","viewing","0","12","1C,7C,15C","","","","","","","","","","","","","","","","","","",""
"","","","","","html-slider-response","244","454142","0.0-25.0-1.11","a7dc5d5c-803e-4f39-8a22-d6b06eca0234","1873","
                  <p style=""text-align: center;"">₪36
                                                <br>60%</p>
                  <p id=""wtp"" style=""text-align:center; margin-top: 0px; margin-bottom: 0px; font-size: 40px"";>מוכנים לשלם: <span id=""c_p_y""></span></p>","16","evaluation","77","12","1C,7C,15C","60","36","16","","","","","","","","","","","","","","","",""
"","","","","","html-keyboard-response","245","455178","0.0-25.0-2.11","a7dc5d5c-803e-4f39-8a22-d6b06eca0234","null","<p style=""text-align: center;"">+</p>","null","fixation","","","","","","","","","","","","","","","","","","","","","",""
"","","","","","html-slider-response","246","456181","0.0-25.0-0.12","a7dc5d5c-803e-4f39-8a22-d6b06eca0234","1000","
                  <p style=""text-align: center;"">₪4
                                                <br>75%</p>
                  <p id=""wtp"" style=""text-align:center; margin-top: 0px; margin-bottom: 0px; font-size: 40px"";>&ensp;</p>","-","viewing","0","3","12B,20B,23B,27C,29C","","","","","","","","","","","","","","","","","","",""
"","","","","","html-slider-response","247","458806","0.0-25.0-1.12","a7dc5d5c-803e-4f39-8a22-d6b06eca0234","2623","
                  <p style=""text-align: center;"">₪4
                                                <br>75%</p>
                  <p id=""wtp"" style=""text-align:center; margin-top: 0px; margin-bottom: 0px; font-size: 40px"";>מוכנים לשלם: <span id=""c_p_y""></span></p>","3","evaluation","37","3","12B,20B,23B,27C,29C","75","4","3","","","","","","","","","","","","","","","",""
"","","","","","html-keyboard-response","248","460146","0.0-25.0-2.12","a7dc5d5c-803e-4f39-8a22-d6b06eca0234","null","<p style=""text-align: center;"">+</p>","null","fixation","","","","","","","","","","","","","","","","","","","","","",""
"","","","","","html-slider-response","249","461153","0.0-25.0-0.13","a7dc5d5c-803e-4f39-8a22-d6b06eca0234","1000","
                  <p style=""text-align: center;"">₪39
                                                <br>65%</p>
                  <p id=""wtp"" style=""text-align:center; margin-top: 0px; margin-bottom: 0px; font-size: 40px"";>&ensp;</p>","-","viewing","0","16","1A,15A,26C","","","","","","","","","","","","","","","","","","",""
"","","","","","html-slider-response","250","463190","0.0-25.0-1.13","a7dc5d5c-803e-4f39-8a22-d6b06eca0234","2037","
                  <p style=""text-align: center;"">₪39
                                                <br>65%</p>
