"success","timeout","failed_images","failed_audio","failed_video","trial_type","trial_index","time_elapsed","internal_node_id","subject_id","rt","stimulus","response","part","slider_start","ID","set_ID","prob","amount","last_location","actual_choice","actual_EV","binary_id","trinary_id","catch","direction","A_key","S_key","D_key","choice_prob","choice_amount","won_prize","potential_prize_amount","potential_prize_prob","total_prize","accuracy"
"true","false","[]","[]","[]","preload","0","13","0.0-0.0","78bc4570-56b7-4080-8b73-39d740e724b3","","","","","","","","","","","","","","","","","","","","","","","","","",""
"","","","","","html-keyboard-response","1","27280","0.0-1.0","78bc4570-56b7-4080-8b73-39d740e724b3","null","
          <h1>שלום וברוכים הבאים!</h1>
          <p>לפניכם ניסוי בקבלת החלטות עם שני חלקים.
          <br><br>לחצו על העכבר כדי להמשיך.</p>","0","example","","","","","","","","","","","","","","","","","","","","","",""
"","","","","","html-keyboard-response","2","39888","0.0-2.0","78bc4570-56b7-4080-8b73-39d740e724b3","null","
        <h1>חלק 1</h1>
        <p>בקרוב יוצגו בפניכם הגרלות.
        <br>עליכם לבחור את המחיר המירבי שתהיו מוכנים לשלם כדי להשתתף בהגרלה שתוצג.
        <br>יש לכם תקציב של ₪80 לכל הגרלה. 
        <br>נסו להעריך כל הגרלה בנפרד ולחשוב כמה היא שווה עבורכם, ₪80 זמינים לכל הגרלה בנפרד.
        <br><br>לחצו על העכבר כדי להמשיך.</p>","1","instructions","","","","","","","","","","","","","","","","","","","","","",""
"","","","","","html-keyboard-response","3","45385","0.0-3.0","78bc4570-56b7-4080-8b73-39d740e724b3","null","
        <p>בסוף הניסוי, המחשב יבחר את אחת ההגרלות ויקבע מחיר לכרטיס עבורה. 
        <br>במידה והמחיר שבחרתם נמוך מהמחיר שנבחר על ידי המחשב, לא תשתתפו בהגרלה ותשארו עם מלוא התקציב.
        <br>במידה והמחיר שבחרתם גבוה מהמחיר שנבחר על ידי המחשב, תשלמו את המחיר שנקבע ותשתתפו בהגרלה.
        <br><br>לחצו על העכבר כדי להמשיך.</p>","1","instructions","","","","","","","","","","","","","","","","","","","","","",""
"","","","","","html-slider-response","4","111033","0.0-4.0","78bc4570-56b7-4080-8b73-39d740e724b3","65544","
        <p style=""font-size: 42px;"">נתחיל עם דוגמא: 
        <br>ההגרלה מטה מציעה 65% סיכוי לזכות ב-₪40 
        <br>&emsp;&emsp;&emsp;&emsp;&emsp;&emsp;&emsp;&emsp;&ensp;35% סיכוי לזכות ב-₪0.
        <br><br>מה המחיר המירבי שתהיו מוכנים לשלם על כרטיס להגרלה זו בין 0 ל-₪80?
        <br>הזיזו את העכבר על פני המלבן ולחצו כדי לבצע בחירה.</p>
        
        <p style=""text-align: center;"">₪40<br>65%</p>

        <p id=""wtp"" style=""text-align:center; margin-top: 0px; margin-bottom: 0px; font-size: 40px"";>מוכנים לשלם: <span id=""c_p_y""></span></p>","25","example","14","","","","","","","","","","","","","","","","","","","","",""
"","","","","","html-keyboard-response","5","114633","0.0-5.0","78bc4570-56b7-4080-8b73-39d740e724b3","null","<p>יפה מאוד!
                <br> בחרתם שתהיו מוכנים לשלם ₪25 כדי להשתתף בהגרלה:
                <br><p style=""text-align: center;"">₪40<br>65%</p>
                <p>נשמע נכון?
                <br>נניח שהגרלה זו נבחרה בסוף הניסוי.
                <br>כעת המחשב יקבע מחיר עבורה באקראי.
                <br>לחצו על העכבר להמשך.</p>","1","example","","","","","","","","","","","","","","","","","","","","","",""
"","","","","","html-keyboard-response","6","119737","0.0-6.0","78bc4570-56b7-4080-8b73-39d740e724b3","null","<p>המחשב קבע מחיר: ₪29
                <br>ואתם בחרתם לשלם לכל היותר: ₪25
                <br><br>מכיוון שהמחיר שבחרתם נמוך מהמחיר שנקבע, לא תתשתתפו בהגרלה.
                <br>במקרה כזה, בסוף הניסוי תקבלו את כל התקציב ההתחלתי של ₪80.
                <br><br>לחצו על העכבר להמשך.</p>","1","example","","","","","","","","","","","","","","","","","","","","","",""
"","","","","","html-slider-response","7","142257","0.0-7.0","78bc4570-56b7-4080-8b73-39d740e724b3","22257","<p style=""font-size: 42px;"">הנה עוד דוגמא:
                <br>ההגרלה מטה מציעה 35% סיכוי לזכות ב-₪18 
                <br>&emsp;&emsp;&emsp;&emsp;&emsp;&emsp;&emsp;&emsp;&ensp;65% סיכוי לזכות ב-₪0.</p>
        
                <p style=""text-align: center;"">₪18<br>35%</p>
                <p id=""wtp"" style=""text-align:center; margin-top: 0px; margin-bottom: 0px; font-size: 40px"";>מוכנים לשלם: <span id=""c_p_y""></span></p>","6","example","80","","","","","","","","","","","","","","","","","","","","",""
"","","","","","html-keyboard-response","8","150897","0.0-8.0","78bc4570-56b7-4080-8b73-39d740e724b3","null","<p>הייתם מוכנים לשלם  ₪6 כדי להשתתף בהגרלה:
                <p style=""text-align: center;"">₪18<br>35%</p>
                <p>כעת נניח שהמחשב בחר את ההגרלה הזו בסוף הניסוי, וקבע עבורה מחיר.
                <br><br>לחצו על העכבר כדי להמשיך.</p>","1","instructions","","","","","","","","","","","","","","","","","","","","","",""
"","","","","","html-keyboard-response","9","157521","0.0-9.0","78bc4570-56b7-4080-8b73-39d740e724b3","null","<p>המחשב קבע מחיר להגרלה: ₪6
                <br>ואתם בחרתם לשלם לכל היותר: ₪6
                <br><br>כעת המחיר שנקבע זהה לזה שבחרתם, אז תשלמו את המחיר שקבע המחשב (₪6) ותשתתפו בהגרלה.
                <br>במקרה כזה, תסיימו את הניסוי עם תקציב של ₪74 ועם סיכוי לזכות ב-₪18 נוספים מההגרלה.
                <br>כלומר, תוכלו לקבל ₪74 אם לא תזכו בהגרלה, או ₪92 אם תזכו בהגרלה.
                <br><br>לחצו על העכבר להמשך.</p>","1","example","","","","","","","","","","","","","","","","","","","","","",""
"","","","","","html-keyboard-response","10","160345","0.0-10.0","78bc4570-56b7-4080-8b73-39d740e724b3","null","<p>במהלך הניסוי, קודם תראו את ההגרלה ורק לאחר מכן תוכלו לבחור.
                <p>כמו כן, יהיו לכם מספר שניות מוגבל להגיב.
                <p>בואו ננסה זאת עם ההגרלה הקודמת.
                <br>לחצו על העכבר כדי להמשיך.</p>","1","instructions","","","","","","","","","","","","","","","","","","","","","",""
"","","","","","html-slider-response","11","161602","0.0-11.0","78bc4570-56b7-4080-8b73-39d740e724b3","1000","
                    <p style=""text-align: center;"">₪18<br>35%</p>
                    <p id=""wtp"" style=""text-align:center; margin-top: 0px; margin-bottom: 0px; font-size: 40px"";>&ensp;</p>","40","instructions","0","","","","","","","","","","","","","","","","","","","","",""
"","","","","","html-slider-response","12","165869","0.0-12.0","78bc4570-56b7-4080-8b73-39d740e724b3","null","
                    <p style=""text-align: center;"">₪18<br>35%</p>
                    <p id=""wtp"" style=""text-align:center; margin-top: 0px; margin-bottom: 0px; font-size: 40px"";>מוכנים לשלם: <span id=""c_p_y""></span></p>","null","instructions","76","","","","","","","","","","","","","","","","","","","","",""
"","","","","","html-keyboard-response","13","168329","0.0-13.0","78bc4570-56b7-4080-8b73-39d740e724b3","null","<p>לא הגבתם בזמן המוקצב לתגובה. 
                <br>נסו להגיב מהר יותר בפעם הבאה.
                <br><br>לחצו על העכבר כדי להמשיך.</p>","1","instructions","","","","","","","","","","","","","","","","","","","","","",""
"","","","","","html-slider-response","14","171433","0.0-14.0-0.0","78bc4570-56b7-4080-8b73-39d740e724b3","2838","
                    <p style=""text-align: center;"">₪40<br>65%</p>
                    <p id=""wtp"" style=""text-align:center; margin-top: 0px; margin-bottom: 0px; font-size: 40px"";>מוכנים לשלם: <span id=""c_p_y""></span></p>","25","instructions","51","","","","","","","","","","","","","","","","","","","","",""
"","","","","","html-keyboard-response","15","173137","0.0-14.0-1.0","78bc4570-56b7-4080-8b73-39d740e724b3","null","<p>יפה. הפעם בחרתם לשלם לכל היותר ₪25.
                <br><br>לחצו על העכבר כדי להמשיך.</p>","1","instructions","","","","","","","","","","","","","","","","","","","","","",""
"","","","","","html-keyboard-response","16","177481","0.0-15.0","78bc4570-56b7-4080-8b73-39d740e724b3","null","<p>כעת נתחיל את הניסוי.
                <br><br>אתם תראו הגרלות ותתבקשו לבחור כמה תהיו מוכנים לשלם כדי להשתתף בהן.
                <br>יש לכם תקציב של ₪80 עבור כל הגרלה.
                <br>בסוף הניסוי הגרלה אחת תבחר באקראי ותשוחק.
                <br><br>לחצו על העכבר כדי להתחיל את הניסוי.</p>","1","instructions","","","","","","","","","","","","","","","","","","","","","",""
"","","","","","html-keyboard-response","17","178740","0.0-16.0","78bc4570-56b7-4080-8b73-39d740e724b3","null","<p style=""text-align: center;"">+</p>","null","fixation","","","","","","","","","","","","","","","","","","","","","",""
"","","","","","html-slider-response","18","179753","0.0-17.0-0.0","78bc4570-56b7-4080-8b73-39d740e724b3","1000","
                  <p style=""text-align: center;"">₪71
                                                <br>55%</p>
                  <p id=""wtp"" style=""text-align:center; margin-top: 0px; margin-bottom: 0px; font-size: 40px"";>&ensp;</p>","-","viewing","0","27","5B,18A","","","","","","","","","","","","","","","","","","",""
"","","","","","html-slider-response","19","183769","0.0-17.0-1.0","78bc4570-56b7-4080-8b73-39d740e724b3","null","
                  <p style=""text-align: center;"">₪71
                                                <br>55%</p>
                  <p id=""wtp"" style=""text-align:center; margin-top: 0px; margin-bottom: 0px; font-size: 40px"";>מוכנים לשלם: <span id=""c_p_y""></span></p>","null","evaluation","65","27","5B,18A","55","71","32","","","","","","","","","","","","","","","",""
"","","","","","html-keyboard-response","20","184978","0.0-17.0-2.0","78bc4570-56b7-4080-8b73-39d740e724b3","null","<p style=""text-align: center;"">+</p>","null","fixation","","","","","","","","","","","","","","","","","","","","","",""
"","","","","","html-slider-response","21","185987","0.0-17.0-0.1","78bc4570-56b7-4080-8b73-39d740e724b3","1000","
                  <p style=""text-align: center;"">₪61
                                                <br>45%</p>
                  <p id=""wtp"" style=""text-align:center; margin-top: 0px; margin-bottom: 0px; font-size: 40px"";>&ensp;</p>","-","viewing","0","22","10A,11A","","","","","","","","","","","","","","","","","","",""
"","","","","","html-slider-response","22","188145","0.0-17.0-1.1","78bc4570-56b7-4080-8b73-39d740e724b3","2156","
                  <p style=""text-align: center;"">₪61
                                                <br>45%</p>
                  <p id=""wtp"" style=""text-align:center; margin-top: 0px; margin-bottom: 0px; font-size: 40px"";>מוכנים לשלם: <span id=""c_p_y""></span></p>","18","evaluation","47","22","10A,11A","45","61","18","","","","","","","","","","","","","","","",""
"","","","","","html-keyboard-response","23","189091","0.0-17.0-2.1","78bc4570-56b7-4080-8b73-39d740e724b3","null","<p style=""text-align: center;"">+</p>","null","fixation","","","","","","","","","","","","","","","","","","","","","",""
"","","","","","html-slider-response","24","190101","0.0-17.0-0.2","78bc4570-56b7-4080-8b73-39d740e724b3","1000","
                  <p style=""text-align: center;"">₪11
                                                <br>75%</p>
                  <p id=""wtp"" style=""text-align:center; margin-top: 0px; margin-bottom: 0px; font-size: 40px"";>&ensp;</p>","-","viewing","0","7","6B,18B,22C,24C,29A","","","","","","","","","","","","","","","","","","",""
"","","","","","html-slider-response","25","192304","0.0-17.0-1.2","78bc4570-56b7-4080-8b73-39d740e724b3","2202","
                  <p style=""text-align: center;"">₪11
                                                <br>75%</p>
                  <p id=""wtp"" style=""text-align:center; margin-top: 0px; margin-bottom: 0px; font-size: 40px"";>מוכנים לשלם: <span id=""c_p_y""></span></p>","4","evaluation","57","7","6B,18B,22C,24C,29A","75","11","4","","","","","","","","","","","","","","","",""
"","","","","","html-keyboard-response","26","193336","0.0-17.0-2.2","78bc4570-56b7-4080-8b73-39d740e724b3","null","<p style=""text-align: center;"">+</p>","null","fixation","","","","","","","","","","","","","","","","","","","","","",""
"","","","","","html-slider-response","27","194339","0.0-17.0-0.3","78bc4570-56b7-4080-8b73-39d740e724b3","1000","
                  <p style=""text-align: center;"">₪36
                                                <br>60%</p>
                  <p id=""wtp"" style=""text-align:center; margin-top: 0px; margin-bottom: 0px; font-size: 40px"";>&ensp;</p>","-","viewing","0","12","1C,7C,15C","","","","","","","","","","","","","","","","","","",""
"","","","","","html-slider-response","28","196104","0.0-17.0-1.3","78bc4570-56b7-4080-8b73-39d740e724b3","1764","
                  <p style=""text-align: center;"">₪36
                                                <br>60%</p>
                  <p id=""wtp"" style=""text-align:center; margin-top: 0px; margin-bottom: 0px; font-size: 40px"";>מוכנים לשלם: <span id=""c_p_y""></span></p>","9","evaluation","58","12","1C,7C,15C","60","36","9","","","","","","","","","","","","","","","",""
"","","","","","html-keyboard-response","29","196821","0.0-17.0-2.3","78bc4570-56b7-4080-8b73-39d740e724b3","null","<p style=""text-align: center;"">+</p>","null","fixation","","","","","","","","","","","","","","","","","","","","","",""
"","","","","","html-slider-response","30","197824","0.0-17.0-0.4","78bc4570-56b7-4080-8b73-39d740e724b3","1000","
                  <p style=""text-align: center;"">₪18
                                                <br>50%</p>
                  <p id=""wtp"" style=""text-align:center; margin-top: 0px; margin-bottom: 0px; font-size: 40px"";>&ensp;</p>","-","viewing","0","10","2C,16C,22B,28A","","","","","","","","","","","","","","","","","","",""
"","","","","","html-slider-response","31","200384","0.0-17.0-1.4","78bc4570-56b7-4080-8b73-39d740e724b3","2560","
                  <p style=""text-align: center;"">₪18
                                                <br>50%</p>
                  <p id=""wtp"" style=""text-align:center; margin-top: 0px; margin-bottom: 0px; font-size: 40px"";>מוכנים לשלם: <span id=""c_p_y""></span></p>","7","evaluation","11","10","2C,16C,22B,28A","50","18","8","","","","","","","","","","","","","","","",""
"","","","","","html-keyboard-response","32","201731","0.0-17.0-2.4","78bc4570-56b7-4080-8b73-39d740e724b3","null","<p style=""text-align: center;"">+</p>","null","fixation","","","","","","","","","","","","","","","","","","","","","",""
"","","","","","html-slider-response","33","202733","0.0-17.0-0.5","78bc4570-56b7-4080-8b73-39d740e724b3","1000","
                  <p style=""text-align: center;"">₪79
                                                <br>40%</p>
                  <p id=""wtp"" style=""text-align:center; margin-top: 0px; margin-bottom: 0px; font-size: 40px"";>&ensp;</p>","-","viewing","0","30","9B","","","","","","","","","","","","","","","","","","",""
"","","","","","html-slider-response","34","204129","0.0-17.0-1.5","78bc4570-56b7-4080-8b73-39d740e724b3","1394","
                  <p style=""text-align: center;"">₪79
                                                <br>40%</p>
                  <p id=""wtp"" style=""text-align:center; margin-top: 0px; margin-bottom: 0px; font-size: 40px"";>מוכנים לשלם: <span id=""c_p_y""></span></p>","23","evaluation","75","30","9B","40","79","23","","","","","","","","","","","","","","","",""
"","","","","","html-keyboard-response","35","204712","0.0-17.0-2.5","78bc4570-56b7-4080-8b73-39d740e724b3","null","<p style=""text-align: center;"">+</p>","null","fixation","","","","","","","","","","","","","","","","","","","","","",""
"","","","","","html-slider-response","36","205714","0.0-17.0-0.6","78bc4570-56b7-4080-8b73-39d740e724b3","1000","
                  <p style=""text-align: center;"">₪43
                                                <br>75%</p>
                  <p id=""wtp"" style=""text-align:center; margin-top: 0px; margin-bottom: 0px; font-size: 40px"";>&ensp;</p>","-","viewing","0","18","11B,19B,24A,26A","","","","","","","","","","","","","","","","","","",""
"","","","","","html-slider-response","37","208257","0.0-17.0-1.6","78bc4570-56b7-4080-8b73-39d740e724b3","2541","
                  <p style=""text-align: center;"">₪43
                                                <br>75%</p>
                  <p id=""wtp"" style=""text-align:center; margin-top: 0px; margin-bottom: 0px; font-size: 40px"";>מוכנים לשלם: <span id=""c_p_y""></span></p>","26","evaluation","75","18","11B,19B,24A,26A","75","43","26","","","","","","","","","","","","","","","",""
"","","","","","html-keyboard-response","38","209350","0.0-17.0-2.6","78bc4570-56b7-4080-8b73-39d740e724b3","null","<p style=""text-align: center;"">+</p>","null","fixation","","","","","","","","","","","","","","","","","","","","","",""
"","","","","","html-slider-response","39","210355","0.0-17.0-0.7","78bc4570-56b7-4080-8b73-39d740e724b3","1000","
                  <p style=""text-align: center;"">₪64
                                                <br>50%</p>
                  <p id=""wtp"" style=""text-align:center; margin-top: 0px; margin-bottom: 0px; font-size: 40px"";>&ensp;</p>","-","viewing","0","25","1B,3B,4A","","","","","","","","","","","","","","","","","","",""
"","","","","","html-slider-response","40","212192","0.0-17.0-1.7","78bc4570-56b7-4080-8b73-39d740e724b3","1837","
                  <p style=""text-align: center;"">₪64
                                                <br>50%</p>
                  <p id=""wtp"" style=""text-align:center; margin-top: 0px; margin-bottom: 0px; font-size: 40px"";>מוכנים לשלם: <span id=""c_p_y""></span></p>","19","evaluation","64","25","1B,3B,4A","50","64","20","","","","","","","","","","","","","","","",""
"","","","","","html-keyboard-response","41","213564","0.0-17.0-2.7","78bc4570-56b7-4080-8b73-39d740e724b3","null","<p style=""text-align: center;"">+</p>","null","fixation","","","","","","","","","","","","","","","","","","","","","",""
"","","","","","html-slider-response","42","214573","0.0-17.0-0.8","78bc4570-56b7-4080-8b73-39d740e724b3","1000","
                  <p style=""text-align: center;"">₪43
                                                <br>60%</p>
                  <p id=""wtp"" style=""text-align:center; margin-top: 0px; margin-bottom: 0px; font-size: 40px"";>&ensp;</p>","-","viewing","0","17","2A,7A,9A,15B","","","","","","","","","","","","","","","","","","",""
"","","","","","html-slider-response","43","216249","0.0-17.0-1.8","78bc4570-56b7-4080-8b73-39d740e724b3","1675","
                  <p style=""text-align: center;"">₪43
                                                <br>60%</p>
                  <p id=""wtp"" style=""text-align:center; margin-top: 0px; margin-bottom: 0px; font-size: 40px"";>מוכנים לשלם: <span id=""c_p_y""></span></p>","17","evaluation","5","17","2A,7A,9A,15B","60","43","17","","","","","","","","","","","","","","","",""
"","","","","","html-keyboard-response","44","217060","0.0-17.0-2.8","78bc4570-56b7-4080-8b73-39d740e724b3","null","<p style=""text-align: center;"">+</p>","null","fixation","","","","","","","","","","","","","","","","","","","","","",""
"","","","","","html-slider-response","45","218068","0.0-17.0-0.9","78bc4570-56b7-4080-8b73-39d740e724b3","1000","
                  <p style=""text-align: center;"">₪39
                                                <br>65%</p>
                  <p id=""wtp"" style=""text-align:center; margin-top: 0px; margin-bottom: 0px; font-size: 40px"";>&ensp;</p>","-","viewing","0","16","1A,15A,26C","","","","","","","","","","","","","","","","","","",""
"","","","","","html-slider-response","46","220048","0.0-17.0-1.9","78bc4570-56b7-4080-8b73-39d740e724b3","1979","
                  <p style=""text-align: center;"">₪39
                                                <br>65%</p>
                  <p id=""wtp"" style=""text-align:center; margin-top: 0px; margin-bottom: 0px; font-size: 40px"";>מוכנים לשלם: <span id=""c_p_y""></span></p>","15","evaluation","74","16","1A,15A,26C","65","39","15","","","","","","","","","","","","","","","",""
"","","","","","html-keyboard-response","47","220682","0.0-17.0-2.9","78bc4570-56b7-4080-8b73-39d740e724b3","null","<p style=""text-align: center;"">+</p>","null","fixation","","","","","","","","","","","","","","","","","","","","","",""
"","","","","","html-slider-response","48","221684","0.0-17.0-0.10","78bc4570-56b7-4080-8b73-39d740e724b3","1000","
                  <p style=""text-align: center;"">₪76
                                                <br>65%</p>
                  <p id=""wtp"" style=""text-align:center; margin-top: 0px; margin-bottom: 0px; font-size: 40px"";>&ensp;</p>","-","viewing","0","29","8C,19A,24B","","","","","","","","","","","","","","","","","","",""
"","","","","","html-slider-response","49","223592","0.0-17.0-1.10","78bc4570-56b7-4080-8b73-39d740e724b3","1907","
                  <p style=""text-align: center;"">₪76
                                                <br>65%</p>
                  <p id=""wtp"" style=""text-align:center; margin-top: 0px; margin-bottom: 0px; font-size: 40px"";>מוכנים לשלם: <span id=""c_p_y""></span></p>","29","evaluation","69","29","8C,19A,24B","65","76","29","","","","","","","","","","","","","","","",""
"","","","","","html-keyboard-response","50","224499","0.0-17.0-2.10","78bc4570-56b7-4080-8b73-39d740e724b3","null","<p style=""text-align: center;"">+</p>","null","fixation","","","","","","","","","","","","","","","","","","","","","",""
"","","","","","html-slider-response","51","225515","0.0-17.0-0.11","78bc4570-56b7-4080-8b73-39d740e724b3","1000","
                  <p style=""text-align: center;"">₪11
                                                <br>25%</p>
                  <p id=""wtp"" style=""text-align:center; margin-top: 0px; margin-bottom: 0px; font-size: 40px"";>&ensp;</p>","-","viewing","0","5","12A,27B,28B,30B","","","","","","","","","","","","","","","","","","",""
"","","","","","html-slider-response","52","227016","0.0-17.0-1.11","78bc4570-56b7-4080-8b73-39d740e724b3","1501","
                  <p style=""text-align: center;"">₪11
                                                <br>25%</p>
                  <p id=""wtp"" style=""text-align:center; margin-top: 0px; margin-bottom: 0px; font-size: 40px"";>מוכנים לשלם: <span id=""c_p_y""></span></p>","3","evaluation","42","5","12A,27B,28B,30B","25","11","4","","","","","","","","","","","","","","","",""
"","","","","","html-keyboard-response","53","227819","0.0-17.0-2.11","78bc4570-56b7-4080-8b73-39d740e724b3","null","<p style=""text-align: center;"">+</p>","null","fixation","","","","","","","","","","","","","","","","","","","","","",""
"","","","","","html-slider-response","54","228820","0.0-17.0-0.12","78bc4570-56b7-4080-8b73-39d740e724b3","1000","
                  <p style=""text-align: center;"">₪36
                                                <br>30%</p>
                  <p id=""wtp"" style=""text-align:center; margin-top: 0px; margin-bottom: 0px; font-size: 40px"";>&ensp;</p>","-","viewing","0","11","3C,20A,22A","","","","","","","","","","","","","","","","","","",""
"","","","","","html-slider-response","55","230184","0.0-17.0-1.12","78bc4570-56b7-4080-8b73-39d740e724b3","1363","
                  <p style=""text-align: center;"">₪36
                                                <br>30%</p>
                  <p id=""wtp"" style=""text-align:center; margin-top: 0px; margin-bottom: 0px; font-size: 40px"";>מוכנים לשלם: <span id=""c_p_y""></span></p>","6","evaluation","56","11","3C,20A,22A","30","36","6","","","","","","","","","","","","","","","",""
"","","","","","html-keyboard-response","56","230855","0.0-17.0-2.12","78bc4570-56b7-4080-8b73-39d740e724b3","null","<p style=""text-align: center;"">+</p>","null","fixation","","","","","","","","","","","","","","","","","","","","","",""
"","","","","","html-slider-response","57","231857","0.0-17.0-0.13","78bc4570-56b7-4080-8b73-39d740e724b3","1000","
                  <p style=""text-align: center;"">₪4
                                                <br>50%</p>
                  <p id=""wtp"" style=""text-align:center; margin-top: 0px; margin-bottom: 0px; font-size: 40px"";>&ensp;</p>","-","viewing","0","2","4C,17B","","","","","","","","","","","","","","","","","","",""
"","","","","","html-slider-response","58","233616","0.0-17.0-1.13","78bc4570-56b7-4080-8b73-39d740e724b3","1758","
                  <p style=""text-align: center;"">₪4
                                                <br>50%</p>
                  <p id=""wtp"" style=""text-align:center; margin-top: 0px; margin-bottom: 0px; font-size: 40px"";>מוכנים לשלם: <span id=""c_p_y""></span></p>","0","evaluation","12","2","4C,17B","50","4","1","","","","","","","","","","","","","","","",""
"","","","","","html-keyboard-response","59","234607","0.0-17.0-2.13","78bc4570-56b7-4080-8b73-39d740e724b3","null","<p style=""text-align: center;"">+</p>","null","fixation","","","","","","","","","","","","","","","","","","","","","",""
"","","","","","html-slider-response","60","235610","0.0-17.0-0.14","78bc4570-56b7-4080-8b73-39d740e724b3","1000","
                  <p style=""text-align: center;"">₪4
                                                <br>25%</p>
                  <p id=""wtp"" style=""text-align:center; margin-top: 0px; margin-bottom: 0px; font-size: 40px"";>&ensp;</p>","-","viewing","0","1","6C,29B,30C","","","","","","","","","","","","","","","","","","",""
"","","","","","html-slider-response","61","238040","0.0-17.0-1.14","78bc4570-56b7-4080-8b73-39d740e724b3","2430","
                  <p style=""text-align: center;"">₪4
                                                <br>25%</p>
                  <p id=""wtp"" style=""text-align:center; margin-top: 0px; margin-bottom: 0px; font-size: 40px"";>מוכנים לשלם: <span id=""c_p_y""></span></p>","1","evaluation","59","1","6C,29B,30C","25","4","1","","","","","","","","","","","","","","","",""
"","","","","","html-keyboard-response","62","239314","0.0-17.0-2.14","78bc4570-56b7-4080-8b73-39d740e724b3","null","<p style=""text-align: center;"">+</p>","null","fixation","","","","","","","","","","","","","","","","","","","","","",""
"","","","","","html-slider-response","63","240330","0.0-17.0-0.15","78bc4570-56b7-4080-8b73-39d740e724b3","1000","
                  <p style=""text-align: center;"">₪11
                                                <br>20%</p>
                  <p id=""wtp"" style=""text-align:center; margin-top: 0px; margin-bottom: 0px; font-size: 40px"";>&ensp;</p>","-","viewing","0","4","12C,17C,23C,28C","","","","","","","","","","","","","","","","","","",""
"","","","","","html-slider-response","64","242225","0.0-17.0-1.15","78bc4570-56b7-4080-8b73-39d740e724b3","1892","
                  <p style=""text-align: center;"">₪11
                                                <br>20%</p>
                  <p id=""wtp"" style=""text-align:center; margin-top: 0px; margin-bottom: 0px; font-size: 40px"";>מוכנים לשלם: <span id=""c_p_y""></span></p>","0","evaluation","16","4","12C,17C,23C,28C","20","11","1","","","","","","","","","","","","","","","",""
"","","","","","html-keyboard-response","65","243460","0.0-17.0-2.15","78bc4570-56b7-4080-8b73-39d740e724b3","null","<p style=""text-align: center;"">+</p>","null","fixation","","","","","","","","","","","","","","","","","","","","","",""
"","","","","","html-slider-response","66","244463","0.0-17.0-0.16","78bc4570-56b7-4080-8b73-39d740e724b3","1000","
                  <p style=""text-align: center;"">₪71
                                                <br>45%</p>
                  <p id=""wtp"" style=""text-align:center; margin-top: 0px; margin-bottom: 0px; font-size: 40px"";>&ensp;</p>","-","viewing","0","26","2B,16A","","","","","","","","","","","","","","","","","","",""
"","","","","","html-slider-response","67","247057","0.0-17.0-1.16","78bc4570-56b7-4080-8b73-39d740e724b3","2593","
                  <p style=""text-align: center;"">₪71
                                                <br>45%</p>
                  <p id=""wtp"" style=""text-align:center; margin-top: 0px; margin-bottom: 0px; font-size: 40px"";>מוכנים לשלם: <span id=""c_p_y""></span></p>","30","evaluation","3","26","2B,16A","45","71","30","","","","","","","","","","","","","","","",""
"","","","","","html-keyboard-response","68","247902","0.0-17.0-2.16","78bc4570-56b7-4080-8b73-39d740e724b3","null","<p style=""text-align: center;"">+</p>","null","fixation","","","","","","","","","","","","","","","","","","","","","",""
"","","","","","html-slider-response","69","248906","0.0-17.0-0.17","78bc4570-56b7-4080-8b73-39d740e724b3","1000","
                  <p style=""text-align: center;"">₪58
                                                <br>30%</p>
                  <p id=""wtp"" style=""text-align:center; margin-top: 0px; margin-bottom: 0px; font-size: 40px"";>&ensp;</p>","-","viewing","0","19","13C,30A","","","","","","","","","","","","","","","","","","",""
"","","","","","html-slider-response","70","250617","0.0-17.0-1.17","78bc4570-56b7-4080-8b73-39d740e724b3","1709","
                  <p style=""text-align: center;"">₪58
                                                <br>30%</p>
                  <p id=""wtp"" style=""text-align:center; margin-top: 0px; margin-bottom: 0px; font-size: 40px"";>מוכנים לשלם: <span id=""c_p_y""></span></p>","19","evaluation","20","19","13C,30A","30","58","20","","","","","","","","","","","","","","","",""
"","","","","","html-keyboard-response","71","251422","0.0-17.0-2.17","78bc4570-56b7-4080-8b73-39d740e724b3","null","<p style=""text-align: center;"">+</p>","null","fixation","","","","","","","","","","","","","","","","","","","","","",""
"","","","","","html-slider-response","72","252428","0.0-17.0-0.18","78bc4570-56b7-4080-8b73-39d740e724b3","1000","
                  <p style=""text-align: center;"">₪58
                                                <br>40%</p>
                  <p id=""wtp"" style=""text-align:center; margin-top: 0px; margin-bottom: 0px; font-size: 40px"";>&ensp;</p>","-","viewing","0","20","10C,13A,19C,21B","","","","","","","","","","","","","","","","","","",""
"","","","","","html-slider-response","73","253945","0.0-17.0-1.18","78bc4570-56b7-4080-8b73-39d740e724b3","1515","
                  <p style=""text-align: center;"">₪58
                                                <br>40%</p>
                  <p id=""wtp"" style=""text-align:center; margin-top: 0px; margin-bottom: 0px; font-size: 40px"";>מוכנים לשלם: <span id=""c_p_y""></span></p>","12","evaluation","30","20","10C,13A,19C,21B","40","58","13","","","","","","","","","","","","","","","",""
"","","","","","html-keyboard-response","74","255376","0.0-17.0-2.18","78bc4570-56b7-4080-8b73-39d740e724b3","null","<p style=""text-align: center;"">+</p>","null","fixation","","","","","","","","","","","","","","","","","","","","","",""
"","","","","","html-slider-response","75","256387","0.0-17.0-0.19","78bc4570-56b7-4080-8b73-39d740e724b3","1000","
                  <p style=""text-align: center;"">₪39
                                                <br>60%</p>
                  <p id=""wtp"" style=""text-align:center; margin-top: 0px; margin-bottom: 0px; font-size: 40px"";>&ensp;</p>","-","viewing","0","15","9C,25B","","","","","","","","","","","","","","","","","","",""
"","","","","","html-slider-response","76","259553","0.0-17.0-1.19","78bc4570-56b7-4080-8b73-39d740e724b3","3164","
                  <p style=""text-align: center;"">₪39
                                                <br>60%</p>
                  <p id=""wtp"" style=""text-align:center; margin-top: 0px; margin-bottom: 0px; font-size: 40px"";>מוכנים לשלם: <span id=""c_p_y""></span></p>","17","evaluation","30","15","9C,25B","60","39","17","","","","","","","","","","","","","","","",""
"","","","","","html-keyboard-response","77","260129","0.0-17.0-2.19","78bc4570-56b7-4080-8b73-39d740e724b3","null","<p style=""text-align: center;"">+</p>","null","fixation","","","","","","","","","","","","","","","","","","","","","",""
"","","","","","html-slider-response","78","261143","0.0-17.0-0.20","78bc4570-56b7-4080-8b73-39d740e724b3","1000","
                  <p style=""text-align: center;"">₪18
                                                <br>25%</p>
                  <p id=""wtp"" style=""text-align:center; margin-top: 0px; margin-bottom: 0px; font-size: 40px"";>&ensp;</p>","-","viewing","0","9","14A,23A","","","","","","","","","","","","","","","","","","",""
"","","","","","html-slider-response","79","263465","0.0-17.0-1.20","78bc4570-56b7-4080-8b73-39d740e724b3","2321","
                  <p style=""text-align: center;"">₪18
                                                <br>25%</p>
                  <p id=""wtp"" style=""text-align:center; margin-top: 0px; margin-bottom: 0px; font-size: 40px"";>מוכנים לשלם: <span id=""c_p_y""></span></p>","2","evaluation","11","9","14A,23A","25","18","3","","","","","","","","","","","","","","","",""
"","","","","","html-keyboard-response","80","264330","0.0-17.0-2.20","78bc4570-56b7-4080-8b73-39d740e724b3","null","<p style=""text-align: center;"">+</p>","null","fixation","","","","","","","","","","","","","","","","","","","","","",""
"","","","","","html-slider-response","81","265338","0.0-17.0-0.21","78bc4570-56b7-4080-8b73-39d740e724b3","1000","
                  <p style=""text-align: center;"">₪4
                                                <br>75%</p>
                  <p id=""wtp"" style=""text-align:center; margin-top: 0px; margin-bottom: 0px; font-size: 40px"";>&ensp;</p>","-","viewing","0","3","12B,20B,23B,27C,29C","","","","","","","","","","","","","","","","","","",""
"","","","","","html-slider-response","82","268169","0.0-17.0-1.21","78bc4570-56b7-4080-8b73-39d740e724b3","2831","
                  <p style=""text-align: center;"">₪4
                                                <br>75%</p>
                  <p id=""wtp"" style=""text-align:center; margin-top: 0px; margin-bottom: 0px; font-size: 40px"";>מוכנים לשלם: <span id=""c_p_y""></span></p>","0","evaluation","61","3","12B,20B,23B,27C,29C","75","4","1","","","","","","","","","","","","","","","",""
"","","","","","html-keyboard-response","83","269090","0.0-17.0-2.21","78bc4570-56b7-4080-8b73-39d740e724b3","null","<p style=""text-align: center;"">+</p>","null","fixation","","","","","","","","","","","","","","","","","","","","","",""
"","","","","","html-slider-response","84","270092","0.0-17.0-0.22","78bc4570-56b7-4080-8b73-39d740e724b3","1000","
                  <p style=""text-align: center;"">₪16
                                                <br>20%</p>
                  <p id=""wtp"" style=""text-align:center; margin-top: 0px; margin-bottom: 0px; font-size: 40px"";>&ensp;</p>","-","viewing","0","8","14C,17A,20C,27A","","","","","","","","","","","","","","","","","","",""
"","","","","","html-slider-response","85","272073","0.0-17.0-1.22","78bc4570-56b7-4080-8b73-39d740e724b3","1979","
                  <p style=""text-align: center;"">₪16
                                                <br>20%</p>
                  <p id=""wtp"" style=""text-align:center; margin-top: 0px; margin-bottom: 0px; font-size: 40px"";>מוכנים לשלם: <span id=""c_p_y""></span></p>","0","evaluation","40","8","14C,17A,20C,27A","20","16","1","","","","","","","","","","","","","","","",""
"","","","","","html-keyboard-response","86","272733","0.0-17.0-2.22","78bc4570-56b7-4080-8b73-39d740e724b3","null","<p style=""text-align: center;"">+</p>","null","fixation","","","","","","","","","","","","","","","","","","","","","",""
"","","","","","html-slider-response","87","273748","0.0-17.0-0.23","78bc4570-56b7-4080-8b73-39d740e724b3","1000","
                  <p style=""text-align: center;"">₪36
                                                <br>70%</p>
                  <p id=""wtp"" style=""text-align:center; margin-top: 0px; margin-bottom: 0px; font-size: 40px"";>&ensp;</p>","-","viewing","0","13","3A,5C,10B","","","","","","","","","","","","","","","","","","",""
"","","","","","html-slider-response","88","276609","0.0-17.0-1.23","78bc4570-56b7-4080-8b73-39d740e724b3","2860","
                  <p style=""text-align: center;"">₪36
                                                <br>70%</p>
                  <p id=""wtp"" style=""text-align:center; margin-top: 0px; margin-bottom: 0px; font-size: 40px"";>מוכנים לשלם: <span id=""c_p_y""></span></p>","17","evaluation","79","13","3A,5C,10B","70","36","17","","","","","","","","","","","","","","","",""
"","","","","","html-keyboard-response","89","277877","0.0-17.0-2.23","78bc4570-56b7-4080-8b73-39d740e724b3","null","<p style=""text-align: center;"">+</p>","null","fixation","","","","","","","","","","","","","","","","","","","","","",""
"","","","","","html-slider-response","90","278879","0.0-17.0-0.24","78bc4570-56b7-4080-8b73-39d740e724b3","1000","
                  <p style=""text-align: center;"">₪71
                                                <br>75%</p>
                  <p id=""wtp"" style=""text-align:center; margin-top: 0px; margin-bottom: 0px; font-size: 40px"";>&ensp;</p>","-","viewing","0","28","8B","","","","","","","","","","","","","","","","","","",""
"","","","","","html-slider-response","91","280465","0.0-17.0-1.24","78bc4570-56b7-4080-8b73-39d740e724b3","1585","
                  <p style=""text-align: center;"">₪71
                                                <br>75%</p>
                  <p id=""wtp"" style=""text-align:center; margin-top: 0px; margin-bottom: 0px; font-size: 40px"";>מוכנים לשלם: <span id=""c_p_y""></span></p>","43","evaluation","4","28","8B","75","71","43","","","","","","","","","","","","","","","",""
"","","","","","html-keyboard-response","92","281099","0.0-17.0-2.24","78bc4570-56b7-4080-8b73-39d740e724b3","null","<p style=""text-align: center;"">+</p>","null","fixation","","","","","","","","","","","","","","","","","","","","","",""
"","","","","","html-slider-response","93","282102","0.0-17.0-0.25","78bc4570-56b7-4080-8b73-39d740e724b3","1000","
                  <p style=""text-align: center;"">₪64
                                                <br>25%</p>
                  <p id=""wtp"" style=""text-align:center; margin-top: 0px; margin-bottom: 0px; font-size: 40px"";>&ensp;</p>","-","viewing","0","24","6A,21A","","","","","","","","","","","","","","","","","","",""
"","","","","","html-slider-response","94","285593","0.0-17.0-1.25","78bc4570-56b7-4080-8b73-39d740e724b3","3490","
                  <p style=""text-align: center;"">₪64
                                                <br>25%</p>
                  <p id=""wtp"" style=""text-align:center; margin-top: 0px; margin-bottom: 0px; font-size: 40px"";>מוכנים לשלם: <span id=""c_p_y""></span></p>","10","evaluation","75","24","6A,21A","25","64","10","","","","","","","","","","","","","","","",""
"","","","","","html-keyboard-response","95","286273","0.0-17.0-2.25","78bc4570-56b7-4080-8b73-39d740e724b3","null","<p style=""text-align: center;"">+</p>","null","fixation","","","","","","","","","","","","","","","","","","","","","",""
"","","","","","html-slider-response","96","287283","0.0-17.0-0.26","78bc4570-56b7-4080-8b73-39d740e724b3","1000","
                  <p style=""text-align: center;"">₪58
                                                <br>45%</p>
                  <p id=""wtp"" style=""text-align:center; margin-top: 0px; margin-bottom: 0px; font-size: 40px"";>&ensp;</p>","-","viewing","0","21","11C,18C,25A","","","","","","","","","","","","","","","","","","",""
"","","","","","html-slider-response","97","290057","0.0-17.0-1.26","78bc4570-56b7-4080-8b73-39d740e724b3","2772","
                  <p style=""text-align: center;"">₪58
                                                <br>45%</p>
                  <p id=""wtp"" style=""text-align:center; margin-top: 0px; margin-bottom: 0px; font-size: 40px"";>מוכנים לשלם: <span id=""c_p_y""></span></p>","20","evaluation","56","21","11C,18C,25A","45","58","20","","","","","","","","","","","","","","","",""
"","","","","","html-keyboard-response","98","290970","0.0-17.0-2.26","78bc4570-56b7-4080-8b73-39d740e724b3","null","<p style=""text-align: center;"">+</p>","null","fixation","","","","","","","","","","","","","","","","","","","","","",""
"","","","","","html-slider-response","99","291981","0.0-17.0-0.27","78bc4570-56b7-4080-8b73-39d740e724b3","1000","
                  <p style=""text-align: center;"">₪79
                                                <br>65%</p>
                  <p id=""wtp"" style=""text-align:center; margin-top: 0px; margin-bottom: 0px; font-size: 40px"";>&ensp;</p>","-","viewing","0","31","8A","","","","","","","","","","","","","","","","","","",""
"","","","","","html-slider-response","100","293673","0.0-17.0-1.27","78bc4570-56b7-4080-8b73-39d740e724b3","1690","
                  <p style=""text-align: center;"">₪79
                                                <br>65%</p>
                  <p id=""wtp"" style=""text-align:center; margin-top: 0px; margin-bottom: 0px; font-size: 40px"";>מוכנים לשלם: <span id=""c_p_y""></span></p>","42","evaluation","29","31","8A","65","79","42","","","","","","","","","","","","","","","",""
"","","","","","html-keyboard-response","101","294527","0.0-17.0-2.27","78bc4570-56b7-4080-8b73-39d740e724b3","null","<p style=""text-align: center;"">+</p>","null","fixation","","","","","","","","","","","","","","","","","","","","","",""
"","","","","","html-slider-response","102","295529","0.0-17.0-0.28","78bc4570-56b7-4080-8b73-39d740e724b3","1000","
                  <p style=""text-align: center;"">₪11
                                                <br>45%</p>
                  <p id=""wtp"" style=""text-align:center; margin-top: 0px; margin-bottom: 0px; font-size: 40px"";>&ensp;</p>","-","viewing","0","6","14B,21C,25C","","","","","","","","","","","","","","","","","","",""
"","","","","","html-slider-response","103","298433","0.0-17.0-1.28","78bc4570-56b7-4080-8b73-39d740e724b3","2902","
                  <p style=""text-align: center;"">₪11
                                                <br>45%</p>
                  <p id=""wtp"" style=""text-align:center; margin-top: 0px; margin-bottom: 0px; font-size: 40px"";>מוכנים לשלם: <span id=""c_p_y""></span></p>","5","evaluation","24","6","14B,21C,25C","45","11","5","","","","","","","","","","","","","","","",""
"","","","","","html-keyboard-response","104","299740","0.0-17.0-2.28","78bc4570-56b7-4080-8b73-39d740e724b3","null","<p style=""text-align: center;"">+</p>","null","fixation","","","","","","","","","","","","","","","","","","","","","",""
"","","","","","html-slider-response","105","300742","0.0-17.0-0.29","78bc4570-56b7-4080-8b73-39d740e724b3","1000","
                  <p style=""text-align: center;"">₪61
                                                <br>55%</p>
                  <p id=""wtp"" style=""text-align:center; margin-top: 0px; margin-bottom: 0px; font-size: 40px"";>&ensp;</p>","-","viewing","0","23","7B,26B","","","","","","","","","","","","","","","","","","",""
"","","","","","html-slider-response","106","303129","0.0-17.0-1.29","78bc4570-56b7-4080-8b73-39d740e724b3","2385","
                  <p style=""text-align: center;"">₪61
                                                <br>55%</p>
                  <p id=""wtp"" style=""text-align:center; margin-top: 0px; margin-bottom: 0px; font-size: 40px"";>מוכנים לשלם: <span id=""c_p_y""></span></p>","25","evaluation","19","23","7B,26B","55","61","25","","","","","","","","","","","","","","","",""
"","","","","","html-keyboard-response","107","303964","0.0-17.0-2.29","78bc4570-56b7-4080-8b73-39d740e724b3","null","<p style=""text-align: center;"">+</p>","null","fixation","","","","","","","","","","","","","","","","","","","","","",""
"","","","","","html-slider-response","108","304979","0.0-17.0-0.30","78bc4570-56b7-4080-8b73-39d740e724b3","1000","
                  <p style=""text-align: center;"">₪36
                                                <br>75%</p>
                  <p id=""wtp"" style=""text-align:center; margin-top: 0px; margin-bottom: 0px; font-size: 40px"";>&ensp;</p>","-","viewing","0","14","4B,5A,13B,16B","","","","","","","","","","","","","","","","","","",""
"","","","","","html-slider-response","109","307521","0.0-17.0-1.30","78bc4570-56b7-4080-8b73-39d740e724b3","2540","
                  <p style=""text-align: center;"">₪36
                                                <br>75%</p>
                  <p id=""wtp"" style=""text-align:center; margin-top: 0px; margin-bottom: 0px; font-size: 40px"";>מוכנים לשלם: <span id=""c_p_y""></span></p>","16","evaluation","78","14","4B,5A,13B,16B","75","36","16","","","","","","","","","","","","","","","",""
"","","","","","html-keyboard-response","110","308254","0.0-17.0-2.30","78bc4570-56b7-4080-8b73-39d740e724b3","null","<p style=""text-align: center;"">+</p>","null","fixation","","","","","","","","","","","","","","","","","","","","","",""
"","","","","","html-keyboard-response","111","309268","0.0-18.0","78bc4570-56b7-4080-8b73-39d740e724b3","null","<p style=""text-align: center;"">+</p>","null","fixation","","","","","","","","","","","","","","","","","","","","","",""
"","","","","","html-keyboard-response","112","311840","0.0-19.0","78bc4570-56b7-4080-8b73-39d740e724b3","null","<p>הפסקה.
          <br>לחצו כדי להמשיך.</p>","1","scan_wait","","","","","","","","","","","","","","","","","","","","","",""
"","","","","","html-keyboard-response","113","312852","0.0-20.0","78bc4570-56b7-4080-8b73-39d740e724b3","null","<p style=""text-align: center;"">+</p>","null","fixation","","","","","","","","","","","","","","","","","","","","","",""
"","","","","","html-slider-response","114","313856","0.0-21.0-0.0","78bc4570-56b7-4080-8b73-39d740e724b3","1000","
                  <p style=""text-align: center;"">₪58
                                                <br>30%</p>
                  <p id=""wtp"" style=""text-align:center; margin-top: 0px; margin-bottom: 0px; font-size: 40px"";>&ensp;</p>","-","viewing","0","19","13C,30A","","","","","","","","","","","","","","","","","","",""
"","","","","","html-slider-response","115","315857","0.0-21.0-1.0","78bc4570-56b7-4080-8b73-39d740e724b3","1999","
                  <p style=""text-align: center;"">₪58
                                                <br>30%</p>
                  <p id=""wtp"" style=""text-align:center; margin-top: 0px; margin-bottom: 0px; font-size: 40px"";>מוכנים לשלם: <span id=""c_p_y""></span></p>","14","evaluation","10","19","13C,30A","30","58","14","","","","","","","","","","","","","","","",""
"","","","","","html-keyboard-response","116","317164","0.0-21.0-2.0","78bc4570-56b7-4080-8b73-39d740e724b3","null","<p style=""text-align: center;"">+</p>","null","fixation","","","","","","","","","","","","","","","","","","","","","",""
"","","","","","html-slider-response","117","318166","0.0-21.0-0.1","78bc4570-56b7-4080-8b73-39d740e724b3","1000","
                  <p style=""text-align: center;"">₪11
                                                <br>25%</p>
                  <p id=""wtp"" style=""text-align:center; margin-top: 0px; margin-bottom: 0px; font-size: 40px"";>&ensp;</p>","-","viewing","0","5","12A,27B,28B,30B","","","","","","","","","","","","","","","","","","",""
"","","","","","html-slider-response","118","321137","0.0-21.0-1.1","78bc4570-56b7-4080-8b73-39d740e724b3","2970","
                  <p style=""text-align: center;"">₪11
                                                <br>25%</p>
                  <p id=""wtp"" style=""text-align:center; margin-top: 0px; margin-bottom: 0px; font-size: 40px"";>מוכנים לשלם: <span id=""c_p_y""></span></p>","1","evaluation","49","5","12A,27B,28B,30B","25","11","2","","","","","","","","","","","","","","","",""
"","","","","","html-keyboard-response","119","321642","0.0-21.0-2.1","78bc4570-56b7-4080-8b73-39d740e724b3","null","<p style=""text-align: center;"">+</p>","null","fixation","","","","","","","","","","","","","","","","","","","","","",""
"","","","","","html-slider-response","120","322644","0.0-21.0-0.2","78bc4570-56b7-4080-8b73-39d740e724b3","1000","
                  <p style=""text-align: center;"">₪36
                                                <br>60%</p>
                  <p id=""wtp"" style=""text-align:center; margin-top: 0px; margin-bottom: 0px; font-size: 40px"";>&ensp;</p>","-","viewing","0","12","1C,7C,15C","","","","","","","","","","","","","","","","","","",""
"","","","","","html-slider-response","121","325265","0.0-21.0-1.2","78bc4570-56b7-4080-8b73-39d740e724b3","2620","
                  <p style=""text-align: center;"">₪36
                                                <br>60%</p>
                  <p id=""wtp"" style=""text-align:center; margin-top: 0px; margin-bottom: 0px; font-size: 40px"";>מוכנים לשלם: <span id=""c_p_y""></span></p>","17","evaluation","36","12","1C,7C,15C","60","36","18","","","","","","","","","","","","","","","",""
"","","","","","html-keyboard-response","122","326331","0.0-21.0-2.2","78bc4570-56b7-4080-8b73-39d740e724b3","null","<p style=""text-align: center;"">+</p>","null","fixation","","","","","","","","","","","","","","","","","","","","","",""
"","","","","","html-slider-response","123","327334","0.0-21.0-0.3","78bc4570-56b7-4080-8b73-39d740e724b3","1000","
                  <p style=""text-align: center;"">₪58
                                                <br>45%</p>
                  <p id=""wtp"" style=""text-align:center; margin-top: 0px; margin-bottom: 0px; font-size: 40px"";>&ensp;</p>","-","viewing","0","21","11C,18C,25A","","","","","","","","","","","","","","","","","","",""
"","","","","","html-slider-response","124","329361","0.0-21.0-1.3","78bc4570-56b7-4080-8b73-39d740e724b3","2025","
                  <p style=""text-align: center;"">₪58
                                                <br>45%</p>
                  <p id=""wtp"" style=""text-align:center; margin-top: 0px; margin-bottom: 0px; font-size: 40px"";>מוכנים לשלם: <span id=""c_p_y""></span></p>","22","evaluation","62","21","11C,18C,25A","45","58","22","","","","","","","","","","","","","","","",""
"","","","","","html-keyboard-response","125","330211","0.0-21.0-2.3","78bc4570-56b7-4080-8b73-39d740e724b3","null","<p style=""text-align: center;"">+</p>","null","fixation","","","","","","","","","","","","","","","","","","","","","",""
"","","","","","html-slider-response","126","331227","0.0-21.0-0.4","78bc4570-56b7-4080-8b73-39d740e724b3","1000","
                  <p style=""text-align: center;"">₪11
                                                <br>45%</p>
                  <p id=""wtp"" style=""text-align:center; margin-top: 0px; margin-bottom: 0px; font-size: 40px"";>&ensp;</p>","-","viewing","0","6","14B,21C,25C","","","","","","","","","","","","","","","","","","",""
"","","","","","html-slider-response","127","335241","0.0-21.0-1.4","78bc4570-56b7-4080-8b73-39d740e724b3","4012","
                  <p style=""text-align: center;"">₪11
                                                <br>45%</p>
                  <p id=""wtp"" style=""text-align:center; margin-top: 0px; margin-bottom: 0px; font-size: 40px"";>מוכנים לשלם: <span id=""c_p_y""></span></p>","3","evaluation","30","6","14B,21C,25C","45","11","4","","","","","","","","","","","","","","","",""
"","","","","","html-keyboard-response","128","335766","0.0-21.0-2.4","78bc4570-56b7-4080-8b73-39d740e724b3","null","<p style=""text-align: center;"">+</p>","null","fixation","","","","","","","","","","","","","","","","","","","","","",""
"","","","","","html-slider-response","129","336777","0.0-21.0-0.5","78bc4570-56b7-4080-8b73-39d740e724b3","1000","
                  <p style=""text-align: center;"">₪71
                                                <br>75%</p>
                  <p id=""wtp"" style=""text-align:center; margin-top: 0px; margin-bottom: 0px; font-size: 40px"";>&ensp;</p>","-","viewing","0","28","8B","","","","","","","","","","","","","","","","","","",""
"","","","","","html-slider-response","130","338273","0.0-21.0-1.5","78bc4570-56b7-4080-8b73-39d740e724b3","1494","
                  <p style=""text-align: center;"">₪71
                                                <br>75%</p>
                  <p id=""wtp"" style=""text-align:center; margin-top: 0px; margin-bottom: 0px; font-size: 40px"";>מוכנים לשלם: <span id=""c_p_y""></span></p>","43","evaluation","65","28","8B","75","71","42","","","","","","","","","","","","","","","",""
"","","","","","html-keyboard-response","131","339415","0.0-21.0-2.5","78bc4570-56b7-4080-8b73-39d740e724b3","null","<p style=""text-align: center;"">+</p>","null","fixation","","","","","","","","","","","","","","","","","","","","","",""
"","","","","","html-slider-response","132","340418","0.0-21.0-0.6","78bc4570-56b7-4080-8b73-39d740e724b3","1000","
                  <p style=""text-align: center;"">₪43
                                                <br>75%</p>
                  <p id=""wtp"" style=""text-align:center; margin-top: 0px; margin-bottom: 0px; font-size: 40px"";>&ensp;</p>","-","viewing","0","18","11B,19B,24A,26A","","","","","","","","","","","","","","","","","","",""
"","","","","","html-slider-response","133","342873","0.0-21.0-1.6","78bc4570-56b7-4080-8b73-39d740e724b3","2454","
                  <p style=""text-align: center;"">₪43
                                                <br>75%</p>
                  <p id=""wtp"" style=""text-align:center; margin-top: 0px; margin-bottom: 0px; font-size: 40px"";>מוכנים לשלם: <span id=""c_p_y""></span></p>","20","evaluation","18","18","11B,19B,24A,26A","75","43","20","","","","","","","","","","","","","","","",""
"","","","","","html-keyboard-response","134","343921","0.0-21.0-2.6","78bc4570-56b7-4080-8b73-39d740e724b3","null","<p style=""text-align: center;"">+</p>","null","fixation","","","","","","","","","","","","","","","","","","","","","",""
"","","","","","html-slider-response","135","344925","0.0-21.0-0.7","78bc4570-56b7-4080-8b73-39d740e724b3","1000","
                  <p style=""text-align: center;"">₪4
                                                <br>75%</p>
                  <p id=""wtp"" style=""text-align:center; margin-top: 0px; margin-bottom: 0px; font-size: 40px"";>&ensp;</p>","-","viewing","0","3","12B,20B,23B,27C,29C","","","","","","","","","","","","","","","","","","",""
"","","","","","html-slider-response","136","348009","0.0-21.0-1.7","78bc4570-56b7-4080-8b73-39d740e724b3","3084","
                  <p style=""text-align: center;"">₪4
                                                <br>75%</p>
                  <p id=""wtp"" style=""text-align:center; margin-top: 0px; margin-bottom: 0px; font-size: 40px"";>מוכנים לשלם: <span id=""c_p_y""></span></p>","2","evaluation","23","3","12B,20B,23B,27C,29C","75","4","2","","","","","","","","","","","","","","","",""
"","","","","","html-keyboard-response","137","348944","0.0-21.0-2.7","78bc4570-56b7-4080-8b73-39d740e724b3","null","<p style=""text-align: center;"">+</p>","null","fixation","","","","","","","","","","","","","","","","","","","","","",""
"","","","","","html-slider-response","138","349948","0.0-21.0-0.8","78bc4570-56b7-4080-8b73-39d740e724b3","1000","
                  <p style=""text-align: center;"">₪39
                                                <br>60%</p>
                  <p id=""wtp"" style=""text-align:center; margin-top: 0px; margin-bottom: 0px; font-size: 40px"";>&ensp;</p>","-","viewing","0","15","9C,25B","","","","","","","","","","","","","","","","","","",""
"","","","","","html-slider-response","139","352497","0.0-21.0-1.8","78bc4570-56b7-4080-8b73-39d740e724b3","2547","
                  <p style=""text-align: center;"">₪39
                                                <br>60%</p>
                  <p id=""wtp"" style=""text-align:center; margin-top: 0px; margin-bottom: 0px; font-size: 40px"";>מוכנים לשלם: <span id=""c_p_y""></span></p>","20","evaluation","57","15","9C,25B","60","39","20","","","","","","","","","","","","","","","",""
"","","","","","html-keyboard-response","140","353477","0.0-21.0-2.8","78bc4570-56b7-4080-8b73-39d740e724b3","null","<p style=""text-align: center;"">+</p>","null","fixation","","","","","","","","","","","","","","","","","","","","","",""
"","","","","","html-slider-response","141","354483","0.0-21.0-0.9","78bc4570-56b7-4080-8b73-39d740e724b3","1000","
                  <p style=""text-align: center;"">₪18
                                                <br>50%</p>
                  <p id=""wtp"" style=""text-align:center; margin-top: 0px; margin-bottom: 0px; font-size: 40px"";>&ensp;</p>","-","viewing","0","10","2C,16C,22B,28A","","","","","","","","","","","","","","","","","","",""
"","","","","","html-slider-response","142","356921","0.0-21.0-1.9","78bc4570-56b7-4080-8b73-39d740e724b3","2437","
                  <p style=""text-align: center;"">₪18
                                                <br>50%</p>
                  <p id=""wtp"" style=""text-align:center; margin-top: 0px; margin-bottom: 0px; font-size: 40px"";>מוכנים לשלם: <span id=""c_p_y""></span></p>","7","evaluation","74","10","2C,16C,22B,28A","50","18","8","","","","","","","","","","","","","","","",""
"","","","","","html-keyboard-response","143","357641","0.0-21.0-2.9","78bc4570-56b7-4080-8b73-39d740e724b3","null","<p style=""text-align: center;"">+</p>","null","fixation","","","","","","","","","","","","","","","","","","","","","",""
"","","","","","html-slider-response","144","358647","0.0-21.0-0.10","78bc4570-56b7-4080-8b73-39d740e724b3","1000","
                  <p style=""text-align: center;"">₪4
                                                <br>25%</p>
                  <p id=""wtp"" style=""text-align:center; margin-top: 0px; margin-bottom: 0px; font-size: 40px"";>&ensp;</p>","-","viewing","0","1","6C,29B,30C","","","","","","","","","","","","","","","","","","",""
"","","","","","html-slider-response","145","360369","0.0-21.0-1.10","78bc4570-56b7-4080-8b73-39d740e724b3","1720","
                  <p style=""text-align: center;"">₪4
                                                <br>25%</p>
                  <p id=""wtp"" style=""text-align:center; margin-top: 0px; margin-bottom: 0px; font-size: 40px"";>מוכנים לשלם: <span id=""c_p_y""></span></p>","1","evaluation","12","1","6C,29B,30C","25","4","2","","","","","","","","","","","","","","","",""
"","","","","","html-keyboard-response","146","361029","0.0-21.0-2.10","78bc4570-56b7-4080-8b73-39d740e724b3","null","<p style=""text-align: center;"">+</p>","null","fixation","","","","","","","","","","","","","","","","","","","","","",""
"","","","","","html-slider-response","147","362031","0.0-21.0-0.11","78bc4570-56b7-4080-8b73-39d740e724b3","1000","
                  <p style=""text-align: center;"">₪64
                                                <br>50%</p>
                  <p id=""wtp"" style=""text-align:center; margin-top: 0px; margin-bottom: 0px; font-size: 40px"";>&ensp;</p>","-","viewing","0","25","1B,3B,4A","","","","","","","","","","","","","","","","","","",""
"","","","","","html-slider-response","148","365593","0.0-21.0-1.11","78bc4570-56b7-4080-8b73-39d740e724b3","3561","
                  <p style=""text-align: center;"">₪64
                                                <br>50%</p>
                  <p id=""wtp"" style=""text-align:center; margin-top: 0px; margin-bottom: 0px; font-size: 40px"";>מוכנים לשלם: <span id=""c_p_y""></span></p>","30","evaluation","48","25","1B,3B,4A","50","64","31","","","","","","","","","","","","","","","",""
"","","","","","html-keyboard-response","149","366124","0.0-21.0-2.11","78bc4570-56b7-4080-8b73-39d740e724b3","null","<p style=""text-align: center;"">+</p>","null","fixation","","","","","","","","","","","","","","","","","","","","","",""
"","","","","","html-slider-response","150","367126","0.0-21.0-0.12","78bc4570-56b7-4080-8b73-39d740e724b3","1000","
                  <p style=""text-align: center;"">₪39
                                                <br>65%</p>
                  <p id=""wtp"" style=""text-align:center; margin-top: 0px; margin-bottom: 0px; font-size: 40px"";>&ensp;</p>","-","viewing","0","16","1A,15A,26C","","","","","","","","","","","","","","","","","","",""
"","","","","","html-slider-response","151","370297","0.0-21.0-1.12","78bc4570-56b7-4080-8b73-39d740e724b3","3170","
                  <p style=""text-align: center;"">₪39
                                                <br>65%</p>
                  <p id=""wtp"" style=""text-align:center; margin-top: 0px; margin-bottom: 0px; font-size: 40px"";>מוכנים לשלם: <span id=""c_p_y""></span></p>","20","evaluation","24","16","1A,15A,26C","65","39","20","","","","","","","","","","","","","","","",""
"","","","","","html-keyboard-response","152","370885","0.0-21.0-2.12","78bc4570-56b7-4080-8b73-39d740e724b3","null","<p style=""text-align: center;"">+</p>","null","fixation","","","","","","","","","","","","","","","","","","","","","",""
"","","","","","html-slider-response","153","371895","0.0-21.0-0.13","78bc4570-56b7-4080-8b73-39d740e724b3","1000","
                  <p style=""text-align: center;"">₪16
                                                <br>20%</p>
                  <p id=""wtp"" style=""text-align:center; margin-top: 0px; margin-bottom: 0px; font-size: 40px"";>&ensp;</p>","-","viewing","0","8","14C,17A,20C,27A","","","","","","","","","","","","","","","","","","",""
"","","","","","html-slider-response","154","375473","0.0-21.0-1.13","78bc4570-56b7-4080-8b73-39d740e724b3","3577","
                  <p style=""text-align: center;"">₪16
                                                <br>20%</p>
                  <p id=""wtp"" style=""text-align:center; margin-top: 0px; margin-bottom: 0px; font-size: 40px"";>מוכנים לשלם: <span id=""c_p_y""></span></p>","3","evaluation","6","8","14C,17A,20C,27A","20","16","3","","","","","","","","","","","","","","","",""
"","","","","","html-keyboard-response","155","376856","0.0-21.0-2.13","78bc4570-56b7-4080-8b73-39d740e724b3","null","<p style=""text-align: center;"">+</p>","null","fixation","","","","","","","","","","","","","","","","","","","","","",""
"","","","","","html-slider-response","156","377871","0.0-21.0-0.14","78bc4570-56b7-4080-8b73-39d740e724b3","1000","
                  <p style=""text-align: center;"">₪11
                                                <br>75%</p>
                  <p id=""wtp"" style=""text-align:center; margin-top: 0px; margin-bottom: 0px; font-size: 40px"";>&ensp;</p>","-","viewing","0","7","6B,18B,22C,24C,29A","","","","","","","","","","","","","","","","","","",""
"","","","","","html-slider-response","157","379969","0.0-21.0-1.14","78bc4570-56b7-4080-8b73-39d740e724b3","2097","
                  <p style=""text-align: center;"">₪11
                                                <br>75%</p>
                  <p id=""wtp"" style=""text-align:center; margin-top: 0px; margin-bottom: 0px; font-size: 40px"";>מוכנים לשלם: <span id=""c_p_y""></span></p>","4","evaluation","34","7","6B,18B,22C,24C,29A","75","11","4","","","","","","","","","","","","","","","",""
"","","","","","html-keyboard-response","158","381258","0.0-21.0-2.14","78bc4570-56b7-4080-8b73-39d740e724b3","null","<p style=""text-align: center;"">+</p>","null","fixation","","","","","","","","","","","","","","","","","","","","","",""
"","","","","","html-slider-response","159","382270","0.0-21.0-0.15","78bc4570-56b7-4080-8b73-39d740e724b3","1000","
                  <p style=""text-align: center;"">₪4
                                                <br>50%</p>
                  <p id=""wtp"" style=""text-align:center; margin-top: 0px; margin-bottom: 0px; font-size: 40px"";>&ensp;</p>","-","viewing","0","2","4C,17B","","","","","","","","","","","","","","","","","","",""
"","","","","","html-slider-response","160","383593","0.0-21.0-1.15","78bc4570-56b7-4080-8b73-39d740e724b3","1322","
                  <p style=""text-align: center;"">₪4
                                                <br>50%</p>
                  <p id=""wtp"" style=""text-align:center; margin-top: 0px; margin-bottom: 0px; font-size: 40px"";>מוכנים לשלם: <span id=""c_p_y""></span></p>","0","evaluation","15","2","4C,17B","50","4","1","","","","","","","","","","","","","","","",""
"","","","","","html-keyboard-response","161","384902","0.0-21.0-2.15","78bc4570-56b7-4080-8b73-39d740e724b3","null","<p style=""text-align: center;"">+</p>","null","fixation","","","","","","","","","","","","","","","","","","","","","",""
"","","","","","html-slider-response","162","385907","0.0-21.0-0.16","78bc4570-56b7-4080-8b73-39d740e724b3","1000","
                  <p style=""text-align: center;"">₪79
                                                <br>65%</p>
                  <p id=""wtp"" style=""text-align:center; margin-top: 0px; margin-bottom: 0px; font-size: 40px"";>&ensp;</p>","-","viewing","0","31","8A","","","","","","","","","","","","","","","","","","",""
"","","","","","html-slider-response","163","389257","0.0-21.0-1.16","78bc4570-56b7-4080-8b73-39d740e724b3","3349","
                  <p style=""text-align: center;"">₪79
                                                <br>65%</p>
                  <p id=""wtp"" style=""text-align:center; margin-top: 0px; margin-bottom: 0px; font-size: 40px"";>מוכנים לשלם: <span id=""c_p_y""></span></p>","40","evaluation","61","31","8A","65","79","40","","","","","","","","","","","","","","","",""
"","","","","","html-keyboard-response","164","390470","0.0-21.0-2.16","78bc4570-56b7-4080-8b73-39d740e724b3","null","<p style=""text-align: center;"">+</p>","null","fixation","","","","","","","","","","","","","","","","","","","","","",""
"","","","","","html-slider-response","165","391473","0.0-21.0-0.17","78bc4570-56b7-4080-8b73-39d740e724b3","1000","
                  <p style=""text-align: center;"">₪36
                                                <br>75%</p>
                  <p id=""wtp"" style=""text-align:center; margin-top: 0px; margin-bottom: 0px; font-size: 40px"";>&ensp;</p>","-","viewing","0","14","4B,5A,13B,16B","","","","","","","","","","","","","","","","","","",""
"","","","","","html-slider-response","166","394713","0.0-21.0-1.17","78bc4570-56b7-4080-8b73-39d740e724b3","3239","
                  <p style=""text-align: center;"">₪36
                                                <br>75%</p>
                  <p id=""wtp"" style=""text-align:center; margin-top: 0px; margin-bottom: 0px; font-size: 40px"";>מוכנים לשלם: <span id=""c_p_y""></span></p>","24","evaluation","13","14","4B,5A,13B,16B","75","36","24","","","","","","","","","","","","","","","",""
"","","","","","html-keyboard-response","167","395637","0.0-21.0-2.17","78bc4570-56b7-4080-8b73-39d740e724b3","null","<p style=""text-align: center;"">+</p>","null","fixation","","","","","","","","","","","","","","","","","","","","","",""
"","","","","","html-slider-response","168","396642","0.0-21.0-0.18","78bc4570-56b7-4080-8b73-39d740e724b3","1000","
                  <p style=""text-align: center;"">₪36
                                                <br>30%</p>
                  <p id=""wtp"" style=""text-align:center; margin-top: 0px; margin-bottom: 0px; font-size: 40px"";>&ensp;</p>","-","viewing","0","11","3C,20A,22A","","","","","","","","","","","","","","","","","","",""
"","","","","","html-slider-response","169","399377","0.0-21.0-1.18","78bc4570-56b7-4080-8b73-39d740e724b3","2733","
                  <p style=""text-align: center;"">₪36
                                                <br>30%</p>
                  <p id=""wtp"" style=""text-align:center; margin-top: 0px; margin-bottom: 0px; font-size: 40px"";>מוכנים לשלם: <span id=""c_p_y""></span></p>","5","evaluation","78","11","3C,20A,22A","30","36","6","","","","","","","","","","","","","","","",""
"","","","","","html-keyboard-response","170","400800","0.0-21.0-2.18","78bc4570-56b7-4080-8b73-39d740e724b3","null","<p style=""text-align: center;"">+</p>","null","fixation","","","","","","","","","","","","","","","","","","","","","",""
"","","","","","html-slider-response","171","401808","0.0-21.0-0.19","78bc4570-56b7-4080-8b73-39d740e724b3","1000","
                  <p style=""text-align: center;"">₪36
                                                <br>70%</p>
                  <p id=""wtp"" style=""text-align:center; margin-top: 0px; margin-bottom: 0px; font-size: 40px"";>&ensp;</p>","-","viewing","0","13","3A,5C,10B","","","","","","","","","","","","","","","","","","",""
"","","","","","html-slider-response","172","404057","0.0-21.0-1.19","78bc4570-56b7-4080-8b73-39d740e724b3","2247","
                  <p style=""text-align: center;"">₪36
                                                <br>70%</p>
                  <p id=""wtp"" style=""text-align:center; margin-top: 0px; margin-bottom: 0px; font-size: 40px"";>מוכנים לשלם: <span id=""c_p_y""></span></p>","21","evaluation","1","13","3A,5C,10B","70","36","21","","","","","","","","","","","","","","","",""
"","","","","","html-keyboard-response","173","405245","0.0-21.0-2.19","78bc4570-56b7-4080-8b73-39d740e724b3","null","<p style=""text-align: center;"">+</p>","null","fixation","","","","","","","","","","","","","","","","","","","","","",""
"","","","","","html-slider-response","174","406247","0.0-21.0-0.20","78bc4570-56b7-4080-8b73-39d740e724b3","1000","
                  <p style=""text-align: center;"">₪43
                                                <br>60%</p>
                  <p id=""wtp"" style=""text-align:center; margin-top: 0px; margin-bottom: 0px; font-size: 40px"";>&ensp;</p>","-","viewing","0","17","2A,7A,9A,15B","","","","","","","","","","","","","","","","","","",""
"","","","","","html-slider-response","175","409065","0.0-21.0-1.20","78bc4570-56b7-4080-8b73-39d740e724b3","2817","
                  <p style=""text-align: center;"">₪43
                                                <br>60%</p>
                  <p id=""wtp"" style=""text-align:center; margin-top: 0px; margin-bottom: 0px; font-size: 40px"";>מוכנים לשלם: <span id=""c_p_y""></span></p>","23","evaluation","15","17","2A,7A,9A,15B","60","43","23","","","","","","","","","","","","","","","",""
"","","","","","html-keyboard-response","176","410426","0.0-21.0-2.20","78bc4570-56b7-4080-8b73-39d740e724b3","null","<p style=""text-align: center;"">+</p>","null","fixation","","","","","","","","","","","","","","","","","","","","","",""
"","","","","","html-slider-response","177","411443","0.0-21.0-0.21","78bc4570-56b7-4080-8b73-39d740e724b3","1000","
                  <p style=""text-align: center;"">₪61
                                                <br>45%</p>
                  <p id=""wtp"" style=""text-align:center; margin-top: 0px; margin-bottom: 0px; font-size: 40px"";>&ensp;</p>","-","viewing","0","22","10A,11A","","","","","","","","","","","","","","","","","","",""
"","","","","","html-slider-response","178","415446","0.0-21.0-1.21","78bc4570-56b7-4080-8b73-39d740e724b3","null","
                  <p style=""text-align: center;"">₪61
                                                <br>45%</p>
                  <p id=""wtp"" style=""text-align:center; margin-top: 0px; margin-bottom: 0px; font-size: 40px"";>מוכנים לשלם: <span id=""c_p_y""></span></p>","null","evaluation","50","22","10A,11A","45","61","28","","","","","","","","","","","","","","","",""
"","","","","","html-keyboard-response","179","416218","0.0-21.0-2.21","78bc4570-56b7-4080-8b73-39d740e724b3","null","<p style=""text-align: center;"">+</p>","null","fixation","","","","","","","","","","","","","","","","","","","","","",""
"","","","","","html-slider-response","180","417226","0.0-21.0-0.22","78bc4570-56b7-4080-8b73-39d740e724b3","1000","
                  <p style=""text-align: center;"">₪18
                                                <br>25%</p>
                  <p id=""wtp"" style=""text-align:center; margin-top: 0px; margin-bottom: 0px; font-size: 40px"";>&ensp;</p>","-","viewing","0","9","14A,23A","","","","","","","","","","","","","","","","","","",""
"","","","","","html-slider-response","181","420009","0.0-21.0-1.22","78bc4570-56b7-4080-8b73-39d740e724b3","2782","
                  <p style=""text-align: center;"">₪18
                                                <br>25%</p>
                  <p id=""wtp"" style=""text-align:center; margin-top: 0px; margin-bottom: 0px; font-size: 40px"";>מוכנים לשלם: <span id=""c_p_y""></span></p>","3","evaluation","31","9","14A,23A","25","18","4","","","","","","","","","","","","","","","",""
"","","","","","html-keyboard-response","182","421304","0.0-21.0-2.22","78bc4570-56b7-4080-8b73-39d740e724b3","null","<p style=""text-align: center;"">+</p>","null","fixation","","","","","","","","","","","","","","","","","","","","","",""
"","","","","","html-slider-response","183","422319","0.0-21.0-0.23","78bc4570-56b7-4080-8b73-39d740e724b3","1000","
                  <p style=""text-align: center;"">₪71
                                                <br>55%</p>
                  <p id=""wtp"" style=""text-align:center; margin-top: 0px; margin-bottom: 0px; font-size: 40px"";>&ensp;</p>","-","viewing","0","27","5B,18A","","","","","","","","","","","","","","","","","","",""
"","","","","","html-slider-response","184","426289","0.0-21.0-1.23","78bc4570-56b7-4080-8b73-39d740e724b3","3968","
                  <p style=""text-align: center;"">₪71
                                                <br>55%</p>
                  <p id=""wtp"" style=""text-align:center; margin-top: 0px; margin-bottom: 0px; font-size: 40px"";>מוכנים לשלם: <span id=""c_p_y""></span></p>","30","evaluation","69","27","5B,18A","55","71","30","","","","","","","","","","","","","","","",""
"","","","","","html-keyboard-response","185","427503","0.0-21.0-2.23","78bc4570-56b7-4080-8b73-39d740e724b3","null","<p style=""text-align: center;"">+</p>","null","fixation","","","","","","","","","","","","","","","","","","","","","",""
"","","","","","html-slider-response","186","428519","0.0-21.0-0.24","78bc4570-56b7-4080-8b73-39d740e724b3","1000","
                  <p style=""text-align: center;"">₪76
                                                <br>65%</p>
                  <p id=""wtp"" style=""text-align:center; margin-top: 0px; margin-bottom: 0px; font-size: 40px"";>&ensp;</p>","-","viewing","0","29","8C,19A,24B","","","","","","","","","","","","","","","","","","",""
"","","","","","html-slider-response","187","432521","0.0-21.0-1.24","78bc4570-56b7-4080-8b73-39d740e724b3","null","
                  <p style=""text-align: center;"">₪76
                                                <br>65%</p>
                  <p id=""wtp"" style=""text-align:center; margin-top: 0px; margin-bottom: 0px; font-size: 40px"";>מוכנים לשלם: <span id=""c_p_y""></span></p>","null","evaluation","20","29","8C,19A,24B","65","76","33","","","","","","","","","","","","","","","",""
"","","","","","html-keyboard-response","188","433774","0.0-21.0-2.24","78bc4570-56b7-4080-8b73-39d740e724b3","null","<p style=""text-align: center;"">+</p>","null","fixation","","","","","","","","","","","","","","","","","","","","","",""
"","","","","","html-slider-response","189","434783","0.0-21.0-0.25","78bc4570-56b7-4080-8b73-39d740e724b3","1000","
                  <p style=""text-align: center;"">₪61
                                                <br>55%</p>
                  <p id=""wtp"" style=""text-align:center; margin-top: 0px; margin-bottom: 0px; font-size: 40px"";>&ensp;</p>","-","viewing","0","23","7B,26B","","","","","","","","","","","","","","","","","","",""
"","","","","","html-slider-response","190","436953","0.0-21.0-1.25","78bc4570-56b7-4080-8b73-39d740e724b3","2168","
                  <p style=""text-align: center;"">₪61
                                                <br>55%</p>
                  <p id=""wtp"" style=""text-align:center; margin-top: 0px; margin-bottom: 0px; font-size: 40px"";>מוכנים לשלם: <span id=""c_p_y""></span></p>","30","evaluation","2","23","7B,26B","55","61","30","","","","","","","","","","","","","","","",""
"","","","","","html-keyboard-response","191","438268","0.0-21.0-2.25","78bc4570-56b7-4080-8b73-39d740e724b3","null","<p style=""text-align: center;"">+</p>","null","fixation","","","","","","","","","","","","","","","","","","","","","",""
"","","","","","html-slider-response","192","439280","0.0-21.0-0.26","78bc4570-56b7-4080-8b73-39d740e724b3","1000","
                  <p style=""text-align: center;"">₪58
                                                <br>40%</p>
                  <p id=""wtp"" style=""text-align:center; margin-top: 0px; margin-bottom: 0px; font-size: 40px"";>&ensp;</p>","-","viewing","0","20","10C,13A,19C,21B","","","","","","","","","","","","","","","","","","",""
"","","","","","html-slider-response","193","442425","0.0-21.0-1.26","78bc4570-56b7-4080-8b73-39d740e724b3","3144","
                  <p style=""text-align: center;"">₪58
                                                <br>40%</p>
                  <p id=""wtp"" style=""text-align:center; margin-top: 0px; margin-bottom: 0px; font-size: 40px"";>מוכנים לשלם: <span id=""c_p_y""></span></p>","22","evaluation","11","20","10C,13A,19C,21B","40","58","22","","","","","","","","","","","","","","","",""
"","","","","","html-keyboard-response","194","443443","0.0-21.0-2.26","78bc4570-56b7-4080-8b73-39d740e724b3","null","<p style=""text-align: center;"">+</p>","null","fixation","","","","","","","","","","","","","","","","","","","","","",""
"","","","","","html-slider-response","195","444445","0.0-21.0-0.27","78bc4570-56b7-4080-8b73-39d740e724b3","1000","
                  <p style=""text-align: center;"">₪64
                                                <br>25%</p>
                  <p id=""wtp"" style=""text-align:center; margin-top: 0px; margin-bottom: 0px; font-size: 40px"";>&ensp;</p>","-","viewing","0","24","6A,21A","","","","","","","","","","","","","","","","","","",""
"","","","","","html-slider-response","196","446793","0.0-21.0-1.27","78bc4570-56b7-4080-8b73-39d740e724b3","2346","
                  <p style=""text-align: center;"">₪64
                                                <br>25%</p>
                  <p id=""wtp"" style=""text-align:center; margin-top: 0px; margin-bottom: 0px; font-size: 40px"";>מוכנים לשלם: <span id=""c_p_y""></span></p>","13","evaluation","69","24","6A,21A","25","64","14","","","","","","","","","","","","","","","",""
"","","","","","html-keyboard-response","197","447549","0.0-21.0-2.27","78bc4570-56b7-4080-8b73-39d740e724b3","null","<p style=""text-align: center;"">+</p>","null","fixation","","","","","","","","","","","","","","","","","","","","","",""
"","","","","","html-slider-response","198","448552","0.0-21.0-0.28","78bc4570-56b7-4080-8b73-39d740e724b3","1000","
                  <p style=""text-align: center;"">₪71
                                                <br>45%</p>
                  <p id=""wtp"" style=""text-align:center; margin-top: 0px; margin-bottom: 0px; font-size: 40px"";>&ensp;</p>","-","viewing","0","26","2B,16A","","","","","","","","","","","","","","","","","","",""
"","","","","","html-slider-response","199","451865","0.0-21.0-1.28","78bc4570-56b7-4080-8b73-39d740e724b3","3312","
                  <p style=""text-align: center;"">₪71
                                                <br>45%</p>
                  <p id=""wtp"" style=""text-align:center; margin-top: 0px; margin-bottom: 0px; font-size: 40px"";>מוכנים לשלם: <span id=""c_p_y""></span></p>","27","evaluation","50","26","2B,16A","45","71","27","","","","","","","","","","","","","","","",""
"","","","","","html-keyboard-response","200","453305","0.0-21.0-2.28","78bc4570-56b7-4080-8b73-39d740e724b3","null","<p style=""text-align: center;"">+</p>","null","fixation","","","","","","","","","","","","","","","","","","","","","",""
"","","","","","html-slider-response","201","454310","0.0-21.0-0.29","78bc4570-56b7-4080-8b73-39d740e724b3","1000","
                  <p style=""text-align: center;"">₪11
                                                <br>20%</p>
                  <p id=""wtp"" style=""text-align:center; margin-top: 0px; margin-bottom: 0px; font-size: 40px"";>&ensp;</p>","-","viewing","0","4","12C,17C,23C,28C","","","","","","","","","","","","","","","","","","",""
"","","","","","html-slider-response","202","456177","0.0-21.0-1.29","78bc4570-56b7-4080-8b73-39d740e724b3","1866","
                  <p style=""text-align: center;"">₪11
                                                <br>20%</p>
                  <p id=""wtp"" style=""text-align:center; margin-top: 0px; margin-bottom: 0px; font-size: 40px"";>מוכנים לשלם: <span id=""c_p_y""></span></p>","0","evaluation","76","4","12C,17C,23C,28C","20","11","1","","","","","","","","","","","","","","","",""
"","","","","","html-keyboard-response","203","457273","0.0-21.0-2.29","78bc4570-56b7-4080-8b73-39d740e724b3","null","<p style=""text-align: center;"">+</p>","null","fixation","","","","","","","","","","","","","","","","","","","","","",""
"","","","","","html-slider-response","204","458277","0.0-21.0-0.30","78bc4570-56b7-4080-8b73-39d740e724b3","1000","
                  <p style=""text-align: center;"">₪79
                                                <br>40%</p>
                  <p id=""wtp"" style=""text-align:center; margin-top: 0px; margin-bottom: 0px; font-size: 40px"";>&ensp;</p>","-","viewing","0","30","9B","","","","","","","","","","","","","","","","","","",""
"","","","","","html-slider-response","205","460697","0.0-21.0-1.30","78bc4570-56b7-4080-8b73-39d740e724b3","2418","
                  <p style=""text-align: center;"">₪79
                                                <br>40%</p>
                  <p id=""wtp"" style=""text-align:center; margin-top: 0px; margin-bottom: 0px; font-size: 40px"";>מוכנים לשלם: <span id=""c_p_y""></span></p>","30","evaluation","31","30","9B","40","79","30","","","","","","","","","","","","","","","",""
"","","","","","html-keyboard-response","206","461604","0.0-21.0-2.30","78bc4570-56b7-4080-8b73-39d740e724b3","null","<p style=""text-align: center;"">+</p>","null","fixation","","","","","","","","","","","","","","","","","","","","","",""
"","","","","","html-keyboard-response","207","462620","0.0-22.0","78bc4570-56b7-4080-8b73-39d740e724b3","null","<p style=""text-align: center;"">+</p>","null","fixation","","","","","","","","","","","","","","","","","","","","","",""
"","","","","","html-keyboard-response","208","464097","0.0-23.0","78bc4570-56b7-4080-8b73-39d740e724b3","null","<p>הפסקה.
          <br>לחצו כדי להמשיך.</p>","1","scan_wait","","","","","","","","","","","","","","","","","","","","","",""
"","","","","","html-keyboard-response","209","465105","0.0-24.0","78bc4570-56b7-4080-8b73-39d740e724b3","null","<p style=""text-align: center;"">+</p>","null","fixation","","","","","","","","","","","","","","","","","","","","","",""
"","","","","","html-slider-response","210","466110","0.0-25.0-0.0","78bc4570-56b7-4080-8b73-39d740e724b3","1000","
                  <p style=""text-align: center;"">₪18
                                                <br>25%</p>
                  <p id=""wtp"" style=""text-align:center; margin-top: 0px; margin-bottom: 0px; font-size: 40px"";>&ensp;</p>","-","viewing","0","9","14A,23A","","","","","","","","","","","","","","","","","","",""
"","","","","","html-slider-response","211","467985","0.0-25.0-1.0","78bc4570-56b7-4080-8b73-39d740e724b3","1874","
                  <p style=""text-align: center;"">₪18
                                                <br>25%</p>
                  <p id=""wtp"" style=""text-align:center; margin-top: 0px; margin-bottom: 0px; font-size: 40px"";>מוכנים לשלם: <span id=""c_p_y""></span></p>","3","evaluation","8","9","14A,23A","25","18","4","","","","","","","","","","","","","","","",""
"","","","","","html-keyboard-response","212","469434","0.0-25.0-2.0","78bc4570-56b7-4080-8b73-39d740e724b3","null","<p style=""text-align: center;"">+</p>","null","fixation","","","","","","","","","","","","","","","","","","","","","",""
"","","","","","html-slider-response","213","470436","0.0-25.0-0.1","78bc4570-56b7-4080-8b73-39d740e724b3","1000","
                  <p style=""text-align: center;"">₪11
                                                <br>75%</p>
                  <p id=""wtp"" style=""text-align:center; margin-top: 0px; margin-bottom: 0px; font-size: 40px"";>&ensp;</p>","-","viewing","0","7","6B,18B,22C,24C,29A","","","","","","","","","","","","","","","","","","",""
"","","","","","html-slider-response","214","472297","0.0-25.0-1.1","78bc4570-56b7-4080-8b73-39d740e724b3","1859","
                  <p style=""text-align: center;"">₪11
                                                <br>75%</p>
                  <p id=""wtp"" style=""text-align:center; margin-top: 0px; margin-bottom: 0px; font-size: 40px"";>מוכנים לשלם: <span id=""c_p_y""></span></p>","1","evaluation","53","7","6B,18B,22C,24C,29A","75","11","1","","","","","","","","","","","","","","","",""
"","","","","","html-keyboard-response","215","473757","0.0-25.0-2.1","78bc4570-56b7-4080-8b73-39d740e724b3","null","<p style=""text-align: center;"">+</p>","null","fixation","","","","","","","","","","","","","","","","","","","","","",""
"","","","","","html-slider-response","216","474759","0.0-25.0-0.2","78bc4570-56b7-4080-8b73-39d740e724b3","1000","
                  <p style=""text-align: center;"">₪11
                                                <br>45%</p>
                  <p id=""wtp"" style=""text-align:center; margin-top: 0px; margin-bottom: 0px; font-size: 40px"";>&ensp;</p>","-","viewing","0","6","14B,21C,25C","","","","","","","","","","","","","","","","","","",""
"","","","","","html-slider-response","217","477801","0.0-25.0-1.2","78bc4570-56b7-4080-8b73-39d740e724b3","3041","
                  <p style=""text-align: center;"">₪11
                                                <br>45%</p>
                  <p id=""wtp"" style=""text-align:center; margin-top: 0px; margin-bottom: 0px; font-size: 40px"";>מוכנים לשלם: <span id=""c_p_y""></span></p>","3","evaluation","51","6","14B,21C,25C","45","11","4","","","","","","","","","","","","","","","",""
"","","","","","html-keyboard-response","218","479273","0.0-25.0-2.2","78bc4570-56b7-4080-8b73-39d740e724b3","null","<p style=""text-align: center;"">+</p>","null","fixation","","","","","","","","","","","","","","","","","","","","","",""
"","","","","","html-slider-response","219","480289","0.0-25.0-0.3","78bc4570-56b7-4080-8b73-39d740e724b3","1000","
                  <p style=""text-align: center;"">₪58
                                                <br>40%</p>
                  <p id=""wtp"" style=""text-align:center; margin-top: 0px; margin-bottom: 0px; font-size: 40px"";>&ensp;</p>","-","viewing","0","20","10C,13A,19C,21B","","","","","","","","","","","","","","","","","","",""
"","","","","","html-slider-response","220","484290","0.0-25.0-1.3","78bc4570-56b7-4080-8b73-39d740e724b3","null","
                  <p style=""text-align: center;"">₪58
                                                <br>40%</p>
                  <p id=""wtp"" style=""text-align:center; margin-top: 0px; margin-bottom: 0px; font-size: 40px"";>מוכנים לשלם: <span id=""c_p_y""></span></p>","null","evaluation","39","20","10C,13A,19C,21B","40","58","14","","","","","","","","","","","","","","","",""
"","","","","","html-keyboard-response","221","485604","0.0-25.0-2.3","78bc4570-56b7-4080-8b73-39d740e724b3","null","<p style=""text-align: center;"">+</p>","null","fixation","","","","","","","","","","","","","","","","","","","","","",""
"","","","","","html-slider-response","222","486614","0.0-25.0-0.4","78bc4570-56b7-4080-8b73-39d740e724b3","1000","
                  <p style=""text-align: center;"">₪16
                                                <br>20%</p>
                  <p id=""wtp"" style=""text-align:center; margin-top: 0px; margin-bottom: 0px; font-size: 40px"";>&ensp;</p>","-","viewing","0","8","14C,17A,20C,27A","","","","","","","","","","","","","","","","","","",""
"","","","","","html-slider-response","223","488721","0.0-25.0-1.4","78bc4570-56b7-4080-8b73-39d740e724b3","2106","
                  <p style=""text-align: center;"">₪16
                                                <br>20%</p>
                  <p id=""wtp"" style=""text-align:center; margin-top: 0px; margin-bottom: 0px; font-size: 40px"";>מוכנים לשלם: <span id=""c_p_y""></span></p>","2","evaluation","9","8","14C,17A,20C,27A","20","16","3","","","","","","","","","","","","","","","",""
"","","","","","html-keyboard-response","224","489793","0.0-25.0-2.4","78bc4570-56b7-4080-8b73-39d740e724b3","null","<p style=""text-align: center;"">+</p>","null","fixation","","","","","","","","","","","","","","","","","","","","","",""
"","","","","","html-slider-response","225","490801","0.0-25.0-0.5","78bc4570-56b7-4080-8b73-39d740e724b3","1000","
                  <p style=""text-align: center;"">₪71
                                                <br>75%</p>
                  <p id=""wtp"" style=""text-align:center; margin-top: 0px; margin-bottom: 0px; font-size: 40px"";>&ensp;</p>","-","viewing","0","28","8B","","","","","","","","","","","","","","","","","","",""
"","","","","","html-slider-response","226","494673","0.0-25.0-1.5","78bc4570-56b7-4080-8b73-39d740e724b3","3871","
                  <p style=""text-align: center;"">₪71
                                                <br>75%</p>
                  <p id=""wtp"" style=""text-align:center; margin-top: 0px; margin-bottom: 0px; font-size: 40px"";>מוכנים לשלם: <span id=""c_p_y""></span></p>","19","evaluation","43","28","8B","75","71","20","","","","","","","","","","","","","","","",""
"","","","","","html-keyboard-response","227","495882","0.0-25.0-2.5","78bc4570-56b7-4080-8b73-39d740e724b3","null","<p style=""text-align: center;"">+</p>","null","fixation","","","","","","","","","","","","","","","","","","","","","",""
"","","","","","html-slider-response","228","496886","0.0-25.0-0.6","78bc4570-56b7-4080-8b73-39d740e724b3","1000","
                  <p style=""text-align: center;"">₪36
                                                <br>70%</p>
                  <p id=""wtp"" style=""text-align:center; margin-top: 0px; margin-bottom: 0px; font-size: 40px"";>&ensp;</p>","-","viewing","0","13","3A,5C,10B","","","","","","","","","","","","","","","","","","",""
"","","","","","html-slider-response","229","499241","0.0-25.0-1.6","78bc4570-56b7-4080-8b73-39d740e724b3","2354","
                  <p style=""text-align: center;"">₪36
                                                <br>70%</p>
                  <p id=""wtp"" style=""text-align:center; margin-top: 0px; margin-bottom: 0px; font-size: 40px"";>מוכנים לשלם: <span id=""c_p_y""></span></p>","22","evaluation","10","13","3A,5C,10B","70","36","23","","","","","","","","","","","","","","","",""
"","","","","","html-keyboard-response","230","500397","0.0-25.0-2.6","78bc4570-56b7-4080-8b73-39d740e724b3","null","<p style=""text-align: center;"">+</p>","null","fixation","","","","","","","","","","","","","","","","","","","","","",""
"","","","","","html-slider-response","231","501412","0.0-25.0-0.7","78bc4570-56b7-4080-8b73-39d740e724b3","1000","
                  <p style=""text-align: center;"">₪43
                                                <br>60%</p>
                  <p id=""wtp"" style=""text-align:center; margin-top: 0px; margin-bottom: 0px; font-size: 40px"";>&ensp;</p>","-","viewing","0","17","2A,7A,9A,15B","","","","","","","","","","","","","","","","","","",""
"","","","","","html-slider-response","232","503865","0.0-25.0-1.7","78bc4570-56b7-4080-8b73-39d740e724b3","2452","
                  <p style=""text-align: center;"">₪43
                                                <br>60%</p>
                  <p id=""wtp"" style=""text-align:center; margin-top: 0px; margin-bottom: 0px; font-size: 40px"";>מוכנים לשלם: <span id=""c_p_y""></span></p>","24","evaluation","51","17","2A,7A,9A,15B","60","43","24","","","","","","","","","","","","","","","",""
"","","","","","html-keyboard-response","233","504798","0.0-25.0-2.7","78bc4570-56b7-4080-8b73-39d740e724b3","null","<p style=""text-align: center;"">+</p>","null","fixation","","","","","","","","","","","","","","","","","","","","","",""
"","","","","","html-slider-response","234","505803","0.0-25.0-0.8","78bc4570-56b7-4080-8b73-39d740e724b3","1000","
                  <p style=""text-align: center;"">₪76
                                                <br>65%</p>
                  <p id=""wtp"" style=""text-align:center; margin-top: 0px; margin-bottom: 0px; font-size: 40px"";>&ensp;</p>","-","viewing","0","29","8C,19A,24B","","","","","","","","","","","","","","","","","","",""
"","","","","","html-slider-response","235","508457","0.0-25.0-1.8","78bc4570-56b7-4080-8b73-39d740e724b3","2653","
                  <p style=""text-align: center;"">₪76
                                                <br>65%</p>
                  <p id=""wtp"" style=""text-align:center; margin-top: 0px; margin-bottom: 0px; font-size: 40px"";>מוכנים לשלם: <span id=""c_p_y""></span></p>","36","evaluation","1","29","8C,19A,24B","65","76","36","","","","","","","","","","","","","","","",""
"","","","","","html-keyboard-response","236","509467","0.0-25.0-2.8","78bc4570-56b7-4080-8b73-39d740e724b3","null","<p style=""text-align: center;"">+</p>","null","fixation","","","","","","","","","","","","","","","","","","","","","",""
"","","","","","html-slider-response","237","510478","0.0-25.0-0.9","78bc4570-56b7-4080-8b73-39d740e724b3","1000","
                  <p style=""text-align: center;"">₪64
                                                <br>25%</p>
                  <p id=""wtp"" style=""text-align:center; margin-top: 0px; margin-bottom: 0px; font-size: 40px"";>&ensp;</p>","-","viewing","0","24","6A,21A","","","","","","","","","","","","","","","","","","",""
"","","","","","html-slider-response","238","514177","0.0-25.0-1.9","78bc4570-56b7-4080-8b73-39d740e724b3","3697","
                  <p style=""text-align: center;"">₪64
                                                <br>25%</p>
                  <p id=""wtp"" style=""text-align:center; margin-top: 0px; margin-bottom: 0px; font-size: 40px"";>מוכנים לשלם: <span id=""c_p_y""></span></p>","15","evaluation","12","24","6A,21A","25","64","15","","","","","","","","","","","","","","","",""
"","","","","","html-keyboard-response","239","514729","0.0-25.0-2.9","78bc4570-56b7-4080-8b73-39d740e724b3","null","<p style=""text-align: center;"">+</p>","null","fixation","","","","","","","","","","","","","","","","","","","","","",""
"","","","","","html-slider-response","240","515731","0.0-25.0-0.10","78bc4570-56b7-4080-8b73-39d740e724b3","1000","
                  <p style=""text-align: center;"">₪36
                                                <br>75%</p>
                  <p id=""wtp"" style=""text-align:center; margin-top: 0px; margin-bottom: 0px; font-size: 40px"";>&ensp;</p>","-","viewing","0","14","4B,5A,13B,16B","","","","","","","","","","","","","","","","","","",""
"","","","","","html-slider-response","241","518233","0.0-25.0-1.10","78bc4570-56b7-4080-8b73-39d740e724b3","2501","
                  <p style=""text-align: center;"">₪36
                                                <br>75%</p>
                  <p id=""wtp"" style=""text-align:center; margin-top: 0px; margin-bottom: 0px; font-size: 40px"";>מוכנים לשלם: <span id=""c_p_y""></span></p>","26","evaluation","51","14","4B,5A,13B,16B","75","36","26","","","","","","","","","","","","","","","",""
"","","","","","html-keyboard-response","242","519521","0.0-25.0-2.10","78bc4570-56b7-4080-8b73-39d740e724b3","null","<p style=""text-align: center;"">+</p>","null","fixation","","","","","","","","","","","","","","","","","","","","","",""
"","","","","","html-slider-response","243","520532","0.0-25.0-0.11","78bc4570-56b7-4080-8b73-39d740e724b3","1000","
                  <p style=""text-align: center;"">₪36
                                                <br>60%</p>
                  <p id=""wtp"" style=""text-align:center; margin-top: 0px; margin-bottom: 0px; font-size: 40px"";>&ensp;</p>","-","viewing","0","12","1C,7C,15C","","","","","","","","","","","","","","","","","","",""
"","","","","","html-slider-response","244","523097","0.0-25.0-1.11","78bc4570-56b7-4080-8b73-39d740e724b3","2564","
                  <p style=""text-align: center;"">₪36
                                                <br>60%</p>
                  <p id=""wtp"" style=""text-align:center; margin-top: 0px; margin-bottom: 0px; font-size: 40px"";>מוכנים לשלם: <span id=""c_p_y""></span></p>","19","evaluation","66","12","1C,7C,15C","60","36","20","","","","","","","","","","","","","","","",""
"","","","","","html-keyboard-response","245","524092","0.0-25.0-2.11","78bc4570-56b7-4080-8b73-39d740e724b3","null","<p style=""text-align: center;"">+</p>","null","fixation","","","","","","","","","","","","","","","","","","","","","",""
"","","","","","html-slider-response","246","525108","0.0-25.0-0.12","78bc4570-56b7-4080-8b73-39d740e724b3","1000","
                  <p style=""text-align: center;"">₪11
                                                <br>25%</p>
                  <p id=""wtp"" style=""text-align:center; margin-top: 0px; margin-bottom: 0px; font-size: 40px"";>&ensp;</p>","-","viewing","0","5","12A,27B,28B,30B","","","","","","","","","","","","","","","","","","",""
"","","","","","html-slider-response","247","526625","0.0-25.0-1.12","78bc4570-56b7-4080-8b73-39d740e724b3","1516","
                  <p style=""text-align: center;"">₪11
                                                <br>25%</p>
                  <p id=""wtp"" style=""text-align:center; margin-top: 0px; margin-bottom: 0px; font-size: 40px"";>מוכנים לשלם: <span id=""c_p_y""></span></p>","1","evaluation","76","5","12A,27B,28B,30B","25","11","2","","","","","","","","","","","","","","","",""
"","","","","","html-keyboard-response","248","527841","0.0-25.0-2.12","78bc4570-56b7-4080-8b73-39d740e724b3","null","<p style=""text-align: center;"">+</p>","null","fixation","","","","","","","","","","","","","","","","","","","","","",""
"","","","","","html-slider-response","249","528843","0.0-25.0-0.13","78bc4570-56b7-4080-8b73-39d740e724b3","1000","
                  <p style=""text-align: center;"">₪71
                                                <br>45%</p>
                  <p id=""wtp"" style=""text-align:center; margin-top: 0px; margin-bottom: 0px; font-size: 40px"";>&ensp;</p>","-","viewing","0","26","2B,16A","","","","","","","","","","","","","","","","","","",""
"","","","","","html-slider-response","250","531905","0.0-25.0-1.13","78bc4570-56b7-4080-8b73-39d740e724b3","3061","
                  <p style=""text-align: center;"">₪71
                                                <br>45%</p>
