"success","timeout","failed_images","failed_audio","failed_video","trial_type","trial_index","time_elapsed","internal_node_id","subject_id","rt","stimulus","response","part","slider_start","ID","set_ID","prob","amount","last_location","actual_choice","actual_EV","binary_id","trinary_id","catch","direction","A_key","S_key","D_key","choice_prob","choice_amount","chosen_part","potential_prize_prob","potential_prize_amount","won_prize","total_prize","prize_cost","remaining_budget","accuracy"
"true","false","[]","[]","[]","preload","0","86","0.0-0.0","2212f72e-a3dc-47f4-b922-1afcdaa05668","","","","","","","","","","","","","","","","","","","","","","","","","","","","",""
"","","","","","html-keyboard-response","1","1020248","0.0-1.0","2212f72e-a3dc-47f4-b922-1afcdaa05668","null","
          <h1>שלום וברוכים הבאים!</h1>
          <p>לפניכם ניסוי בקבלת החלטות עם שני חלקים.
          <br><br>לחצו על העכבר כדי להמשיך.</p>","0","example","","","","","","","","","","","","","","","","","","","","","","","","",""
"","","","","","html-keyboard-response","2","1024855","0.0-2.0","2212f72e-a3dc-47f4-b922-1afcdaa05668","null","
        <h1>חלק 1</h1>
        <p>בקרוב יוצגו בפניכם הגרלות.
        <br>עליכם לבחור את המחיר המירבי שתהיו מוכנים לשלם כדי להשתתף בהגרלה שתוצג.
        <br>יש לכם תקציב של ₪80 לכל הגרלה. 
        <br>נסו להעריך כל הגרלה בנפרד ולחשוב כמה היא שווה עבורכם, ₪80 זמינים לכל הגרלה בנפרד.
        <br><br>לחצו על העכבר כדי להמשיך.</p>","1","instructions","","","","","","","","","","","","","","","","","","","","","","","","",""
"","","","","","html-keyboard-response","3","1033231","0.0-3.0","2212f72e-a3dc-47f4-b922-1afcdaa05668","null","
        <p>בסוף הניסוי, המחשב יבחר את אחת ההגרלות ויקבע מחיר לכרטיס עבורה. 
        <br>במידה והמחיר שבחרתם נמוך מהמחיר שנבחר על ידי המחשב, לא תשתתפו בהגרלה ותשארו עם מלוא התקציב.
        <br>במידה והמחיר שבחרתם גבוה מהמחיר שנבחר על ידי המחשב, תשלמו את המחיר שנקבע ותשתתפו בהגרלה.
        <br><br>לחצו על העכבר כדי להמשיך.</p>","1","instructions","","","","","","","","","","","","","","","","","","","","","","","","",""
"","","","","","html-slider-response","4","1058719","0.0-4.0","2212f72e-a3dc-47f4-b922-1afcdaa05668","25376","
        <p style=""font-size: 42px;"">נתחיל עם דוגמא: 
        <br>ההגרלה מטה מציעה 65% סיכוי לזכות ב-₪40 
        <br>&emsp;&emsp;&emsp;&emsp;&emsp;&emsp;&emsp;&emsp;&ensp;35% סיכוי לזכות ב-₪0.
        <br><br>מה המחיר המירבי שתהיו מוכנים לשלם על כרטיס להגרלה זו בין 0 ל-₪80?
        <br>הזיזו את העכבר על פני המלבן ולחצו כדי לבצע בחירה.</p>
        
        <p style=""text-align: center;"">₪40<br>65%</p>

        <p id=""wtp"" style=""text-align:center; margin-top: 0px; margin-bottom: 0px; font-size: 40px"";>מוכנים לשלם: <span id=""c_p_y""></span></p>","60","example","20","","","","","","","","","","","","","","","","","","","","","","","",""
"","","","","","html-keyboard-response","5","1071830","0.0-5.0","2212f72e-a3dc-47f4-b922-1afcdaa05668","null","<p>יפה מאוד!
                <br> בחרתם שתהיו מוכנים לשלם ₪60 כדי להשתתף בהגרלה:
                <br><p style=""text-align: center;"">₪40<br>65%</p>
                <p>נשמע נכון?
                <br>נניח שהגרלה זו נבחרה בסוף הניסוי.
                <br>כעת המחשב יקבע מחיר עבורה באקראי.
                <br>לחצו על העכבר להמשך.</p>","1","example","","","","","","","","","","","","","","","","","","","","","","","","",""
"","","","","","html-keyboard-response","6","1084551","0.0-6.0","2212f72e-a3dc-47f4-b922-1afcdaa05668","null","<p>המחשב קבע מחיר: ₪75
                <br>ואתם בחרתם לשלם לכל היותר: ₪60
                <br><br>מכיוון שהמחיר שבחרתם נמוך מהמחיר שנקבע, לא תתשתתפו בהגרלה.
                <br>במקרה כזה, בסוף הניסוי תקבלו את כל התקציב ההתחלתי של ₪80.
                <br><br>לחצו על העכבר להמשך.</p>","1","example","","","","","","","","","","","","","","","","","","","","","","","","",""
"","","","","","html-slider-response","7","1103431","0.0-7.0","2212f72e-a3dc-47f4-b922-1afcdaa05668","18614","<p style=""font-size: 42px;"">הנה עוד דוגמא:
                <br>ההגרלה מטה מציעה 35% סיכוי לזכות ב-₪18 
                <br>&emsp;&emsp;&emsp;&emsp;&emsp;&emsp;&emsp;&emsp;&ensp;65% סיכוי לזכות ב-₪0.</p>
        
                <p style=""text-align: center;"">₪18<br>35%</p>
                <p id=""wtp"" style=""text-align:center; margin-top: 0px; margin-bottom: 0px; font-size: 40px"";>מוכנים לשלם: <span id=""c_p_y""></span></p>","30","example","39","","","","","","","","","","","","","","","","","","","","","","","",""
"","","","","","html-keyboard-response","8","1108102","0.0-8.0","2212f72e-a3dc-47f4-b922-1afcdaa05668","null","<p>הייתם מוכנים לשלם  ₪30 כדי להשתתף בהגרלה:
                <p style=""text-align: center;"">₪18<br>35%</p>
                <p>כעת נניח שהמחשב בחר את ההגרלה הזו בסוף הניסוי, וקבע עבורה מחיר.
                <br><br>לחצו על העכבר כדי להמשיך.</p>","1","instructions","","","","","","","","","","","","","","","","","","","","","","","","",""
"","","","","","html-keyboard-response","9","1120710","0.0-9.0","2212f72e-a3dc-47f4-b922-1afcdaa05668","null","<p>המחשב קבע מחיר להגרלה: ₪9<br>ואתם בחרתם לשלם לכל היותר: ₪30
                <br><br>כעת המחיר שנקבע נמוך מזה שבחרתם, אז תשלמו את המחיר שקבע המחשב (₪9) ותשתתפו בהגרלה.
                <br>במקרה כזה, תסיימו את הניסוי עם תקציב של ₪71 ועם סיכוי לזכות ב-₪18 נוספים מההגרלה.
                <br>כלומר, תוכלו לקבל ₪71 אם לא תזכו בהגרלה, או ₪89 אם תזכו בהגרלה.
                <br><br>לחצו על העכבר להמשך.</p>","1","example","","","","","","","","","","","","","","","","","","","","","","","","",""
"","","","","","html-keyboard-response","10","1129031","0.0-10.0","2212f72e-a3dc-47f4-b922-1afcdaa05668","null","<p>במהלך הניסוי, קודם תראו את ההגרלה ורק לאחר מכן תוכלו לבחור.
                <p>כמו כן, יהיו לכם מספר שניות מוגבל להגיב.
                <p>בואו ננסה זאת עם ההגרלה הקודמת.
                <br>לחצו על העכבר כדי להמשיך.</p>","1","instructions","","","","","","","","","","","","","","","","","","","","","","","","",""
"","","","","","html-slider-response","11","1130311","0.0-11.0","2212f72e-a3dc-47f4-b922-1afcdaa05668","1000","
                    <p style=""text-align: center;"">₪18<br>35%</p>
                    <p id=""wtp"" style=""text-align:center; margin-top: 0px; margin-bottom: 0px; font-size: 40px"";>&ensp;</p>","58","instructions","0","","","","","","","","","","","","","","","","","","","","","","","",""
"","","","","","html-slider-response","12","1133926","0.0-12.0","2212f72e-a3dc-47f4-b922-1afcdaa05668","3349","
                    <p style=""text-align: center;"">₪18<br>35%</p>
                    <p id=""wtp"" style=""text-align:center; margin-top: 0px; margin-bottom: 0px; font-size: 40px"";>מוכנים לשלם: <span id=""c_p_y""></span></p>","5","instructions","64","","","","","","","","","","","","","","","","","","","","","","","",""
"","","","","","html-keyboard-response","13","1137054","0.0-13.0","2212f72e-a3dc-47f4-b922-1afcdaa05668","null","<p>יפה. הפעם בחרתם לשלם לכל היותר ₪5.
                <br><br>לחצו על העכבר כדי להמשיך.</p>","1","instructions","","","","","","","","","","","","","","","","","","","","","","","","",""
"","","","","","html-keyboard-response","14","1141542","0.0-15.0","2212f72e-a3dc-47f4-b922-1afcdaa05668","null","<p>כעת נתחיל את הניסוי.
                <br><br>אתם תראו הגרלות ותתבקשו לבחור כמה תהיו מוכנים לשלם כדי להשתתף בהן.
                <br>יש לכם תקציב של ₪80 עבור כל הגרלה.
                <br>בסוף הניסוי הגרלה אחת תבחר באקראי ותשוחק.
                <br><br>לחצו על העכבר כדי להתחיל את הניסוי.</p>","1","instructions","","","","","","","","","","","","","","","","","","","","","","","","",""
"","","","","","html-keyboard-response","15","1142795","0.0-16.0","2212f72e-a3dc-47f4-b922-1afcdaa05668","null","<p style=""text-align: center;"">+</p>","null","fixation","","","","","","","","","","","","","","","","","","","","","","","","",""
"","","","","","html-slider-response","16","1143799","0.0-17.0-0.0","2212f72e-a3dc-47f4-b922-1afcdaa05668","1000","
                  <p style=""text-align: center;"">₪4
                                                <br>25%</p>
                  <p id=""wtp"" style=""text-align:center; margin-top: 0px; margin-bottom: 0px; font-size: 40px"";>&ensp;</p>","-","viewing","0","1","6C,29B,30C","","","","","","","","","","","","","","","","","","","","","",""
"","","","","","html-slider-response","17","1145183","0.0-17.0-1.0","2212f72e-a3dc-47f4-b922-1afcdaa05668","1381","
                  <p style=""text-align: center;"">₪4
                                                <br>25%</p>
                  <p id=""wtp"" style=""text-align:center; margin-top: 0px; margin-bottom: 0px; font-size: 40px"";>מוכנים לשלם: <span id=""c_p_y""></span></p>","14","evaluation","66","1","6C,29B,30C","25","4","14","","","","","","","","","","","","","","","","","","",""
"","","","","","html-keyboard-response","18","1146136","0.0-17.0-2.0","2212f72e-a3dc-47f4-b922-1afcdaa05668","null","<p style=""text-align: center;"">+</p>","null","fixation","","","","","","","","","","","","","","","","","","","","","","","","",""
"","","","","","html-slider-response","19","1147142","0.0-17.0-0.1","2212f72e-a3dc-47f4-b922-1afcdaa05668","1000","
                  <p style=""text-align: center;"">₪71
                                                <br>55%</p>
                  <p id=""wtp"" style=""text-align:center; margin-top: 0px; margin-bottom: 0px; font-size: 40px"";>&ensp;</p>","-","viewing","0","27","5B,18A","","","","","","","","","","","","","","","","","","","","","",""
"","","","","","html-slider-response","20","1148046","0.0-17.0-1.1","2212f72e-a3dc-47f4-b922-1afcdaa05668","903","
                  <p style=""text-align: center;"">₪71
                                                <br>55%</p>
                  <p id=""wtp"" style=""text-align:center; margin-top: 0px; margin-bottom: 0px; font-size: 40px"";>מוכנים לשלם: <span id=""c_p_y""></span></p>","45","evaluation","9","27","5B,18A","55","71","45","","","","","","","","","","","","","","","","","","",""
"","","","","","html-keyboard-response","21","1148843","0.0-17.0-2.1","2212f72e-a3dc-47f4-b922-1afcdaa05668","null","<p style=""text-align: center;"">+</p>","null","fixation","","","","","","","","","","","","","","","","","","","","","","","","",""
"","","","","","html-slider-response","22","1149846","0.0-17.0-0.2","2212f72e-a3dc-47f4-b922-1afcdaa05668","1000","
                  <p style=""text-align: center;"">₪4
                                                <br>50%</p>
                  <p id=""wtp"" style=""text-align:center; margin-top: 0px; margin-bottom: 0px; font-size: 40px"";>&ensp;</p>","-","viewing","0","2","4C,17B","","","","","","","","","","","","","","","","","","","","","",""
"","","","","","html-slider-response","23","1152167","0.0-17.0-1.2","2212f72e-a3dc-47f4-b922-1afcdaa05668","2319","
                  <p style=""text-align: center;"">₪4
                                                <br>50%</p>
                  <p id=""wtp"" style=""text-align:center; margin-top: 0px; margin-bottom: 0px; font-size: 40px"";>מוכנים לשלם: <span id=""c_p_y""></span></p>","3","evaluation","45","2","4C,17B","50","4","3","","","","","","","","","","","","","","","","","","",""
"","","","","","html-keyboard-response","24","1153660","0.0-17.0-2.2","2212f72e-a3dc-47f4-b922-1afcdaa05668","null","<p style=""text-align: center;"">+</p>","null","fixation","","","","","","","","","","","","","","","","","","","","","","","","",""
"","","","","","html-slider-response","25","1154668","0.0-17.0-0.3","2212f72e-a3dc-47f4-b922-1afcdaa05668","1000","
                  <p style=""text-align: center;"">₪11
                                                <br>45%</p>
                  <p id=""wtp"" style=""text-align:center; margin-top: 0px; margin-bottom: 0px; font-size: 40px"";>&ensp;</p>","-","viewing","0","6","14B,21C,25C","","","","","","","","","","","","","","","","","","","","","",""
"","","","","","html-slider-response","26","1157910","0.0-17.0-1.3","2212f72e-a3dc-47f4-b922-1afcdaa05668","3242","
                  <p style=""text-align: center;"">₪11
                                                <br>45%</p>
                  <p id=""wtp"" style=""text-align:center; margin-top: 0px; margin-bottom: 0px; font-size: 40px"";>מוכנים לשלם: <span id=""c_p_y""></span></p>","20","evaluation","47","6","14B,21C,25C","45","11","20","","","","","","","","","","","","","","","","","","",""
"","","","","","html-keyboard-response","27","1158889","0.0-17.0-2.3","2212f72e-a3dc-47f4-b922-1afcdaa05668","null","<p style=""text-align: center;"">+</p>","null","fixation","","","","","","","","","","","","","","","","","","","","","","","","",""
"","","","","","html-slider-response","28","1159905","0.0-17.0-0.4","2212f72e-a3dc-47f4-b922-1afcdaa05668","1000","
                  <p style=""text-align: center;"">₪61
                                                <br>55%</p>
                  <p id=""wtp"" style=""text-align:center; margin-top: 0px; margin-bottom: 0px; font-size: 40px"";>&ensp;</p>","-","viewing","0","23","7B,26B","","","","","","","","","","","","","","","","","","","","","",""
"","","","","","html-slider-response","29","1163614","0.0-17.0-1.4","2212f72e-a3dc-47f4-b922-1afcdaa05668","3708","
                  <p style=""text-align: center;"">₪61
                                                <br>55%</p>
                  <p id=""wtp"" style=""text-align:center; margin-top: 0px; margin-bottom: 0px; font-size: 40px"";>מוכנים לשלם: <span id=""c_p_y""></span></p>","40","evaluation","10","23","7B,26B","55","61","40","","","","","","","","","","","","","","","","","","",""
"","","","","","html-keyboard-response","30","1164502","0.0-17.0-2.4","2212f72e-a3dc-47f4-b922-1afcdaa05668","null","<p style=""text-align: center;"">+</p>","null","fixation","","","","","","","","","","","","","","","","","","","","","","","","",""
"","","","","","html-slider-response","31","1165517","0.0-17.0-0.5","2212f72e-a3dc-47f4-b922-1afcdaa05668","1000","
                  <p style=""text-align: center;"">₪11
                                                <br>20%</p>
                  <p id=""wtp"" style=""text-align:center; margin-top: 0px; margin-bottom: 0px; font-size: 40px"";>&ensp;</p>","-","viewing","0","4","12C,17C,23C,28C","","","","","","","","","","","","","","","","","","","","","",""
"","","","","","html-slider-response","32","1168558","0.0-17.0-1.5","2212f72e-a3dc-47f4-b922-1afcdaa05668","3041","
                  <p style=""text-align: center;"">₪11
                                                <br>20%</p>
                  <p id=""wtp"" style=""text-align:center; margin-top: 0px; margin-bottom: 0px; font-size: 40px"";>מוכנים לשלם: <span id=""c_p_y""></span></p>","5","evaluation","15","4","12C,17C,23C,28C","20","11","5","","","","","","","","","","","","","","","","","","",""
"","","","","","html-keyboard-response","33","1169580","0.0-17.0-2.5","2212f72e-a3dc-47f4-b922-1afcdaa05668","null","<p style=""text-align: center;"">+</p>","null","fixation","","","","","","","","","","","","","","","","","","","","","","","","",""
"","","","","","html-slider-response","34","1170594","0.0-17.0-0.6","2212f72e-a3dc-47f4-b922-1afcdaa05668","1000","
                  <p style=""text-align: center;"">₪36
                                                <br>60%</p>
                  <p id=""wtp"" style=""text-align:center; margin-top: 0px; margin-bottom: 0px; font-size: 40px"";>&ensp;</p>","-","viewing","0","12","1C,7C,15C","","","","","","","","","","","","","","","","","","","","","",""
"","","","","","html-slider-response","35","1174606","0.0-17.0-1.6","2212f72e-a3dc-47f4-b922-1afcdaa05668","null","
                  <p style=""text-align: center;"">₪36
                                                <br>60%</p>
                  <p id=""wtp"" style=""text-align:center; margin-top: 0px; margin-bottom: 0px; font-size: 40px"";>מוכנים לשלם: <span id=""c_p_y""></span></p>","null","evaluation","25","12","1C,7C,15C","60","36","46","","","","","","","","","","","","","","","","","","",""
"","","","","","html-keyboard-response","36","1175449","0.0-17.0-2.6","2212f72e-a3dc-47f4-b922-1afcdaa05668","null","<p style=""text-align: center;"">+</p>","null","fixation","","","","","","","","","","","","","","","","","","","","","","","","",""
"","","","","","html-slider-response","37","1176452","0.0-17.0-0.7","2212f72e-a3dc-47f4-b922-1afcdaa05668","1000","
                  <p style=""text-align: center;"">₪64
                                                <br>50%</p>
                  <p id=""wtp"" style=""text-align:center; margin-top: 0px; margin-bottom: 0px; font-size: 40px"";>&ensp;</p>","-","viewing","0","25","1B,3B,4A","","","","","","","","","","","","","","","","","","","","","",""
"","","","","","html-slider-response","38","1177862","0.0-17.0-1.7","2212f72e-a3dc-47f4-b922-1afcdaa05668","1408","
                  <p style=""text-align: center;"">₪64
                                                <br>50%</p>
                  <p id=""wtp"" style=""text-align:center; margin-top: 0px; margin-bottom: 0px; font-size: 40px"";>מוכנים לשלם: <span id=""c_p_y""></span></p>","51","evaluation","70","25","1B,3B,4A","50","64","51","","","","","","","","","","","","","","","","","","",""
"","","","","","html-keyboard-response","39","1178875","0.0-17.0-2.7","2212f72e-a3dc-47f4-b922-1afcdaa05668","null","<p style=""text-align: center;"">+</p>","null","fixation","","","","","","","","","","","","","","","","","","","","","","","","",""
"","","","","","html-slider-response","40","1179892","0.0-17.0-0.8","2212f72e-a3dc-47f4-b922-1afcdaa05668","1000","
                  <p style=""text-align: center;"">₪43
                                                <br>60%</p>
                  <p id=""wtp"" style=""text-align:center; margin-top: 0px; margin-bottom: 0px; font-size: 40px"";>&ensp;</p>","-","viewing","0","17","2A,7A,9A,15B","","","","","","","","","","","","","","","","","","","","","",""
"","","","","","html-slider-response","41","1181846","0.0-17.0-1.8","2212f72e-a3dc-47f4-b922-1afcdaa05668","1954","
                  <p style=""text-align: center;"">₪43
                                                <br>60%</p>
                  <p id=""wtp"" style=""text-align:center; margin-top: 0px; margin-bottom: 0px; font-size: 40px"";>מוכנים לשלם: <span id=""c_p_y""></span></p>","59","evaluation","4","17","2A,7A,9A,15B","60","43","59","","","","","","","","","","","","","","","","","","",""
"","","","","","html-keyboard-response","42","1182365","0.0-17.0-2.8","2212f72e-a3dc-47f4-b922-1afcdaa05668","null","<p style=""text-align: center;"">+</p>","null","fixation","","","","","","","","","","","","","","","","","","","","","","","","",""
"","","","","","html-slider-response","43","1183367","0.0-17.0-0.9","2212f72e-a3dc-47f4-b922-1afcdaa05668","1000","
                  <p style=""text-align: center;"">₪16
                                                <br>20%</p>
                  <p id=""wtp"" style=""text-align:center; margin-top: 0px; margin-bottom: 0px; font-size: 40px"";>&ensp;</p>","-","viewing","0","8","14C,17A,20C,27A","","","","","","","","","","","","","","","","","","","","","",""
"","","","","","html-slider-response","44","1184286","0.0-17.0-1.9","2212f72e-a3dc-47f4-b922-1afcdaa05668","918","
                  <p style=""text-align: center;"">₪16
                                                <br>20%</p>
                  <p id=""wtp"" style=""text-align:center; margin-top: 0px; margin-bottom: 0px; font-size: 40px"";>מוכנים לשלם: <span id=""c_p_y""></span></p>","12","evaluation","32","8","14C,17A,20C,27A","20","16","12","","","","","","","","","","","","","","","","","","",""
"","","","","","html-keyboard-response","45","1184859","0.0-17.0-2.9","2212f72e-a3dc-47f4-b922-1afcdaa05668","null","<p style=""text-align: center;"">+</p>","null","fixation","","","","","","","","","","","","","","","","","","","","","","","","",""
"","","","","","html-slider-response","46","1185872","0.0-17.0-0.10","2212f72e-a3dc-47f4-b922-1afcdaa05668","1000","
                  <p style=""text-align: center;"">₪36
                                                <br>70%</p>
                  <p id=""wtp"" style=""text-align:center; margin-top: 0px; margin-bottom: 0px; font-size: 40px"";>&ensp;</p>","-","viewing","0","13","3A,5C,10B","","","","","","","","","","","","","","","","","","","","","",""
"","","","","","html-slider-response","47","1187550","0.0-17.0-1.10","2212f72e-a3dc-47f4-b922-1afcdaa05668","1677","
                  <p style=""text-align: center;"">₪36
                                                <br>70%</p>
                  <p id=""wtp"" style=""text-align:center; margin-top: 0px; margin-bottom: 0px; font-size: 40px"";>מוכנים לשלם: <span id=""c_p_y""></span></p>","61","evaluation","14","13","3A,5C,10B","70","36","60","","","","","","","","","","","","","","","","","","",""
"","","","","","html-keyboard-response","48","1188104","0.0-17.0-2.10","2212f72e-a3dc-47f4-b922-1afcdaa05668","null","<p style=""text-align: center;"">+</p>","null","fixation","","","","","","","","","","","","","","","","","","","","","","","","",""
"","","","","","html-slider-response","49","1189111","0.0-17.0-0.11","2212f72e-a3dc-47f4-b922-1afcdaa05668","1000","
                  <p style=""text-align: center;"">₪39
                                                <br>65%</p>
                  <p id=""wtp"" style=""text-align:center; margin-top: 0px; margin-bottom: 0px; font-size: 40px"";>&ensp;</p>","-","viewing","0","16","1A,15A,26C","","","","","","","","","","","","","","","","","","","","","",""
"","","","","","html-slider-response","50","1190382","0.0-17.0-1.11","2212f72e-a3dc-47f4-b922-1afcdaa05668","1270","
                  <p style=""text-align: center;"">₪39
                                                <br>65%</p>
                  <p id=""wtp"" style=""text-align:center; margin-top: 0px; margin-bottom: 0px; font-size: 40px"";>מוכנים לשלם: <span id=""c_p_y""></span></p>","49","evaluation","66","16","1A,15A,26C","65","39","49","","","","","","","","","","","","","","","","","","",""
"","","","","","html-keyboard-response","51","1191154","0.0-17.0-2.11","2212f72e-a3dc-47f4-b922-1afcdaa05668","null","<p style=""text-align: center;"">+</p>","null","fixation","","","","","","","","","","","","","","","","","","","","","","","","",""
"","","","","","html-slider-response","52","1192170","0.0-17.0-0.12","2212f72e-a3dc-47f4-b922-1afcdaa05668","1000","
                  <p style=""text-align: center;"">₪11
                                                <br>25%</p>
                  <p id=""wtp"" style=""text-align:center; margin-top: 0px; margin-bottom: 0px; font-size: 40px"";>&ensp;</p>","-","viewing","0","5","12A,27B,28B,30B","","","","","","","","","","","","","","","","","","","","","",""
"","","","","","html-slider-response","53","1193142","0.0-17.0-1.12","2212f72e-a3dc-47f4-b922-1afcdaa05668","972","
                  <p style=""text-align: center;"">₪11
                                                <br>25%</p>
                  <p id=""wtp"" style=""text-align:center; margin-top: 0px; margin-bottom: 0px; font-size: 40px"";>מוכנים לשלם: <span id=""c_p_y""></span></p>","9","evaluation","15","5","12A,27B,28B,30B","25","11","9","","","","","","","","","","","","","","","","","","",""
"","","","","","html-keyboard-response","54","1194186","0.0-17.0-2.12","2212f72e-a3dc-47f4-b922-1afcdaa05668","null","<p style=""text-align: center;"">+</p>","null","fixation","","","","","","","","","","","","","","","","","","","","","","","","",""
"","","","","","html-slider-response","55","1195188","0.0-17.0-0.13","2212f72e-a3dc-47f4-b922-1afcdaa05668","1000","
                  <p style=""text-align: center;"">₪61
                                                <br>45%</p>
                  <p id=""wtp"" style=""text-align:center; margin-top: 0px; margin-bottom: 0px; font-size: 40px"";>&ensp;</p>","-","viewing","0","22","10A,11A","","","","","","","","","","","","","","","","","","","","","",""
"","","","","","html-slider-response","56","1197014","0.0-17.0-1.13","2212f72e-a3dc-47f4-b922-1afcdaa05668","1825","
                  <p style=""text-align: center;"">₪61
                                                <br>45%</p>
                  <p id=""wtp"" style=""text-align:center; margin-top: 0px; margin-bottom: 0px; font-size: 40px"";>מוכנים לשלם: <span id=""c_p_y""></span></p>","38","evaluation","53","22","10A,11A","45","61","38","","","","","","","","","","","","","","","","","","",""
"","","","","","html-keyboard-response","57","1197917","0.0-17.0-2.13","2212f72e-a3dc-47f4-b922-1afcdaa05668","null","<p style=""text-align: center;"">+</p>","null","fixation","","","","","","","","","","","","","","","","","","","","","","","","",""
"","","","","","html-slider-response","58","1198920","0.0-17.0-0.14","2212f72e-a3dc-47f4-b922-1afcdaa05668","1000","
                  <p style=""text-align: center;"">₪58
                                                <br>40%</p>
                  <p id=""wtp"" style=""text-align:center; margin-top: 0px; margin-bottom: 0px; font-size: 40px"";>&ensp;</p>","-","viewing","0","20","10C,13A,19C,21B","","","","","","","","","","","","","","","","","","","","","",""
"","","","","","html-slider-response","59","1201454","0.0-17.0-1.14","2212f72e-a3dc-47f4-b922-1afcdaa05668","2534","
                  <p style=""text-align: center;"">₪58
                                                <br>40%</p>
                  <p id=""wtp"" style=""text-align:center; margin-top: 0px; margin-bottom: 0px; font-size: 40px"";>מוכנים לשלם: <span id=""c_p_y""></span></p>","31","evaluation","25","20","10C,13A,19C,21B","40","58","31","","","","","","","","","","","","","","","","","","",""
"","","","","","html-keyboard-response","60","1202620","0.0-17.0-2.14","2212f72e-a3dc-47f4-b922-1afcdaa05668","null","<p style=""text-align: center;"">+</p>","null","fixation","","","","","","","","","","","","","","","","","","","","","","","","",""
"","","","","","html-slider-response","61","1203627","0.0-17.0-0.15","2212f72e-a3dc-47f4-b922-1afcdaa05668","1000","
                  <p style=""text-align: center;"">₪64
                                                <br>25%</p>
                  <p id=""wtp"" style=""text-align:center; margin-top: 0px; margin-bottom: 0px; font-size: 40px"";>&ensp;</p>","-","viewing","0","24","6A,21A","","","","","","","","","","","","","","","","","","","","","",""
"","","","","","html-slider-response","62","1207634","0.0-17.0-1.15","2212f72e-a3dc-47f4-b922-1afcdaa05668","null","
                  <p style=""text-align: center;"">₪64
                                                <br>25%</p>
                  <p id=""wtp"" style=""text-align:center; margin-top: 0px; margin-bottom: 0px; font-size: 40px"";>מוכנים לשלם: <span id=""c_p_y""></span></p>","null","evaluation","22","24","6A,21A","25","64","22","","","","","","","","","","","","","","","","","","",""
"","","","","","html-keyboard-response","63","1208232","0.0-17.0-2.15","2212f72e-a3dc-47f4-b922-1afcdaa05668","null","<p style=""text-align: center;"">+</p>","null","fixation","","","","","","","","","","","","","","","","","","","","","","","","",""
"","","","","","html-slider-response","64","1209239","0.0-17.0-0.16","2212f72e-a3dc-47f4-b922-1afcdaa05668","1000","
                  <p style=""text-align: center;"">₪79
                                                <br>65%</p>
                  <p id=""wtp"" style=""text-align:center; margin-top: 0px; margin-bottom: 0px; font-size: 40px"";>&ensp;</p>","-","viewing","0","31","8A","","","","","","","","","","","","","","","","","","","","","",""
"","","","","","html-slider-response","65","1210886","0.0-17.0-1.16","2212f72e-a3dc-47f4-b922-1afcdaa05668","1646","
                  <p style=""text-align: center;"">₪79
                                                <br>65%</p>
                  <p id=""wtp"" style=""text-align:center; margin-top: 0px; margin-bottom: 0px; font-size: 40px"";>מוכנים לשלם: <span id=""c_p_y""></span></p>","48","evaluation","20","31","8A","65","79","47","","","","","","","","","","","","","","","","","","",""
"","","","","","html-keyboard-response","66","1212114","0.0-17.0-2.16","2212f72e-a3dc-47f4-b922-1afcdaa05668","null","<p style=""text-align: center;"">+</p>","null","fixation","","","","","","","","","","","","","","","","","","","","","","","","",""
"","","","","","html-slider-response","67","1213122","0.0-17.0-0.17","2212f72e-a3dc-47f4-b922-1afcdaa05668","1000","
                  <p style=""text-align: center;"">₪71
                                                <br>75%</p>
                  <p id=""wtp"" style=""text-align:center; margin-top: 0px; margin-bottom: 0px; font-size: 40px"";>&ensp;</p>","-","viewing","0","28","8B","","","","","","","","","","","","","","","","","","","","","",""
"","","","","","html-slider-response","68","1214118","0.0-17.0-1.17","2212f72e-a3dc-47f4-b922-1afcdaa05668","995","
                  <p style=""text-align: center;"">₪71
                                                <br>75%</p>
                  <p id=""wtp"" style=""text-align:center; margin-top: 0px; margin-bottom: 0px; font-size: 40px"";>מוכנים לשלם: <span id=""c_p_y""></span></p>","68","evaluation","63","28","8B","75","71","68","","","","","","","","","","","","","","","","","","",""
"","","","","","html-keyboard-response","69","1214990","0.0-17.0-2.17","2212f72e-a3dc-47f4-b922-1afcdaa05668","null","<p style=""text-align: center;"">+</p>","null","fixation","","","","","","","","","","","","","","","","","","","","","","","","",""
"","","","","","html-slider-response","70","1215994","0.0-17.0-0.18","2212f72e-a3dc-47f4-b922-1afcdaa05668","1000","
                  <p style=""text-align: center;"">₪36
                                                <br>30%</p>
                  <p id=""wtp"" style=""text-align:center; margin-top: 0px; margin-bottom: 0px; font-size: 40px"";>&ensp;</p>","-","viewing","0","11","3C,20A,22A","","","","","","","","","","","","","","","","","","","","","",""
"","","","","","html-slider-response","71","1216526","0.0-17.0-1.18","2212f72e-a3dc-47f4-b922-1afcdaa05668","531","
                  <p style=""text-align: center;"">₪36
                                                <br>30%</p>
                  <p id=""wtp"" style=""text-align:center; margin-top: 0px; margin-bottom: 0px; font-size: 40px"";>מוכנים לשלם: <span id=""c_p_y""></span></p>","17","evaluation","79","11","3C,20A,22A","30","36","17","","","","","","","","","","","","","","","","","","",""
"","","","","","html-keyboard-response","72","1217327","0.0-17.0-2.18","2212f72e-a3dc-47f4-b922-1afcdaa05668","null","<p style=""text-align: center;"">+</p>","null","fixation","","","","","","","","","","","","","","","","","","","","","","","","",""
"","","","","","html-slider-response","73","1218330","0.0-17.0-0.19","2212f72e-a3dc-47f4-b922-1afcdaa05668","1000","
                  <p style=""text-align: center;"">₪36
                                                <br>75%</p>
                  <p id=""wtp"" style=""text-align:center; margin-top: 0px; margin-bottom: 0px; font-size: 40px"";>&ensp;</p>","-","viewing","0","14","4B,5A,13B,16B","","","","","","","","","","","","","","","","","","","","","",""
"","","","","","html-slider-response","74","1220182","0.0-17.0-1.19","2212f72e-a3dc-47f4-b922-1afcdaa05668","1851","
                  <p style=""text-align: center;"">₪36
                                                <br>75%</p>
                  <p id=""wtp"" style=""text-align:center; margin-top: 0px; margin-bottom: 0px; font-size: 40px"";>מוכנים לשלם: <span id=""c_p_y""></span></p>","69","evaluation","69","14","4B,5A,13B,16B","75","36","69","","","","","","","","","","","","","","","","","","",""
"","","","","","html-keyboard-response","75","1221374","0.0-17.0-2.19","2212f72e-a3dc-47f4-b922-1afcdaa05668","null","<p style=""text-align: center;"">+</p>","null","fixation","","","","","","","","","","","","","","","","","","","","","","","","",""
"","","","","","html-slider-response","76","1222384","0.0-17.0-0.20","2212f72e-a3dc-47f4-b922-1afcdaa05668","1000","
                  <p style=""text-align: center;"">₪58
                                                <br>45%</p>
                  <p id=""wtp"" style=""text-align:center; margin-top: 0px; margin-bottom: 0px; font-size: 40px"";>&ensp;</p>","-","viewing","0","21","11C,18C,25A","","","","","","","","","","","","","","","","","","","","","",""
"","","","","","html-slider-response","77","1223614","0.0-17.0-1.20","2212f72e-a3dc-47f4-b922-1afcdaa05668","1229","
                  <p style=""text-align: center;"">₪58
                                                <br>45%</p>
                  <p id=""wtp"" style=""text-align:center; margin-top: 0px; margin-bottom: 0px; font-size: 40px"";>מוכנים לשלם: <span id=""c_p_y""></span></p>","32","evaluation","51","21","11C,18C,25A","45","58","32","","","","","","","","","","","","","","","","","","",""
"","","","","","html-keyboard-response","78","1224713","0.0-17.0-2.20","2212f72e-a3dc-47f4-b922-1afcdaa05668","null","<p style=""text-align: center;"">+</p>","null","fixation","","","","","","","","","","","","","","","","","","","","","","","","",""
"","","","","","html-slider-response","79","1225715","0.0-17.0-0.21","2212f72e-a3dc-47f4-b922-1afcdaa05668","1000","
                  <p style=""text-align: center;"">₪11
                                                <br>75%</p>
                  <p id=""wtp"" style=""text-align:center; margin-top: 0px; margin-bottom: 0px; font-size: 40px"";>&ensp;</p>","-","viewing","0","7","6B,18B,22C,24C,29A","","","","","","","","","","","","","","","","","","","","","",""
"","","","","","html-slider-response","80","1226566","0.0-17.0-1.21","2212f72e-a3dc-47f4-b922-1afcdaa05668","850","
                  <p style=""text-align: center;"">₪11
                                                <br>75%</p>
                  <p id=""wtp"" style=""text-align:center; margin-top: 0px; margin-bottom: 0px; font-size: 40px"";>מוכנים לשלם: <span id=""c_p_y""></span></p>","48","evaluation","47","7","6B,18B,22C,24C,29A","75","11","48","","","","","","","","","","","","","","","","","","",""
"","","","","","html-keyboard-response","81","1227635","0.0-17.0-2.21","2212f72e-a3dc-47f4-b922-1afcdaa05668","null","<p style=""text-align: center;"">+</p>","null","fixation","","","","","","","","","","","","","","","","","","","","","","","","",""
"","","","","","html-slider-response","82","1228645","0.0-17.0-0.22","2212f72e-a3dc-47f4-b922-1afcdaa05668","1000","
                  <p style=""text-align: center;"">₪79
                                                <br>40%</p>
                  <p id=""wtp"" style=""text-align:center; margin-top: 0px; margin-bottom: 0px; font-size: 40px"";>&ensp;</p>","-","viewing","0","30","9B","","","","","","","","","","","","","","","","","","","","","",""
"","","","","","html-slider-response","83","1229998","0.0-17.0-1.22","2212f72e-a3dc-47f4-b922-1afcdaa05668","1351","
                  <p style=""text-align: center;"">₪79
                                                <br>40%</p>
                  <p id=""wtp"" style=""text-align:center; margin-top: 0px; margin-bottom: 0px; font-size: 40px"";>מוכנים לשלם: <span id=""c_p_y""></span></p>","33","evaluation","34","30","9B","40","79","33","","","","","","","","","","","","","","","","","","",""
"","","","","","html-keyboard-response","84","1231103","0.0-17.0-2.22","2212f72e-a3dc-47f4-b922-1afcdaa05668","null","<p style=""text-align: center;"">+</p>","null","fixation","","","","","","","","","","","","","","","","","","","","","","","","",""
"","","","","","html-slider-response","85","1232105","0.0-17.0-0.23","2212f72e-a3dc-47f4-b922-1afcdaa05668","1000","
                  <p style=""text-align: center;"">₪18
                                                <br>25%</p>
                  <p id=""wtp"" style=""text-align:center; margin-top: 0px; margin-bottom: 0px; font-size: 40px"";>&ensp;</p>","-","viewing","0","9","14A,23A","","","","","","","","","","","","","","","","","","","","","",""
"","","","","","html-slider-response","86","1232702","0.0-17.0-1.23","2212f72e-a3dc-47f4-b922-1afcdaa05668","596","
                  <p style=""text-align: center;"">₪18
                                                <br>25%</p>
                  <p id=""wtp"" style=""text-align:center; margin-top: 0px; margin-bottom: 0px; font-size: 40px"";>מוכנים לשלם: <span id=""c_p_y""></span></p>","16","evaluation","4","9","14A,23A","25","18","16","","","","","","","","","","","","","","","","","","",""
"","","","","","html-keyboard-response","87","1234204","0.0-17.0-2.23","2212f72e-a3dc-47f4-b922-1afcdaa05668","null","<p style=""text-align: center;"">+</p>","null","fixation","","","","","","","","","","","","","","","","","","","","","","","","",""
"","","","","","html-slider-response","88","1235213","0.0-17.0-0.24","2212f72e-a3dc-47f4-b922-1afcdaa05668","1000","
                  <p style=""text-align: center;"">₪4
                                                <br>75%</p>
                  <p id=""wtp"" style=""text-align:center; margin-top: 0px; margin-bottom: 0px; font-size: 40px"";>&ensp;</p>","-","viewing","0","3","12B,20B,23B,27C,29C","","","","","","","","","","","","","","","","","","","","","",""
"","","","","","html-slider-response","89","1236774","0.0-17.0-1.24","2212f72e-a3dc-47f4-b922-1afcdaa05668","1561","
                  <p style=""text-align: center;"">₪4
                                                <br>75%</p>
                  <p id=""wtp"" style=""text-align:center; margin-top: 0px; margin-bottom: 0px; font-size: 40px"";>מוכנים לשלם: <span id=""c_p_y""></span></p>","69","evaluation","13","3","12B,20B,23B,27C,29C","75","4","69","","","","","","","","","","","","","","","","","","",""
"","","","","","html-keyboard-response","90","1237813","0.0-17.0-2.24","2212f72e-a3dc-47f4-b922-1afcdaa05668","null","<p style=""text-align: center;"">+</p>","null","fixation","","","","","","","","","","","","","","","","","","","","","","","","",""
"","","","","","html-slider-response","91","1238822","0.0-17.0-0.25","2212f72e-a3dc-47f4-b922-1afcdaa05668","1000","
                  <p style=""text-align: center;"">₪39
                                                <br>60%</p>
                  <p id=""wtp"" style=""text-align:center; margin-top: 0px; margin-bottom: 0px; font-size: 40px"";>&ensp;</p>","-","viewing","0","15","9C,25B","","","","","","","","","","","","","","","","","","","","","",""
"","","","","","html-slider-response","92","1241302","0.0-17.0-1.25","2212f72e-a3dc-47f4-b922-1afcdaa05668","2479","
                  <p style=""text-align: center;"">₪39
                                                <br>60%</p>
                  <p id=""wtp"" style=""text-align:center; margin-top: 0px; margin-bottom: 0px; font-size: 40px"";>מוכנים לשלם: <span id=""c_p_y""></span></p>","43","evaluation","65","15","9C,25B","60","39","43","","","","","","","","","","","","","","","","","","",""
"","","","","","html-keyboard-response","93","1242527","0.0-17.0-2.25","2212f72e-a3dc-47f4-b922-1afcdaa05668","null","<p style=""text-align: center;"">+</p>","null","fixation","","","","","","","","","","","","","","","","","","","","","","","","",""
"","","","","","html-slider-response","94","1243530","0.0-17.0-0.26","2212f72e-a3dc-47f4-b922-1afcdaa05668","1000","
                  <p style=""text-align: center;"">₪71
                                                <br>45%</p>
                  <p id=""wtp"" style=""text-align:center; margin-top: 0px; margin-bottom: 0px; font-size: 40px"";>&ensp;</p>","-","viewing","0","26","2B,16A","","","","","","","","","","","","","","","","","","","","","",""
"","","","","","html-slider-response","95","1245542","0.0-17.0-1.26","2212f72e-a3dc-47f4-b922-1afcdaa05668","2010","
                  <p style=""text-align: center;"">₪71
                                                <br>45%</p>
                  <p id=""wtp"" style=""text-align:center; margin-top: 0px; margin-bottom: 0px; font-size: 40px"";>מוכנים לשלם: <span id=""c_p_y""></span></p>","34","evaluation","5","26","2B,16A","45","71","34","","","","","","","","","","","","","","","","","","",""
"","","","","","html-keyboard-response","96","1246136","0.0-17.0-2.26","2212f72e-a3dc-47f4-b922-1afcdaa05668","null","<p style=""text-align: center;"">+</p>","null","fixation","","","","","","","","","","","","","","","","","","","","","","","","",""
"","","","","","html-slider-response","97","1247148","0.0-17.0-0.27","2212f72e-a3dc-47f4-b922-1afcdaa05668","1000","
                  <p style=""text-align: center;"">₪76
                                                <br>65%</p>
                  <p id=""wtp"" style=""text-align:center; margin-top: 0px; margin-bottom: 0px; font-size: 40px"";>&ensp;</p>","-","viewing","0","29","8C,19A,24B","","","","","","","","","","","","","","","","","","","","","",""
"","","","","","html-slider-response","98","1248510","0.0-17.0-1.27","2212f72e-a3dc-47f4-b922-1afcdaa05668","1361","
                  <p style=""text-align: center;"">₪76
                                                <br>65%</p>
                  <p id=""wtp"" style=""text-align:center; margin-top: 0px; margin-bottom: 0px; font-size: 40px"";>מוכנים לשלם: <span id=""c_p_y""></span></p>","69","evaluation","57","29","8C,19A,24B","65","76","69","","","","","","","","","","","","","","","","","","",""
"","","","","","html-keyboard-response","99","1249923","0.0-17.0-2.27","2212f72e-a3dc-47f4-b922-1afcdaa05668","null","<p style=""text-align: center;"">+</p>","null","fixation","","","","","","","","","","","","","","","","","","","","","","","","",""
"","","","","","html-slider-response","100","1250925","0.0-17.0-0.28","2212f72e-a3dc-47f4-b922-1afcdaa05668","1000","
                  <p style=""text-align: center;"">₪18
                                                <br>50%</p>
                  <p id=""wtp"" style=""text-align:center; margin-top: 0px; margin-bottom: 0px; font-size: 40px"";>&ensp;</p>","-","viewing","0","10","2C,16C,22B,28A","","","","","","","","","","","","","","","","","","","","","",""
"","","","","","html-slider-response","101","1253486","0.0-17.0-1.28","2212f72e-a3dc-47f4-b922-1afcdaa05668","2560","
                  <p style=""text-align: center;"">₪18
                                                <br>50%</p>
                  <p id=""wtp"" style=""text-align:center; margin-top: 0px; margin-bottom: 0px; font-size: 40px"";>מוכנים לשלם: <span id=""c_p_y""></span></p>","60","evaluation","2","10","2C,16C,22B,28A","50","18","60","","","","","","","","","","","","","","","","","","",""
"","","","","","html-keyboard-response","102","1254046","0.0-17.0-2.28","2212f72e-a3dc-47f4-b922-1afcdaa05668","null","<p style=""text-align: center;"">+</p>","null","fixation","","","","","","","","","","","","","","","","","","","","","","","","",""
"","","","","","html-slider-response","103","1255060","0.0-17.0-0.29","2212f72e-a3dc-47f4-b922-1afcdaa05668","1000","
                  <p style=""text-align: center;"">₪43
                                                <br>75%</p>
                  <p id=""wtp"" style=""text-align:center; margin-top: 0px; margin-bottom: 0px; font-size: 40px"";>&ensp;</p>","-","viewing","0","18","11B,19B,24A,26A","","","","","","","","","","","","","","","","","","","","","",""
"","","","","","html-slider-response","104","1257806","0.0-17.0-1.29","2212f72e-a3dc-47f4-b922-1afcdaa05668","2744","
                  <p style=""text-align: center;"">₪43
                                                <br>75%</p>
                  <p id=""wtp"" style=""text-align:center; margin-top: 0px; margin-bottom: 0px; font-size: 40px"";>מוכנים לשלם: <span id=""c_p_y""></span></p>","72","evaluation","61","18","11B,19B,24A,26A","75","43","72","","","","","","","","","","","","","","","","","","",""
"","","","","","html-keyboard-response","105","1258674","0.0-17.0-2.29","2212f72e-a3dc-47f4-b922-1afcdaa05668","null","<p style=""text-align: center;"">+</p>","null","fixation","","","","","","","","","","","","","","","","","","","","","","","","",""
"","","","","","html-slider-response","106","1259677","0.0-17.0-0.30","2212f72e-a3dc-47f4-b922-1afcdaa05668","1000","
                  <p style=""text-align: center;"">₪58
                                                <br>30%</p>
                  <p id=""wtp"" style=""text-align:center; margin-top: 0px; margin-bottom: 0px; font-size: 40px"";>&ensp;</p>","-","viewing","0","19","13C,30A","","","","","","","","","","","","","","","","","","","","","",""
"","","","","","html-slider-response","107","1262622","0.0-17.0-1.30","2212f72e-a3dc-47f4-b922-1afcdaa05668","2944","
                  <p style=""text-align: center;"">₪58
                                                <br>30%</p>
                  <p id=""wtp"" style=""text-align:center; margin-top: 0px; margin-bottom: 0px; font-size: 40px"";>מוכנים לשלם: <span id=""c_p_y""></span></p>","30","evaluation","33","19","13C,30A","30","58","30","","","","","","","","","","","","","","","","","","",""
"","","","","","html-keyboard-response","108","1263955","0.0-17.0-2.30","2212f72e-a3dc-47f4-b922-1afcdaa05668","null","<p style=""text-align: center;"">+</p>","null","fixation","","","","","","","","","","","","","","","","","","","","","","","","",""
"","","","","","html-keyboard-response","109","1264960","0.0-18.0","2212f72e-a3dc-47f4-b922-1afcdaa05668","null","<p style=""text-align: center;"">+</p>","null","fixation","","","","","","","","","","","","","","","","","","","","","","","","",""
"","","","","","html-keyboard-response","110","1270070","0.0-19.0","2212f72e-a3dc-47f4-b922-1afcdaa05668","null","<p>הפסקה.
          <br>לחצו כדי להמשיך.</p>","1","scan_wait","","","","","","","","","","","","","","","","","","","","","","","","",""
"","","","","","html-keyboard-response","111","1271078","0.0-20.0","2212f72e-a3dc-47f4-b922-1afcdaa05668","null","<p style=""text-align: center;"">+</p>","null","fixation","","","","","","","","","","","","","","","","","","","","","","","","",""
"","","","","","html-slider-response","112","1272079","0.0-21.0-0.0","2212f72e-a3dc-47f4-b922-1afcdaa05668","1000","
                  <p style=""text-align: center;"">₪58
                                                <br>30%</p>
                  <p id=""wtp"" style=""text-align:center; margin-top: 0px; margin-bottom: 0px; font-size: 40px"";>&ensp;</p>","-","viewing","0","19","13C,30A","","","","","","","","","","","","","","","","","","","","","",""
"","","","","","html-slider-response","113","1273758","0.0-21.0-1.0","2212f72e-a3dc-47f4-b922-1afcdaa05668","1678","
                  <p style=""text-align: center;"">₪58
                                                <br>30%</p>
                  <p id=""wtp"" style=""text-align:center; margin-top: 0px; margin-bottom: 0px; font-size: 40px"";>מוכנים לשלם: <span id=""c_p_y""></span></p>","15","evaluation","25","19","13C,30A","30","58","15","","","","","","","","","","","","","","","","","","",""
"","","","","","html-keyboard-response","114","1275014","0.0-21.0-2.0","2212f72e-a3dc-47f4-b922-1afcdaa05668","null","<p style=""text-align: center;"">+</p>","null","fixation","","","","","","","","","","","","","","","","","","","","","","","","",""
"","","","","","html-slider-response","115","1276021","0.0-21.0-0.1","2212f72e-a3dc-47f4-b922-1afcdaa05668","1000","
                  <p style=""text-align: center;"">₪64
                                                <br>50%</p>
                  <p id=""wtp"" style=""text-align:center; margin-top: 0px; margin-bottom: 0px; font-size: 40px"";>&ensp;</p>","-","viewing","0","25","1B,3B,4A","","","","","","","","","","","","","","","","","","","","","",""
"","","","","","html-slider-response","116","1277926","0.0-21.0-1.1","2212f72e-a3dc-47f4-b922-1afcdaa05668","1904","
                  <p style=""text-align: center;"">₪64
                                                <br>50%</p>
                  <p id=""wtp"" style=""text-align:center; margin-top: 0px; margin-bottom: 0px; font-size: 40px"";>מוכנים לשלם: <span id=""c_p_y""></span></p>","41","evaluation","72","25","1B,3B,4A","50","64","41","","","","","","","","","","","","","","","","","","",""
"","","","","","html-keyboard-response","117","1279223","0.0-21.0-2.1","2212f72e-a3dc-47f4-b922-1afcdaa05668","null","<p style=""text-align: center;"">+</p>","null","fixation","","","","","","","","","","","","","","","","","","","","","","","","",""
"","","","","","html-slider-response","118","1280226","0.0-21.0-0.2","2212f72e-a3dc-47f4-b922-1afcdaa05668","1000","
                  <p style=""text-align: center;"">₪76
                                                <br>65%</p>
                  <p id=""wtp"" style=""text-align:center; margin-top: 0px; margin-bottom: 0px; font-size: 40px"";>&ensp;</p>","-","viewing","0","29","8C,19A,24B","","","","","","","","","","","","","","","","","","","","","",""
"","","","","","html-slider-response","119","1282158","0.0-21.0-1.2","2212f72e-a3dc-47f4-b922-1afcdaa05668","1931","
                  <p style=""text-align: center;"">₪76
                                                <br>65%</p>
                  <p id=""wtp"" style=""text-align:center; margin-top: 0px; margin-bottom: 0px; font-size: 40px"";>מוכנים לשלם: <span id=""c_p_y""></span></p>","72","evaluation","4","29","8C,19A,24B","65","76","72","","","","","","","","","","","","","","","","","","",""
"","","","","","html-keyboard-response","120","1282845","0.0-21.0-2.2","2212f72e-a3dc-47f4-b922-1afcdaa05668","null","<p style=""text-align: center;"">+</p>","null","fixation","","","","","","","","","","","","","","","","","","","","","","","","",""
"","","","","","html-slider-response","121","1283846","0.0-21.0-0.3","2212f72e-a3dc-47f4-b922-1afcdaa05668","1000","
                  <p style=""text-align: center;"">₪16
                                                <br>20%</p>
                  <p id=""wtp"" style=""text-align:center; margin-top: 0px; margin-bottom: 0px; font-size: 40px"";>&ensp;</p>","-","viewing","0","8","14C,17A,20C,27A","","","","","","","","","","","","","","","","","","","","","",""
"","","","","","html-slider-response","122","1284582","0.0-21.0-1.3","2212f72e-a3dc-47f4-b922-1afcdaa05668","735","
                  <p style=""text-align: center;"">₪16
                                                <br>20%</p>
                  <p id=""wtp"" style=""text-align:center; margin-top: 0px; margin-bottom: 0px; font-size: 40px"";>מוכנים לשלם: <span id=""c_p_y""></span></p>","19","evaluation","71","8","14C,17A,20C,27A","20","16","19","","","","","","","","","","","","","","","","","","",""
"","","","","","html-keyboard-response","123","1285660","0.0-21.0-2.3","2212f72e-a3dc-47f4-b922-1afcdaa05668","null","<p style=""text-align: center;"">+</p>","null","fixation","","","","","","","","","","","","","","","","","","","","","","","","",""
"","","","","","html-slider-response","124","1286663","0.0-21.0-0.4","2212f72e-a3dc-47f4-b922-1afcdaa05668","1000","
                  <p style=""text-align: center;"">₪43
                                                <br>75%</p>
                  <p id=""wtp"" style=""text-align:center; margin-top: 0px; margin-bottom: 0px; font-size: 40px"";>&ensp;</p>","-","viewing","0","18","11B,19B,24A,26A","","","","","","","","","","","","","","","","","","","","","",""
"","","","","","html-slider-response","125","1287846","0.0-21.0-1.4","2212f72e-a3dc-47f4-b922-1afcdaa05668","1182","
                  <p style=""text-align: center;"">₪43
                                                <br>75%</p>
                  <p id=""wtp"" style=""text-align:center; margin-top: 0px; margin-bottom: 0px; font-size: 40px"";>מוכנים לשלם: <span id=""c_p_y""></span></p>","60","evaluation","74","18","11B,19B,24A,26A","75","43","60","","","","","","","","","","","","","","","","","","",""
"","","","","","html-keyboard-response","126","1288476","0.0-21.0-2.4","2212f72e-a3dc-47f4-b922-1afcdaa05668","null","<p style=""text-align: center;"">+</p>","null","fixation","","","","","","","","","","","","","","","","","","","","","","","","",""
"","","","","","html-slider-response","127","1289493","0.0-21.0-0.5","2212f72e-a3dc-47f4-b922-1afcdaa05668","1000","
                  <p style=""text-align: center;"">₪79
                                                <br>65%</p>
                  <p id=""wtp"" style=""text-align:center; margin-top: 0px; margin-bottom: 0px; font-size: 40px"";>&ensp;</p>","-","viewing","0","31","8A","","","","","","","","","","","","","","","","","","","","","",""
"","","","","","html-slider-response","128","1291238","0.0-21.0-1.5","2212f72e-a3dc-47f4-b922-1afcdaa05668","1744","
                  <p style=""text-align: center;"">₪79
                                                <br>65%</p>
                  <p id=""wtp"" style=""text-align:center; margin-top: 0px; margin-bottom: 0px; font-size: 40px"";>מוכנים לשלם: <span id=""c_p_y""></span></p>","49","evaluation","65","31","8A","65","79","49","","","","","","","","","","","","","","","","","","",""
"","","","","","html-keyboard-response","129","1292394","0.0-21.0-2.5","2212f72e-a3dc-47f4-b922-1afcdaa05668","null","<p style=""text-align: center;"">+</p>","null","fixation","","","","","","","","","","","","","","","","","","","","","","","","",""
"","","","","","html-slider-response","130","1293399","0.0-21.0-0.6","2212f72e-a3dc-47f4-b922-1afcdaa05668","1000","
                  <p style=""text-align: center;"">₪71
                                                <br>75%</p>
                  <p id=""wtp"" style=""text-align:center; margin-top: 0px; margin-bottom: 0px; font-size: 40px"";>&ensp;</p>","-","viewing","0","28","8B","","","","","","","","","","","","","","","","","","","","","",""
"","","","","","html-slider-response","131","1295958","0.0-21.0-1.6","2212f72e-a3dc-47f4-b922-1afcdaa05668","2559","
                  <p style=""text-align: center;"">₪71
                                                <br>75%</p>
                  <p id=""wtp"" style=""text-align:center; margin-top: 0px; margin-bottom: 0px; font-size: 40px"";>מוכנים לשלם: <span id=""c_p_y""></span></p>","70","evaluation","35","28","8B","75","71","70","","","","","","","","","","","","","","","","","","",""
"","","","","","html-keyboard-response","132","1297089","0.0-21.0-2.6","2212f72e-a3dc-47f4-b922-1afcdaa05668","null","<p style=""text-align: center;"">+</p>","null","fixation","","","","","","","","","","","","","","","","","","","","","","","","",""
"","","","","","html-slider-response","133","1298091","0.0-21.0-0.7","2212f72e-a3dc-47f4-b922-1afcdaa05668","1000","
                  <p style=""text-align: center;"">₪58
                                                <br>40%</p>
                  <p id=""wtp"" style=""text-align:center; margin-top: 0px; margin-bottom: 0px; font-size: 40px"";>&ensp;</p>","-","viewing","0","20","10C,13A,19C,21B","","","","","","","","","","","","","","","","","","","","","",""
"","","","","","html-slider-response","134","1301014","0.0-21.0-1.7","2212f72e-a3dc-47f4-b922-1afcdaa05668","2922","
                  <p style=""text-align: center;"">₪58
                                                <br>40%</p>
                  <p id=""wtp"" style=""text-align:center; margin-top: 0px; margin-bottom: 0px; font-size: 40px"";>מוכנים לשלם: <span id=""c_p_y""></span></p>","39","evaluation","26","20","10C,13A,19C,21B","40","58","39","","","","","","","","","","","","","","","","","","",""
"","","","","","html-keyboard-response","135","1301551","0.0-21.0-2.7","2212f72e-a3dc-47f4-b922-1afcdaa05668","null","<p style=""text-align: center;"">+</p>","null","fixation","","","","","","","","","","","","","","","","","","","","","","","","",""
"","","","","","html-slider-response","136","1302559","0.0-21.0-0.8","2212f72e-a3dc-47f4-b922-1afcdaa05668","1000","
                  <p style=""text-align: center;"">₪4
                                                <br>25%</p>
                  <p id=""wtp"" style=""text-align:center; margin-top: 0px; margin-bottom: 0px; font-size: 40px"";>&ensp;</p>","-","viewing","0","1","6C,29B,30C","","","","","","","","","","","","","","","","","","","","","",""
"","","","","","html-slider-response","137","1304622","0.0-21.0-1.8","2212f72e-a3dc-47f4-b922-1afcdaa05668","2062","
                  <p style=""text-align: center;"">₪4
                                                <br>25%</p>
                  <p id=""wtp"" style=""text-align:center; margin-top: 0px; margin-bottom: 0px; font-size: 40px"";>מוכנים לשלם: <span id=""c_p_y""></span></p>","6","evaluation","57","1","6C,29B,30C","25","4","6","","","","","","","","","","","","","","","","","","",""
"","","","","","html-keyboard-response","138","1305380","0.0-21.0-2.8","2212f72e-a3dc-47f4-b922-1afcdaa05668","null","<p style=""text-align: center;"">+</p>","null","fixation","","","","","","","","","","","","","","","","","","","","","","","","",""
"","","","","","html-slider-response","139","1306385","0.0-21.0-0.9","2212f72e-a3dc-47f4-b922-1afcdaa05668","1000","
                  <p style=""text-align: center;"">₪4
                                                <br>75%</p>
                  <p id=""wtp"" style=""text-align:center; margin-top: 0px; margin-bottom: 0px; font-size: 40px"";>&ensp;</p>","-","viewing","0","3","12B,20B,23B,27C,29C","","","","","","","","","","","","","","","","","","","","","",""
"","","","","","html-slider-response","140","1308798","0.0-21.0-1.9","2212f72e-a3dc-47f4-b922-1afcdaa05668","2412","
                  <p style=""text-align: center;"">₪4
                                                <br>75%</p>
                  <p id=""wtp"" style=""text-align:center; margin-top: 0px; margin-bottom: 0px; font-size: 40px"";>מוכנים לשלם: <span id=""c_p_y""></span></p>","20","evaluation","68","3","12B,20B,23B,27C,29C","75","4","20","","","","","","","","","","","","","","","","","","",""
"","","","","","html-keyboard-response","141","1309805","0.0-21.0-2.9","2212f72e-a3dc-47f4-b922-1afcdaa05668","null","<p style=""text-align: center;"">+</p>","null","fixation","","","","","","","","","","","","","","","","","","","","","","","","",""
"","","","","","html-slider-response","142","1310811","0.0-21.0-0.10","2212f72e-a3dc-47f4-b922-1afcdaa05668","1000","
                  <p style=""text-align: center;"">₪39
                                                <br>65%</p>
                  <p id=""wtp"" style=""text-align:center; margin-top: 0px; margin-bottom: 0px; font-size: 40px"";>&ensp;</p>","-","viewing","0","16","1A,15A,26C","","","","","","","","","","","","","","","","","","","","","",""
"","","","","","html-slider-response","143","1312974","0.0-21.0-1.10","2212f72e-a3dc-47f4-b922-1afcdaa05668","2162","
                  <p style=""text-align: center;"">₪39
                                                <br>65%</p>
                  <p id=""wtp"" style=""text-align:center; margin-top: 0px; margin-bottom: 0px; font-size: 40px"";>מוכנים לשלם: <span id=""c_p_y""></span></p>","40","evaluation","28","16","1A,15A,26C","65","39","40","","","","","","","","","","","","","","","","","","",""
"","","","","","html-keyboard-response","144","1313710","0.0-21.0-2.10","2212f72e-a3dc-47f4-b922-1afcdaa05668","null","<p style=""text-align: center;"">+</p>","null","fixation","","","","","","","","","","","","","","","","","","","","","","","","",""
"","","","","","html-slider-response","145","1314726","0.0-21.0-0.11","2212f72e-a3dc-47f4-b922-1afcdaa05668","1000","
                  <p style=""text-align: center;"">₪11
                                                <br>45%</p>
                  <p id=""wtp"" style=""text-align:center; margin-top: 0px; margin-bottom: 0px; font-size: 40px"";>&ensp;</p>","-","viewing","0","6","14B,21C,25C","","","","","","","","","","","","","","","","","","","","","",""
"","","","","","html-slider-response","146","1316158","0.0-21.0-1.11","2212f72e-a3dc-47f4-b922-1afcdaa05668","1431","
                  <p style=""text-align: center;"">₪11
                                                <br>45%</p>
                  <p id=""wtp"" style=""text-align:center; margin-top: 0px; margin-bottom: 0px; font-size: 40px"";>מוכנים לשלם: <span id=""c_p_y""></span></p>","32","evaluation","38","6","14B,21C,25C","45","11","32","","","","","","","","","","","","","","","","","","",""
"","","","","","html-keyboard-response","147","1317118","0.0-21.0-2.11","2212f72e-a3dc-47f4-b922-1afcdaa05668","null","<p style=""text-align: center;"">+</p>","null","fixation","","","","","","","","","","","","","","","","","","","","","","","","",""
"","","","","","html-slider-response","148","1318129","0.0-21.0-0.12","2212f72e-a3dc-47f4-b922-1afcdaa05668","1000","
                  <p style=""text-align: center;"">₪61
                                                <br>45%</p>
                  <p id=""wtp"" style=""text-align:center; margin-top: 0px; margin-bottom: 0px; font-size: 40px"";>&ensp;</p>","-","viewing","0","22","10A,11A","","","","","","","","","","","","","","","","","","","","","",""
"","","","","","html-slider-response","149","1319838","0.0-21.0-1.12","2212f72e-a3dc-47f4-b922-1afcdaa05668","1708","
                  <p style=""text-align: center;"">₪61
                                                <br>45%</p>
                  <p id=""wtp"" style=""text-align:center; margin-top: 0px; margin-bottom: 0px; font-size: 40px"";>מוכנים לשלם: <span id=""c_p_y""></span></p>","30","evaluation","18","22","10A,11A","45","61","30","","","","","","","","","","","","","","","","","","",""
"","","","","","html-keyboard-response","150","1321241","0.0-21.0-2.12","2212f72e-a3dc-47f4-b922-1afcdaa05668","null","<p style=""text-align: center;"">+</p>","null","fixation","","","","","","","","","","","","","","","","","","","","","","","","",""
"","","","","","html-slider-response","151","1322251","0.0-21.0-0.13","2212f72e-a3dc-47f4-b922-1afcdaa05668","1000","
                  <p style=""text-align: center;"">₪36
                                                <br>70%</p>
                  <p id=""wtp"" style=""text-align:center; margin-top: 0px; margin-bottom: 0px; font-size: 40px"";>&ensp;</p>","-","viewing","0","13","3A,5C,10B","","","","","","","","","","","","","","","","","","","","","",""
"","","","","","html-slider-response","152","1323312","0.0-21.0-1.13","2212f72e-a3dc-47f4-b922-1afcdaa05668","1059","
                  <p style=""text-align: center;"">₪36
                                                <br>70%</p>
                  <p id=""wtp"" style=""text-align:center; margin-top: 0px; margin-bottom: 0px; font-size: 40px"";>מוכנים לשלם: <span id=""c_p_y""></span></p>","60","evaluation","38","13","3A,5C,10B","70","36","60","","","","","","","","","","","","","","","","","","",""
"","","","","","html-keyboard-response","153","1324799","0.0-21.0-2.13","2212f72e-a3dc-47f4-b922-1afcdaa05668","null","<p style=""text-align: center;"">+</p>","null","fixation","","","","","","","","","","","","","","","","","","","","","","","","",""
"","","","","","html-slider-response","154","1325801","0.0-21.0-0.14","2212f72e-a3dc-47f4-b922-1afcdaa05668","1000","
                  <p style=""text-align: center;"">₪4
                                                <br>50%</p>
                  <p id=""wtp"" style=""text-align:center; margin-top: 0px; margin-bottom: 0px; font-size: 40px"";>&ensp;</p>","-","viewing","0","2","4C,17B","","","","","","","","","","","","","","","","","","","","","",""
"","","","","","html-slider-response","155","1328846","0.0-21.0-1.14","2212f72e-a3dc-47f4-b922-1afcdaa05668","3045","
                  <p style=""text-align: center;"">₪4
                                                <br>50%</p>
                  <p id=""wtp"" style=""text-align:center; margin-top: 0px; margin-bottom: 0px; font-size: 40px"";>מוכנים לשלם: <span id=""c_p_y""></span></p>","25","evaluation","56","2","4C,17B","50","4","25","","","","","","","","","","","","","","","","","","",""
"","","","","","html-keyboard-response","156","1329734","0.0-21.0-2.14","2212f72e-a3dc-47f4-b922-1afcdaa05668","null","<p style=""text-align: center;"">+</p>","null","fixation","","","","","","","","","","","","","","","","","","","","","","","","",""
"","","","","","html-slider-response","157","1330743","0.0-21.0-0.15","2212f72e-a3dc-47f4-b922-1afcdaa05668","1000","
                  <p style=""text-align: center;"">₪11
                                                <br>75%</p>
                  <p id=""wtp"" style=""text-align:center; margin-top: 0px; margin-bottom: 0px; font-size: 40px"";>&ensp;</p>","-","viewing","0","7","6B,18B,22C,24C,29A","","","","","","","","","","","","","","","","","","","","","",""
"","","","","","html-slider-response","158","1332254","0.0-21.0-1.15","2212f72e-a3dc-47f4-b922-1afcdaa05668","1510","
                  <p style=""text-align: center;"">₪11
                                                <br>75%</p>
                  <p id=""wtp"" style=""text-align:center; margin-top: 0px; margin-bottom: 0px; font-size: 40px"";>מוכנים לשלם: <span id=""c_p_y""></span></p>","23","evaluation","2","7","6B,18B,22C,24C,29A","75","11","23","","","","","","","","","","","","","","","","","","",""
"","","","","","html-keyboard-response","159","1333159","0.0-21.0-2.15","2212f72e-a3dc-47f4-b922-1afcdaa05668","null","<p style=""text-align: center;"">+</p>","null","fixation","","","","","","","","","","","","","","","","","","","","","","","","",""
"","","","","","html-slider-response","160","1334160","0.0-21.0-0.16","2212f72e-a3dc-47f4-b922-1afcdaa05668","1000","
                  <p style=""text-align: center;"">₪58
                                                <br>45%</p>
                  <p id=""wtp"" style=""text-align:center; margin-top: 0px; margin-bottom: 0px; font-size: 40px"";>&ensp;</p>","-","viewing","0","21","11C,18C,25A","","","","","","","","","","","","","","","","","","","","","",""
"","","","","","html-slider-response","161","1335102","0.0-21.0-1.16","2212f72e-a3dc-47f4-b922-1afcdaa05668","941","
                  <p style=""text-align: center;"">₪58
                                                <br>45%</p>
                  <p id=""wtp"" style=""text-align:center; margin-top: 0px; margin-bottom: 0px; font-size: 40px"";>מוכנים לשלם: <span id=""c_p_y""></span></p>","41","evaluation","62","21","11C,18C,25A","45","58","41","","","","","","","","","","","","","","","","","","",""
"","","","","","html-keyboard-response","162","1335693","0.0-21.0-2.16","2212f72e-a3dc-47f4-b922-1afcdaa05668","null","<p style=""text-align: center;"">+</p>","null","fixation","","","","","","","","","","","","","","","","","","","","","","","","",""
"","","","","","html-slider-response","163","1336708","0.0-21.0-0.17","2212f72e-a3dc-47f4-b922-1afcdaa05668","1000","
                  <p style=""text-align: center;"">₪18
                                                <br>25%</p>
                  <p id=""wtp"" style=""text-align:center; margin-top: 0px; margin-bottom: 0px; font-size: 40px"";>&ensp;</p>","-","viewing","0","9","14A,23A","","","","","","","","","","","","","","","","","","","","","",""
"","","","","","html-slider-response","164","1338566","0.0-21.0-1.17","2212f72e-a3dc-47f4-b922-1afcdaa05668","1857","
                  <p style=""text-align: center;"">₪18
                                                <br>25%</p>
                  <p id=""wtp"" style=""text-align:center; margin-top: 0px; margin-bottom: 0px; font-size: 40px"";>מוכנים לשלם: <span id=""c_p_y""></span></p>","30","evaluation","41","9","14A,23A","25","18","30","","","","","","","","","","","","","","","","","","",""
"","","","","","html-keyboard-response","165","1340062","0.0-21.0-2.17","2212f72e-a3dc-47f4-b922-1afcdaa05668","null","<p style=""text-align: center;"">+</p>","null","fixation","","","","","","","","","","","","","","","","","","","","","","","","",""
"","","","","","html-slider-response","166","1341074","0.0-21.0-0.18","2212f72e-a3dc-47f4-b922-1afcdaa05668","1000","
                  <p style=""text-align: center;"">₪64
                                                <br>25%</p>
                  <p id=""wtp"" style=""text-align:center; margin-top: 0px; margin-bottom: 0px; font-size: 40px"";>&ensp;</p>","-","viewing","0","24","6A,21A","","","","","","","","","","","","","","","","","","","","","",""
"","","","","","html-slider-response","167","1343246","0.0-21.0-1.18","2212f72e-a3dc-47f4-b922-1afcdaa05668","2171","
                  <p style=""text-align: center;"">₪64
                                                <br>25%</p>
                  <p id=""wtp"" style=""text-align:center; margin-top: 0px; margin-bottom: 0px; font-size: 40px"";>מוכנים לשלם: <span id=""c_p_y""></span></p>","27","evaluation","62","24","6A,21A","25","64","27","","","","","","","","","","","","","","","","","","",""
"","","","","","html-keyboard-response","168","1344479","0.0-21.0-2.18","2212f72e-a3dc-47f4-b922-1afcdaa05668","null","<p style=""text-align: center;"">+</p>","null","fixation","","","","","","","","","","","","","","","","","","","","","","","","",""
"","","","","","html-slider-response","169","1345490","0.0-21.0-0.19","2212f72e-a3dc-47f4-b922-1afcdaa05668","1000","
                  <p style=""text-align: center;"">₪71
                                                <br>45%</p>
                  <p id=""wtp"" style=""text-align:center; margin-top: 0px; margin-bottom: 0px; font-size: 40px"";>&ensp;</p>","-","viewing","0","26","2B,16A","","","","","","","","","","","","","","","","","","","","","",""
"","","","","","html-slider-response","170","1347502","0.0-21.0-1.19","2212f72e-a3dc-47f4-b922-1afcdaa05668","2012","
                  <p style=""text-align: center;"">₪71
                                                <br>45%</p>
                  <p id=""wtp"" style=""text-align:center; margin-top: 0px; margin-bottom: 0px; font-size: 40px"";>מוכנים לשלם: <span id=""c_p_y""></span></p>","50","evaluation","4","26","2B,16A","45","71","50","","","","","","","","","","","","","","","","","","",""
"","","","","","html-keyboard-response","171","1348831","0.0-21.0-2.19","2212f72e-a3dc-47f4-b922-1afcdaa05668","null","<p style=""text-align: center;"">+</p>","null","fixation","","","","","","","","","","","","","","","","","","","","","","","","",""
"","","","","","html-slider-response","172","1349843","0.0-21.0-0.20","2212f72e-a3dc-47f4-b922-1afcdaa05668","1000","
                  <p style=""text-align: center;"">₪11
                                                <br>25%</p>
                  <p id=""wtp"" style=""text-align:center; margin-top: 0px; margin-bottom: 0px; font-size: 40px"";>&ensp;</p>","-","viewing","0","5","12A,27B,28B,30B","","","","","","","","","","","","","","","","","","","","","",""
"","","","","","html-slider-response","173","1352486","0.0-21.0-1.20","2212f72e-a3dc-47f4-b922-1afcdaa05668","2643","
                  <p style=""text-align: center;"">₪11
                                                <br>25%</p>
                  <p id=""wtp"" style=""text-align:center; margin-top: 0px; margin-bottom: 0px; font-size: 40px"";>מוכנים לשלם: <span id=""c_p_y""></span></p>","10","evaluation","66","5","12A,27B,28B,30B","25","11","10","","","","","","","","","","","","","","","","","","",""
"","","","","","html-keyboard-response","174","1353559","0.0-21.0-2.20","2212f72e-a3dc-47f4-b922-1afcdaa05668","null","<p style=""text-align: center;"">+</p>","null","fixation","","","","","","","","","","","","","","","","","","","","","","","","",""
"","","","","","html-slider-response","175","1354576","0.0-21.0-0.21","2212f72e-a3dc-47f4-b922-1afcdaa05668","1000","
                  <p style=""text-align: center;"">₪39
                                                <br>60%</p>
                  <p id=""wtp"" style=""text-align:center; margin-top: 0px; margin-bottom: 0px; font-size: 40px"";>&ensp;</p>","-","viewing","0","15","9C,25B","","","","","","","","","","","","","","","","","","","","","",""
"","","","","","html-slider-response","176","1356974","0.0-21.0-1.21","2212f72e-a3dc-47f4-b922-1afcdaa05668","2397","
                  <p style=""text-align: center;"">₪39
                                                <br>60%</p>
                  <p id=""wtp"" style=""text-align:center; margin-top: 0px; margin-bottom: 0px; font-size: 40px"";>מוכנים לשלם: <span id=""c_p_y""></span></p>","40","evaluation","6","15","9C,25B","60","39","40","","","","","","","","","","","","","","","","","","",""
"","","","","","html-keyboard-response","177","1357579","0.0-21.0-2.21","2212f72e-a3dc-47f4-b922-1afcdaa05668","null","<p style=""text-align: center;"">+</p>","null","fixation","","","","","","","","","","","","","","","","","","","","","","","","",""
"","","","","","html-slider-response","178","1358594","0.0-21.0-0.22","2212f72e-a3dc-47f4-b922-1afcdaa05668","1000","
                  <p style=""text-align: center;"">₪61
                                                <br>55%</p>
                  <p id=""wtp"" style=""text-align:center; margin-top: 0px; margin-bottom: 0px; font-size: 40px"";>&ensp;</p>","-","viewing","0","23","7B,26B","","","","","","","","","","","","","","","","","","","","","",""
"","","","","","html-slider-response","179","1360406","0.0-21.0-1.22","2212f72e-a3dc-47f4-b922-1afcdaa05668","1810","
                  <p style=""text-align: center;"">₪61
                                                <br>55%</p>
                  <p id=""wtp"" style=""text-align:center; margin-top: 0px; margin-bottom: 0px; font-size: 40px"";>מוכנים לשלם: <span id=""c_p_y""></span></p>","59","evaluation","54","23","7B,26B","55","61","59","","","","","","","","","","","","","","","","","","",""
"","","","","","html-keyboard-response","180","1361254","0.0-21.0-2.22","2212f72e-a3dc-47f4-b922-1afcdaa05668","null","<p style=""text-align: center;"">+</p>","null","fixation","","","","","","","","","","","","","","","","","","","","","","","","",""
"","","","","","html-slider-response","181","1362261","0.0-21.0-0.23","2212f72e-a3dc-47f4-b922-1afcdaa05668","1000","
                  <p style=""text-align: center;"">₪11
                                                <br>20%</p>
                  <p id=""wtp"" style=""text-align:center; margin-top: 0px; margin-bottom: 0px; font-size: 40px"";>&ensp;</p>","-","viewing","0","4","12C,17C,23C,28C","","","","","","","","","","","","","","","","","","","","","",""
"","","","","","html-slider-response","182","1363958","0.0-21.0-1.23","2212f72e-a3dc-47f4-b922-1afcdaa05668","1695","
                  <p style=""text-align: center;"">₪11
                                                <br>20%</p>
                  <p id=""wtp"" style=""text-align:center; margin-top: 0px; margin-bottom: 0px; font-size: 40px"";>מוכנים לשלם: <span id=""c_p_y""></span></p>","7","evaluation","19","4","12C,17C,23C,28C","20","11","7","","","","","","","","","","","","","","","","","","",""
"","","","","","html-keyboard-response","183","1364849","0.0-21.0-2.23","2212f72e-a3dc-47f4-b922-1afcdaa05668","null","<p style=""text-align: center;"">+</p>","null","fixation","","","","","","","","","","","","","","","","","","","","","","","","",""
"","","","","","html-slider-response","184","1365851","0.0-21.0-0.24","2212f72e-a3dc-47f4-b922-1afcdaa05668","1000","
                  <p style=""text-align: center;"">₪71
                                                <br>55%</p>
                  <p id=""wtp"" style=""text-align:center; margin-top: 0px; margin-bottom: 0px; font-size: 40px"";>&ensp;</p>","-","viewing","0","27","5B,18A","","","","","","","","","","","","","","","","","","","","","",""
"","","","","","html-slider-response","185","1368110","0.0-21.0-1.24","2212f72e-a3dc-47f4-b922-1afcdaa05668","2258","
                  <p style=""text-align: center;"">₪71
                                                <br>55%</p>
                  <p id=""wtp"" style=""text-align:center; margin-top: 0px; margin-bottom: 0px; font-size: 40px"";>מוכנים לשלם: <span id=""c_p_y""></span></p>","67","evaluation","57","27","5B,18A","55","71","67","","","","","","","","","","","","","","","","","","",""
"","","","","","html-keyboard-response","186","1368933","0.0-21.0-2.24","2212f72e-a3dc-47f4-b922-1afcdaa05668","null","<p style=""text-align: center;"">+</p>","null","fixation","","","","","","","","","","","","","","","","","","","","","","","","",""
"","","","","","html-slider-response","187","1369947","0.0-21.0-0.25","2212f72e-a3dc-47f4-b922-1afcdaa05668","1000","
                  <p style=""text-align: center;"">₪36
                                                <br>60%</p>
                  <p id=""wtp"" style=""text-align:center; margin-top: 0px; margin-bottom: 0px; font-size: 40px"";>&ensp;</p>","-","viewing","0","12","1C,7C,15C","","","","","","","","","","","","","","","","","","","","","",""
"","","","","","html-slider-response","188","1371302","0.0-21.0-1.25","2212f72e-a3dc-47f4-b922-1afcdaa05668","1355","
                  <p style=""text-align: center;"">₪36
                                                <br>60%</p>
                  <p id=""wtp"" style=""text-align:center; margin-top: 0px; margin-bottom: 0px; font-size: 40px"";>מוכנים לשלם: <span id=""c_p_y""></span></p>","40","evaluation","53","12","1C,7C,15C","60","36","40","","","","","","","","","","","","","","","","","","",""
"","","","","","html-keyboard-response","189","1371911","0.0-21.0-2.25","2212f72e-a3dc-47f4-b922-1afcdaa05668","null","<p style=""text-align: center;"">+</p>","null","fixation","","","","","","","","","","","","","","","","","","","","","","","","",""
"","","","","","html-slider-response","190","1372925","0.0-21.0-0.26","2212f72e-a3dc-47f4-b922-1afcdaa05668","1000","
                  <p style=""text-align: center;"">₪43
                                                <br>60%</p>
                  <p id=""wtp"" style=""text-align:center; margin-top: 0px; margin-bottom: 0px; font-size: 40px"";>&ensp;</p>","-","viewing","0","17","2A,7A,9A,15B","","","","","","","","","","","","","","","","","","","","","",""
"","","","","","html-slider-response","191","1374078","0.0-21.0-1.26","2212f72e-a3dc-47f4-b922-1afcdaa05668","1153","
                  <p style=""text-align: center;"">₪43
                                                <br>60%</p>
                  <p id=""wtp"" style=""text-align:center; margin-top: 0px; margin-bottom: 0px; font-size: 40px"";>מוכנים לשלם: <span id=""c_p_y""></span></p>","41","evaluation","38","17","2A,7A,9A,15B","60","43","41","","","","","","","","","","","","","","","","","","",""
"","","","","","html-keyboard-response","192","1374836","0.0-21.0-2.26","2212f72e-a3dc-47f4-b922-1afcdaa05668","null","<p style=""text-align: center;"">+</p>","null","fixation","","","","","","","","","","","","","","","","","","","","","","","","",""
"","","","","","html-slider-response","193","1375839","0.0-21.0-0.27","2212f72e-a3dc-47f4-b922-1afcdaa05668","1000","
                  <p style=""text-align: center;"">₪18
                                                <br>50%</p>
                  <p id=""wtp"" style=""text-align:center; margin-top: 0px; margin-bottom: 0px; font-size: 40px"";>&ensp;</p>","-","viewing","0","10","2C,16C,22B,28A","","","","","","","","","","","","","","","","","","","","","",""
"","","","","","html-slider-response","194","1377190","0.0-21.0-1.27","2212f72e-a3dc-47f4-b922-1afcdaa05668","1350","
                  <p style=""text-align: center;"">₪18
                                                <br>50%</p>
                  <p id=""wtp"" style=""text-align:center; margin-top: 0px; margin-bottom: 0px; font-size: 40px"";>מוכנים לשלם: <span id=""c_p_y""></span></p>","20","evaluation","22","10","2C,16C,22B,28A","50","18","20","","","","","","","","","","","","","","","","","","",""
"","","","","","html-keyboard-response","195","1377760","0.0-21.0-2.27","2212f72e-a3dc-47f4-b922-1afcdaa05668","null","<p style=""text-align: center;"">+</p>","null","fixation","","","","","","","","","","","","","","","","","","","","","","","","",""
"","","","","","html-slider-response","196","1378761","0.0-21.0-0.28","2212f72e-a3dc-47f4-b922-1afcdaa05668","1000","
                  <p style=""text-align: center;"">₪36
                                                <br>30%</p>
                  <p id=""wtp"" style=""text-align:center; margin-top: 0px; margin-bottom: 0px; font-size: 40px"";>&ensp;</p>","-","viewing","0","11","3C,20A,22A","","","","","","","","","","","","","","","","","","","","","",""
"","","","","","html-slider-response","197","1380030","0.0-21.0-1.28","2212f72e-a3dc-47f4-b922-1afcdaa05668","1268","
                  <p style=""text-align: center;"">₪36
                                                <br>30%</p>
                  <p id=""wtp"" style=""text-align:center; margin-top: 0px; margin-bottom: 0px; font-size: 40px"";>מוכנים לשלם: <span id=""c_p_y""></span></p>","32","evaluation","30","11","3C,20A,22A","30","36","32","","","","","","","","","","","","","","","","","","",""
"","","","","","html-keyboard-response","198","1381472","0.0-21.0-2.28","2212f72e-a3dc-47f4-b922-1afcdaa05668","null","<p style=""text-align: center;"">+</p>","null","fixation","","","","","","","","","","","","","","","","","","","","","","","","",""
"","","","","","html-slider-response","199","1382478","0.0-21.0-0.29","2212f72e-a3dc-47f4-b922-1afcdaa05668","1000","
                  <p style=""text-align: center;"">₪79
                                                <br>40%</p>
                  <p id=""wtp"" style=""text-align:center; margin-top: 0px; margin-bottom: 0px; font-size: 40px"";>&ensp;</p>","-","viewing","0","30","9B","","","","","","","","","","","","","","","","","","","","","",""
"","","","","","html-slider-response","200","1384406","0.0-21.0-1.29","2212f72e-a3dc-47f4-b922-1afcdaa05668","1927","
                  <p style=""text-align: center;"">₪79
                                                <br>40%</p>
                  <p id=""wtp"" style=""text-align:center; margin-top: 0px; margin-bottom: 0px; font-size: 40px"";>מוכנים לשלם: <span id=""c_p_y""></span></p>","22","evaluation","18","30","9B","40","79","22","","","","","","","","","","","","","","","","","","",""
"","","","","","html-keyboard-response","201","1385633","0.0-21.0-2.29","2212f72e-a3dc-47f4-b922-1afcdaa05668","null","<p style=""text-align: center;"">+</p>","null","fixation","","","","","","","","","","","","","","","","","","","","","","","","",""
"","","","","","html-slider-response","202","1386648","0.0-21.0-0.30","2212f72e-a3dc-47f4-b922-1afcdaa05668","1000","
                  <p style=""text-align: center;"">₪36
                                                <br>75%</p>
                  <p id=""wtp"" style=""text-align:center; margin-top: 0px; margin-bottom: 0px; font-size: 40px"";>&ensp;</p>","-","viewing","0","14","4B,5A,13B,16B","","","","","","","","","","","","","","","","","","","","","",""
"","","","","","html-slider-response","203","1388334","0.0-21.0-1.30","2212f72e-a3dc-47f4-b922-1afcdaa05668","1684","
                  <p style=""text-align: center;"">₪36
                                                <br>75%</p>
                  <p id=""wtp"" style=""text-align:center; margin-top: 0px; margin-bottom: 0px; font-size: 40px"";>מוכנים לשלם: <span id=""c_p_y""></span></p>","60","evaluation","80","14","4B,5A,13B,16B","75","36","60","","","","","","","","","","","","","","","","","","",""
"","","","","","html-keyboard-response","204","1389779","0.0-21.0-2.30","2212f72e-a3dc-47f4-b922-1afcdaa05668","null","<p style=""text-align: center;"">+</p>","null","fixation","","","","","","","","","","","","","","","","","","","","","","","","",""
"","","","","","html-keyboard-response","205","1390794","0.0-22.0","2212f72e-a3dc-47f4-b922-1afcdaa05668","null","<p style=""text-align: center;"">+</p>","null","fixation","","","","","","","","","","","","","","","","","","","","","","","","",""
"","","","","","html-keyboard-response","206","1391710","0.0-23.0","2212f72e-a3dc-47f4-b922-1afcdaa05668","null","<p>הפסקה.
          <br>לחצו כדי להמשיך.</p>","1","scan_wait","","","","","","","","","","","","","","","","","","","","","","","","",""
"","","","","","html-keyboard-response","207","1392720","0.0-24.0","2212f72e-a3dc-47f4-b922-1afcdaa05668","null","<p style=""text-align: center;"">+</p>","null","fixation","","","","","","","","","","","","","","","","","","","","","","","","",""
"","","","","","html-slider-response","208","1393724","0.0-25.0-0.0","2212f72e-a3dc-47f4-b922-1afcdaa05668","1000","
                  <p style=""text-align: center;"">₪79
                                                <br>40%</p>
                  <p id=""wtp"" style=""text-align:center; margin-top: 0px; margin-bottom: 0px; font-size: 40px"";>&ensp;</p>","-","viewing","0","30","9B","","","","","","","","","","","","","","","","","","","","","",""
"","","","","","html-slider-response","209","1394614","0.0-25.0-1.0","2212f72e-a3dc-47f4-b922-1afcdaa05668","889","
                  <p style=""text-align: center;"">₪79
                                                <br>40%</p>
                  <p id=""wtp"" style=""text-align:center; margin-top: 0px; margin-bottom: 0px; font-size: 40px"";>מוכנים לשלם: <span id=""c_p_y""></span></p>","60","evaluation","34","30","9B","40","79","60","","","","","","","","","","","","","","","","","","",""
"","","","","","html-keyboard-response","210","1395186","0.0-25.0-2.0","2212f72e-a3dc-47f4-b922-1afcdaa05668","null","<p style=""text-align: center;"">+</p>","null","fixation","","","","","","","","","","","","","","","","","","","","","","","","",""
"","","","","","html-slider-response","211","1396193","0.0-25.0-0.1","2212f72e-a3dc-47f4-b922-1afcdaa05668","1000","
                  <p style=""text-align: center;"">₪43
                                                <br>60%</p>
                  <p id=""wtp"" style=""text-align:center; margin-top: 0px; margin-bottom: 0px; font-size: 40px"";>&ensp;</p>","-","viewing","0","17","2A,7A,9A,15B","","","","","","","","","","","","","","","","","","","","","",""
"","","","","","html-slider-response","212","1397022","0.0-25.0-1.1","2212f72e-a3dc-47f4-b922-1afcdaa05668","828","
                  <p style=""text-align: center;"">₪43
                                                <br>60%</p>
                  <p id=""wtp"" style=""text-align:center; margin-top: 0px; margin-bottom: 0px; font-size: 40px"";>מוכנים לשלם: <span id=""c_p_y""></span></p>","51","evaluation","72","17","2A,7A,9A,15B","60","43","51","","","","","","","","","","","","","","","","","","",""
"","","","","","html-keyboard-response","213","1398091","0.0-25.0-2.1","2212f72e-a3dc-47f4-b922-1afcdaa05668","null","<p style=""text-align: center;"">+</p>","null","fixation","","","","","","","","","","","","","","","","","","","","","","","","",""
"","","","","","html-slider-response","214","1399102","0.0-25.0-0.2","2212f72e-a3dc-47f4-b922-1afcdaa05668","1000","
                  <p style=""text-align: center;"">₪76
                                                <br>65%</p>
                  <p id=""wtp"" style=""text-align:center; margin-top: 0px; margin-bottom: 0px; font-size: 40px"";>&ensp;</p>","-","viewing","0","29","8C,19A,24B","","","","","","","","","","","","","","","","","","","","","",""
"","","","","","html-slider-response","215","1401430","0.0-25.0-1.2","2212f72e-a3dc-47f4-b922-1afcdaa05668","2327","
                  <p style=""text-align: center;"">₪76
                                                <br>65%</p>
                  <p id=""wtp"" style=""text-align:center; margin-top: 0px; margin-bottom: 0px; font-size: 40px"";>מוכנים לשלם: <span id=""c_p_y""></span></p>","74","evaluation","16","29","8C,19A,24B","65","76","74","","","","","","","","","","","","","","","","","","",""
"","","","","","html-keyboard-response","216","1402757","0.0-25.0-2.2","2212f72e-a3dc-47f4-b922-1afcdaa05668","null","<p style=""text-align: center;"">+</p>","null","fixation","","","","","","","","","","","","","","","","","","","","","","","","",""
"","","","","","html-slider-response","217","1403762","0.0-25.0-0.3","2212f72e-a3dc-47f4-b922-1afcdaa05668","1000","
                  <p style=""text-align: center;"">₪71
                                                <br>45%</p>
                  <p id=""wtp"" style=""text-align:center; margin-top: 0px; margin-bottom: 0px; font-size: 40px"";>&ensp;</p>","-","viewing","0","26","2B,16A","","","","","","","","","","","","","","","","","","","","","",""
"","","","","","html-slider-response","218","1405470","0.0-25.0-1.3","2212f72e-a3dc-47f4-b922-1afcdaa05668","1707","
                  <p style=""text-align: center;"">₪71
                                                <br>45%</p>
                  <p id=""wtp"" style=""text-align:center; margin-top: 0px; margin-bottom: 0px; font-size: 40px"";>מוכנים לשלם: <span id=""c_p_y""></span></p>","39","evaluation","44","26","2B,16A","45","71","39","","","","","","","","","","","","","","","","","","",""
"","","","","","html-keyboard-response","219","1406078","0.0-25.0-2.3","2212f72e-a3dc-47f4-b922-1afcdaa05668","null","<p style=""text-align: center;"">+</p>","null","fixation","","","","","","","","","","","","","","","","","","","","","","","","",""
"","","","","","html-slider-response","220","1407084","0.0-25.0-0.4","2212f72e-a3dc-47f4-b922-1afcdaa05668","1000","
                  <p style=""text-align: center;"">₪58
                                                <br>30%</p>
                  <p id=""wtp"" style=""text-align:center; margin-top: 0px; margin-bottom: 0px; font-size: 40px"";>&ensp;</p>","-","viewing","0","19","13C,30A","","","","","","","","","","","","","","","","","","","","","",""
"","","","","","html-slider-response","221","1409758","0.0-25.0-1.4","2212f72e-a3dc-47f4-b922-1afcdaa05668","2673","
                  <p style=""text-align: center;"">₪58
                                                <br>30%</p>
                  <p id=""wtp"" style=""text-align:center; margin-top: 0px; margin-bottom: 0px; font-size: 40px"";>מוכנים לשלם: <span id=""c_p_y""></span></p>","32","evaluation","13","19","13C,30A","30","58","32","","","","","","","","","","","","","","","","","","",""
"","","","","","html-keyboard-response","222","1410350","0.0-25.0-2.4","2212f72e-a3dc-47f4-b922-1afcdaa05668","null","<p style=""text-align: center;"">+</p>","null","fixation","","","","","","","","","","","","","","","","","","","","","","","","",""
"","","","","","html-slider-response","223","1411367","0.0-25.0-0.5","2212f72e-a3dc-47f4-b922-1afcdaa05668","1000","
                  <p style=""text-align: center;"">₪58
                                                <br>45%</p>
                  <p id=""wtp"" style=""text-align:center; margin-top: 0px; margin-bottom: 0px; font-size: 40px"";>&ensp;</p>","-","viewing","0","21","11C,18C,25A","","","","","","","","","","","","","","","","","","","","","",""
"","","","","","html-slider-response","224","1413830","0.0-25.0-1.5","2212f72e-a3dc-47f4-b922-1afcdaa05668","2463","
                  <p style=""text-align: center;"">₪58
                                                <br>45%</p>
                  <p id=""wtp"" style=""text-align:center; margin-top: 0px; margin-bottom: 0px; font-size: 40px"";>מוכנים לשלם: <span id=""c_p_y""></span></p>","47","evaluation","18","21","11C,18C,25A","45","58","47","","","","","","","","","","","","","","","","","","",""
"","","","","","html-keyboard-response","225","1414495","0.0-25.0-2.5","2212f72e-a3dc-47f4-b922-1afcdaa05668","null","<p style=""text-align: center;"">+</p>","null","fixation","","","","","","","","","","","","","","","","","","","","","","","","",""
"","","","","","html-slider-response","226","1415502","0.0-25.0-0.6","2212f72e-a3dc-47f4-b922-1afcdaa05668","1000","
                  <p style=""text-align: center;"">₪11
                                                <br>75%</p>
                  <p id=""wtp"" style=""text-align:center; margin-top: 0px; margin-bottom: 0px; font-size: 40px"";>&ensp;</p>","-","viewing","0","7","6B,18B,22C,24C,29A","","","","","","","","","","","","","","","","","","","","","",""
"","","","","","html-slider-response","227","1417822","0.0-25.0-1.6","2212f72e-a3dc-47f4-b922-1afcdaa05668","2318","
                  <p style=""text-align: center;"">₪11
                                                <br>75%</p>
                  <p id=""wtp"" style=""text-align:center; margin-top: 0px; margin-bottom: 0px; font-size: 40px"";>מוכנים לשלם: <span id=""c_p_y""></span></p>","40","evaluation","64","7","6B,18B,22C,24C,29A","75","11","40","","","","","","","","","","","","","","","","","","",""
"","","","","","html-keyboard-response","228","1418822","0.0-25.0-2.6","2212f72e-a3dc-47f4-b922-1afcdaa05668","null","<p style=""text-align: center;"">+</p>","null","fixation","","","","","","","","","","","","","","","","","","","","","","","","",""
"","","","","","html-slider-response","229","1419824","0.0-25.0-0.7","2212f72e-a3dc-47f4-b922-1afcdaa05668","1000","
                  <p style=""text-align: center;"">₪4
                                                <br>50%</p>
                  <p id=""wtp"" style=""text-align:center; margin-top: 0px; margin-bottom: 0px; font-size: 40px"";>&ensp;</p>","-","viewing","0","2","4C,17B","","","","","","","","","","","","","","","","","","","","","",""
"","","","","","html-slider-response","230","1422654","0.0-25.0-1.7","2212f72e-a3dc-47f4-b922-1afcdaa05668","2829","
                  <p style=""text-align: center;"">₪4
                                                <br>50%</p>
                  <p id=""wtp"" style=""text-align:center; margin-top: 0px; margin-bottom: 0px; font-size: 40px"";>מוכנים לשלם: <span id=""c_p_y""></span></p>","33","evaluation","41","2","4C,17B","50","4","33","","","","","","","","","","","","","","","","","","",""
"","","","","","html-keyboard-response","231","1423748","0.0-25.0-2.7","2212f72e-a3dc-47f4-b922-1afcdaa05668","null","<p style=""text-align: center;"">+</p>","null","fixation","","","","","","","","","","","","","","","","","","","","","","","","",""
"","","","","","html-slider-response","232","1424753","0.0-25.0-0.8","2212f72e-a3dc-47f4-b922-1afcdaa05668","1000","
                  <p style=""text-align: center;"">₪11
                                                <br>25%</p>
                  <p id=""wtp"" style=""text-align:center; margin-top: 0px; margin-bottom: 0px; font-size: 40px"";>&ensp;</p>","-","viewing","0","5","12A,27B,28B,30B","","","","","","","","","","","","","","","","","","","","","",""
"","","","","","html-slider-response","233","1425758","0.0-25.0-1.8","2212f72e-a3dc-47f4-b922-1afcdaa05668","1004","
                  <p style=""text-align: center;"">₪11
                                                <br>25%</p>
                  <p id=""wtp"" style=""text-align:center; margin-top: 0px; margin-bottom: 0px; font-size: 40px"";>מוכנים לשלם: <span id=""c_p_y""></span></p>","7","evaluation","50","5","12A,27B,28B,30B","25","11","7","","","","","","","","","","","","","","","","","","",""
"","","","","","html-keyboard-response","234","1427069","0.0-25.0-2.8","2212f72e-a3dc-47f4-b922-1afcdaa05668","null","<p style=""text-align: center;"">+</p>","null","fixation","","","","","","","","","","","","","","","","","","","","","","","","",""
"","","","","","html-slider-response","235","1428074","0.0-25.0-0.9","2212f72e-a3dc-47f4-b922-1afcdaa05668","1000","
                  <p style=""text-align: center;"">₪36
                                                <br>30%</p>
                  <p id=""wtp"" style=""text-align:center; margin-top: 0px; margin-bottom: 0px; font-size: 40px"";>&ensp;</p>","-","viewing","0","11","3C,20A,22A","","","","","","","","","","","","","","","","","","","","","",""
"","","","","","html-slider-response","236","1429871","0.0-25.0-1.9","2212f72e-a3dc-47f4-b922-1afcdaa05668","1796","
                  <p style=""text-align: center;"">₪36
                                                <br>30%</p>
                  <p id=""wtp"" style=""text-align:center; margin-top: 0px; margin-bottom: 0px; font-size: 40px"";>מוכנים לשלם: <span id=""c_p_y""></span></p>","10","evaluation","74","11","3C,20A,22A","30","36","11","","","","","","","","","","","","","","","","","","",""
"","","","","","html-keyboard-response","237","1430568","0.0-25.0-2.9","2212f72e-a3dc-47f4-b922-1afcdaa05668","null","<p style=""text-align: center;"">+</p>","null","fixation","","","","","","","","","","","","","","","","","","","","","","","","",""
"","","","","","html-slider-response","238","1431577","0.0-25.0-0.10","2212f72e-a3dc-47f4-b922-1afcdaa05668","1000","
                  <p style=""text-align: center;"">₪16
                                                <br>20%</p>
                  <p id=""wtp"" style=""text-align:center; margin-top: 0px; margin-bottom: 0px; font-size: 40px"";>&ensp;</p>","-","viewing","0","8","14C,17A,20C,27A","","","","","","","","","","","","","","","","","","","","","",""
"","","","","","html-slider-response","239","1432958","0.0-25.0-1.10","2212f72e-a3dc-47f4-b922-1afcdaa05668","1381","
                  <p style=""text-align: center;"">₪16
                                                <br>20%</p>
                  <p id=""wtp"" style=""text-align:center; margin-top: 0px; margin-bottom: 0px; font-size: 40px"";>מוכנים לשלם: <span id=""c_p_y""></span></p>","14","evaluation","41","8","14C,17A,20C,27A","20","16","14","","","","","","","","","","","","","","","","","","",""
"","","","","","html-keyboard-response","240","1433815","0.0-25.0-2.10","2212f72e-a3dc-47f4-b922-1afcdaa05668","null","<p style=""text-align: center;"">+</p>","null","fixation","","","","","","","","","","","","","","","","","","","","","","","","",""
"","","","","","html-slider-response","241","1434817","0.0-25.0-0.11","2212f72e-a3dc-47f4-b922-1afcdaa05668","1000","
                  <p style=""text-align: center;"">₪43
                                                <br>75%</p>
                  <p id=""wtp"" style=""text-align:center; margin-top: 0px; margin-bottom: 0px; font-size: 40px"";>&ensp;</p>","-","viewing","0","18","11B,19B,24A,26A","","","","","","","","","","","","","","","","","","","","","",""
"","","","","","html-slider-response","242","1435854","0.0-25.0-1.11","2212f72e-a3dc-47f4-b922-1afcdaa05668","1037","
                  <p style=""text-align: center;"">₪43
                                                <br>75%</p>
                  <p id=""wtp"" style=""text-align:center; margin-top: 0px; margin-bottom: 0px; font-size: 40px"";>מוכנים לשלם: <span id=""c_p_y""></span></p>","51","evaluation","76","18","11B,19B,24A,26A","75","43","51","","","","","","","","","","","","","","","","","","",""
"","","","","","html-keyboard-response","243","1436681","0.0-25.0-2.11","2212f72e-a3dc-47f4-b922-1afcdaa05668","null","<p style=""text-align: center;"">+</p>","null","fixation","","","","","","","","","","","","","","","","","","","","","","","","",""
"","","","","","html-slider-response","244","1437689","0.0-25.0-0.12","2212f72e-a3dc-47f4-b922-1afcdaa05668","1000","
                  <p style=""text-align: center;"">₪71
                                                <br>55%</p>
                  <p id=""wtp"" style=""text-align:center; margin-top: 0px; margin-bottom: 0px; font-size: 40px"";>&ensp;</p>","-","viewing","0","27","5B,18A","","","","","","","","","","","","","","","","","","","","","",""
"","","","","","html-slider-response","245","1439022","0.0-25.0-1.12","2212f72e-a3dc-47f4-b922-1afcdaa05668","1331","
