"success","timeout","failed_images","failed_audio","failed_video","trial_type","trial_index","time_elapsed","internal_node_id","subject_id","rt","stimulus","response","part","slider_start","ID","set_ID","prob","amount","last_location","actual_choice","actual_EV","binary_id","trinary_id","catch","direction","A_key","S_key","D_key","choice_prob","choice_amount","chosen_part","potential_prize_prob","potential_prize_amount","won_prize","total_prize","prize_cost","remaining_budget","accuracy"
"true","false","[]","[]","[]","preload","0","79","0.0-0.0","88625c55-ffca-498e-a1e4-4f68997442ff","","","","","","","","","","","","","","","","","","","","","","","","","","","","",""
"","","","","","html-keyboard-response","1","746177","0.0-1.0","88625c55-ffca-498e-a1e4-4f68997442ff","null","
          <h1>שלום וברוכים הבאים!</h1>
          <p>לפניכם ניסוי בקבלת החלטות עם שני חלקים.
          <br><br>לחצו על העכבר כדי להמשיך.</p>","0","example","","","","","","","","","","","","","","","","","","","","","","","","",""
"","","","","","html-keyboard-response","2","767593","0.0-2.0","88625c55-ffca-498e-a1e4-4f68997442ff","null","
        <h1>חלק 1</h1>
        <p>בקרוב יוצגו בפניכם הגרלות.
        <br>עליכם לבחור את המחיר המירבי שתהיו מוכנים לשלם כדי להשתתף בהגרלה שתוצג.
        <br>יש לכם תקציב של ₪80 לכל הגרלה. 
        <br>נסו להעריך כל הגרלה בנפרד ולחשוב כמה היא שווה עבורכם, ₪80 זמינים לכל הגרלה בנפרד.
        <br><br>לחצו על העכבר כדי להמשיך.</p>","1","instructions","","","","","","","","","","","","","","","","","","","","","","","","",""
"","","","","","html-keyboard-response","3","790041","0.0-3.0","88625c55-ffca-498e-a1e4-4f68997442ff","null","
        <p>בסוף הניסוי, המחשב יבחר את אחת ההגרלות ויקבע מחיר לכרטיס עבורה. 
        <br>במידה והמחיר שבחרתם נמוך מהמחיר שנבחר על ידי המחשב, לא תשתתפו בהגרלה ותשארו עם מלוא התקציב.
        <br>במידה והמחיר שבחרתם גבוה מהמחיר שנבחר על ידי המחשב, תשלמו את המחיר שנקבע ותשתתפו בהגרלה.
        <br><br>לחצו על העכבר כדי להמשיך.</p>","1","instructions","","","","","","","","","","","","","","","","","","","","","","","","",""
"","","","","","html-slider-response","4","800433","0.0-4.0","88625c55-ffca-498e-a1e4-4f68997442ff","10282","
        <p style=""font-size: 42px;"">נתחיל עם דוגמא: 
        <br>ההגרלה מטה מציעה 65% סיכוי לזכות ב-₪40 
        <br>&emsp;&emsp;&emsp;&emsp;&emsp;&emsp;&emsp;&emsp;&ensp;35% סיכוי לזכות ב-₪0.
        <br><br>מה המחיר המירבי שתהיו מוכנים לשלם על כרטיס להגרלה זו בין 0 ל-₪80?
        <br>הזיזו את העכבר על פני המלבן ולחצו כדי לבצע בחירה.</p>
        
        <p style=""text-align: center;"">₪40<br>65%</p>

        <p id=""wtp"" style=""text-align:center; margin-top: 0px; margin-bottom: 0px; font-size: 40px"";>מוכנים לשלם: <span id=""c_p_y""></span></p>","34","example","46","","","","","","","","","","","","","","","","","","","","","","","",""
"","","","","","html-keyboard-response","5","812704","0.0-5.0","88625c55-ffca-498e-a1e4-4f68997442ff","null","<p>יפה מאוד!
                <br> בחרתם שתהיו מוכנים לשלם ₪34 כדי להשתתף בהגרלה:
                <br><p style=""text-align: center;"">₪40<br>65%</p>
                <p>נשמע נכון?
                <br>נניח שהגרלה זו נבחרה בסוף הניסוי.
                <br>כעת המחשב יקבע מחיר עבורה באקראי.
                <br>לחצו על העכבר להמשך.</p>","1","example","","","","","","","","","","","","","","","","","","","","","","","","",""
"","","","","","html-keyboard-response","6","824176","0.0-6.0","88625c55-ffca-498e-a1e4-4f68997442ff","null","<p>המחשב קבע מחיר: ₪60
                <br>ואתם בחרתם לשלם לכל היותר: ₪34
                <br><br>מכיוון שהמחיר שבחרתם נמוך מהמחיר שנקבע, לא תתשתתפו בהגרלה.
                <br>במקרה כזה, בסוף הניסוי תקבלו את כל התקציב ההתחלתי של ₪80.
                <br><br>לחצו על העכבר להמשך.</p>","1","example","","","","","","","","","","","","","","","","","","","","","","","","",""
"","","","","","html-slider-response","7","832048","0.0-7.0","88625c55-ffca-498e-a1e4-4f68997442ff","7608","<p style=""font-size: 42px;"">הנה עוד דוגמא:
                <br>ההגרלה מטה מציעה 35% סיכוי לזכות ב-₪18 
                <br>&emsp;&emsp;&emsp;&emsp;&emsp;&emsp;&emsp;&emsp;&ensp;65% סיכוי לזכות ב-₪0.</p>
        
                <p style=""text-align: center;"">₪18<br>35%</p>
                <p id=""wtp"" style=""text-align:center; margin-top: 0px; margin-bottom: 0px; font-size: 40px"";>מוכנים לשלם: <span id=""c_p_y""></span></p>","10","example","57","","","","","","","","","","","","","","","","","","","","","","","",""
"","","","","","html-keyboard-response","8","842432","0.0-8.0","88625c55-ffca-498e-a1e4-4f68997442ff","null","<p>הייתם מוכנים לשלם  ₪10 כדי להשתתף בהגרלה:
                <p style=""text-align: center;"">₪18<br>35%</p>
                <p>כעת נניח שהמחשב בחר את ההגרלה הזו בסוף הניסוי, וקבע עבורה מחיר.
                <br><br>לחצו על העכבר כדי להמשיך.</p>","1","instructions","","","","","","","","","","","","","","","","","","","","","","","","",""
"","","","","","html-keyboard-response","9","858264","0.0-9.0","88625c55-ffca-498e-a1e4-4f68997442ff","null","<p>המחשב קבע מחיר להגרלה: ₪4<br>ואתם בחרתם לשלם לכל היותר: ₪10
                <br><br>כעת המחיר שנקבע נמוך מזה שבחרתם, אז תשלמו את המחיר שקבע המחשב (₪4) ותשתתפו בהגרלה.
                <br>במקרה כזה, תסיימו את הניסוי עם תקציב של ₪76 ועם סיכוי לזכות ב-₪18 נוספים מההגרלה.
                <br>כלומר, תוכלו לקבל ₪76 אם לא תזכו בהגרלה, או ₪94 אם תזכו בהגרלה.
                <br><br>לחצו על העכבר להמשך.</p>","1","example","","","","","","","","","","","","","","","","","","","","","","","","",""
"","","","","","html-keyboard-response","10","875276","0.0-10.0","88625c55-ffca-498e-a1e4-4f68997442ff","null","<p>במהלך הניסוי, קודם תראו את ההגרלה ורק לאחר מכן תוכלו לבחור.
                <p>כמו כן, יהיו לכם מספר שניות מוגבל להגיב.
                <p>בואו ננסה זאת עם ההגרלה הקודמת.
                <br>לחצו על העכבר כדי להמשיך.</p>","1","instructions","","","","","","","","","","","","","","","","","","","","","","","","",""
"","","","","","html-slider-response","11","876550","0.0-11.0","88625c55-ffca-498e-a1e4-4f68997442ff","1000","
                    <p style=""text-align: center;"">₪18<br>35%</p>
                    <p id=""wtp"" style=""text-align:center; margin-top: 0px; margin-bottom: 0px; font-size: 40px"";>&ensp;</p>","79","instructions","0","","","","","","","","","","","","","","","","","","","","","","","",""
"","","","","","html-slider-response","12","880819","0.0-12.0","88625c55-ffca-498e-a1e4-4f68997442ff","null","
                    <p style=""text-align: center;"">₪18<br>35%</p>
                    <p id=""wtp"" style=""text-align:center; margin-top: 0px; margin-bottom: 0px; font-size: 40px"";>מוכנים לשלם: <span id=""c_p_y""></span></p>","null","instructions","24","","","","","","","","","","","","","","","","","","","","","","","",""
"","","","","","html-keyboard-response","13","886827","0.0-13.0","88625c55-ffca-498e-a1e4-4f68997442ff","null","<p>לא הגבתם בזמן המוקצב לתגובה. 
                <br>נסו להגיב מהר יותר בפעם הבאה.
                <br><br>לחצו על העכבר כדי להמשיך.</p>","1","instructions","","","","","","","","","","","","","","","","","","","","","","","","",""
"","","","","","html-slider-response","14","889628","0.0-14.0-0.0","88625c55-ffca-498e-a1e4-4f68997442ff","2548","
                    <p style=""text-align: center;"">₪40<br>65%</p>
                    <p id=""wtp"" style=""text-align:center; margin-top: 0px; margin-bottom: 0px; font-size: 40px"";>מוכנים לשלם: <span id=""c_p_y""></span></p>","33","instructions","72","","","","","","","","","","","","","","","","","","","","","","","",""
"","","","","","html-keyboard-response","15","892891","0.0-14.0-1.0","88625c55-ffca-498e-a1e4-4f68997442ff","null","<p>יפה. הפעם בחרתם לשלם לכל היותר ₪33.
                <br><br>לחצו על העכבר כדי להמשיך.</p>","1","instructions","","","","","","","","","","","","","","","","","","","","","","","","",""
"","","","","","html-keyboard-response","16","906315","0.0-15.0","88625c55-ffca-498e-a1e4-4f68997442ff","null","<p>כעת נתחיל את הניסוי.
                <br><br>אתם תראו הגרלות ותתבקשו לבחור כמה תהיו מוכנים לשלם כדי להשתתף בהן.
                <br>יש לכם תקציב של ₪80 עבור כל הגרלה.
                <br>בסוף הניסוי הגרלה אחת תבחר באקראי ותשוחק.
                <br><br>לחצו על העכבר כדי להתחיל את הניסוי.</p>","1","instructions","","","","","","","","","","","","","","","","","","","","","","","","",""
"","","","","","html-keyboard-response","17","907573","0.0-16.0","88625c55-ffca-498e-a1e4-4f68997442ff","null","<p style=""text-align: center;"">+</p>","null","fixation","","","","","","","","","","","","","","","","","","","","","","","","",""
"","","","","","html-slider-response","18","908579","0.0-17.0-0.0","88625c55-ffca-498e-a1e4-4f68997442ff","1000","
                  <p style=""text-align: center;"">₪4
                                                <br>50%</p>
                  <p id=""wtp"" style=""text-align:center; margin-top: 0px; margin-bottom: 0px; font-size: 40px"";>&ensp;</p>","-","viewing","0","2","4C,17B","","","","","","","","","","","","","","","","","","","","","",""
"","","","","","html-slider-response","19","912388","0.0-17.0-1.0","88625c55-ffca-498e-a1e4-4f68997442ff","3807","
                  <p style=""text-align: center;"">₪4
                                                <br>50%</p>
                  <p id=""wtp"" style=""text-align:center; margin-top: 0px; margin-bottom: 0px; font-size: 40px"";>מוכנים לשלם: <span id=""c_p_y""></span></p>","1","evaluation","60","2","4C,17B","50","4","1","","","","","","","","","","","","","","","","","","",""
"","","","","","html-keyboard-response","20","913258","0.0-17.0-2.0","88625c55-ffca-498e-a1e4-4f68997442ff","null","<p style=""text-align: center;"">+</p>","null","fixation","","","","","","","","","","","","","","","","","","","","","","","","",""
"","","","","","html-slider-response","21","914267","0.0-17.0-0.1","88625c55-ffca-498e-a1e4-4f68997442ff","1000","
                  <p style=""text-align: center;"">₪58
                                                <br>30%</p>
                  <p id=""wtp"" style=""text-align:center; margin-top: 0px; margin-bottom: 0px; font-size: 40px"";>&ensp;</p>","-","viewing","0","19","13C,30A","","","","","","","","","","","","","","","","","","","","","",""
"","","","","","html-slider-response","22","917355","0.0-17.0-1.1","88625c55-ffca-498e-a1e4-4f68997442ff","3087","
                  <p style=""text-align: center;"">₪58
                                                <br>30%</p>
                  <p id=""wtp"" style=""text-align:center; margin-top: 0px; margin-bottom: 0px; font-size: 40px"";>מוכנים לשלם: <span id=""c_p_y""></span></p>","45","evaluation","25","19","13C,30A","30","58","45","","","","","","","","","","","","","","","","","","",""
"","","","","","html-keyboard-response","23","918424","0.0-17.0-2.1","88625c55-ffca-498e-a1e4-4f68997442ff","null","<p style=""text-align: center;"">+</p>","null","fixation","","","","","","","","","","","","","","","","","","","","","","","","",""
"","","","","","html-slider-response","24","919426","0.0-17.0-0.2","88625c55-ffca-498e-a1e4-4f68997442ff","1000","
                  <p style=""text-align: center;"">₪79
                                                <br>65%</p>
                  <p id=""wtp"" style=""text-align:center; margin-top: 0px; margin-bottom: 0px; font-size: 40px"";>&ensp;</p>","-","viewing","0","31","8A","","","","","","","","","","","","","","","","","","","","","",""
"","","","","","html-slider-response","25","923060","0.0-17.0-1.2","88625c55-ffca-498e-a1e4-4f68997442ff","3632","
                  <p style=""text-align: center;"">₪79
                                                <br>65%</p>
                  <p id=""wtp"" style=""text-align:center; margin-top: 0px; margin-bottom: 0px; font-size: 40px"";>מוכנים לשלם: <span id=""c_p_y""></span></p>","61","evaluation","37","31","8A","65","79","61","","","","","","","","","","","","","","","","","","",""
"","","","","","html-keyboard-response","26","924405","0.0-17.0-2.2","88625c55-ffca-498e-a1e4-4f68997442ff","null","<p style=""text-align: center;"">+</p>","null","fixation","","","","","","","","","","","","","","","","","","","","","","","","",""
"","","","","","html-slider-response","27","925422","0.0-17.0-0.3","88625c55-ffca-498e-a1e4-4f68997442ff","1000","
                  <p style=""text-align: center;"">₪71
                                                <br>45%</p>
                  <p id=""wtp"" style=""text-align:center; margin-top: 0px; margin-bottom: 0px; font-size: 40px"";>&ensp;</p>","-","viewing","0","26","2B,16A","","","","","","","","","","","","","","","","","","","","","",""
"","","","","","html-slider-response","28","928612","0.0-17.0-1.3","88625c55-ffca-498e-a1e4-4f68997442ff","3189","
                  <p style=""text-align: center;"">₪71
                                                <br>45%</p>
                  <p id=""wtp"" style=""text-align:center; margin-top: 0px; margin-bottom: 0px; font-size: 40px"";>מוכנים לשלם: <span id=""c_p_y""></span></p>","53","evaluation","75","26","2B,16A","45","71","53","","","","","","","","","","","","","","","","","","",""
"","","","","","html-keyboard-response","29","930013","0.0-17.0-2.3","88625c55-ffca-498e-a1e4-4f68997442ff","null","<p style=""text-align: center;"">+</p>","null","fixation","","","","","","","","","","","","","","","","","","","","","","","","",""
"","","","","","html-slider-response","30","931021","0.0-17.0-0.4","88625c55-ffca-498e-a1e4-4f68997442ff","1000","
                  <p style=""text-align: center;"">₪11
                                                <br>25%</p>
                  <p id=""wtp"" style=""text-align:center; margin-top: 0px; margin-bottom: 0px; font-size: 40px"";>&ensp;</p>","-","viewing","0","5","12A,27B,28B,30B","","","","","","","","","","","","","","","","","","","","","",""
"","","","","","html-slider-response","31","934550","0.0-17.0-1.4","88625c55-ffca-498e-a1e4-4f68997442ff","3525","
                  <p style=""text-align: center;"">₪11
                                                <br>25%</p>
                  <p id=""wtp"" style=""text-align:center; margin-top: 0px; margin-bottom: 0px; font-size: 40px"";>מוכנים לשלם: <span id=""c_p_y""></span></p>","8","evaluation","61","5","12A,27B,28B,30B","25","11","8","","","","","","","","","","","","","","","","","","",""
"","","","","","html-keyboard-response","32","935821","0.0-17.0-2.4","88625c55-ffca-498e-a1e4-4f68997442ff","null","<p style=""text-align: center;"">+</p>","null","fixation","","","","","","","","","","","","","","","","","","","","","","","","",""
"","","","","","html-slider-response","33","936825","0.0-17.0-0.5","88625c55-ffca-498e-a1e4-4f68997442ff","1000","
                  <p style=""text-align: center;"">₪58
                                                <br>45%</p>
                  <p id=""wtp"" style=""text-align:center; margin-top: 0px; margin-bottom: 0px; font-size: 40px"";>&ensp;</p>","-","viewing","0","21","11C,18C,25A","","","","","","","","","","","","","","","","","","","","","",""
"","","","","","html-slider-response","34","940622","0.0-17.0-1.5","88625c55-ffca-498e-a1e4-4f68997442ff","3796","
                  <p style=""text-align: center;"">₪58
                                                <br>45%</p>
                  <p id=""wtp"" style=""text-align:center; margin-top: 0px; margin-bottom: 0px; font-size: 40px"";>מוכנים לשלם: <span id=""c_p_y""></span></p>","51","evaluation","58","21","11C,18C,25A","45","58","51","","","","","","","","","","","","","","","","","","",""
"","","","","","html-keyboard-response","35","941301","0.0-17.0-2.5","88625c55-ffca-498e-a1e4-4f68997442ff","null","<p style=""text-align: center;"">+</p>","null","fixation","","","","","","","","","","","","","","","","","","","","","","","","",""
"","","","","","html-slider-response","36","942317","0.0-17.0-0.6","88625c55-ffca-498e-a1e4-4f68997442ff","1000","
                  <p style=""text-align: center;"">₪71
                                                <br>55%</p>
                  <p id=""wtp"" style=""text-align:center; margin-top: 0px; margin-bottom: 0px; font-size: 40px"";>&ensp;</p>","-","viewing","0","27","5B,18A","","","","","","","","","","","","","","","","","","","","","",""
"","","","","","html-slider-response","37","945750","0.0-17.0-1.6","88625c55-ffca-498e-a1e4-4f68997442ff","3432","
                  <p style=""text-align: center;"">₪71
                                                <br>55%</p>
                  <p id=""wtp"" style=""text-align:center; margin-top: 0px; margin-bottom: 0px; font-size: 40px"";>מוכנים לשלם: <span id=""c_p_y""></span></p>","64","evaluation","11","27","5B,18A","55","71","64","","","","","","","","","","","","","","","","","","",""
"","","","","","html-keyboard-response","38","946273","0.0-17.0-2.6","88625c55-ffca-498e-a1e4-4f68997442ff","null","<p style=""text-align: center;"">+</p>","null","fixation","","","","","","","","","","","","","","","","","","","","","","","","",""
"","","","","","html-slider-response","39","947278","0.0-17.0-0.7","88625c55-ffca-498e-a1e4-4f68997442ff","1000","
                  <p style=""text-align: center;"">₪61
                                                <br>45%</p>
                  <p id=""wtp"" style=""text-align:center; margin-top: 0px; margin-bottom: 0px; font-size: 40px"";>&ensp;</p>","-","viewing","0","22","10A,11A","","","","","","","","","","","","","","","","","","","","","",""
"","","","","","html-slider-response","40","951070","0.0-17.0-1.7","88625c55-ffca-498e-a1e4-4f68997442ff","3792","
                  <p style=""text-align: center;"">₪61
                                                <br>45%</p>
                  <p id=""wtp"" style=""text-align:center; margin-top: 0px; margin-bottom: 0px; font-size: 40px"";>מוכנים לשלם: <span id=""c_p_y""></span></p>","50","evaluation","62","22","10A,11A","45","61","50","","","","","","","","","","","","","","","","","","",""
"","","","","","html-keyboard-response","41","951905","0.0-17.0-2.7","88625c55-ffca-498e-a1e4-4f68997442ff","null","<p style=""text-align: center;"">+</p>","null","fixation","","","","","","","","","","","","","","","","","","","","","","","","",""
"","","","","","html-slider-response","42","952921","0.0-17.0-0.8","88625c55-ffca-498e-a1e4-4f68997442ff","1000","
                  <p style=""text-align: center;"">₪43
                                                <br>60%</p>
                  <p id=""wtp"" style=""text-align:center; margin-top: 0px; margin-bottom: 0px; font-size: 40px"";>&ensp;</p>","-","viewing","0","17","2A,7A,9A,15B","","","","","","","","","","","","","","","","","","","","","",""
"","","","","","html-slider-response","43","956222","0.0-17.0-1.8","88625c55-ffca-498e-a1e4-4f68997442ff","3300","
                  <p style=""text-align: center;"">₪43
                                                <br>60%</p>
                  <p id=""wtp"" style=""text-align:center; margin-top: 0px; margin-bottom: 0px; font-size: 40px"";>מוכנים לשלם: <span id=""c_p_y""></span></p>","30","evaluation","68","17","2A,7A,9A,15B","60","43","30","","","","","","","","","","","","","","","","","","",""
"","","","","","html-keyboard-response","44","956910","0.0-17.0-2.8","88625c55-ffca-498e-a1e4-4f68997442ff","null","<p style=""text-align: center;"">+</p>","null","fixation","","","","","","","","","","","","","","","","","","","","","","","","",""
"","","","","","html-slider-response","45","957912","0.0-17.0-0.9","88625c55-ffca-498e-a1e4-4f68997442ff","1000","
                  <p style=""text-align: center;"">₪16
                                                <br>20%</p>
                  <p id=""wtp"" style=""text-align:center; margin-top: 0px; margin-bottom: 0px; font-size: 40px"";>&ensp;</p>","-","viewing","0","8","14C,17A,20C,27A","","","","","","","","","","","","","","","","","","","","","",""
"","","","","","html-slider-response","46","960870","0.0-17.0-1.9","88625c55-ffca-498e-a1e4-4f68997442ff","2957","
                  <p style=""text-align: center;"">₪16
                                                <br>20%</p>
                  <p id=""wtp"" style=""text-align:center; margin-top: 0px; margin-bottom: 0px; font-size: 40px"";>מוכנים לשלם: <span id=""c_p_y""></span></p>","10","evaluation","58","8","14C,17A,20C,27A","20","16","10","","","","","","","","","","","","","","","","","","",""
"","","","","","html-keyboard-response","47","961872","0.0-17.0-2.9","88625c55-ffca-498e-a1e4-4f68997442ff","null","<p style=""text-align: center;"">+</p>","null","fixation","","","","","","","","","","","","","","","","","","","","","","","","",""
"","","","","","html-slider-response","48","962883","0.0-17.0-0.10","88625c55-ffca-498e-a1e4-4f68997442ff","1000","
                  <p style=""text-align: center;"">₪79
                                                <br>40%</p>
                  <p id=""wtp"" style=""text-align:center; margin-top: 0px; margin-bottom: 0px; font-size: 40px"";>&ensp;</p>","-","viewing","0","30","9B","","","","","","","","","","","","","","","","","","","","","",""
"","","","","","html-slider-response","49","966894","0.0-17.0-1.10","88625c55-ffca-498e-a1e4-4f68997442ff","null","
                  <p style=""text-align: center;"">₪79
                                                <br>40%</p>
                  <p id=""wtp"" style=""text-align:center; margin-top: 0px; margin-bottom: 0px; font-size: 40px"";>מוכנים לשלם: <span id=""c_p_y""></span></p>","null","evaluation","29","30","9B","40","79","54","","","","","","","","","","","","","","","","","","",""
"","","","","","html-keyboard-response","50","967839","0.0-17.0-2.10","88625c55-ffca-498e-a1e4-4f68997442ff","null","<p style=""text-align: center;"">+</p>","null","fixation","","","","","","","","","","","","","","","","","","","","","","","","",""
"","","","","","html-slider-response","51","968841","0.0-17.0-0.11","88625c55-ffca-498e-a1e4-4f68997442ff","1000","
                  <p style=""text-align: center;"">₪36
                                                <br>70%</p>
                  <p id=""wtp"" style=""text-align:center; margin-top: 0px; margin-bottom: 0px; font-size: 40px"";>&ensp;</p>","-","viewing","0","13","3A,5C,10B","","","","","","","","","","","","","","","","","","","","","",""
"","","","","","html-slider-response","52","971126","0.0-17.0-1.11","88625c55-ffca-498e-a1e4-4f68997442ff","2285","
                  <p style=""text-align: center;"">₪36
                                                <br>70%</p>
                  <p id=""wtp"" style=""text-align:center; margin-top: 0px; margin-bottom: 0px; font-size: 40px"";>מוכנים לשלם: <span id=""c_p_y""></span></p>","27","evaluation","47","13","3A,5C,10B","70","36","27","","","","","","","","","","","","","","","","","","",""
"","","","","","html-keyboard-response","53","972546","0.0-17.0-2.11","88625c55-ffca-498e-a1e4-4f68997442ff","null","<p style=""text-align: center;"">+</p>","null","fixation","","","","","","","","","","","","","","","","","","","","","","","","",""
"","","","","","html-slider-response","54","973549","0.0-17.0-0.12","88625c55-ffca-498e-a1e4-4f68997442ff","1000","
                  <p style=""text-align: center;"">₪43
                                                <br>75%</p>
                  <p id=""wtp"" style=""text-align:center; margin-top: 0px; margin-bottom: 0px; font-size: 40px"";>&ensp;</p>","-","viewing","0","18","11B,19B,24A,26A","","","","","","","","","","","","","","","","","","","","","",""
"","","","","","html-slider-response","55","976086","0.0-17.0-1.12","88625c55-ffca-498e-a1e4-4f68997442ff","2536","
                  <p style=""text-align: center;"">₪43
                                                <br>75%</p>
                  <p id=""wtp"" style=""text-align:center; margin-top: 0px; margin-bottom: 0px; font-size: 40px"";>מוכנים לשלם: <span id=""c_p_y""></span></p>","37","evaluation","33","18","11B,19B,24A,26A","75","43","37","","","","","","","","","","","","","","","","","","",""
"","","","","","html-keyboard-response","56","977142","0.0-17.0-2.12","88625c55-ffca-498e-a1e4-4f68997442ff","null","<p style=""text-align: center;"">+</p>","null","fixation","","","","","","","","","","","","","","","","","","","","","","","","",""
"","","","","","html-slider-response","57","978151","0.0-17.0-0.13","88625c55-ffca-498e-a1e4-4f68997442ff","1000","
                  <p style=""text-align: center;"">₪39
                                                <br>60%</p>
                  <p id=""wtp"" style=""text-align:center; margin-top: 0px; margin-bottom: 0px; font-size: 40px"";>&ensp;</p>","-","viewing","0","15","9C,25B","","","","","","","","","","","","","","","","","","","","","",""
"","","","","","html-slider-response","58","982167","0.0-17.0-1.13","88625c55-ffca-498e-a1e4-4f68997442ff","null","
                  <p style=""text-align: center;"">₪39
                                                <br>60%</p>
                  <p id=""wtp"" style=""text-align:center; margin-top: 0px; margin-bottom: 0px; font-size: 40px"";>מוכנים לשלם: <span id=""c_p_y""></span></p>","null","evaluation","50","15","9C,25B","60","39","39","","","","","","","","","","","","","","","","","","",""
"","","","","","html-keyboard-response","59","983405","0.0-17.0-2.13","88625c55-ffca-498e-a1e4-4f68997442ff","null","<p style=""text-align: center;"">+</p>","null","fixation","","","","","","","","","","","","","","","","","","","","","","","","",""
"","","","","","html-slider-response","60","984408","0.0-17.0-0.14","88625c55-ffca-498e-a1e4-4f68997442ff","1000","
                  <p style=""text-align: center;"">₪11
                                                <br>45%</p>
                  <p id=""wtp"" style=""text-align:center; margin-top: 0px; margin-bottom: 0px; font-size: 40px"";>&ensp;</p>","-","viewing","0","6","14B,21C,25C","","","","","","","","","","","","","","","","","","","","","",""
"","","","","","html-slider-response","61","988222","0.0-17.0-1.14","88625c55-ffca-498e-a1e4-4f68997442ff","3813","
                  <p style=""text-align: center;"">₪11
                                                <br>45%</p>
                  <p id=""wtp"" style=""text-align:center; margin-top: 0px; margin-bottom: 0px; font-size: 40px"";>מוכנים לשלם: <span id=""c_p_y""></span></p>","11","evaluation","10","6","14B,21C,25C","45","11","12","","","","","","","","","","","","","","","","","","",""
"","","","","","html-keyboard-response","62","989360","0.0-17.0-2.14","88625c55-ffca-498e-a1e4-4f68997442ff","null","<p style=""text-align: center;"">+</p>","null","fixation","","","","","","","","","","","","","","","","","","","","","","","","",""
"","","","","","html-slider-response","63","990364","0.0-17.0-0.15","88625c55-ffca-498e-a1e4-4f68997442ff","1000","
                  <p style=""text-align: center;"">₪64
                                                <br>50%</p>
                  <p id=""wtp"" style=""text-align:center; margin-top: 0px; margin-bottom: 0px; font-size: 40px"";>&ensp;</p>","-","viewing","0","25","1B,3B,4A","","","","","","","","","","","","","","","","","","","","","",""
"","","","","","html-slider-response","64","994370","0.0-17.0-1.15","88625c55-ffca-498e-a1e4-4f68997442ff","null","
                  <p style=""text-align: center;"">₪64
                                                <br>50%</p>
                  <p id=""wtp"" style=""text-align:center; margin-top: 0px; margin-bottom: 0px; font-size: 40px"";>מוכנים לשלם: <span id=""c_p_y""></span></p>","null","evaluation","7","25","1B,3B,4A","50","64","55","","","","","","","","","","","","","","","","","","",""
"","","","","","html-keyboard-response","65","995116","0.0-17.0-2.15","88625c55-ffca-498e-a1e4-4f68997442ff","null","<p style=""text-align: center;"">+</p>","null","fixation","","","","","","","","","","","","","","","","","","","","","","","","",""
"","","","","","html-slider-response","66","996118","0.0-17.0-0.16","88625c55-ffca-498e-a1e4-4f68997442ff","1000","
                  <p style=""text-align: center;"">₪18
                                                <br>25%</p>
                  <p id=""wtp"" style=""text-align:center; margin-top: 0px; margin-bottom: 0px; font-size: 40px"";>&ensp;</p>","-","viewing","0","9","14A,23A","","","","","","","","","","","","","","","","","","","","","",""
"","","","","","html-slider-response","67","998301","0.0-17.0-1.16","88625c55-ffca-498e-a1e4-4f68997442ff","2182","
                  <p style=""text-align: center;"">₪18
                                                <br>25%</p>
                  <p id=""wtp"" style=""text-align:center; margin-top: 0px; margin-bottom: 0px; font-size: 40px"";>מוכנים לשלם: <span id=""c_p_y""></span></p>","12","evaluation","33","9","14A,23A","25","18","13","","","","","","","","","","","","","","","","","","",""
"","","","","","html-keyboard-response","68","998814","0.0-17.0-2.16","88625c55-ffca-498e-a1e4-4f68997442ff","null","<p style=""text-align: center;"">+</p>","null","fixation","","","","","","","","","","","","","","","","","","","","","","","","",""
"","","","","","html-slider-response","69","999821","0.0-17.0-0.17","88625c55-ffca-498e-a1e4-4f68997442ff","1000","
                  <p style=""text-align: center;"">₪36
                                                <br>60%</p>
                  <p id=""wtp"" style=""text-align:center; margin-top: 0px; margin-bottom: 0px; font-size: 40px"";>&ensp;</p>","-","viewing","0","12","1C,7C,15C","","","","","","","","","","","","","","","","","","","","","",""
"","","","","","html-slider-response","70","1003757","0.0-17.0-1.17","88625c55-ffca-498e-a1e4-4f68997442ff","3936","
                  <p style=""text-align: center;"">₪36
                                                <br>60%</p>
                  <p id=""wtp"" style=""text-align:center; margin-top: 0px; margin-bottom: 0px; font-size: 40px"";>מוכנים לשלם: <span id=""c_p_y""></span></p>","30","evaluation","77","12","1C,7C,15C","60","36","30","","","","","","","","","","","","","","","","","","",""
"","","","","","html-keyboard-response","71","1005243","0.0-17.0-2.17","88625c55-ffca-498e-a1e4-4f68997442ff","null","<p style=""text-align: center;"">+</p>","null","fixation","","","","","","","","","","","","","","","","","","","","","","","","",""
"","","","","","html-slider-response","72","1006248","0.0-17.0-0.18","88625c55-ffca-498e-a1e4-4f68997442ff","1000","
                  <p style=""text-align: center;"">₪36
                                                <br>75%</p>
                  <p id=""wtp"" style=""text-align:center; margin-top: 0px; margin-bottom: 0px; font-size: 40px"";>&ensp;</p>","-","viewing","0","14","4B,5A,13B,16B","","","","","","","","","","","","","","","","","","","","","",""
"","","","","","html-slider-response","73","1008349","0.0-17.0-1.18","88625c55-ffca-498e-a1e4-4f68997442ff","2100","
                  <p style=""text-align: center;"">₪36
                                                <br>75%</p>
                  <p id=""wtp"" style=""text-align:center; margin-top: 0px; margin-bottom: 0px; font-size: 40px"";>מוכנים לשלם: <span id=""c_p_y""></span></p>","36","evaluation","12","14","4B,5A,13B,16B","75","36","36","","","","","","","","","","","","","","","","","","",""
"","","","","","html-keyboard-response","74","1009680","0.0-17.0-2.18","88625c55-ffca-498e-a1e4-4f68997442ff","null","<p style=""text-align: center;"">+</p>","null","fixation","","","","","","","","","","","","","","","","","","","","","","","","",""
"","","","","","html-slider-response","75","1010685","0.0-17.0-0.19","88625c55-ffca-498e-a1e4-4f68997442ff","1000","
                  <p style=""text-align: center;"">₪61
                                                <br>55%</p>
                  <p id=""wtp"" style=""text-align:center; margin-top: 0px; margin-bottom: 0px; font-size: 40px"";>&ensp;</p>","-","viewing","0","23","7B,26B","","","","","","","","","","","","","","","","","","","","","",""
"","","","","","html-slider-response","76","1014687","0.0-17.0-1.19","88625c55-ffca-498e-a1e4-4f68997442ff","null","
                  <p style=""text-align: center;"">₪61
                                                <br>55%</p>
                  <p id=""wtp"" style=""text-align:center; margin-top: 0px; margin-bottom: 0px; font-size: 40px"";>מוכנים לשלם: <span id=""c_p_y""></span></p>","null","evaluation","39","23","7B,26B","55","61","50","","","","","","","","","","","","","","","","","","",""
"","","","","","html-keyboard-response","77","1015736","0.0-17.0-2.19","88625c55-ffca-498e-a1e4-4f68997442ff","null","<p style=""text-align: center;"">+</p>","null","fixation","","","","","","","","","","","","","","","","","","","","","","","","",""
"","","","","","html-slider-response","78","1016750","0.0-17.0-0.20","88625c55-ffca-498e-a1e4-4f68997442ff","1000","
                  <p style=""text-align: center;"">₪39
                                                <br>65%</p>
                  <p id=""wtp"" style=""text-align:center; margin-top: 0px; margin-bottom: 0px; font-size: 40px"";>&ensp;</p>","-","viewing","0","16","1A,15A,26C","","","","","","","","","","","","","","","","","","","","","",""
"","","","","","html-slider-response","79","1019277","0.0-17.0-1.20","88625c55-ffca-498e-a1e4-4f68997442ff","2526","
                  <p style=""text-align: center;"">₪39
                                                <br>65%</p>
                  <p id=""wtp"" style=""text-align:center; margin-top: 0px; margin-bottom: 0px; font-size: 40px"";>מוכנים לשלם: <span id=""c_p_y""></span></p>","34","evaluation","20","16","1A,15A,26C","65","39","34","","","","","","","","","","","","","","","","","","",""
"","","","","","html-keyboard-response","80","1020067","0.0-17.0-2.20","88625c55-ffca-498e-a1e4-4f68997442ff","null","<p style=""text-align: center;"">+</p>","null","fixation","","","","","","","","","","","","","","","","","","","","","","","","",""
"","","","","","html-slider-response","81","1021069","0.0-17.0-0.21","88625c55-ffca-498e-a1e4-4f68997442ff","1000","
                  <p style=""text-align: center;"">₪11
                                                <br>20%</p>
                  <p id=""wtp"" style=""text-align:center; margin-top: 0px; margin-bottom: 0px; font-size: 40px"";>&ensp;</p>","-","viewing","0","4","12C,17C,23C,28C","","","","","","","","","","","","","","","","","","","","","",""
"","","","","","html-slider-response","82","1021749","0.0-17.0-1.21","88625c55-ffca-498e-a1e4-4f68997442ff","680","
                  <p style=""text-align: center;"">₪11
                                                <br>20%</p>
                  <p id=""wtp"" style=""text-align:center; margin-top: 0px; margin-bottom: 0px; font-size: 40px"";>מוכנים לשלם: <span id=""c_p_y""></span></p>","7","evaluation","25","4","12C,17C,23C,28C","20","11","7","","","","","","","","","","","","","","","","","","",""
"","","","","","html-keyboard-response","83","1022775","0.0-17.0-2.21","88625c55-ffca-498e-a1e4-4f68997442ff","null","<p style=""text-align: center;"">+</p>","null","fixation","","","","","","","","","","","","","","","","","","","","","","","","",""
"","","","","","html-slider-response","84","1023784","0.0-17.0-0.22","88625c55-ffca-498e-a1e4-4f68997442ff","1000","
                  <p style=""text-align: center;"">₪4
                                                <br>25%</p>
                  <p id=""wtp"" style=""text-align:center; margin-top: 0px; margin-bottom: 0px; font-size: 40px"";>&ensp;</p>","-","viewing","0","1","6C,29B,30C","","","","","","","","","","","","","","","","","","","","","",""
"","","","","","html-slider-response","85","1025469","0.0-17.0-1.22","88625c55-ffca-498e-a1e4-4f68997442ff","1683","
                  <p style=""text-align: center;"">₪4
                                                <br>25%</p>
                  <p id=""wtp"" style=""text-align:center; margin-top: 0px; margin-bottom: 0px; font-size: 40px"";>מוכנים לשלם: <span id=""c_p_y""></span></p>","1","evaluation","2","1","6C,29B,30C","25","4","1","","","","","","","","","","","","","","","","","","",""
"","","","","","html-keyboard-response","86","1026049","0.0-17.0-2.22","88625c55-ffca-498e-a1e4-4f68997442ff","null","<p style=""text-align: center;"">+</p>","null","fixation","","","","","","","","","","","","","","","","","","","","","","","","",""
"","","","","","html-slider-response","87","1027051","0.0-17.0-0.23","88625c55-ffca-498e-a1e4-4f68997442ff","1000","
                  <p style=""text-align: center;"">₪71
                                                <br>75%</p>
                  <p id=""wtp"" style=""text-align:center; margin-top: 0px; margin-bottom: 0px; font-size: 40px"";>&ensp;</p>","-","viewing","0","28","8B","","","","","","","","","","","","","","","","","","","","","",""
"","","","","","html-slider-response","88","1029765","0.0-17.0-1.23","88625c55-ffca-498e-a1e4-4f68997442ff","2712","
                  <p style=""text-align: center;"">₪71
                                                <br>75%</p>
                  <p id=""wtp"" style=""text-align:center; margin-top: 0px; margin-bottom: 0px; font-size: 40px"";>מוכנים לשלם: <span id=""c_p_y""></span></p>","67","evaluation","39","28","8B","75","71","66","","","","","","","","","","","","","","","","","","",""
"","","","","","html-keyboard-response","89","1030365","0.0-17.0-2.23","88625c55-ffca-498e-a1e4-4f68997442ff","null","<p style=""text-align: center;"">+</p>","null","fixation","","","","","","","","","","","","","","","","","","","","","","","","",""
"","","","","","html-slider-response","90","1031376","0.0-17.0-0.24","88625c55-ffca-498e-a1e4-4f68997442ff","1000","
                  <p style=""text-align: center;"">₪64
                                                <br>25%</p>
                  <p id=""wtp"" style=""text-align:center; margin-top: 0px; margin-bottom: 0px; font-size: 40px"";>&ensp;</p>","-","viewing","0","24","6A,21A","","","","","","","","","","","","","","","","","","","","","",""
"","","","","","html-slider-response","91","1034205","0.0-17.0-1.24","88625c55-ffca-498e-a1e4-4f68997442ff","2828","
                  <p style=""text-align: center;"">₪64
                                                <br>25%</p>
                  <p id=""wtp"" style=""text-align:center; margin-top: 0px; margin-bottom: 0px; font-size: 40px"";>מוכנים לשלם: <span id=""c_p_y""></span></p>","52","evaluation","13","24","6A,21A","25","64","52","","","","","","","","","","","","","","","","","","",""
"","","","","","html-keyboard-response","92","1035668","0.0-17.0-2.24","88625c55-ffca-498e-a1e4-4f68997442ff","null","<p style=""text-align: center;"">+</p>","null","fixation","","","","","","","","","","","","","","","","","","","","","","","","",""
"","","","","","html-slider-response","93","1036681","0.0-17.0-0.25","88625c55-ffca-498e-a1e4-4f68997442ff","1000","
                  <p style=""text-align: center;"">₪11
                                                <br>75%</p>
                  <p id=""wtp"" style=""text-align:center; margin-top: 0px; margin-bottom: 0px; font-size: 40px"";>&ensp;</p>","-","viewing","0","7","6B,18B,22C,24C,29A","","","","","","","","","","","","","","","","","","","","","",""
"","","","","","html-slider-response","94","1038741","0.0-17.0-1.25","88625c55-ffca-498e-a1e4-4f68997442ff","2060","
                  <p style=""text-align: center;"">₪11
                                                <br>75%</p>
                  <p id=""wtp"" style=""text-align:center; margin-top: 0px; margin-bottom: 0px; font-size: 40px"";>מוכנים לשלם: <span id=""c_p_y""></span></p>","10","evaluation","28","7","6B,18B,22C,24C,29A","75","11","10","","","","","","","","","","","","","","","","","","",""
"","","","","","html-keyboard-response","95","1040155","0.0-17.0-2.25","88625c55-ffca-498e-a1e4-4f68997442ff","null","<p style=""text-align: center;"">+</p>","null","fixation","","","","","","","","","","","","","","","","","","","","","","","","",""
"","","","","","html-slider-response","96","1041171","0.0-17.0-0.26","88625c55-ffca-498e-a1e4-4f68997442ff","1000","
                  <p style=""text-align: center;"">₪58
                                                <br>40%</p>
                  <p id=""wtp"" style=""text-align:center; margin-top: 0px; margin-bottom: 0px; font-size: 40px"";>&ensp;</p>","-","viewing","0","20","10C,13A,19C,21B","","","","","","","","","","","","","","","","","","","","","",""
"","","","","","html-slider-response","97","1042773","0.0-17.0-1.26","88625c55-ffca-498e-a1e4-4f68997442ff","1601","
                  <p style=""text-align: center;"">₪58
                                                <br>40%</p>
                  <p id=""wtp"" style=""text-align:center; margin-top: 0px; margin-bottom: 0px; font-size: 40px"";>מוכנים לשלם: <span id=""c_p_y""></span></p>","46","evaluation","56","20","10C,13A,19C,21B","40","58","46","","","","","","","","","","","","","","","","","","",""
"","","","","","html-keyboard-response","98","1043952","0.0-17.0-2.26","88625c55-ffca-498e-a1e4-4f68997442ff","null","<p style=""text-align: center;"">+</p>","null","fixation","","","","","","","","","","","","","","","","","","","","","","","","",""
"","","","","","html-slider-response","99","1044966","0.0-17.0-0.27","88625c55-ffca-498e-a1e4-4f68997442ff","1000","
                  <p style=""text-align: center;"">₪76
                                                <br>65%</p>
                  <p id=""wtp"" style=""text-align:center; margin-top: 0px; margin-bottom: 0px; font-size: 40px"";>&ensp;</p>","-","viewing","0","29","8C,19A,24B","","","","","","","","","","","","","","","","","","","","","",""
"","","","","","html-slider-response","100","1048125","0.0-17.0-1.27","88625c55-ffca-498e-a1e4-4f68997442ff","3158","
                  <p style=""text-align: center;"">₪76
                                                <br>65%</p>
                  <p id=""wtp"" style=""text-align:center; margin-top: 0px; margin-bottom: 0px; font-size: 40px"";>מוכנים לשלם: <span id=""c_p_y""></span></p>","64","evaluation","6","29","8C,19A,24B","65","76","64","","","","","","","","","","","","","","","","","","",""
"","","","","","html-keyboard-response","101","1048970","0.0-17.0-2.27","88625c55-ffca-498e-a1e4-4f68997442ff","null","<p style=""text-align: center;"">+</p>","null","fixation","","","","","","","","","","","","","","","","","","","","","","","","",""
"","","","","","html-slider-response","102","1049972","0.0-17.0-0.28","88625c55-ffca-498e-a1e4-4f68997442ff","1000","
                  <p style=""text-align: center;"">₪4
                                                <br>75%</p>
                  <p id=""wtp"" style=""text-align:center; margin-top: 0px; margin-bottom: 0px; font-size: 40px"";>&ensp;</p>","-","viewing","0","3","12B,20B,23B,27C,29C","","","","","","","","","","","","","","","","","","","","","",""
"","","","","","html-slider-response","103","1052717","0.0-17.0-1.28","88625c55-ffca-498e-a1e4-4f68997442ff","2743","
                  <p style=""text-align: center;"">₪4
                                                <br>75%</p>
                  <p id=""wtp"" style=""text-align:center; margin-top: 0px; margin-bottom: 0px; font-size: 40px"";>מוכנים לשלם: <span id=""c_p_y""></span></p>","3","evaluation","34","3","12B,20B,23B,27C,29C","75","4","3","","","","","","","","","","","","","","","","","","",""
"","","","","","html-keyboard-response","104","1053605","0.0-17.0-2.28","88625c55-ffca-498e-a1e4-4f68997442ff","null","<p style=""text-align: center;"">+</p>","null","fixation","","","","","","","","","","","","","","","","","","","","","","","","",""
"","","","","","html-slider-response","105","1054607","0.0-17.0-0.29","88625c55-ffca-498e-a1e4-4f68997442ff","1000","
                  <p style=""text-align: center;"">₪18
                                                <br>50%</p>
                  <p id=""wtp"" style=""text-align:center; margin-top: 0px; margin-bottom: 0px; font-size: 40px"";>&ensp;</p>","-","viewing","0","10","2C,16C,22B,28A","","","","","","","","","","","","","","","","","","","","","",""
"","","","","","html-slider-response","106","1055821","0.0-17.0-1.29","88625c55-ffca-498e-a1e4-4f68997442ff","1212","
                  <p style=""text-align: center;"">₪18
                                                <br>50%</p>
                  <p id=""wtp"" style=""text-align:center; margin-top: 0px; margin-bottom: 0px; font-size: 40px"";>מוכנים לשלם: <span id=""c_p_y""></span></p>","11","evaluation","43","10","2C,16C,22B,28A","50","18","11","","","","","","","","","","","","","","","","","","",""
"","","","","","html-keyboard-response","107","1056426","0.0-17.0-2.29","88625c55-ffca-498e-a1e4-4f68997442ff","null","<p style=""text-align: center;"">+</p>","null","fixation","","","","","","","","","","","","","","","","","","","","","","","","",""
"","","","","","html-slider-response","108","1057431","0.0-17.0-0.30","88625c55-ffca-498e-a1e4-4f68997442ff","1000","
                  <p style=""text-align: center;"">₪36
                                                <br>30%</p>
                  <p id=""wtp"" style=""text-align:center; margin-top: 0px; margin-bottom: 0px; font-size: 40px"";>&ensp;</p>","-","viewing","0","11","3C,20A,22A","","","","","","","","","","","","","","","","","","","","","",""
"","","","","","html-slider-response","109","1059357","0.0-17.0-1.30","88625c55-ffca-498e-a1e4-4f68997442ff","1925","
                  <p style=""text-align: center;"">₪36
                                                <br>30%</p>
                  <p id=""wtp"" style=""text-align:center; margin-top: 0px; margin-bottom: 0px; font-size: 40px"";>מוכנים לשלם: <span id=""c_p_y""></span></p>","30","evaluation","68","11","3C,20A,22A","30","36","30","","","","","","","","","","","","","","","","","","",""
"","","","","","html-keyboard-response","110","1060268","0.0-17.0-2.30","88625c55-ffca-498e-a1e4-4f68997442ff","null","<p style=""text-align: center;"">+</p>","null","fixation","","","","","","","","","","","","","","","","","","","","","","","","",""
"","","","","","html-keyboard-response","111","1061272","0.0-18.0","88625c55-ffca-498e-a1e4-4f68997442ff","null","<p style=""text-align: center;"">+</p>","null","fixation","","","","","","","","","","","","","","","","","","","","","","","","",""
"","","","","","html-keyboard-response","112","1070205","0.0-19.0","88625c55-ffca-498e-a1e4-4f68997442ff","null","<p>הפסקה.
          <br>לחצו כדי להמשיך.</p>","1","scan_wait","","","","","","","","","","","","","","","","","","","","","","","","",""
"","","","","","html-keyboard-response","113","1071206","0.0-20.0","88625c55-ffca-498e-a1e4-4f68997442ff","null","<p style=""text-align: center;"">+</p>","null","fixation","","","","","","","","","","","","","","","","","","","","","","","","",""
"","","","","","html-slider-response","114","1072213","0.0-21.0-0.0","88625c55-ffca-498e-a1e4-4f68997442ff","1000","
                  <p style=""text-align: center;"">₪11
                                                <br>45%</p>
                  <p id=""wtp"" style=""text-align:center; margin-top: 0px; margin-bottom: 0px; font-size: 40px"";>&ensp;</p>","-","viewing","0","6","14B,21C,25C","","","","","","","","","","","","","","","","","","","","","",""
"","","","","","html-slider-response","115","1073877","0.0-21.0-1.0","88625c55-ffca-498e-a1e4-4f68997442ff","1664","
                  <p style=""text-align: center;"">₪11
                                                <br>45%</p>
                  <p id=""wtp"" style=""text-align:center; margin-top: 0px; margin-bottom: 0px; font-size: 40px"";>מוכנים לשלם: <span id=""c_p_y""></span></p>","8","evaluation","55","6","14B,21C,25C","45","11","8","","","","","","","","","","","","","","","","","","",""
"","","","","","html-keyboard-response","116","1074448","0.0-21.0-2.0","88625c55-ffca-498e-a1e4-4f68997442ff","null","<p style=""text-align: center;"">+</p>","null","fixation","","","","","","","","","","","","","","","","","","","","","","","","",""
"","","","","","html-slider-response","117","1075450","0.0-21.0-0.1","88625c55-ffca-498e-a1e4-4f68997442ff","1000","
                  <p style=""text-align: center;"">₪64
                                                <br>50%</p>
                  <p id=""wtp"" style=""text-align:center; margin-top: 0px; margin-bottom: 0px; font-size: 40px"";>&ensp;</p>","-","viewing","0","25","1B,3B,4A","","","","","","","","","","","","","","","","","","","","","",""
"","","","","","html-slider-response","118","1077165","0.0-21.0-1.1","88625c55-ffca-498e-a1e4-4f68997442ff","1714","
                  <p style=""text-align: center;"">₪64
                                                <br>50%</p>
                  <p id=""wtp"" style=""text-align:center; margin-top: 0px; margin-bottom: 0px; font-size: 40px"";>מוכנים לשלם: <span id=""c_p_y""></span></p>","60","evaluation","23","25","1B,3B,4A","50","64","60","","","","","","","","","","","","","","","","","","",""
"","","","","","html-keyboard-response","119","1078519","0.0-21.0-2.1","88625c55-ffca-498e-a1e4-4f68997442ff","null","<p style=""text-align: center;"">+</p>","null","fixation","","","","","","","","","","","","","","","","","","","","","","","","",""
"","","","","","html-slider-response","120","1079523","0.0-21.0-0.2","88625c55-ffca-498e-a1e4-4f68997442ff","1000","
                  <p style=""text-align: center;"">₪11
                                                <br>20%</p>
                  <p id=""wtp"" style=""text-align:center; margin-top: 0px; margin-bottom: 0px; font-size: 40px"";>&ensp;</p>","-","viewing","0","4","12C,17C,23C,28C","","","","","","","","","","","","","","","","","","","","","",""
"","","","","","html-slider-response","121","1081268","0.0-21.0-1.2","88625c55-ffca-498e-a1e4-4f68997442ff","1744","
                  <p style=""text-align: center;"">₪11
                                                <br>20%</p>
                  <p id=""wtp"" style=""text-align:center; margin-top: 0px; margin-bottom: 0px; font-size: 40px"";>מוכנים לשלם: <span id=""c_p_y""></span></p>","5","evaluation","50","4","12C,17C,23C,28C","20","11","6","","","","","","","","","","","","","","","","","","",""
"","","","","","html-keyboard-response","122","1082156","0.0-21.0-2.2","88625c55-ffca-498e-a1e4-4f68997442ff","null","<p style=""text-align: center;"">+</p>","null","fixation","","","","","","","","","","","","","","","","","","","","","","","","",""
"","","","","","html-slider-response","123","1083158","0.0-21.0-0.3","88625c55-ffca-498e-a1e4-4f68997442ff","1000","
                  <p style=""text-align: center;"">₪39
                                                <br>65%</p>
                  <p id=""wtp"" style=""text-align:center; margin-top: 0px; margin-bottom: 0px; font-size: 40px"";>&ensp;</p>","-","viewing","0","16","1A,15A,26C","","","","","","","","","","","","","","","","","","","","","",""
"","","","","","html-slider-response","124","1084557","0.0-21.0-1.3","88625c55-ffca-498e-a1e4-4f68997442ff","1398","
                  <p style=""text-align: center;"">₪39
                                                <br>65%</p>
                  <p id=""wtp"" style=""text-align:center; margin-top: 0px; margin-bottom: 0px; font-size: 40px"";>מוכנים לשלם: <span id=""c_p_y""></span></p>","36","evaluation","70","16","1A,15A,26C","65","39","36","","","","","","","","","","","","","","","","","","",""
"","","","","","html-keyboard-response","125","1085143","0.0-21.0-2.3","88625c55-ffca-498e-a1e4-4f68997442ff","null","<p style=""text-align: center;"">+</p>","null","fixation","","","","","","","","","","","","","","","","","","","","","","","","",""
"","","","","","html-slider-response","126","1086146","0.0-21.0-0.4","88625c55-ffca-498e-a1e4-4f68997442ff","1000","
                  <p style=""text-align: center;"">₪43
                                                <br>75%</p>
                  <p id=""wtp"" style=""text-align:center; margin-top: 0px; margin-bottom: 0px; font-size: 40px"";>&ensp;</p>","-","viewing","0","18","11B,19B,24A,26A","","","","","","","","","","","","","","","","","","","","","",""
"","","","","","html-slider-response","127","1087253","0.0-21.0-1.4","88625c55-ffca-498e-a1e4-4f68997442ff","1105","
                  <p style=""text-align: center;"">₪43
                                                <br>75%</p>
                  <p id=""wtp"" style=""text-align:center; margin-top: 0px; margin-bottom: 0px; font-size: 40px"";>מוכנים לשלם: <span id=""c_p_y""></span></p>","41","evaluation","40","18","11B,19B,24A,26A","75","43","41","","","","","","","","","","","","","","","","","","",""
"","","","","","html-keyboard-response","128","1088713","0.0-21.0-2.4","88625c55-ffca-498e-a1e4-4f68997442ff","null","<p style=""text-align: center;"">+</p>","null","fixation","","","","","","","","","","","","","","","","","","","","","","","","",""
"","","","","","html-slider-response","129","1089724","0.0-21.0-0.5","88625c55-ffca-498e-a1e4-4f68997442ff","1000","
                  <p style=""text-align: center;"">₪71
                                                <br>45%</p>
                  <p id=""wtp"" style=""text-align:center; margin-top: 0px; margin-bottom: 0px; font-size: 40px"";>&ensp;</p>","-","viewing","0","26","2B,16A","","","","","","","","","","","","","","","","","","","","","",""
"","","","","","html-slider-response","130","1091709","0.0-21.0-1.5","88625c55-ffca-498e-a1e4-4f68997442ff","1983","
                  <p style=""text-align: center;"">₪71
                                                <br>45%</p>
                  <p id=""wtp"" style=""text-align:center; margin-top: 0px; margin-bottom: 0px; font-size: 40px"";>מוכנים לשלם: <span id=""c_p_y""></span></p>","65","evaluation","51","26","2B,16A","45","71","65","","","","","","","","","","","","","","","","","","",""
"","","","","","html-keyboard-response","131","1092875","0.0-21.0-2.5","88625c55-ffca-498e-a1e4-4f68997442ff","null","<p style=""text-align: center;"">+</p>","null","fixation","","","","","","","","","","","","","","","","","","","","","","","","",""
"","","","","","html-slider-response","132","1093878","0.0-21.0-0.6","88625c55-ffca-498e-a1e4-4f68997442ff","1000","
                  <p style=""text-align: center;"">₪79
                                                <br>40%</p>
                  <p id=""wtp"" style=""text-align:center; margin-top: 0px; margin-bottom: 0px; font-size: 40px"";>&ensp;</p>","-","viewing","0","30","9B","","","","","","","","","","","","","","","","","","","","","",""
"","","","","","html-slider-response","133","1095813","0.0-21.0-1.6","88625c55-ffca-498e-a1e4-4f68997442ff","1935","
                  <p style=""text-align: center;"">₪79
                                                <br>40%</p>
                  <p id=""wtp"" style=""text-align:center; margin-top: 0px; margin-bottom: 0px; font-size: 40px"";>מוכנים לשלם: <span id=""c_p_y""></span></p>","69","evaluation","7","30","9B","40","79","69","","","","","","","","","","","","","","","","","","",""
"","","","","","html-keyboard-response","134","1096872","0.0-21.0-2.6","88625c55-ffca-498e-a1e4-4f68997442ff","null","<p style=""text-align: center;"">+</p>","null","fixation","","","","","","","","","","","","","","","","","","","","","","","","",""
"","","","","","html-slider-response","135","1097875","0.0-21.0-0.7","88625c55-ffca-498e-a1e4-4f68997442ff","1000","
                  <p style=""text-align: center;"">₪36
                                                <br>75%</p>
                  <p id=""wtp"" style=""text-align:center; margin-top: 0px; margin-bottom: 0px; font-size: 40px"";>&ensp;</p>","-","viewing","0","14","4B,5A,13B,16B","","","","","","","","","","","","","","","","","","","","","",""
"","","","","","html-slider-response","136","1100357","0.0-21.0-1.7","88625c55-ffca-498e-a1e4-4f68997442ff","2480","
                  <p style=""text-align: center;"">₪36
                                                <br>75%</p>
                  <p id=""wtp"" style=""text-align:center; margin-top: 0px; margin-bottom: 0px; font-size: 40px"";>מוכנים לשלם: <span id=""c_p_y""></span></p>","32","evaluation","75","14","4B,5A,13B,16B","75","36","32","","","","","","","","","","","","","","","","","","",""
"","","","","","html-keyboard-response","137","1100925","0.0-21.0-2.7","88625c55-ffca-498e-a1e4-4f68997442ff","null","<p style=""text-align: center;"">+</p>","null","fixation","","","","","","","","","","","","","","","","","","","","","","","","",""
"","","","","","html-slider-response","138","1101929","0.0-21.0-0.8","88625c55-ffca-498e-a1e4-4f68997442ff","1000","
                  <p style=""text-align: center;"">₪71
                                                <br>75%</p>
                  <p id=""wtp"" style=""text-align:center; margin-top: 0px; margin-bottom: 0px; font-size: 40px"";>&ensp;</p>","-","viewing","0","28","8B","","","","","","","","","","","","","","","","","","","","","",""
"","","","","","html-slider-response","139","1104269","0.0-21.0-1.8","88625c55-ffca-498e-a1e4-4f68997442ff","2339","
                  <p style=""text-align: center;"">₪71
                                                <br>75%</p>
                  <p id=""wtp"" style=""text-align:center; margin-top: 0px; margin-bottom: 0px; font-size: 40px"";>מוכנים לשלם: <span id=""c_p_y""></span></p>","66","evaluation","20","28","8B","75","71","66","","","","","","","","","","","","","","","","","","",""
"","","","","","html-keyboard-response","140","1104959","0.0-21.0-2.8","88625c55-ffca-498e-a1e4-4f68997442ff","null","<p style=""text-align: center;"">+</p>","null","fixation","","","","","","","","","","","","","","","","","","","","","","","","",""
"","","","","","html-slider-response","141","1105966","0.0-21.0-0.9","88625c55-ffca-498e-a1e4-4f68997442ff","1000","
                  <p style=""text-align: center;"">₪76
                                                <br>65%</p>
                  <p id=""wtp"" style=""text-align:center; margin-top: 0px; margin-bottom: 0px; font-size: 40px"";>&ensp;</p>","-","viewing","0","29","8C,19A,24B","","","","","","","","","","","","","","","","","","","","","",""
"","","","","","html-slider-response","142","1107341","0.0-21.0-1.9","88625c55-ffca-498e-a1e4-4f68997442ff","1373","
                  <p style=""text-align: center;"">₪76
                                                <br>65%</p>
                  <p id=""wtp"" style=""text-align:center; margin-top: 0px; margin-bottom: 0px; font-size: 40px"";>מוכנים לשלם: <span id=""c_p_y""></span></p>","73","evaluation","6","29","8C,19A,24B","65","76","73","","","","","","","","","","","","","","","","","","",""
"","","","","","html-keyboard-response","143","1108180","0.0-21.0-2.9","88625c55-ffca-498e-a1e4-4f68997442ff","null","<p style=""text-align: center;"">+</p>","null","fixation","","","","","","","","","","","","","","","","","","","","","","","","",""
"","","","","","html-slider-response","144","1109187","0.0-21.0-0.10","88625c55-ffca-498e-a1e4-4f68997442ff","1000","
                  <p style=""text-align: center;"">₪58
                                                <br>40%</p>
                  <p id=""wtp"" style=""text-align:center; margin-top: 0px; margin-bottom: 0px; font-size: 40px"";>&ensp;</p>","-","viewing","0","20","10C,13A,19C,21B","","","","","","","","","","","","","","","","","","","","","",""
"","","","","","html-slider-response","145","1111725","0.0-21.0-1.10","88625c55-ffca-498e-a1e4-4f68997442ff","2537","
                  <p style=""text-align: center;"">₪58
                                                <br>40%</p>
                  <p id=""wtp"" style=""text-align:center; margin-top: 0px; margin-bottom: 0px; font-size: 40px"";>מוכנים לשלם: <span id=""c_p_y""></span></p>","54","evaluation","23","20","10C,13A,19C,21B","40","58","54","","","","","","","","","","","","","","","","","","",""
"","","","","","html-keyboard-response","146","1112553","0.0-21.0-2.10","88625c55-ffca-498e-a1e4-4f68997442ff","null","<p style=""text-align: center;"">+</p>","null","fixation","","","","","","","","","","","","","","","","","","","","","","","","",""
"","","","","","html-slider-response","147","1113558","0.0-21.0-0.11","88625c55-ffca-498e-a1e4-4f68997442ff","1000","
                  <p style=""text-align: center;"">₪36
                                                <br>60%</p>
                  <p id=""wtp"" style=""text-align:center; margin-top: 0px; margin-bottom: 0px; font-size: 40px"";>&ensp;</p>","-","viewing","0","12","1C,7C,15C","","","","","","","","","","","","","","","","","","","","","",""
"","","","","","html-slider-response","148","1115324","0.0-21.0-1.11","88625c55-ffca-498e-a1e4-4f68997442ff","1765","
                  <p style=""text-align: center;"">₪36
                                                <br>60%</p>
                  <p id=""wtp"" style=""text-align:center; margin-top: 0px; margin-bottom: 0px; font-size: 40px"";>מוכנים לשלם: <span id=""c_p_y""></span></p>","28","evaluation","9","12","1C,7C,15C","60","36","28","","","","","","","","","","","","","","","","","","",""
"","","","","","html-keyboard-response","149","1116149","0.0-21.0-2.11","88625c55-ffca-498e-a1e4-4f68997442ff","null","<p style=""text-align: center;"">+</p>","null","fixation","","","","","","","","","","","","","","","","","","","","","","","","",""
"","","","","","html-slider-response","150","1117159","0.0-21.0-0.12","88625c55-ffca-498e-a1e4-4f68997442ff","1000","
                  <p style=""text-align: center;"">₪11
                                                <br>25%</p>
                  <p id=""wtp"" style=""text-align:center; margin-top: 0px; margin-bottom: 0px; font-size: 40px"";>&ensp;</p>","-","viewing","0","5","12A,27B,28B,30B","","","","","","","","","","","","","","","","","","","","","",""
"","","","","","html-slider-response","151","1118716","0.0-21.0-1.12","88625c55-ffca-498e-a1e4-4f68997442ff","1556","
                  <p style=""text-align: center;"">₪11
                                                <br>25%</p>
                  <p id=""wtp"" style=""text-align:center; margin-top: 0px; margin-bottom: 0px; font-size: 40px"";>מוכנים לשלם: <span id=""c_p_y""></span></p>","8","evaluation","65","5","12A,27B,28B,30B","25","11","8","","","","","","","","","","","","","","","","","","",""
"","","","","","html-keyboard-response","152","1119533","0.0-21.0-2.12","88625c55-ffca-498e-a1e4-4f68997442ff","null","<p style=""text-align: center;"">+</p>","null","fixation","","","","","","","","","","","","","","","","","","","","","","","","",""
"","","","","","html-slider-response","153","1120547","0.0-21.0-0.13","88625c55-ffca-498e-a1e4-4f68997442ff","1000","
                  <p style=""text-align: center;"">₪58
                                                <br>30%</p>
                  <p id=""wtp"" style=""text-align:center; margin-top: 0px; margin-bottom: 0px; font-size: 40px"";>&ensp;</p>","-","viewing","0","19","13C,30A","","","","","","","","","","","","","","","","","","","","","",""
"","","","","","html-slider-response","154","1122644","0.0-21.0-1.13","88625c55-ffca-498e-a1e4-4f68997442ff","2096","
                  <p style=""text-align: center;"">₪58
                                                <br>30%</p>
                  <p id=""wtp"" style=""text-align:center; margin-top: 0px; margin-bottom: 0px; font-size: 40px"";>מוכנים לשלם: <span id=""c_p_y""></span></p>","44","evaluation","5","19","13C,30A","30","58","44","","","","","","","","","","","","","","","","","","",""
"","","","","","html-keyboard-response","155","1123313","0.0-21.0-2.13","88625c55-ffca-498e-a1e4-4f68997442ff","null","<p style=""text-align: center;"">+</p>","null","fixation","","","","","","","","","","","","","","","","","","","","","","","","",""
"","","","","","html-slider-response","156","1124318","0.0-21.0-0.14","88625c55-ffca-498e-a1e4-4f68997442ff","1000","
                  <p style=""text-align: center;"">₪4
                                                <br>50%</p>
                  <p id=""wtp"" style=""text-align:center; margin-top: 0px; margin-bottom: 0px; font-size: 40px"";>&ensp;</p>","-","viewing","0","2","4C,17B","","","","","","","","","","","","","","","","","","","","","",""
"","","","","","html-slider-response","157","1126012","0.0-21.0-1.14","88625c55-ffca-498e-a1e4-4f68997442ff","1693","
                  <p style=""text-align: center;"">₪4
                                                <br>50%</p>
                  <p id=""wtp"" style=""text-align:center; margin-top: 0px; margin-bottom: 0px; font-size: 40px"";>מוכנים לשלם: <span id=""c_p_y""></span></p>","3","evaluation","7","2","4C,17B","50","4","3","","","","","","","","","","","","","","","","","","",""
"","","","","","html-keyboard-response","158","1127500","0.0-21.0-2.14","88625c55-ffca-498e-a1e4-4f68997442ff","null","<p style=""text-align: center;"">+</p>","null","fixation","","","","","","","","","","","","","","","","","","","","","","","","",""
"","","","","","html-slider-response","159","1128505","0.0-21.0-0.15","88625c55-ffca-498e-a1e4-4f68997442ff","1000","
                  <p style=""text-align: center;"">₪18
                                                <br>25%</p>
                  <p id=""wtp"" style=""text-align:center; margin-top: 0px; margin-bottom: 0px; font-size: 40px"";>&ensp;</p>","-","viewing","0","9","14A,23A","","","","","","","","","","","","","","","","","","","","","",""
"","","","","","html-slider-response","160","1130916","0.0-21.0-1.15","88625c55-ffca-498e-a1e4-4f68997442ff","2409","
                  <p style=""text-align: center;"">₪18
                                                <br>25%</p>
                  <p id=""wtp"" style=""text-align:center; margin-top: 0px; margin-bottom: 0px; font-size: 40px"";>מוכנים לשלם: <span id=""c_p_y""></span></p>","11","evaluation","66","9","14A,23A","25","18","11","","","","","","","","","","","","","","","","","","",""
"","","","","","html-keyboard-response","161","1131702","0.0-21.0-2.15","88625c55-ffca-498e-a1e4-4f68997442ff","null","<p style=""text-align: center;"">+</p>","null","fixation","","","","","","","","","","","","","","","","","","","","","","","","",""
"","","","","","html-slider-response","162","1132711","0.0-21.0-0.16","88625c55-ffca-498e-a1e4-4f68997442ff","1000","
                  <p style=""text-align: center;"">₪43
                                                <br>60%</p>
                  <p id=""wtp"" style=""text-align:center; margin-top: 0px; margin-bottom: 0px; font-size: 40px"";>&ensp;</p>","-","viewing","0","17","2A,7A,9A,15B","","","","","","","","","","","","","","","","","","","","","",""
"","","","","","html-slider-response","163","1134068","0.0-21.0-1.16","88625c55-ffca-498e-a1e4-4f68997442ff","1356","
                  <p style=""text-align: center;"">₪43
                                                <br>60%</p>
                  <p id=""wtp"" style=""text-align:center; margin-top: 0px; margin-bottom: 0px; font-size: 40px"";>מוכנים לשלם: <span id=""c_p_y""></span></p>","32","evaluation","42","17","2A,7A,9A,15B","60","43","32","","","","","","","","","","","","","","","","","","",""
"","","","","","html-keyboard-response","164","1135389","0.0-21.0-2.16","88625c55-ffca-498e-a1e4-4f68997442ff","null","<p style=""text-align: center;"">+</p>","null","fixation","","","","","","","","","","","","","","","","","","","","","","","","",""
"","","","","","html-slider-response","165","1136394","0.0-21.0-0.17","88625c55-ffca-498e-a1e4-4f68997442ff","1000","
                  <p style=""text-align: center;"">₪11
                                                <br>75%</p>
                  <p id=""wtp"" style=""text-align:center; margin-top: 0px; margin-bottom: 0px; font-size: 40px"";>&ensp;</p>","-","viewing","0","7","6B,18B,22C,24C,29A","","","","","","","","","","","","","","","","","","","","","",""
"","","","","","html-slider-response","166","1137940","0.0-21.0-1.17","88625c55-ffca-498e-a1e4-4f68997442ff","1545","
                  <p style=""text-align: center;"">₪11
                                                <br>75%</p>
                  <p id=""wtp"" style=""text-align:center; margin-top: 0px; margin-bottom: 0px; font-size: 40px"";>מוכנים לשלם: <span id=""c_p_y""></span></p>","7","evaluation","22","7","6B,18B,22C,24C,29A","75","11","7","","","","","","","","","","","","","","","","","","",""
"","","","","","html-keyboard-response","167","1138472","0.0-21.0-2.17","88625c55-ffca-498e-a1e4-4f68997442ff","null","<p style=""text-align: center;"">+</p>","null","fixation","","","","","","","","","","","","","","","","","","","","","","","","",""
"","","","","","html-slider-response","168","1139474","0.0-21.0-0.18","88625c55-ffca-498e-a1e4-4f68997442ff","1000","
                  <p style=""text-align: center;"">₪61
                                                <br>55%</p>
                  <p id=""wtp"" style=""text-align:center; margin-top: 0px; margin-bottom: 0px; font-size: 40px"";>&ensp;</p>","-","viewing","0","23","7B,26B","","","","","","","","","","","","","","","","","","","","","",""
"","","","","","html-slider-response","169","1141628","0.0-21.0-1.18","88625c55-ffca-498e-a1e4-4f68997442ff","2153","
                  <p style=""text-align: center;"">₪61
                                                <br>55%</p>
                  <p id=""wtp"" style=""text-align:center; margin-top: 0px; margin-bottom: 0px; font-size: 40px"";>מוכנים לשלם: <span id=""c_p_y""></span></p>","55","evaluation","13","23","7B,26B","55","61","55","","","","","","","","","","","","","","","","","","",""
"","","","","","html-keyboard-response","170","1142559","0.0-21.0-2.18","88625c55-ffca-498e-a1e4-4f68997442ff","null","<p style=""text-align: center;"">+</p>","null","fixation","","","","","","","","","","","","","","","","","","","","","","","","",""
"","","","","","html-slider-response","171","1143572","0.0-21.0-0.19","88625c55-ffca-498e-a1e4-4f68997442ff","1000","
                  <p style=""text-align: center;"">₪18
                                                <br>50%</p>
                  <p id=""wtp"" style=""text-align:center; margin-top: 0px; margin-bottom: 0px; font-size: 40px"";>&ensp;</p>","-","viewing","0","10","2C,16C,22B,28A","","","","","","","","","","","","","","","","","","","","","",""
"","","","","","html-slider-response","172","1145812","0.0-21.0-1.19","88625c55-ffca-498e-a1e4-4f68997442ff","2240","
                  <p style=""text-align: center;"">₪18
                                                <br>50%</p>
                  <p id=""wtp"" style=""text-align:center; margin-top: 0px; margin-bottom: 0px; font-size: 40px"";>מוכנים לשלם: <span id=""c_p_y""></span></p>","14","evaluation","14","10","2C,16C,22B,28A","50","18","14","","","","","","","","","","","","","","","","","","",""
"","","","","","html-keyboard-response","173","1146586","0.0-21.0-2.19","88625c55-ffca-498e-a1e4-4f68997442ff","null","<p style=""text-align: center;"">+</p>","null","fixation","","","","","","","","","","","","","","","","","","","","","","","","",""
"","","","","","html-slider-response","174","1147589","0.0-21.0-0.20","88625c55-ffca-498e-a1e4-4f68997442ff","1000","
                  <p style=""text-align: center;"">₪64
                                                <br>25%</p>
                  <p id=""wtp"" style=""text-align:center; margin-top: 0px; margin-bottom: 0px; font-size: 40px"";>&ensp;</p>","-","viewing","0","24","6A,21A","","","","","","","","","","","","","","","","","","","","","",""
"","","","","","html-slider-response","175","1150084","0.0-21.0-1.20","88625c55-ffca-498e-a1e4-4f68997442ff","2494","
                  <p style=""text-align: center;"">₪64
                                                <br>25%</p>
                  <p id=""wtp"" style=""text-align:center; margin-top: 0px; margin-bottom: 0px; font-size: 40px"";>מוכנים לשלם: <span id=""c_p_y""></span></p>","53","evaluation","55","24","6A,21A","25","64","53","","","","","","","","","","","","","","","","","","",""
"","","","","","html-keyboard-response","176","1151051","0.0-21.0-2.20","88625c55-ffca-498e-a1e4-4f68997442ff","null","<p style=""text-align: center;"">+</p>","null","fixation","","","","","","","","","","","","","","","","","","","","","","","","",""
"","","","","","html-slider-response","177","1152061","0.0-21.0-0.21","88625c55-ffca-498e-a1e4-4f68997442ff","1000","
                  <p style=""text-align: center;"">₪4
                                                <br>75%</p>
                  <p id=""wtp"" style=""text-align:center; margin-top: 0px; margin-bottom: 0px; font-size: 40px"";>&ensp;</p>","-","viewing","0","3","12B,20B,23B,27C,29C","","","","","","","","","","","","","","","","","","","","","",""
"","","","","","html-slider-response","178","1154076","0.0-21.0-1.21","88625c55-ffca-498e-a1e4-4f68997442ff","2014","
                  <p style=""text-align: center;"">₪4
                                                <br>75%</p>
                  <p id=""wtp"" style=""text-align:center; margin-top: 0px; margin-bottom: 0px; font-size: 40px"";>מוכנים לשלם: <span id=""c_p_y""></span></p>","3","evaluation","73","3","12B,20B,23B,27C,29C","75","4","3","","","","","","","","","","","","","","","","","","",""
"","","","","","html-keyboard-response","179","1155405","0.0-21.0-2.21","88625c55-ffca-498e-a1e4-4f68997442ff","null","<p style=""text-align: center;"">+</p>","null","fixation","","","","","","","","","","","","","","","","","","","","","","","","",""
"","","","","","html-slider-response","180","1156407","0.0-21.0-0.22","88625c55-ffca-498e-a1e4-4f68997442ff","1000","
                  <p style=""text-align: center;"">₪16
                                                <br>20%</p>
                  <p id=""wtp"" style=""text-align:center; margin-top: 0px; margin-bottom: 0px; font-size: 40px"";>&ensp;</p>","-","viewing","0","8","14C,17A,20C,27A","","","","","","","","","","","","","","","","","","","","","",""
"","","","","","html-slider-response","181","1158244","0.0-21.0-1.22","88625c55-ffca-498e-a1e4-4f68997442ff","1836","
                  <p style=""text-align: center;"">₪16
                                                <br>20%</p>
                  <p id=""wtp"" style=""text-align:center; margin-top: 0px; margin-bottom: 0px; font-size: 40px"";>מוכנים לשלם: <span id=""c_p_y""></span></p>","10","evaluation","26","8","14C,17A,20C,27A","20","16","10","","","","","","","","","","","","","","","","","","",""
"","","","","","html-keyboard-response","182","1159362","0.0-21.0-2.22","88625c55-ffca-498e-a1e4-4f68997442ff","null","<p style=""text-align: center;"">+</p>","null","fixation","","","","","","","","","","","","","","","","","","","","","","","","",""
"","","","","","html-slider-response","183","1160370","0.0-21.0-0.23","88625c55-ffca-498e-a1e4-4f68997442ff","1000","
                  <p style=""text-align: center;"">₪71
                                                <br>55%</p>
                  <p id=""wtp"" style=""text-align:center; margin-top: 0px; margin-bottom: 0px; font-size: 40px"";>&ensp;</p>","-","viewing","0","27","5B,18A","","","","","","","","","","","","","","","","","","","","","",""
"","","","","","html-slider-response","184","1162780","0.0-21.0-1.23","88625c55-ffca-498e-a1e4-4f68997442ff","2409","
                  <p style=""text-align: center;"">₪71
                                                <br>55%</p>
                  <p id=""wtp"" style=""text-align:center; margin-top: 0px; margin-bottom: 0px; font-size: 40px"";>מוכנים לשלם: <span id=""c_p_y""></span></p>","66","evaluation","41","27","5B,18A","55","71","66","","","","","","","","","","","","","","","","","","",""
"","","","","","html-keyboard-response","185","1163886","0.0-21.0-2.23","88625c55-ffca-498e-a1e4-4f68997442ff","null","<p style=""text-align: center;"">+</p>","null","fixation","","","","","","","","","","","","","","","","","","","","","","","","",""
"","","","","","html-slider-response","186","1164892","0.0-21.0-0.24","88625c55-ffca-498e-a1e4-4f68997442ff","1000","
                  <p style=""text-align: center;"">₪36
                                                <br>70%</p>
                  <p id=""wtp"" style=""text-align:center; margin-top: 0px; margin-bottom: 0px; font-size: 40px"";>&ensp;</p>","-","viewing","0","13","3A,5C,10B","","","","","","","","","","","","","","","","","","","","","",""
"","","","","","html-slider-response","187","1166932","0.0-21.0-1.24","88625c55-ffca-498e-a1e4-4f68997442ff","2039","
                  <p style=""text-align: center;"">₪36
                                                <br>70%</p>
                  <p id=""wtp"" style=""text-align:center; margin-top: 0px; margin-bottom: 0px; font-size: 40px"";>מוכנים לשלם: <span id=""c_p_y""></span></p>","30","evaluation","62","13","3A,5C,10B","70","36","30","","","","","","","","","","","","","","","","","","",""
"","","","","","html-keyboard-response","188","1167917","0.0-21.0-2.24","88625c55-ffca-498e-a1e4-4f68997442ff","null","<p style=""text-align: center;"">+</p>","null","fixation","","","","","","","","","","","","","","","","","","","","","","","","",""
"","","","","","html-slider-response","189","1168919","0.0-21.0-0.25","88625c55-ffca-498e-a1e4-4f68997442ff","1000","
                  <p style=""text-align: center;"">₪61
                                                <br>45%</p>
                  <p id=""wtp"" style=""text-align:center; margin-top: 0px; margin-bottom: 0px; font-size: 40px"";>&ensp;</p>","-","viewing","0","22","10A,11A","","","","","","","","","","","","","","","","","","","","","",""
"","","","","","html-slider-response","190","1171236","0.0-21.0-1.25","88625c55-ffca-498e-a1e4-4f68997442ff","2315","
                  <p style=""text-align: center;"">₪61
                                                <br>45%</p>
                  <p id=""wtp"" style=""text-align:center; margin-top: 0px; margin-bottom: 0px; font-size: 40px"";>מוכנים לשלם: <span id=""c_p_y""></span></p>","55","evaluation","12","22","10A,11A","45","61","55","","","","","","","","","","","","","","","","","","",""
"","","","","","html-keyboard-response","191","1172076","0.0-21.0-2.25","88625c55-ffca-498e-a1e4-4f68997442ff","null","<p style=""text-align: center;"">+</p>","null","fixation","","","","","","","","","","","","","","","","","","","","","","","","",""
"","","","","","html-slider-response","192","1173083","0.0-21.0-0.26","88625c55-ffca-498e-a1e4-4f68997442ff","1000","
                  <p style=""text-align: center;"">₪58
                                                <br>45%</p>
                  <p id=""wtp"" style=""text-align:center; margin-top: 0px; margin-bottom: 0px; font-size: 40px"";>&ensp;</p>","-","viewing","0","21","11C,18C,25A","","","","","","","","","","","","","","","","","","","","","",""
"","","","","","html-slider-response","193","1175244","0.0-21.0-1.26","88625c55-ffca-498e-a1e4-4f68997442ff","2160","
                  <p style=""text-align: center;"">₪58
                                                <br>45%</p>
                  <p id=""wtp"" style=""text-align:center; margin-top: 0px; margin-bottom: 0px; font-size: 40px"";>מוכנים לשלם: <span id=""c_p_y""></span></p>","53","evaluation","79","21","11C,18C,25A","45","58","53","","","","","","","","","","","","","","","","","","",""
"","","","","","html-keyboard-response","194","1176693","0.0-21.0-2.26","88625c55-ffca-498e-a1e4-4f68997442ff","null","<p style=""text-align: center;"">+</p>","null","fixation","","","","","","","","","","","","","","","","","","","","","","","","",""
"","","","","","html-slider-response","195","1177695","0.0-21.0-0.27","88625c55-ffca-498e-a1e4-4f68997442ff","1000","
                  <p style=""text-align: center;"">₪39
                                                <br>60%</p>
                  <p id=""wtp"" style=""text-align:center; margin-top: 0px; margin-bottom: 0px; font-size: 40px"";>&ensp;</p>","-","viewing","0","15","9C,25B","","","","","","","","","","","","","","","","","","","","","",""
"","","","","","html-slider-response","196","1179492","0.0-21.0-1.27","88625c55-ffca-498e-a1e4-4f68997442ff","1795","
                  <p style=""text-align: center;"">₪39
                                                <br>60%</p>
                  <p id=""wtp"" style=""text-align:center; margin-top: 0px; margin-bottom: 0px; font-size: 40px"";>מוכנים לשלם: <span id=""c_p_y""></span></p>","33","evaluation","30","15","9C,25B","60","39","33","","","","","","","","","","","","","","","","","","",""
"","","","","","html-keyboard-response","197","1180234","0.0-21.0-2.27","88625c55-ffca-498e-a1e4-4f68997442ff","null","<p style=""text-align: center;"">+</p>","null","fixation","","","","","","","","","","","","","","","","","","","","","","","","",""
"","","","","","html-slider-response","198","1181242","0.0-21.0-0.28","88625c55-ffca-498e-a1e4-4f68997442ff","1000","
                  <p style=""text-align: center;"">₪79
                                                <br>65%</p>
                  <p id=""wtp"" style=""text-align:center; margin-top: 0px; margin-bottom: 0px; font-size: 40px"";>&ensp;</p>","-","viewing","0","31","8A","","","","","","","","","","","","","","","","","","","","","",""
"","","","","","html-slider-response","199","1184044","0.0-21.0-1.28","88625c55-ffca-498e-a1e4-4f68997442ff","2801","
                  <p style=""text-align: center;"">₪79
                                                <br>65%</p>
                  <p id=""wtp"" style=""text-align:center; margin-top: 0px; margin-bottom: 0px; font-size: 40px"";>מוכנים לשלם: <span id=""c_p_y""></span></p>","69","evaluation","12","31","8A","65","79","69","","","","","","","","","","","","","","","","","","",""
"","","","","","html-keyboard-response","200","1185265","0.0-21.0-2.28","88625c55-ffca-498e-a1e4-4f68997442ff","null","<p style=""text-align: center;"">+</p>","null","fixation","","","","","","","","","","","","","","","","","","","","","","","","",""
"","","","","","html-slider-response","201","1186269","0.0-21.0-0.29","88625c55-ffca-498e-a1e4-4f68997442ff","1000","
                  <p style=""text-align: center;"">₪4
                                                <br>25%</p>
                  <p id=""wtp"" style=""text-align:center; margin-top: 0px; margin-bottom: 0px; font-size: 40px"";>&ensp;</p>","-","viewing","0","1","6C,29B,30C","","","","","","","","","","","","","","","","","","","","","",""
"","","","","","html-slider-response","202","1186868","0.0-21.0-1.29","88625c55-ffca-498e-a1e4-4f68997442ff","598","
                  <p style=""text-align: center;"">₪4
                                                <br>25%</p>
                  <p id=""wtp"" style=""text-align:center; margin-top: 0px; margin-bottom: 0px; font-size: 40px"";>מוכנים לשלם: <span id=""c_p_y""></span></p>","1","evaluation","5","1","6C,29B,30C","25","4","1","","","","","","","","","","","","","","","","","","",""
"","","","","","html-keyboard-response","203","1187475","0.0-21.0-2.29","88625c55-ffca-498e-a1e4-4f68997442ff","null","<p style=""text-align: center;"">+</p>","null","fixation","","","","","","","","","","","","","","","","","","","","","","","","",""
"","","","","","html-slider-response","204","1188478","0.0-21.0-0.30","88625c55-ffca-498e-a1e4-4f68997442ff","1000","
                  <p style=""text-align: center;"">₪36
                                                <br>30%</p>
                  <p id=""wtp"" style=""text-align:center; margin-top: 0px; margin-bottom: 0px; font-size: 40px"";>&ensp;</p>","-","viewing","0","11","3C,20A,22A","","","","","","","","","","","","","","","","","","","","","",""
"","","","","","html-slider-response","205","1189492","0.0-21.0-1.30","88625c55-ffca-498e-a1e4-4f68997442ff","1012","
                  <p style=""text-align: center;"">₪36
                                                <br>30%</p>
                  <p id=""wtp"" style=""text-align:center; margin-top: 0px; margin-bottom: 0px; font-size: 40px"";>מוכנים לשלם: <span id=""c_p_y""></span></p>","26","evaluation","62","11","3C,20A,22A","30","36","26","","","","","","","","","","","","","","","","","","",""
"","","","","","html-keyboard-response","206","1190075","0.0-21.0-2.30","88625c55-ffca-498e-a1e4-4f68997442ff","null","<p style=""text-align: center;"">+</p>","null","fixation","","","","","","","","","","","","","","","","","","","","","","","","",""
"","","","","","html-keyboard-response","207","1191088","0.0-22.0","88625c55-ffca-498e-a1e4-4f68997442ff","null","<p style=""text-align: center;"">+</p>","null","fixation","","","","","","","","","","","","","","","","","","","","","","","","",""
"","","","","","html-keyboard-response","208","1202564","0.0-23.0","88625c55-ffca-498e-a1e4-4f68997442ff","null","<p>הפסקה.
          <br>לחצו כדי להמשיך.</p>","1","scan_wait","","","","","","","","","","","","","","","","","","","","","","","","",""
"","","","","","html-keyboard-response","209","1203576","0.0-24.0","88625c55-ffca-498e-a1e4-4f68997442ff","null","<p style=""text-align: center;"">+</p>","null","fixation","","","","","","","","","","","","","","","","","","","","","","","","",""
"","","","","","html-slider-response","210","1204579","0.0-25.0-0.0","88625c55-ffca-498e-a1e4-4f68997442ff","1000","
                  <p style=""text-align: center;"">₪36
                                                <br>75%</p>
                  <p id=""wtp"" style=""text-align:center; margin-top: 0px; margin-bottom: 0px; font-size: 40px"";>&ensp;</p>","-","viewing","0","14","4B,5A,13B,16B","","","","","","","","","","","","","","","","","","","","","",""
"","","","","","html-slider-response","211","1206004","0.0-25.0-1.0","88625c55-ffca-498e-a1e4-4f68997442ff","1424","
                  <p style=""text-align: center;"">₪36
                                                <br>75%</p>
                  <p id=""wtp"" style=""text-align:center; margin-top: 0px; margin-bottom: 0px; font-size: 40px"";>מוכנים לשלם: <span id=""c_p_y""></span></p>","31","evaluation","61","14","4B,5A,13B,16B","75","36","31","","","","","","","","","","","","","","","","","","",""
"","","","","","html-keyboard-response","212","1207226","0.0-25.0-2.0","88625c55-ffca-498e-a1e4-4f68997442ff","null","<p style=""text-align: center;"">+</p>","null","fixation","","","","","","","","","","","","","","","","","","","","","","","","",""
"","","","","","html-slider-response","213","1208233","0.0-25.0-0.1","88625c55-ffca-498e-a1e4-4f68997442ff","1000","
                  <p style=""text-align: center;"">₪18
                                                <br>25%</p>
                  <p id=""wtp"" style=""text-align:center; margin-top: 0px; margin-bottom: 0px; font-size: 40px"";>&ensp;</p>","-","viewing","0","9","14A,23A","","","","","","","","","","","","","","","","","","","","","",""
"","","","","","html-slider-response","214","1209660","0.0-25.0-1.1","88625c55-ffca-498e-a1e4-4f68997442ff","1427","
                  <p style=""text-align: center;"">₪18
                                                <br>25%</p>
                  <p id=""wtp"" style=""text-align:center; margin-top: 0px; margin-bottom: 0px; font-size: 40px"";>מוכנים לשלם: <span id=""c_p_y""></span></p>","11","evaluation","58","9","14A,23A","25","18","11","","","","","","","","","","","","","","","","","","",""
"","","","","","html-keyboard-response","215","1210775","0.0-25.0-2.1","88625c55-ffca-498e-a1e4-4f68997442ff","null","<p style=""text-align: center;"">+</p>","null","fixation","","","","","","","","","","","","","","","","","","","","","","","","",""
"","","","","","html-slider-response","216","1211786","0.0-25.0-0.2","88625c55-ffca-498e-a1e4-4f68997442ff","1000","
                  <p style=""text-align: center;"">₪58
                                                <br>45%</p>
                  <p id=""wtp"" style=""text-align:center; margin-top: 0px; margin-bottom: 0px; font-size: 40px"";>&ensp;</p>","-","viewing","0","21","11C,18C,25A","","","","","","","","","","","","","","","","","","","","","",""
"","","","","","html-slider-response","217","1214484","0.0-25.0-1.2","88625c55-ffca-498e-a1e4-4f68997442ff","2697","
                  <p style=""text-align: center;"">₪58
                                                <br>45%</p>
                  <p id=""wtp"" style=""text-align:center; margin-top: 0px; margin-bottom: 0px; font-size: 40px"";>מוכנים לשלם: <span id=""c_p_y""></span></p>","52","evaluation","56","21","11C,18C,25A","45","58","52","","","","","","","","","","","","","","","","","","",""
"","","","","","html-keyboard-response","218","1215371","0.0-25.0-2.2","88625c55-ffca-498e-a1e4-4f68997442ff","null","<p style=""text-align: center;"">+</p>","null","fixation","","","","","","","","","","","","","","","","","","","","","","","","",""
"","","","","","html-slider-response","219","1216385","0.0-25.0-0.3","88625c55-ffca-498e-a1e4-4f68997442ff","1000","
                  <p style=""text-align: center;"">₪4
                                                <br>25%</p>
                  <p id=""wtp"" style=""text-align:center; margin-top: 0px; margin-bottom: 0px; font-size: 40px"";>&ensp;</p>","-","viewing","0","1","6C,29B,30C","","","","","","","","","","","","","","","","","","","","","",""
"","","","","","html-slider-response","220","1217868","0.0-25.0-1.3","88625c55-ffca-498e-a1e4-4f68997442ff","1481","
                  <p style=""text-align: center;"">₪4
                                                <br>25%</p>
                  <p id=""wtp"" style=""text-align:center; margin-top: 0px; margin-bottom: 0px; font-size: 40px"";>מוכנים לשלם: <span id=""c_p_y""></span></p>","0","evaluation","72","1","6C,29B,30C","25","4","1","","","","","","","","","","","","","","","","","","",""
"","","","","","html-keyboard-response","221","1218463","0.0-25.0-2.3","88625c55-ffca-498e-a1e4-4f68997442ff","null","<p style=""text-align: center;"">+</p>","null","fixation","","","","","","","","","","","","","","","","","","","","","","","","",""
"","","","","","html-slider-response","222","1219471","0.0-25.0-0.4","88625c55-ffca-498e-a1e4-4f68997442ff","1000","
                  <p style=""text-align: center;"">₪39
                                                <br>60%</p>
                  <p id=""wtp"" style=""text-align:center; margin-top: 0px; margin-bottom: 0px; font-size: 40px"";>&ensp;</p>","-","viewing","0","15","9C,25B","","","","","","","","","","","","","","","","","","","","","",""
"","","","","","html-slider-response","223","1220828","0.0-25.0-1.4","88625c55-ffca-498e-a1e4-4f68997442ff","1355","
                  <p style=""text-align: center;"">₪39
                                                <br>60%</p>
                  <p id=""wtp"" style=""text-align:center; margin-top: 0px; margin-bottom: 0px; font-size: 40px"";>מוכנים לשלם: <span id=""c_p_y""></span></p>","33","evaluation","12","15","9C,25B","60","39","33","","","","","","","","","","","","","","","","","","",""
"","","","","","html-keyboard-response","224","1221463","0.0-25.0-2.4","88625c55-ffca-498e-a1e4-4f68997442ff","null","<p style=""text-align: center;"">+</p>","null","fixation","","","","","","","","","","","","","","","","","","","","","","","","",""
"","","","","","html-slider-response","225","1222467","0.0-25.0-0.5","88625c55-ffca-498e-a1e4-4f68997442ff","1000","
                  <p style=""text-align: center;"">₪43
                                                <br>75%</p>
                  <p id=""wtp"" style=""text-align:center; margin-top: 0px; margin-bottom: 0px; font-size: 40px"";>&ensp;</p>","-","viewing","0","18","11B,19B,24A,26A","","","","","","","","","","","","","","","","","","","","","",""
"","","","","","html-slider-response","226","1223188","0.0-25.0-1.5","88625c55-ffca-498e-a1e4-4f68997442ff","720","
                  <p style=""text-align: center;"">₪43
                                                <br>75%</p>
                  <p id=""wtp"" style=""text-align:center; margin-top: 0px; margin-bottom: 0px; font-size: 40px"";>מוכנים לשלם: <span id=""c_p_y""></span></p>","39","evaluation","1","18","11B,19B,24A,26A","75","43","39","","","","","","","","","","","","","","","","","","",""
"","","","","","html-keyboard-response","227","1224550","0.0-25.0-2.5","88625c55-ffca-498e-a1e4-4f68997442ff","null","<p style=""text-align: center;"">+</p>","null","fixation","","","","","","","","","","","","","","","","","","","","","","","","",""
"","","","","","html-slider-response","228","1225552","0.0-25.0-0.6","88625c55-ffca-498e-a1e4-4f68997442ff","1000","
                  <p style=""text-align: center;"">₪43
                                                <br>60%</p>
                  <p id=""wtp"" style=""text-align:center; margin-top: 0px; margin-bottom: 0px; font-size: 40px"";>&ensp;</p>","-","viewing","0","17","2A,7A,9A,15B","","","","","","","","","","","","","","","","","","","","","",""
"","","","","","html-slider-response","229","1227100","0.0-25.0-1.6","88625c55-ffca-498e-a1e4-4f68997442ff","1546","
                  <p style=""text-align: center;"">₪43
                                                <br>60%</p>
                  <p id=""wtp"" style=""text-align:center; margin-top: 0px; margin-bottom: 0px; font-size: 40px"";>מוכנים לשלם: <span id=""c_p_y""></span></p>","31","evaluation","71","17","2A,7A,9A,15B","60","43","31","","","","","","","","","","","","","","","","","","",""
"","","","","","html-keyboard-response","230","1228379","0.0-25.0-2.6","88625c55-ffca-498e-a1e4-4f68997442ff","null","<p style=""text-align: center;"">+</p>","null","fixation","","","","","","","","","","","","","","","","","","","","","","","","",""
"","","","","","html-slider-response","231","1229388","0.0-25.0-0.7","88625c55-ffca-498e-a1e4-4f68997442ff","1000","
                  <p style=""text-align: center;"">₪58
                                                <br>40%</p>
                  <p id=""wtp"" style=""text-align:center; margin-top: 0px; margin-bottom: 0px; font-size: 40px"";>&ensp;</p>","-","viewing","0","20","10C,13A,19C,21B","","","","","","","","","","","","","","","","","","","","","",""
"","","","","","html-slider-response","232","1232516","0.0-25.0-1.7","88625c55-ffca-498e-a1e4-4f68997442ff","3128","
                  <p style=""text-align: center;"">₪58
                                                <br>40%</p>
                  <p id=""wtp"" style=""text-align:center; margin-top: 0px; margin-bottom: 0px; font-size: 40px"";>מוכנים לשלם: <span id=""c_p_y""></span></p>","51","evaluation","49","20","10C,13A,19C,21B","40","58","51","","","","","","","","","","","","","","","","","","",""
"","","","","","html-keyboard-response","233","1233622","0.0-25.0-2.7","88625c55-ffca-498e-a1e4-4f68997442ff","null","<p style=""text-align: center;"">+</p>","null","fixation","","","","","","","","","","","","","","","","","","","","","","","","",""
"","","","","","html-slider-response","234","1234626","0.0-25.0-0.8","88625c55-ffca-498e-a1e4-4f68997442ff","1000","
                  <p style=""text-align: center;"">₪11
                                                <br>25%</p>
                  <p id=""wtp"" style=""text-align:center; margin-top: 0px; margin-bottom: 0px; font-size: 40px"";>&ensp;</p>","-","viewing","0","5","12A,27B,28B,30B","","","","","","","","","","","","","","","","","","","","","",""
"","","","","","html-slider-response","235","1236035","0.0-25.0-1.8","88625c55-ffca-498e-a1e4-4f68997442ff","1407","
                  <p style=""text-align: center;"">₪11
                                                <br>25%</p>
                  <p id=""wtp"" style=""text-align:center; margin-top: 0px; margin-bottom: 0px; font-size: 40px"";>מוכנים לשלם: <span id=""c_p_y""></span></p>","7","evaluation","26","5","12A,27B,28B,30B","25","11","7","","","","","","","","","","","","","","","","","","",""
"","","","","","html-keyboard-response","236","1236571","0.0-25.0-2.8","88625c55-ffca-498e-a1e4-4f68997442ff","null","<p style=""text-align: center;"">+</p>","null","fixation","","","","","","","","","","","","","","","","","","","","","","","","",""
"","","","","","html-slider-response","237","1237583","0.0-25.0-0.9","88625c55-ffca-498e-a1e4-4f68997442ff","1000","
                  <p style=""text-align: center;"">₪36
                                                <br>70%</p>
                  <p id=""wtp"" style=""text-align:center; margin-top: 0px; margin-bottom: 0px; font-size: 40px"";>&ensp;</p>","-","viewing","0","13","3A,5C,10B","","","","","","","","","","","","","","","","","","","","","",""
"","","","","","html-slider-response","238","1239091","0.0-25.0-1.9","88625c55-ffca-498e-a1e4-4f68997442ff","1507","
                  <p style=""text-align: center;"">₪36
                                                <br>70%</p>
                  <p id=""wtp"" style=""text-align:center; margin-top: 0px; margin-bottom: 0px; font-size: 40px"";>מוכנים לשלם: <span id=""c_p_y""></span></p>","32","evaluation","8","13","3A,5C,10B","70","36","32","","","","","","","","","","","","","","","","","","",""
"","","","","","html-keyboard-response","239","1239775","0.0-25.0-2.9","88625c55-ffca-498e-a1e4-4f68997442ff","null","<p style=""text-align: center;"">+</p>","null","fixation","","","","","","","","","","","","","","","","","","","","","","","","",""
"","","","","","html-slider-response","240","1240778","0.0-25.0-0.10","88625c55-ffca-498e-a1e4-4f68997442ff","1000","
                  <p style=""text-align: center;"">₪11
                                                <br>20%</p>
                  <p id=""wtp"" style=""text-align:center; margin-top: 0px; margin-bottom: 0px; font-size: 40px"";>&ensp;</p>","-","viewing","0","4","12C,17C,23C,28C","","","","","","","","","","","","","","","","","","","","","",""
"","","","","","html-slider-response","241","1241451","0.0-25.0-1.10","88625c55-ffca-498e-a1e4-4f68997442ff","672","
                  <p style=""text-align: center;"">₪11
                                                <br>20%</p>
                  <p id=""wtp"" style=""text-align:center; margin-top: 0px; margin-bottom: 0px; font-size: 40px"";>מוכנים לשלם: <span id=""c_p_y""></span></p>","6","evaluation","53","4","12C,17C,23C,28C","20","11","6","","","","","","","","","","","","","","","","","","",""
"","","","","","html-keyboard-response","242","1242499","0.0-25.0-2.10","88625c55-ffca-498e-a1e4-4f68997442ff","null","<p style=""text-align: center;"">+</p>","null","fixation","","","","","","","","","","","","","","","","","","","","","","","","",""
"","","","","","html-slider-response","243","1243513","0.0-25.0-0.11","88625c55-ffca-498e-a1e4-4f68997442ff","1000","
                  <p style=""text-align: center;"">₪18
                                                <br>50%</p>
                  <p id=""wtp"" style=""text-align:center; margin-top: 0px; margin-bottom: 0px; font-size: 40px"";>&ensp;</p>","-","viewing","0","10","2C,16C,22B,28A","","","","","","","","","","","","","","","","","","","","","",""
"","","","","","html-slider-response","244","1244867","0.0-25.0-1.11","88625c55-ffca-498e-a1e4-4f68997442ff","1353","
                  <p style=""text-align: center;"">₪18
                                                <br>50%</p>
                  <p id=""wtp"" style=""text-align:center; margin-top: 0px; margin-bottom: 0px; font-size: 40px"";>מוכנים לשלם: <span id=""c_p_y""></span></p>","11","evaluation","53","10","2C,16C,22B,28A","50","18","11","","","","","","","","","","","","","","","","","","",""
