"success","timeout","failed_images","failed_audio","failed_video","trial_type","trial_index","time_elapsed","internal_node_id","subject_id","rt","stimulus","response","part","slider_start","ID","set_ID","prob","amount","last_location","actual_choice","actual_EV","binary_id","trinary_id","catch","A_key","D_key","choice_prob","choice_amount","potential_prize_prob","potential_prize_amount","won_prize","total_prize","remaining_budget","accuracy"
"true","false","[]","[]","[]","preload","0","5","0.0-0.0","db807547-e7a4-44fa-87cb-6be1690610f0","","","","","","","","","","","","","","","","","","","","","","","","",""
"","","","","","html-keyboard-response","1","16988","0.0-1.0","db807547-e7a4-44fa-87cb-6be1690610f0","null","
          <h1>שלום וברוכים הבאים!</h1>
          <p>לפניכם ניסוי בקבלת החלטות עם שני חלקים.
          <br><br>לחצו על העכבר כדי להמשיך.</p>","0","example","","","","","","","","","","","","","","","","","","","","",""
"","","","","","html-keyboard-response","2","24684","0.0-2.0","db807547-e7a4-44fa-87cb-6be1690610f0","null","
        <h1>חלק 1</h1>
        <p>בקרוב יוצגו בפניכם הגרלות.
        <br>עליכם לבחור את המחיר המירבי שתהיו מוכנים לשלם כדי להשתתף בהגרלה שתוצג.
        <br>יש לכם תקציב של ₪80 לכל הגרלה. 
        <br>נסו להעריך כל הגרלה בנפרד ולחשוב כמה היא שווה עבורכם, ₪80 זמינים לכל הגרלה בנפרד.
        <br><br>לחצו על העכבר כדי להמשיך.</p>","1","instructions","","","","","","","","","","","","","","","","","","","","",""
"","","","","","html-keyboard-response","3","33476","0.0-3.0","db807547-e7a4-44fa-87cb-6be1690610f0","null","
        <p>בסוף הניסוי, המחשב יבחר את אחת ההגרלות ויקבע מחיר לכרטיס עבורה. 
        <br>במידה והמחיר שבחרתם נמוך מהמחיר שנבחר על ידי המחשב, לא תשתתפו בהגרלה ותשארו עם מלוא התקציב.
        <br>במידה והמחיר שבחרתם גבוה מהמחיר שנבחר על ידי המחשב, תשלמו את המחיר שנקבע ותשתתפו בהגרלה.
        <br><br>לחצו על העכבר כדי להמשיך.</p>","1","instructions","","","","","","","","","","","","","","","","","","","","",""
"","","","","","html-slider-response","4","51628","0.0-4.0","db807547-e7a4-44fa-87cb-6be1690610f0","18038","
        <p style=""font-size: 42px;"">נתחיל עם דוגמא: 
        <br>ההגרלה מטה מציעה 65% סיכוי לזכות ב-₪40 
        <br>&emsp;&emsp;&emsp;&emsp;&emsp;&emsp;&emsp;&emsp;&ensp;35% סיכוי לזכות ב-₪0.
        <br><br>מה המחיר המירבי שתהיו מוכנים לשלם על כרטיס להגרלה זו בין 0 ל-₪80?
        <br>הזיזו את העכבר על פני המלבן ולחצו כדי לבצע בחירה.</p>
        
        <p style=""text-align: center;"">₪40<br>65%</p>

        <p id=""wtp"" style=""text-align:center; margin-top: 0px; margin-bottom: 0px; font-size: 40px"";>מוכנים לשלם: <span id=""c_p_y""></span></p>","30","example","59","","","","","","","","","","","","","","","","","","","",""
"","","","","","html-keyboard-response","5","56924","0.0-5.0","db807547-e7a4-44fa-87cb-6be1690610f0","null","<p>יפה מאוד!
                <br> בחרתם שתהיו מוכנים לשלם ₪30 כדי להשתתף בהגרלה:
                <br><p style=""text-align: center;"">₪40<br>65%</p>
                <p>נשמע נכון?
                <br>נניח שהגרלה זו נבחרה בסוף הניסוי.
                <br>כעת המחשב יקבע מחיר עבורה באקראי.
                <br>לחצו על העכבר להמשך.</p>","1","example","","","","","","","","","","","","","","","","","","","","",""
"","","","","","html-keyboard-response","6","63188","0.0-6.0","db807547-e7a4-44fa-87cb-6be1690610f0","null","<p>המחשב קבע מחיר: ₪33
                <br>ואתם בחרתם לשלם לכל היותר: ₪30
                <br><br>מכיוון שהמחיר שבחרתם נמוך מהמחיר שנקבע, לא תתשתתפו בהגרלה.
                <br>במקרה כזה, בסוף הניסוי תקבלו את כל התקציב ההתחלתי של ₪80.
                <br><br>לחצו על העכבר להמשך.</p>","1","example","","","","","","","","","","","","","","","","","","","","",""
"","","","","","html-slider-response","7","70581","0.0-7.0","db807547-e7a4-44fa-87cb-6be1690610f0","7131","<p style=""font-size: 42px;"">הנה עוד דוגמא:
                <br>ההגרלה מטה מציעה 35% סיכוי לזכות ב-₪18 
                <br>&emsp;&emsp;&emsp;&emsp;&emsp;&emsp;&emsp;&emsp;&ensp;65% סיכוי לזכות ב-₪0.</p>
        
                <p style=""text-align: center;"">₪18<br>35%</p>
                <p id=""wtp"" style=""text-align:center; margin-top: 0px; margin-bottom: 0px; font-size: 40px"";>מוכנים לשלם: <span id=""c_p_y""></span></p>","10","example","63","","","","","","","","","","","","","","","","","","","",""
"","","","","","html-keyboard-response","8","71796","0.0-8.0","db807547-e7a4-44fa-87cb-6be1690610f0","null","<p>הייתם מוכנים לשלם  ₪10 כדי להשתתף בהגרלה:
                <p style=""text-align: center;"">₪18<br>35%</p>
                <p>כעת נניח שהמחשב בחר את ההגרלה הזו בסוף הניסוי, וקבע עבורה מחיר.
                <br><br>לחצו על העכבר כדי להמשיך.</p>","1","instructions","","","","","","","","","","","","","","","","","","","","",""
"","","","","","html-keyboard-response","9","76764","0.0-9.0","db807547-e7a4-44fa-87cb-6be1690610f0","null","<p>המחשב קבע מחיר להגרלה: ₪2<br>ואתם בחרתם לשלם לכל היותר: ₪10
                <br><br>כעת המחיר שנקבע נמוך מזה שבחרתם, אז תשלמו את המחיר שקבע המחשב (₪2) ותשתתפו בהגרלה.
                <br>במקרה כזה, תסיימו את הניסוי עם תקציב של ₪78 ועם סיכוי לזכות ב-₪18 נוספים מההגרלה.
                <br>כלומר, תוכלו לקבל ₪78 אם לא תזכו בהגרלה, או ₪96 אם תזכו בהגרלה.
                <br><br>לחצו על העכבר להמשך.</p>","1","example","","","","","","","","","","","","","","","","","","","","",""
"","","","","","html-keyboard-response","10","89252","0.0-10.0","db807547-e7a4-44fa-87cb-6be1690610f0","null","<p>במהלך הניסוי, קודם תראו את ההגרלה ורק לאחר מכן תוכלו לבחור.
                <p>כמו כן, יהיו לכם מספר שניות מוגבל להגיב.
                <p>בואו ננסה זאת עם ההגרלה הקודמת.
                <br>לחצו על העכבר כדי להמשיך.</p>","1","instructions","","","","","","","","","","","","","","","","","","","","",""
"","","","","","html-slider-response","11","90514","0.0-11.0","db807547-e7a4-44fa-87cb-6be1690610f0","1000","
                    <p style=""text-align: center;"">₪18<br>35%</p>
                    <p id=""wtp"" style=""text-align:center; margin-top: 0px; margin-bottom: 0px; font-size: 40px"";>&ensp;</p>","39","instructions","0","","","","","","","","","","","","","","","","","","","",""
"","","","","","html-slider-response","12","93405","0.0-12.0","db807547-e7a4-44fa-87cb-6be1690610f0","2623","
                    <p style=""text-align: center;"">₪18<br>35%</p>
                    <p id=""wtp"" style=""text-align:center; margin-top: 0px; margin-bottom: 0px; font-size: 40px"";>מוכנים לשלם: <span id=""c_p_y""></span></p>","11","instructions","57","","","","","","","","","","","","","","","","","","","",""
"","","","","","html-keyboard-response","13","95548","0.0-13.0","db807547-e7a4-44fa-87cb-6be1690610f0","null","<p>יפה. הפעם בחרתם לשלם לכל היותר ₪11.
                <br><br>לחצו על העכבר כדי להמשיך.</p>","1","instructions","","","","","","","","","","","","","","","","","","","","",""
"","","","","","html-keyboard-response","14","105372","0.0-15.0","db807547-e7a4-44fa-87cb-6be1690610f0","null","<p>כעת נתחיל את הניסוי.
                <br><br>אתם תראו הגרלות ותתבקשו לבחור כמה תהיו מוכנים לשלם כדי להשתתף בהן.
                <br>יש לכם תקציב של ₪80 עבור כל הגרלה.
                <br>בסוף הניסוי הגרלה אחת תבחר באקראי ותשוחק.
                <br><br>לחצו על העכבר כדי להתחיל את הניסוי.</p>","1","instructions","","","","","","","","","","","","","","","","","","","","",""
"","","","","","html-keyboard-response","15","106633","0.0-16.0","db807547-e7a4-44fa-87cb-6be1690610f0","null","<p style=""text-align: center;"">+</p>","null","fixation","","","","","","","","","","","","","","","","","","","","",""
"","","","","","html-slider-response","16","107635","0.0-17.0-0.0","db807547-e7a4-44fa-87cb-6be1690610f0","1000","
                  <p style=""text-align: center;"">₪71
                                                <br>55%</p>
                  <p id=""wtp"" style=""text-align:center; margin-top: 0px; margin-bottom: 0px; font-size: 40px"";>&ensp;</p>","-","viewing","0","27","5B,18A","","","","","","","","","","","","","","","","","",""
"","","","","","html-slider-response","17","108572","0.0-17.0-1.0","db807547-e7a4-44fa-87cb-6be1690610f0","935","
                  <p style=""text-align: center;"">₪71
                                                <br>55%</p>
                  <p id=""wtp"" style=""text-align:center; margin-top: 0px; margin-bottom: 0px; font-size: 40px"";>מוכנים לשלם: <span id=""c_p_y""></span></p>","8","evaluation","53","27","5B,18A","55","71","8","","","","","","","","","","","","","","",""
"","","","","","html-keyboard-response","18","109276","0.0-17.0-2.0","db807547-e7a4-44fa-87cb-6be1690610f0","null","<p style=""text-align: center;"">+</p>","null","fixation","","","","","","","","","","","","","","","","","","","","",""
"","","","","","html-slider-response","19","110278","0.0-17.0-0.1","db807547-e7a4-44fa-87cb-6be1690610f0","1000","
                  <p style=""text-align: center;"">₪11
                                                <br>25%</p>
                  <p id=""wtp"" style=""text-align:center; margin-top: 0px; margin-bottom: 0px; font-size: 40px"";>&ensp;</p>","-","viewing","0","5","12A,27B,28B,30B","","","","","","","","","","","","","","","","","",""
"","","","","","html-slider-response","20","111124","0.0-17.0-1.1","db807547-e7a4-44fa-87cb-6be1690610f0","845","
                  <p style=""text-align: center;"">₪11
                                                <br>25%</p>
                  <p id=""wtp"" style=""text-align:center; margin-top: 0px; margin-bottom: 0px; font-size: 40px"";>מוכנים לשלם: <span id=""c_p_y""></span></p>","0","evaluation","9","5","12A,27B,28B,30B","25","11","0","","","","","","","","","","","","","","",""
"","","","","","html-keyboard-response","21","111799","0.0-17.0-2.1","db807547-e7a4-44fa-87cb-6be1690610f0","null","<p style=""text-align: center;"">+</p>","null","fixation","","","","","","","","","","","","","","","","","","","","",""
"","","","","","html-slider-response","22","112806","0.0-17.0-0.2","db807547-e7a4-44fa-87cb-6be1690610f0","1000","
                  <p style=""text-align: center;"">₪61
                                                <br>45%</p>
                  <p id=""wtp"" style=""text-align:center; margin-top: 0px; margin-bottom: 0px; font-size: 40px"";>&ensp;</p>","-","viewing","0","22","10A,11A","","","","","","","","","","","","","","","","","",""
"","","","","","html-slider-response","23","113956","0.0-17.0-1.2","db807547-e7a4-44fa-87cb-6be1690610f0","1150","
                  <p style=""text-align: center;"">₪61
                                                <br>45%</p>
                  <p id=""wtp"" style=""text-align:center; margin-top: 0px; margin-bottom: 0px; font-size: 40px"";>מוכנים לשלם: <span id=""c_p_y""></span></p>","13","evaluation","72","22","10A,11A","45","61","13","","","","","","","","","","","","","","",""
"","","","","","html-keyboard-response","24","114843","0.0-17.0-2.2","db807547-e7a4-44fa-87cb-6be1690610f0","null","<p style=""text-align: center;"">+</p>","null","fixation","","","","","","","","","","","","","","","","","","","","",""
"","","","","","html-slider-response","25","115856","0.0-17.0-0.3","db807547-e7a4-44fa-87cb-6be1690610f0","1000","
                  <p style=""text-align: center;"">₪64
                                                <br>50%</p>
                  <p id=""wtp"" style=""text-align:center; margin-top: 0px; margin-bottom: 0px; font-size: 40px"";>&ensp;</p>","-","viewing","0","25","1B,3B,4A","","","","","","","","","","","","","","","","","",""
"","","","","","html-slider-response","26","116628","0.0-17.0-1.3","db807547-e7a4-44fa-87cb-6be1690610f0","771","
                  <p style=""text-align: center;"">₪64
                                                <br>50%</p>
                  <p id=""wtp"" style=""text-align:center; margin-top: 0px; margin-bottom: 0px; font-size: 40px"";>מוכנים לשלם: <span id=""c_p_y""></span></p>","20","evaluation","1","25","1B,3B,4A","50","64","20","","","","","","","","","","","","","","",""
"","","","","","html-keyboard-response","27","117137","0.0-17.0-2.3","db807547-e7a4-44fa-87cb-6be1690610f0","null","<p style=""text-align: center;"">+</p>","null","fixation","","","","","","","","","","","","","","","","","","","","",""
"","","","","","html-slider-response","28","118140","0.0-17.0-0.4","db807547-e7a4-44fa-87cb-6be1690610f0","1000","
                  <p style=""text-align: center;"">₪71
                                                <br>45%</p>
                  <p id=""wtp"" style=""text-align:center; margin-top: 0px; margin-bottom: 0px; font-size: 40px"";>&ensp;</p>","-","viewing","0","26","2B,16A","","","","","","","","","","","","","","","","","",""
"","","","","","html-slider-response","29","118980","0.0-17.0-1.4","db807547-e7a4-44fa-87cb-6be1690610f0","840","
                  <p style=""text-align: center;"">₪71
                                                <br>45%</p>
                  <p id=""wtp"" style=""text-align:center; margin-top: 0px; margin-bottom: 0px; font-size: 40px"";>מוכנים לשלם: <span id=""c_p_y""></span></p>","7","evaluation","44","26","2B,16A","45","71","7","","","","","","","","","","","","","","",""
"","","","","","html-keyboard-response","30","120388","0.0-17.0-2.4","db807547-e7a4-44fa-87cb-6be1690610f0","null","<p style=""text-align: center;"">+</p>","null","fixation","","","","","","","","","","","","","","","","","","","","",""
"","","","","","html-slider-response","31","121393","0.0-17.0-0.5","db807547-e7a4-44fa-87cb-6be1690610f0","1000","
                  <p style=""text-align: center;"">₪79
                                                <br>65%</p>
                  <p id=""wtp"" style=""text-align:center; margin-top: 0px; margin-bottom: 0px; font-size: 40px"";>&ensp;</p>","-","viewing","0","31","8A","","","","","","","","","","","","","","","","","",""
"","","","","","html-slider-response","32","122804","0.0-17.0-1.5","db807547-e7a4-44fa-87cb-6be1690610f0","1410","
                  <p style=""text-align: center;"">₪79
                                                <br>65%</p>
                  <p id=""wtp"" style=""text-align:center; margin-top: 0px; margin-bottom: 0px; font-size: 40px"";>מוכנים לשלם: <span id=""c_p_y""></span></p>","35","evaluation","59","31","8A","65","79","35","","","","","","","","","","","","","","",""
"","","","","","html-keyboard-response","33","123869","0.0-17.0-2.5","db807547-e7a4-44fa-87cb-6be1690610f0","null","<p style=""text-align: center;"">+</p>","null","fixation","","","","","","","","","","","","","","","","","","","","",""
"","","","","","html-slider-response","34","124871","0.0-17.0-0.6","db807547-e7a4-44fa-87cb-6be1690610f0","1000","
                  <p style=""text-align: center;"">₪79
                                                <br>40%</p>
                  <p id=""wtp"" style=""text-align:center; margin-top: 0px; margin-bottom: 0px; font-size: 40px"";>&ensp;</p>","-","viewing","0","30","9B","","","","","","","","","","","","","","","","","",""
"","","","","","html-slider-response","35","125660","0.0-17.0-1.6","db807547-e7a4-44fa-87cb-6be1690610f0","788","
                  <p style=""text-align: center;"">₪79
                                                <br>40%</p>
                  <p id=""wtp"" style=""text-align:center; margin-top: 0px; margin-bottom: 0px; font-size: 40px"";>מוכנים לשלם: <span id=""c_p_y""></span></p>","13","evaluation","74","30","9B","40","79","13","","","","","","","","","","","","","","",""
"","","","","","html-keyboard-response","36","127044","0.0-17.0-2.6","db807547-e7a4-44fa-87cb-6be1690610f0","null","<p style=""text-align: center;"">+</p>","null","fixation","","","","","","","","","","","","","","","","","","","","",""
"","","","","","html-slider-response","37","128056","0.0-17.0-0.7","db807547-e7a4-44fa-87cb-6be1690610f0","1000","
                  <p style=""text-align: center;"">₪58
                                                <br>40%</p>
                  <p id=""wtp"" style=""text-align:center; margin-top: 0px; margin-bottom: 0px; font-size: 40px"";>&ensp;</p>","-","viewing","0","20","10C,13A,19C,21B","","","","","","","","","","","","","","","","","",""
"","","","","","html-slider-response","38","129340","0.0-17.0-1.7","db807547-e7a4-44fa-87cb-6be1690610f0","1283","
                  <p style=""text-align: center;"">₪58
                                                <br>40%</p>
                  <p id=""wtp"" style=""text-align:center; margin-top: 0px; margin-bottom: 0px; font-size: 40px"";>מוכנים לשלם: <span id=""c_p_y""></span></p>","9","evaluation","71","20","10C,13A,19C,21B","40","58","9","","","","","","","","","","","","","","",""
"","","","","","html-keyboard-response","39","130410","0.0-17.0-2.7","db807547-e7a4-44fa-87cb-6be1690610f0","null","<p style=""text-align: center;"">+</p>","null","fixation","","","","","","","","","","","","","","","","","","","","",""
"","","","","","html-slider-response","40","131419","0.0-17.0-0.8","db807547-e7a4-44fa-87cb-6be1690610f0","1000","
                  <p style=""text-align: center;"">₪36
                                                <br>30%</p>
                  <p id=""wtp"" style=""text-align:center; margin-top: 0px; margin-bottom: 0px; font-size: 40px"";>&ensp;</p>","-","viewing","0","11","3C,20A,22A","","","","","","","","","","","","","","","","","",""
"","","","","","html-slider-response","41","132452","0.0-17.0-1.8","db807547-e7a4-44fa-87cb-6be1690610f0","1032","
                  <p style=""text-align: center;"">₪36
                                                <br>30%</p>
                  <p id=""wtp"" style=""text-align:center; margin-top: 0px; margin-bottom: 0px; font-size: 40px"";>מוכנים לשלם: <span id=""c_p_y""></span></p>","6","evaluation","26","11","3C,20A,22A","30","36","6","","","","","","","","","","","","","","",""
"","","","","","html-keyboard-response","42","133549","0.0-17.0-2.8","db807547-e7a4-44fa-87cb-6be1690610f0","null","<p style=""text-align: center;"">+</p>","null","fixation","","","","","","","","","","","","","","","","","","","","",""
"","","","","","html-slider-response","43","134552","0.0-17.0-0.9","db807547-e7a4-44fa-87cb-6be1690610f0","1000","
                  <p style=""text-align: center;"">₪36
                                                <br>70%</p>
                  <p id=""wtp"" style=""text-align:center; margin-top: 0px; margin-bottom: 0px; font-size: 40px"";>&ensp;</p>","-","viewing","0","13","3A,5C,10B","","","","","","","","","","","","","","","","","",""
"","","","","","html-slider-response","44","135812","0.0-17.0-1.9","db807547-e7a4-44fa-87cb-6be1690610f0","1259","
                  <p style=""text-align: center;"">₪36
                                                <br>70%</p>
                  <p id=""wtp"" style=""text-align:center; margin-top: 0px; margin-bottom: 0px; font-size: 40px"";>מוכנים לשלם: <span id=""c_p_y""></span></p>","14","evaluation","4","13","3A,5C,10B","70","36","14","","","","","","","","","","","","","","",""
"","","","","","html-keyboard-response","45","136926","0.0-17.0-2.9","db807547-e7a4-44fa-87cb-6be1690610f0","null","<p style=""text-align: center;"">+</p>","null","fixation","","","","","","","","","","","","","","","","","","","","",""
"","","","","","html-slider-response","46","137927","0.0-17.0-0.10","db807547-e7a4-44fa-87cb-6be1690610f0","1000","
                  <p style=""text-align: center;"">₪18
                                                <br>25%</p>
                  <p id=""wtp"" style=""text-align:center; margin-top: 0px; margin-bottom: 0px; font-size: 40px"";>&ensp;</p>","-","viewing","0","9","14A,23A","","","","","","","","","","","","","","","","","",""
"","","","","","html-slider-response","47","138804","0.0-17.0-1.10","db807547-e7a4-44fa-87cb-6be1690610f0","875","
                  <p style=""text-align: center;"">₪18
                                                <br>25%</p>
                  <p id=""wtp"" style=""text-align:center; margin-top: 0px; margin-bottom: 0px; font-size: 40px"";>מוכנים לשלם: <span id=""c_p_y""></span></p>","0","evaluation","29","9","14A,23A","25","18","0","","","","","","","","","","","","","","",""
"","","","","","html-keyboard-response","48","139744","0.0-17.0-2.10","db807547-e7a4-44fa-87cb-6be1690610f0","null","<p style=""text-align: center;"">+</p>","null","fixation","","","","","","","","","","","","","","","","","","","","",""
"","","","","","html-slider-response","49","140761","0.0-17.0-0.11","db807547-e7a4-44fa-87cb-6be1690610f0","1000","
                  <p style=""text-align: center;"">₪11
                                                <br>45%</p>
                  <p id=""wtp"" style=""text-align:center; margin-top: 0px; margin-bottom: 0px; font-size: 40px"";>&ensp;</p>","-","viewing","0","6","14B,21C,25C","","","","","","","","","","","","","","","","","",""
"","","","","","html-slider-response","50","142692","0.0-17.0-1.11","db807547-e7a4-44fa-87cb-6be1690610f0","1930","
                  <p style=""text-align: center;"">₪11
                                                <br>45%</p>
                  <p id=""wtp"" style=""text-align:center; margin-top: 0px; margin-bottom: 0px; font-size: 40px"";>מוכנים לשלם: <span id=""c_p_y""></span></p>","0","evaluation","21","6","14B,21C,25C","45","11","0","","","","","","","","","","","","","","",""
"","","","","","html-keyboard-response","51","143599","0.0-17.0-2.11","db807547-e7a4-44fa-87cb-6be1690610f0","null","<p style=""text-align: center;"">+</p>","null","fixation","","","","","","","","","","","","","","","","","","","","",""
"","","","","","html-slider-response","52","144608","0.0-17.0-0.12","db807547-e7a4-44fa-87cb-6be1690610f0","1000","
                  <p style=""text-align: center;"">₪58
                                                <br>30%</p>
                  <p id=""wtp"" style=""text-align:center; margin-top: 0px; margin-bottom: 0px; font-size: 40px"";>&ensp;</p>","-","viewing","0","19","13C,30A","","","","","","","","","","","","","","","","","",""
"","","","","","html-slider-response","53","146324","0.0-17.0-1.12","db807547-e7a4-44fa-87cb-6be1690610f0","1715","
                  <p style=""text-align: center;"">₪58
                                                <br>30%</p>
                  <p id=""wtp"" style=""text-align:center; margin-top: 0px; margin-bottom: 0px; font-size: 40px"";>מוכנים לשלם: <span id=""c_p_y""></span></p>","12","evaluation","65","19","13C,30A","30","58","12","","","","","","","","","","","","","","",""
"","","","","","html-keyboard-response","54","147685","0.0-17.0-2.12","db807547-e7a4-44fa-87cb-6be1690610f0","null","<p style=""text-align: center;"">+</p>","null","fixation","","","","","","","","","","","","","","","","","","","","",""
"","","","","","html-slider-response","55","148695","0.0-17.0-0.13","db807547-e7a4-44fa-87cb-6be1690610f0","1000","
                  <p style=""text-align: center;"">₪36
                                                <br>60%</p>
                  <p id=""wtp"" style=""text-align:center; margin-top: 0px; margin-bottom: 0px; font-size: 40px"";>&ensp;</p>","-","viewing","0","12","1C,7C,15C","","","","","","","","","","","","","","","","","",""
"","","","","","html-slider-response","56","149508","0.0-17.0-1.13","db807547-e7a4-44fa-87cb-6be1690610f0","812","
                  <p style=""text-align: center;"">₪36
                                                <br>60%</p>
                  <p id=""wtp"" style=""text-align:center; margin-top: 0px; margin-bottom: 0px; font-size: 40px"";>מוכנים לשלם: <span id=""c_p_y""></span></p>","11","evaluation","4","12","1C,7C,15C","60","36","11","","","","","","","","","","","","","","",""
"","","","","","html-keyboard-response","57","150726","0.0-17.0-2.13","db807547-e7a4-44fa-87cb-6be1690610f0","null","<p style=""text-align: center;"">+</p>","null","fixation","","","","","","","","","","","","","","","","","","","","",""
"","","","","","html-slider-response","58","151728","0.0-17.0-0.14","db807547-e7a4-44fa-87cb-6be1690610f0","1000","
                  <p style=""text-align: center;"">₪76
                                                <br>65%</p>
                  <p id=""wtp"" style=""text-align:center; margin-top: 0px; margin-bottom: 0px; font-size: 40px"";>&ensp;</p>","-","viewing","0","29","8C,19A,24B","","","","","","","","","","","","","","","","","",""
"","","","","","html-slider-response","59","153412","0.0-17.0-1.14","db807547-e7a4-44fa-87cb-6be1690610f0","1683","
                  <p style=""text-align: center;"">₪76
                                                <br>65%</p>
                  <p id=""wtp"" style=""text-align:center; margin-top: 0px; margin-bottom: 0px; font-size: 40px"";>מוכנים לשלם: <span id=""c_p_y""></span></p>","29","evaluation","67","29","8C,19A,24B","65","76","29","","","","","","","","","","","","","","",""
"","","","","","html-keyboard-response","60","154525","0.0-17.0-2.14","db807547-e7a4-44fa-87cb-6be1690610f0","null","<p style=""text-align: center;"">+</p>","null","fixation","","","","","","","","","","","","","","","","","","","","",""
"","","","","","html-slider-response","61","155528","0.0-17.0-0.15","db807547-e7a4-44fa-87cb-6be1690610f0","1000","
                  <p style=""text-align: center;"">₪64
                                                <br>25%</p>
                  <p id=""wtp"" style=""text-align:center; margin-top: 0px; margin-bottom: 0px; font-size: 40px"";>&ensp;</p>","-","viewing","0","24","6A,21A","","","","","","","","","","","","","","","","","",""
"","","","","","html-slider-response","62","156412","0.0-17.0-1.15","db807547-e7a4-44fa-87cb-6be1690610f0","883","
                  <p style=""text-align: center;"">₪64
                                                <br>25%</p>
                  <p id=""wtp"" style=""text-align:center; margin-top: 0px; margin-bottom: 0px; font-size: 40px"";>מוכנים לשלם: <span id=""c_p_y""></span></p>","1","evaluation","14","24","6A,21A","25","64","1","","","","","","","","","","","","","","",""
"","","","","","html-keyboard-response","63","157669","0.0-17.0-2.15","db807547-e7a4-44fa-87cb-6be1690610f0","null","<p style=""text-align: center;"">+</p>","null","fixation","","","","","","","","","","","","","","","","","","","","",""
"","","","","","html-slider-response","64","158681","0.0-17.0-0.16","db807547-e7a4-44fa-87cb-6be1690610f0","1000","
                  <p style=""text-align: center;"">₪11
                                                <br>20%</p>
                  <p id=""wtp"" style=""text-align:center; margin-top: 0px; margin-bottom: 0px; font-size: 40px"";>&ensp;</p>","-","viewing","0","4","12C,17C,23C,28C","","","","","","","","","","","","","","","","","",""
"","","","","","html-slider-response","65","159276","0.0-17.0-1.16","db807547-e7a4-44fa-87cb-6be1690610f0","594","
                  <p style=""text-align: center;"">₪11
                                                <br>20%</p>
                  <p id=""wtp"" style=""text-align:center; margin-top: 0px; margin-bottom: 0px; font-size: 40px"";>מוכנים לשלם: <span id=""c_p_y""></span></p>","0","evaluation","74","4","12C,17C,23C,28C","20","11","0","","","","","","","","","","","","","","",""
"","","","","","html-keyboard-response","66","160605","0.0-17.0-2.16","db807547-e7a4-44fa-87cb-6be1690610f0","null","<p style=""text-align: center;"">+</p>","null","fixation","","","","","","","","","","","","","","","","","","","","",""
"","","","","","html-slider-response","67","161607","0.0-17.0-0.17","db807547-e7a4-44fa-87cb-6be1690610f0","1000","
                  <p style=""text-align: center;"">₪43
                                                <br>60%</p>
                  <p id=""wtp"" style=""text-align:center; margin-top: 0px; margin-bottom: 0px; font-size: 40px"";>&ensp;</p>","-","viewing","0","17","2A,7A,9A,15B","","","","","","","","","","","","","","","","","",""
"","","","","","html-slider-response","68","163868","0.0-17.0-1.17","db807547-e7a4-44fa-87cb-6be1690610f0","2260","
                  <p style=""text-align: center;"">₪43
                                                <br>60%</p>
                  <p id=""wtp"" style=""text-align:center; margin-top: 0px; margin-bottom: 0px; font-size: 40px"";>מוכנים לשלם: <span id=""c_p_y""></span></p>","13","evaluation","32","17","2A,7A,9A,15B","60","43","14","","","","","","","","","","","","","","",""
"","","","","","html-keyboard-response","69","165209","0.0-17.0-2.17","db807547-e7a4-44fa-87cb-6be1690610f0","null","<p style=""text-align: center;"">+</p>","null","fixation","","","","","","","","","","","","","","","","","","","","",""
"","","","","","html-slider-response","70","166221","0.0-17.0-0.18","db807547-e7a4-44fa-87cb-6be1690610f0","1000","
                  <p style=""text-align: center;"">₪58
                                                <br>45%</p>
                  <p id=""wtp"" style=""text-align:center; margin-top: 0px; margin-bottom: 0px; font-size: 40px"";>&ensp;</p>","-","viewing","0","21","11C,18C,25A","","","","","","","","","","","","","","","","","",""
"","","","","","html-slider-response","71","167084","0.0-17.0-1.18","db807547-e7a4-44fa-87cb-6be1690610f0","861","
                  <p style=""text-align: center;"">₪58
                                                <br>45%</p>
                  <p id=""wtp"" style=""text-align:center; margin-top: 0px; margin-bottom: 0px; font-size: 40px"";>מוכנים לשלם: <span id=""c_p_y""></span></p>","8","evaluation","22","21","11C,18C,25A","45","58","9","","","","","","","","","","","","","","",""
"","","","","","html-keyboard-response","72","167987","0.0-17.0-2.18","db807547-e7a4-44fa-87cb-6be1690610f0","null","<p style=""text-align: center;"">+</p>","null","fixation","","","","","","","","","","","","","","","","","","","","",""
"","","","","","html-slider-response","73","168991","0.0-17.0-0.19","db807547-e7a4-44fa-87cb-6be1690610f0","1000","
                  <p style=""text-align: center;"">₪16
                                                <br>20%</p>
                  <p id=""wtp"" style=""text-align:center; margin-top: 0px; margin-bottom: 0px; font-size: 40px"";>&ensp;</p>","-","viewing","0","8","14C,17A,20C,27A","","","","","","","","","","","","","","","","","",""
"","","","","","html-slider-response","74","169540","0.0-17.0-1.19","db807547-e7a4-44fa-87cb-6be1690610f0","548","
                  <p style=""text-align: center;"">₪16
                                                <br>20%</p>
                  <p id=""wtp"" style=""text-align:center; margin-top: 0px; margin-bottom: 0px; font-size: 40px"";>מוכנים לשלם: <span id=""c_p_y""></span></p>","1","evaluation","29","8","14C,17A,20C,27A","20","16","2","","","","","","","","","","","","","","",""
"","","","","","html-keyboard-response","75","170527","0.0-17.0-2.19","db807547-e7a4-44fa-87cb-6be1690610f0","null","<p style=""text-align: center;"">+</p>","null","fixation","","","","","","","","","","","","","","","","","","","","",""
"","","","","","html-slider-response","76","171537","0.0-17.0-0.20","db807547-e7a4-44fa-87cb-6be1690610f0","1000","
                  <p style=""text-align: center;"">₪4
                                                <br>50%</p>
                  <p id=""wtp"" style=""text-align:center; margin-top: 0px; margin-bottom: 0px; font-size: 40px"";>&ensp;</p>","-","viewing","0","2","4C,17B","","","","","","","","","","","","","","","","","",""
"","","","","","html-slider-response","77","172380","0.0-17.0-1.20","db807547-e7a4-44fa-87cb-6be1690610f0","842","
                  <p style=""text-align: center;"">₪4
                                                <br>50%</p>
                  <p id=""wtp"" style=""text-align:center; margin-top: 0px; margin-bottom: 0px; font-size: 40px"";>מוכנים לשלם: <span id=""c_p_y""></span></p>","0","evaluation","70","2","4C,17B","50","4","0","","","","","","","","","","","","","","",""
"","","","","","html-keyboard-response","78","173120","0.0-17.0-2.20","db807547-e7a4-44fa-87cb-6be1690610f0","null","<p style=""text-align: center;"">+</p>","null","fixation","","","","","","","","","","","","","","","","","","","","",""
"","","","","","html-slider-response","79","174132","0.0-17.0-0.21","db807547-e7a4-44fa-87cb-6be1690610f0","1000","
                  <p style=""text-align: center;"">₪43
                                                <br>75%</p>
                  <p id=""wtp"" style=""text-align:center; margin-top: 0px; margin-bottom: 0px; font-size: 40px"";>&ensp;</p>","-","viewing","0","18","11B,19B,24A,26A","","","","","","","","","","","","","","","","","",""
"","","","","","html-slider-response","80","175684","0.0-17.0-1.21","db807547-e7a4-44fa-87cb-6be1690610f0","1550","
                  <p style=""text-align: center;"">₪43
                                                <br>75%</p>
                  <p id=""wtp"" style=""text-align:center; margin-top: 0px; margin-bottom: 0px; font-size: 40px"";>מוכנים לשלם: <span id=""c_p_y""></span></p>","9","evaluation","22","18","11B,19B,24A,26A","75","43","10","","","","","","","","","","","","","","",""
"","","","","","html-keyboard-response","81","176692","0.0-17.0-2.21","db807547-e7a4-44fa-87cb-6be1690610f0","null","<p style=""text-align: center;"">+</p>","null","fixation","","","","","","","","","","","","","","","","","","","","",""
"","","","","","html-slider-response","82","177705","0.0-17.0-0.22","db807547-e7a4-44fa-87cb-6be1690610f0","1000","
                  <p style=""text-align: center;"">₪11
                                                <br>75%</p>
                  <p id=""wtp"" style=""text-align:center; margin-top: 0px; margin-bottom: 0px; font-size: 40px"";>&ensp;</p>","-","viewing","0","7","6B,18B,22C,24C,29A","","","","","","","","","","","","","","","","","",""
"","","","","","html-slider-response","83","179005","0.0-17.0-1.22","db807547-e7a4-44fa-87cb-6be1690610f0","1298","
                  <p style=""text-align: center;"">₪11
                                                <br>75%</p>
                  <p id=""wtp"" style=""text-align:center; margin-top: 0px; margin-bottom: 0px; font-size: 40px"";>מוכנים לשלם: <span id=""c_p_y""></span></p>","2","evaluation","79","7","6B,18B,22C,24C,29A","75","11","2","","","","","","","","","","","","","","",""
"","","","","","html-keyboard-response","84","179644","0.0-17.0-2.22","db807547-e7a4-44fa-87cb-6be1690610f0","null","<p style=""text-align: center;"">+</p>","null","fixation","","","","","","","","","","","","","","","","","","","","",""
"","","","","","html-slider-response","85","180647","0.0-17.0-0.23","db807547-e7a4-44fa-87cb-6be1690610f0","1000","
                  <p style=""text-align: center;"">₪4
                                                <br>25%</p>
                  <p id=""wtp"" style=""text-align:center; margin-top: 0px; margin-bottom: 0px; font-size: 40px"";>&ensp;</p>","-","viewing","0","1","6C,29B,30C","","","","","","","","","","","","","","","","","",""
"","","","","","html-slider-response","86","181884","0.0-17.0-1.23","db807547-e7a4-44fa-87cb-6be1690610f0","1236","
                  <p style=""text-align: center;"">₪4
                                                <br>25%</p>
                  <p id=""wtp"" style=""text-align:center; margin-top: 0px; margin-bottom: 0px; font-size: 40px"";>מוכנים לשלם: <span id=""c_p_y""></span></p>","0","evaluation","39","1","6C,29B,30C","25","4","0","","","","","","","","","","","","","","",""
"","","","","","html-keyboard-response","87","182475","0.0-17.0-2.23","db807547-e7a4-44fa-87cb-6be1690610f0","null","<p style=""text-align: center;"">+</p>","null","fixation","","","","","","","","","","","","","","","","","","","","",""
"","","","","","html-slider-response","88","183477","0.0-17.0-0.24","db807547-e7a4-44fa-87cb-6be1690610f0","1000","
                  <p style=""text-align: center;"">₪71
                                                <br>75%</p>
                  <p id=""wtp"" style=""text-align:center; margin-top: 0px; margin-bottom: 0px; font-size: 40px"";>&ensp;</p>","-","viewing","0","28","8B","","","","","","","","","","","","","","","","","",""
"","","","","","html-slider-response","89","184837","0.0-17.0-1.24","db807547-e7a4-44fa-87cb-6be1690610f0","1359","
                  <p style=""text-align: center;"">₪71
                                                <br>75%</p>
                  <p id=""wtp"" style=""text-align:center; margin-top: 0px; margin-bottom: 0px; font-size: 40px"";>מוכנים לשלם: <span id=""c_p_y""></span></p>","21","evaluation","77","28","8B","75","71","21","","","","","","","","","","","","","","",""
"","","","","","html-keyboard-response","90","185540","0.0-17.0-2.24","db807547-e7a4-44fa-87cb-6be1690610f0","null","<p style=""text-align: center;"">+</p>","null","fixation","","","","","","","","","","","","","","","","","","","","",""
"","","","","","html-slider-response","91","186541","0.0-17.0-0.25","db807547-e7a4-44fa-87cb-6be1690610f0","1000","
                  <p style=""text-align: center;"">₪4
                                                <br>75%</p>
                  <p id=""wtp"" style=""text-align:center; margin-top: 0px; margin-bottom: 0px; font-size: 40px"";>&ensp;</p>","-","viewing","0","3","12B,20B,23B,27C,29C","","","","","","","","","","","","","","","","","",""
"","","","","","html-slider-response","92","187685","0.0-17.0-1.25","db807547-e7a4-44fa-87cb-6be1690610f0","1141","
                  <p style=""text-align: center;"">₪4
                                                <br>75%</p>
                  <p id=""wtp"" style=""text-align:center; margin-top: 0px; margin-bottom: 0px; font-size: 40px"";>מוכנים לשלם: <span id=""c_p_y""></span></p>","0","evaluation","28","3","12B,20B,23B,27C,29C","75","4","0","","","","","","","","","","","","","","",""
"","","","","","html-keyboard-response","93","188561","0.0-17.0-2.25","db807547-e7a4-44fa-87cb-6be1690610f0","null","<p style=""text-align: center;"">+</p>","null","fixation","","","","","","","","","","","","","","","","","","","","",""
"","","","","","html-slider-response","94","189573","0.0-17.0-0.26","db807547-e7a4-44fa-87cb-6be1690610f0","1000","
                  <p style=""text-align: center;"">₪18
                                                <br>50%</p>
                  <p id=""wtp"" style=""text-align:center; margin-top: 0px; margin-bottom: 0px; font-size: 40px"";>&ensp;</p>","-","viewing","0","10","2C,16C,22B,28A","","","","","","","","","","","","","","","","","",""
"","","","","","html-slider-response","95","190748","0.0-17.0-1.26","db807547-e7a4-44fa-87cb-6be1690610f0","1175","
                  <p style=""text-align: center;"">₪18
                                                <br>50%</p>
                  <p id=""wtp"" style=""text-align:center; margin-top: 0px; margin-bottom: 0px; font-size: 40px"";>מוכנים לשלם: <span id=""c_p_y""></span></p>","5","evaluation","42","10","2C,16C,22B,28A","50","18","5","","","","","","","","","","","","","","",""
"","","","","","html-keyboard-response","96","192048","0.0-17.0-2.26","db807547-e7a4-44fa-87cb-6be1690610f0","null","<p style=""text-align: center;"">+</p>","null","fixation","","","","","","","","","","","","","","","","","","","","",""
"","","","","","html-slider-response","97","193064","0.0-17.0-0.27","db807547-e7a4-44fa-87cb-6be1690610f0","1000","
                  <p style=""text-align: center;"">₪39
                                                <br>60%</p>
                  <p id=""wtp"" style=""text-align:center; margin-top: 0px; margin-bottom: 0px; font-size: 40px"";>&ensp;</p>","-","viewing","0","15","9C,25B","","","","","","","","","","","","","","","","","",""
"","","","","","html-slider-response","98","194741","0.0-17.0-1.27","db807547-e7a4-44fa-87cb-6be1690610f0","1675","
                  <p style=""text-align: center;"">₪39
                                                <br>60%</p>
                  <p id=""wtp"" style=""text-align:center; margin-top: 0px; margin-bottom: 0px; font-size: 40px"";>מוכנים לשלם: <span id=""c_p_y""></span></p>","25","evaluation","20","15","9C,25B","60","39","25","","","","","","","","","","","","","","",""
"","","","","","html-keyboard-response","99","195581","0.0-17.0-2.27","db807547-e7a4-44fa-87cb-6be1690610f0","null","<p style=""text-align: center;"">+</p>","null","fixation","","","","","","","","","","","","","","","","","","","","",""
"","","","","","html-slider-response","100","196583","0.0-17.0-0.28","db807547-e7a4-44fa-87cb-6be1690610f0","1000","
                  <p style=""text-align: center;"">₪61
                                                <br>55%</p>
                  <p id=""wtp"" style=""text-align:center; margin-top: 0px; margin-bottom: 0px; font-size: 40px"";>&ensp;</p>","-","viewing","0","23","7B,26B","","","","","","","","","","","","","","","","","",""
"","","","","","html-slider-response","101","198549","0.0-17.0-1.28","db807547-e7a4-44fa-87cb-6be1690610f0","1964","
                  <p style=""text-align: center;"">₪61
                                                <br>55%</p>
                  <p id=""wtp"" style=""text-align:center; margin-top: 0px; margin-bottom: 0px; font-size: 40px"";>מוכנים לשלם: <span id=""c_p_y""></span></p>","27","evaluation","0","23","7B,26B","55","61","27","","","","","","","","","","","","","","",""
"","","","","","html-keyboard-response","102","199700","0.0-17.0-2.28","db807547-e7a4-44fa-87cb-6be1690610f0","null","<p style=""text-align: center;"">+</p>","null","fixation","","","","","","","","","","","","","","","","","","","","",""
"","","","","","html-slider-response","103","200716","0.0-17.0-0.29","db807547-e7a4-44fa-87cb-6be1690610f0","1000","
                  <p style=""text-align: center;"">₪39
                                                <br>65%</p>
                  <p id=""wtp"" style=""text-align:center; margin-top: 0px; margin-bottom: 0px; font-size: 40px"";>&ensp;</p>","-","viewing","0","16","1A,15A,26C","","","","","","","","","","","","","","","","","",""
"","","","","","html-slider-response","104","202421","0.0-17.0-1.29","db807547-e7a4-44fa-87cb-6be1690610f0","1703","
                  <p style=""text-align: center;"">₪39
                                                <br>65%</p>
                  <p id=""wtp"" style=""text-align:center; margin-top: 0px; margin-bottom: 0px; font-size: 40px"";>מוכנים לשלם: <span id=""c_p_y""></span></p>","5","evaluation","45","16","1A,15A,26C","65","39","6","","","","","","","","","","","","","","",""
"","","","","","html-keyboard-response","105","203232","0.0-17.0-2.29","db807547-e7a4-44fa-87cb-6be1690610f0","null","<p style=""text-align: center;"">+</p>","null","fixation","","","","","","","","","","","","","","","","","","","","",""
"","","","","","html-slider-response","106","204248","0.0-17.0-0.30","db807547-e7a4-44fa-87cb-6be1690610f0","1000","
                  <p style=""text-align: center;"">₪36
                                                <br>75%</p>
                  <p id=""wtp"" style=""text-align:center; margin-top: 0px; margin-bottom: 0px; font-size: 40px"";>&ensp;</p>","-","viewing","0","14","4B,5A,13B,16B","","","","","","","","","","","","","","","","","",""
"","","","","","html-slider-response","107","205461","0.0-17.0-1.30","db807547-e7a4-44fa-87cb-6be1690610f0","1212","
                  <p style=""text-align: center;"">₪36
                                                <br>75%</p>
                  <p id=""wtp"" style=""text-align:center; margin-top: 0px; margin-bottom: 0px; font-size: 40px"";>מוכנים לשלם: <span id=""c_p_y""></span></p>","6","evaluation","15","14","4B,5A,13B,16B","75","36","7","","","","","","","","","","","","","","",""
"","","","","","html-keyboard-response","108","206953","0.0-17.0-2.30","db807547-e7a4-44fa-87cb-6be1690610f0","null","<p style=""text-align: center;"">+</p>","null","fixation","","","","","","","","","","","","","","","","","","","","",""
"","","","","","html-keyboard-response","109","207957","0.0-18.0","db807547-e7a4-44fa-87cb-6be1690610f0","null","<p style=""text-align: center;"">+</p>","null","fixation","","","","","","","","","","","","","","","","","","","","",""
"","","","","","html-keyboard-response","110","210972","0.0-19.0","db807547-e7a4-44fa-87cb-6be1690610f0","null","<p>הפסקה.
          <br>לחצו כדי להמשיך.</p>","1","scan_wait","","","","","","","","","","","","","","","","","","","","",""
"","","","","","html-keyboard-response","111","211985","0.0-20.0","db807547-e7a4-44fa-87cb-6be1690610f0","null","<p style=""text-align: center;"">+</p>","null","fixation","","","","","","","","","","","","","","","","","","","","",""
"","","","","","html-slider-response","112","212988","0.0-21.0-0.0","db807547-e7a4-44fa-87cb-6be1690610f0","1000","
                  <p style=""text-align: center;"">₪4
                                                <br>50%</p>
                  <p id=""wtp"" style=""text-align:center; margin-top: 0px; margin-bottom: 0px; font-size: 40px"";>&ensp;</p>","-","viewing","0","2","4C,17B","","","","","","","","","","","","","","","","","",""
"","","","","","html-slider-response","113","213693","0.0-21.0-1.0","db807547-e7a4-44fa-87cb-6be1690610f0","704","
                  <p style=""text-align: center;"">₪4
                                                <br>50%</p>
                  <p id=""wtp"" style=""text-align:center; margin-top: 0px; margin-bottom: 0px; font-size: 40px"";>מוכנים לשלם: <span id=""c_p_y""></span></p>","1","evaluation","59","2","4C,17B","50","4","2","","","","","","","","","","","","","","",""
"","","","","","html-keyboard-response","114","215059","0.0-21.0-2.0","db807547-e7a4-44fa-87cb-6be1690610f0","null","<p style=""text-align: center;"">+</p>","null","fixation","","","","","","","","","","","","","","","","","","","","",""
"","","","","","html-slider-response","115","216073","0.0-21.0-0.1","db807547-e7a4-44fa-87cb-6be1690610f0","1000","
                  <p style=""text-align: center;"">₪43
                                                <br>75%</p>
                  <p id=""wtp"" style=""text-align:center; margin-top: 0px; margin-bottom: 0px; font-size: 40px"";>&ensp;</p>","-","viewing","0","18","11B,19B,24A,26A","","","","","","","","","","","","","","","","","",""
"","","","","","html-slider-response","116","217245","0.0-21.0-1.1","db807547-e7a4-44fa-87cb-6be1690610f0","1171","
                  <p style=""text-align: center;"">₪43
                                                <br>75%</p>
                  <p id=""wtp"" style=""text-align:center; margin-top: 0px; margin-bottom: 0px; font-size: 40px"";>מוכנים לשלם: <span id=""c_p_y""></span></p>","15","evaluation","35","18","11B,19B,24A,26A","75","43","15","","","","","","","","","","","","","","",""
"","","","","","html-keyboard-response","117","218258","0.0-21.0-2.1","db807547-e7a4-44fa-87cb-6be1690610f0","null","<p style=""text-align: center;"">+</p>","null","fixation","","","","","","","","","","","","","","","","","","","","",""
"","","","","","html-slider-response","118","219268","0.0-21.0-0.2","db807547-e7a4-44fa-87cb-6be1690610f0","1000","
                  <p style=""text-align: center;"">₪58
                                                <br>40%</p>
                  <p id=""wtp"" style=""text-align:center; margin-top: 0px; margin-bottom: 0px; font-size: 40px"";>&ensp;</p>","-","viewing","0","20","10C,13A,19C,21B","","","","","","","","","","","","","","","","","",""
"","","","","","html-slider-response","119","220781","0.0-21.0-1.2","db807547-e7a4-44fa-87cb-6be1690610f0","1512","
                  <p style=""text-align: center;"">₪58
                                                <br>40%</p>
                  <p id=""wtp"" style=""text-align:center; margin-top: 0px; margin-bottom: 0px; font-size: 40px"";>מוכנים לשלם: <span id=""c_p_y""></span></p>","10","evaluation","60","20","10C,13A,19C,21B","40","58","10","","","","","","","","","","","","","","",""
"","","","","","html-keyboard-response","120","221630","0.0-21.0-2.2","db807547-e7a4-44fa-87cb-6be1690610f0","null","<p style=""text-align: center;"">+</p>","null","fixation","","","","","","","","","","","","","","","","","","","","",""
"","","","","","html-slider-response","121","222643","0.0-21.0-0.3","db807547-e7a4-44fa-87cb-6be1690610f0","1000","
                  <p style=""text-align: center;"">₪58
                                                <br>45%</p>
                  <p id=""wtp"" style=""text-align:center; margin-top: 0px; margin-bottom: 0px; font-size: 40px"";>&ensp;</p>","-","viewing","0","21","11C,18C,25A","","","","","","","","","","","","","","","","","",""
"","","","","","html-slider-response","122","223725","0.0-21.0-1.3","db807547-e7a4-44fa-87cb-6be1690610f0","1080","
                  <p style=""text-align: center;"">₪58
                                                <br>45%</p>
                  <p id=""wtp"" style=""text-align:center; margin-top: 0px; margin-bottom: 0px; font-size: 40px"";>מוכנים לשלם: <span id=""c_p_y""></span></p>","10","evaluation","42","21","11C,18C,25A","45","58","10","","","","","","","","","","","","","","",""
"","","","","","html-keyboard-response","123","224482","0.0-21.0-2.3","db807547-e7a4-44fa-87cb-6be1690610f0","null","<p style=""text-align: center;"">+</p>","null","fixation","","","","","","","","","","","","","","","","","","","","",""
"","","","","","html-slider-response","124","225489","0.0-21.0-0.4","db807547-e7a4-44fa-87cb-6be1690610f0","1000","
                  <p style=""text-align: center;"">₪64
                                                <br>50%</p>
                  <p id=""wtp"" style=""text-align:center; margin-top: 0px; margin-bottom: 0px; font-size: 40px"";>&ensp;</p>","-","viewing","0","25","1B,3B,4A","","","","","","","","","","","","","","","","","",""
"","","","","","html-slider-response","125","227333","0.0-21.0-1.4","db807547-e7a4-44fa-87cb-6be1690610f0","1842","
                  <p style=""text-align: center;"">₪64
                                                <br>50%</p>
                  <p id=""wtp"" style=""text-align:center; margin-top: 0px; margin-bottom: 0px; font-size: 40px"";>מוכנים לשלם: <span id=""c_p_y""></span></p>","19","evaluation","60","25","1B,3B,4A","50","64","20","","","","","","","","","","","","","","",""
"","","","","","html-keyboard-response","126","227894","0.0-21.0-2.4","db807547-e7a4-44fa-87cb-6be1690610f0","null","<p style=""text-align: center;"">+</p>","null","fixation","","","","","","","","","","","","","","","","","","","","",""
"","","","","","html-slider-response","127","228903","0.0-21.0-0.5","db807547-e7a4-44fa-87cb-6be1690610f0","1000","
                  <p style=""text-align: center;"">₪11
                                                <br>45%</p>
                  <p id=""wtp"" style=""text-align:center; margin-top: 0px; margin-bottom: 0px; font-size: 40px"";>&ensp;</p>","-","viewing","0","6","14B,21C,25C","","","","","","","","","","","","","","","","","",""
"","","","","","html-slider-response","128","230013","0.0-21.0-1.5","db807547-e7a4-44fa-87cb-6be1690610f0","1107","
                  <p style=""text-align: center;"">₪11
                                                <br>45%</p>
                  <p id=""wtp"" style=""text-align:center; margin-top: 0px; margin-bottom: 0px; font-size: 40px"";>מוכנים לשלם: <span id=""c_p_y""></span></p>","1","evaluation","20","6","14B,21C,25C","45","11","2","","","","","","","","","","","","","","",""
"","","","","","html-keyboard-response","129","231156","0.0-21.0-2.5","db807547-e7a4-44fa-87cb-6be1690610f0","null","<p style=""text-align: center;"">+</p>","null","fixation","","","","","","","","","","","","","","","","","","","","",""
"","","","","","html-slider-response","130","232170","0.0-21.0-0.6","db807547-e7a4-44fa-87cb-6be1690610f0","1000","
                  <p style=""text-align: center;"">₪43
                                                <br>60%</p>
                  <p id=""wtp"" style=""text-align:center; margin-top: 0px; margin-bottom: 0px; font-size: 40px"";>&ensp;</p>","-","viewing","0","17","2A,7A,9A,15B","","","","","","","","","","","","","","","","","",""
"","","","","","html-slider-response","131","233333","0.0-21.0-1.6","db807547-e7a4-44fa-87cb-6be1690610f0","1161","
                  <p style=""text-align: center;"">₪43
                                                <br>60%</p>
                  <p id=""wtp"" style=""text-align:center; margin-top: 0px; margin-bottom: 0px; font-size: 40px"";>מוכנים לשלם: <span id=""c_p_y""></span></p>","16","evaluation","67","17","2A,7A,9A,15B","60","43","16","","","","","","","","","","","","","","",""
"","","","","","html-keyboard-response","132","234556","0.0-21.0-2.6","db807547-e7a4-44fa-87cb-6be1690610f0","null","<p style=""text-align: center;"">+</p>","null","fixation","","","","","","","","","","","","","","","","","","","","",""
"","","","","","html-slider-response","133","235563","0.0-21.0-0.7","db807547-e7a4-44fa-87cb-6be1690610f0","1000","
                  <p style=""text-align: center;"">₪79
                                                <br>40%</p>
                  <p id=""wtp"" style=""text-align:center; margin-top: 0px; margin-bottom: 0px; font-size: 40px"";>&ensp;</p>","-","viewing","0","30","9B","","","","","","","","","","","","","","","","","",""
"","","","","","html-slider-response","134","236733","0.0-21.0-1.7","db807547-e7a4-44fa-87cb-6be1690610f0","1167","
                  <p style=""text-align: center;"">₪79
                                                <br>40%</p>
                  <p id=""wtp"" style=""text-align:center; margin-top: 0px; margin-bottom: 0px; font-size: 40px"";>מוכנים לשלם: <span id=""c_p_y""></span></p>","2","evaluation","51","30","9B","40","79","2","","","","","","","","","","","","","","",""
"","","","","","html-keyboard-response","135","237728","0.0-21.0-2.7","db807547-e7a4-44fa-87cb-6be1690610f0","null","<p style=""text-align: center;"">+</p>","null","fixation","","","","","","","","","","","","","","","","","","","","",""
"","","","","","html-slider-response","136","238745","0.0-21.0-0.8","db807547-e7a4-44fa-87cb-6be1690610f0","1000","
                  <p style=""text-align: center;"">₪11
                                                <br>25%</p>
                  <p id=""wtp"" style=""text-align:center; margin-top: 0px; margin-bottom: 0px; font-size: 40px"";>&ensp;</p>","-","viewing","0","5","12A,27B,28B,30B","","","","","","","","","","","","","","","","","",""
"","","","","","html-slider-response","137","239885","0.0-21.0-1.8","db807547-e7a4-44fa-87cb-6be1690610f0","1139","
                  <p style=""text-align: center;"">₪11
                                                <br>25%</p>
                  <p id=""wtp"" style=""text-align:center; margin-top: 0px; margin-bottom: 0px; font-size: 40px"";>מוכנים לשלם: <span id=""c_p_y""></span></p>","0","evaluation","80","5","12A,27B,28B,30B","25","11","0","","","","","","","","","","","","","","",""
"","","","","","html-keyboard-response","138","240989","0.0-21.0-2.8","db807547-e7a4-44fa-87cb-6be1690610f0","null","<p style=""text-align: center;"">+</p>","null","fixation","","","","","","","","","","","","","","","","","","","","",""
"","","","","","html-slider-response","139","242006","0.0-21.0-0.9","db807547-e7a4-44fa-87cb-6be1690610f0","1000","
                  <p style=""text-align: center;"">₪16
                                                <br>20%</p>
                  <p id=""wtp"" style=""text-align:center; margin-top: 0px; margin-bottom: 0px; font-size: 40px"";>&ensp;</p>","-","viewing","0","8","14C,17A,20C,27A","","","","","","","","","","","","","","","","","",""
"","","","","","html-slider-response","140","243205","0.0-21.0-1.9","db807547-e7a4-44fa-87cb-6be1690610f0","1198","
                  <p style=""text-align: center;"">₪16
                                                <br>20%</p>
                  <p id=""wtp"" style=""text-align:center; margin-top: 0px; margin-bottom: 0px; font-size: 40px"";>מוכנים לשלם: <span id=""c_p_y""></span></p>","0","evaluation","65","8","14C,17A,20C,27A","20","16","1","","","","","","","","","","","","","","",""
"","","","","","html-keyboard-response","141","244145","0.0-21.0-2.9","db807547-e7a4-44fa-87cb-6be1690610f0","null","<p style=""text-align: center;"">+</p>","null","fixation","","","","","","","","","","","","","","","","","","","","",""
"","","","","","html-slider-response","142","245151","0.0-21.0-0.10","db807547-e7a4-44fa-87cb-6be1690610f0","1000","
                  <p style=""text-align: center;"">₪61
                                                <br>45%</p>
                  <p id=""wtp"" style=""text-align:center; margin-top: 0px; margin-bottom: 0px; font-size: 40px"";>&ensp;</p>","-","viewing","0","22","10A,11A","","","","","","","","","","","","","","","","","",""
"","","","","","html-slider-response","143","246749","0.0-21.0-1.10","db807547-e7a4-44fa-87cb-6be1690610f0","1596","
                  <p style=""text-align: center;"">₪61
                                                <br>45%</p>
                  <p id=""wtp"" style=""text-align:center; margin-top: 0px; margin-bottom: 0px; font-size: 40px"";>מוכנים לשלם: <span id=""c_p_y""></span></p>","9","evaluation","36","22","10A,11A","45","61","10","","","","","","","","","","","","","","",""
"","","","","","html-keyboard-response","144","247807","0.0-21.0-2.10","db807547-e7a4-44fa-87cb-6be1690610f0","null","<p style=""text-align: center;"">+</p>","null","fixation","","","","","","","","","","","","","","","","","","","","",""
"","","","","","html-slider-response","145","248814","0.0-21.0-0.11","db807547-e7a4-44fa-87cb-6be1690610f0","1000","
                  <p style=""text-align: center;"">₪36
                                                <br>60%</p>
                  <p id=""wtp"" style=""text-align:center; margin-top: 0px; margin-bottom: 0px; font-size: 40px"";>&ensp;</p>","-","viewing","0","12","1C,7C,15C","","","","","","","","","","","","","","","","","",""
"","","","","","html-slider-response","146","250461","0.0-21.0-1.11","db807547-e7a4-44fa-87cb-6be1690610f0","1645","
                  <p style=""text-align: center;"">₪36
                                                <br>60%</p>
                  <p id=""wtp"" style=""text-align:center; margin-top: 0px; margin-bottom: 0px; font-size: 40px"";>מוכנים לשלם: <span id=""c_p_y""></span></p>","9","evaluation","68","12","1C,7C,15C","60","36","10","","","","","","","","","","","","","","",""
"","","","","","html-keyboard-response","147","251908","0.0-21.0-2.11","db807547-e7a4-44fa-87cb-6be1690610f0","null","<p style=""text-align: center;"">+</p>","null","fixation","","","","","","","","","","","","","","","","","","","","",""
"","","","","","html-slider-response","148","252911","0.0-21.0-0.12","db807547-e7a4-44fa-87cb-6be1690610f0","1000","
                  <p style=""text-align: center;"">₪18
                                                <br>50%</p>
                  <p id=""wtp"" style=""text-align:center; margin-top: 0px; margin-bottom: 0px; font-size: 40px"";>&ensp;</p>","-","viewing","0","10","2C,16C,22B,28A","","","","","","","","","","","","","","","","","",""
"","","","","","html-slider-response","149","254045","0.0-21.0-1.12","db807547-e7a4-44fa-87cb-6be1690610f0","1133","
                  <p style=""text-align: center;"">₪18
                                                <br>50%</p>
                  <p id=""wtp"" style=""text-align:center; margin-top: 0px; margin-bottom: 0px; font-size: 40px"";>מוכנים לשלם: <span id=""c_p_y""></span></p>","3","evaluation","54","10","2C,16C,22B,28A","50","18","4","","","","","","","","","","","","","","",""
"","","","","","html-keyboard-response","150","254594","0.0-21.0-2.12","db807547-e7a4-44fa-87cb-6be1690610f0","null","<p style=""text-align: center;"">+</p>","null","fixation","","","","","","","","","","","","","","","","","","","","",""
"","","","","","html-slider-response","151","255610","0.0-21.0-0.13","db807547-e7a4-44fa-87cb-6be1690610f0","1000","
                  <p style=""text-align: center;"">₪4
                                                <br>75%</p>
                  <p id=""wtp"" style=""text-align:center; margin-top: 0px; margin-bottom: 0px; font-size: 40px"";>&ensp;</p>","-","viewing","0","3","12B,20B,23B,27C,29C","","","","","","","","","","","","","","","","","",""
"","","","","","html-slider-response","152","257165","0.0-21.0-1.13","db807547-e7a4-44fa-87cb-6be1690610f0","1554","
                  <p style=""text-align: center;"">₪4
                                                <br>75%</p>
                  <p id=""wtp"" style=""text-align:center; margin-top: 0px; margin-bottom: 0px; font-size: 40px"";>מוכנים לשלם: <span id=""c_p_y""></span></p>","0","evaluation","26","3","12B,20B,23B,27C,29C","75","4","1","","","","","","","","","","","","","","",""
"","","","","","html-keyboard-response","153","258214","0.0-21.0-2.13","db807547-e7a4-44fa-87cb-6be1690610f0","null","<p style=""text-align: center;"">+</p>","null","fixation","","","","","","","","","","","","","","","","","","","","",""
"","","","","","html-slider-response","154","259226","0.0-21.0-0.14","db807547-e7a4-44fa-87cb-6be1690610f0","1000","
                  <p style=""text-align: center;"">₪79
                                                <br>65%</p>
                  <p id=""wtp"" style=""text-align:center; margin-top: 0px; margin-bottom: 0px; font-size: 40px"";>&ensp;</p>","-","viewing","0","31","8A","","","","","","","","","","","","","","","","","",""
"","","","","","html-slider-response","155","261245","0.0-21.0-1.14","db807547-e7a4-44fa-87cb-6be1690610f0","2018","
                  <p style=""text-align: center;"">₪79
                                                <br>65%</p>
                  <p id=""wtp"" style=""text-align:center; margin-top: 0px; margin-bottom: 0px; font-size: 40px"";>מוכנים לשלם: <span id=""c_p_y""></span></p>","25","evaluation","54","31","8A","65","79","26","","","","","","","","","","","","","","",""
"","","","","","html-keyboard-response","156","261778","0.0-21.0-2.14","db807547-e7a4-44fa-87cb-6be1690610f0","null","<p style=""text-align: center;"">+</p>","null","fixation","","","","","","","","","","","","","","","","","","","","",""
"","","","","","html-slider-response","157","262786","0.0-21.0-0.15","db807547-e7a4-44fa-87cb-6be1690610f0","1000","
                  <p style=""text-align: center;"">₪71
                                                <br>75%</p>
                  <p id=""wtp"" style=""text-align:center; margin-top: 0px; margin-bottom: 0px; font-size: 40px"";>&ensp;</p>","-","viewing","0","28","8B","","","","","","","","","","","","","","","","","",""
"","","","","","html-slider-response","158","266794","0.0-21.0-1.15","db807547-e7a4-44fa-87cb-6be1690610f0","null","
                  <p style=""text-align: center;"">₪71
                                                <br>75%</p>
                  <p id=""wtp"" style=""text-align:center; margin-top: 0px; margin-bottom: 0px; font-size: 40px"";>מוכנים לשלם: <span id=""c_p_y""></span></p>","null","evaluation","56","28","8B","75","71","25","","","","","","","","","","","","","","",""
"","","","","","html-keyboard-response","159","267939","0.0-21.0-2.15","db807547-e7a4-44fa-87cb-6be1690610f0","null","<p style=""text-align: center;"">+</p>","null","fixation","","","","","","","","","","","","","","","","","","","","",""
"","","","","","html-slider-response","160","268954","0.0-21.0-0.16","db807547-e7a4-44fa-87cb-6be1690610f0","1000","
                  <p style=""text-align: center;"">₪36
                                                <br>70%</p>
                  <p id=""wtp"" style=""text-align:center; margin-top: 0px; margin-bottom: 0px; font-size: 40px"";>&ensp;</p>","-","viewing","0","13","3A,5C,10B","","","","","","","","","","","","","","","","","",""
"","","","","","html-slider-response","161","270469","0.0-21.0-1.16","db807547-e7a4-44fa-87cb-6be1690610f0","1514","
                  <p style=""text-align: center;"">₪36
                                                <br>70%</p>
                  <p id=""wtp"" style=""text-align:center; margin-top: 0px; margin-bottom: 0px; font-size: 40px"";>מוכנים לשלם: <span id=""c_p_y""></span></p>","16","evaluation","3","13","3A,5C,10B","70","36","16","","","","","","","","","","","","","","",""
"","","","","","html-keyboard-response","162","271720","0.0-21.0-2.16","db807547-e7a4-44fa-87cb-6be1690610f0","null","<p style=""text-align: center;"">+</p>","null","fixation","","","","","","","","","","","","","","","","","","","","",""
"","","","","","html-slider-response","163","272725","0.0-21.0-0.17","db807547-e7a4-44fa-87cb-6be1690610f0","1000","
                  <p style=""text-align: center;"">₪39
                                                <br>60%</p>
                  <p id=""wtp"" style=""text-align:center; margin-top: 0px; margin-bottom: 0px; font-size: 40px"";>&ensp;</p>","-","viewing","0","15","9C,25B","","","","","","","","","","","","","","","","","",""
"","","","","","html-slider-response","164","273533","0.0-21.0-1.17","db807547-e7a4-44fa-87cb-6be1690610f0","806","
                  <p style=""text-align: center;"">₪39
                                                <br>60%</p>
                  <p id=""wtp"" style=""text-align:center; margin-top: 0px; margin-bottom: 0px; font-size: 40px"";>מוכנים לשלם: <span id=""c_p_y""></span></p>","8","evaluation","67","15","9C,25B","60","39","9","","","","","","","","","","","","","","",""
"","","","","","html-keyboard-response","165","274186","0.0-21.0-2.17","db807547-e7a4-44fa-87cb-6be1690610f0","null","<p style=""text-align: center;"">+</p>","null","fixation","","","","","","","","","","","","","","","","","","","","",""
"","","","","","html-slider-response","166","275204","0.0-21.0-0.18","db807547-e7a4-44fa-87cb-6be1690610f0","1000","
                  <p style=""text-align: center;"">₪18
                                                <br>25%</p>
                  <p id=""wtp"" style=""text-align:center; margin-top: 0px; margin-bottom: 0px; font-size: 40px"";>&ensp;</p>","-","viewing","0","9","14A,23A","","","","","","","","","","","","","","","","","",""
"","","","","","html-slider-response","167","276317","0.0-21.0-1.18","db807547-e7a4-44fa-87cb-6be1690610f0","1111","
                  <p style=""text-align: center;"">₪18
                                                <br>25%</p>
                  <p id=""wtp"" style=""text-align:center; margin-top: 0px; margin-bottom: 0px; font-size: 40px"";>מוכנים לשלם: <span id=""c_p_y""></span></p>","7","evaluation","51","9","14A,23A","25","18","7","","","","","","","","","","","","","","",""
"","","","","","html-keyboard-response","168","277548","0.0-21.0-2.18","db807547-e7a4-44fa-87cb-6be1690610f0","null","<p style=""text-align: center;"">+</p>","null","fixation","","","","","","","","","","","","","","","","","","","","",""
"","","","","","html-slider-response","169","278560","0.0-21.0-0.19","db807547-e7a4-44fa-87cb-6be1690610f0","1000","
                  <p style=""text-align: center;"">₪39
                                                <br>65%</p>
                  <p id=""wtp"" style=""text-align:center; margin-top: 0px; margin-bottom: 0px; font-size: 40px"";>&ensp;</p>","-","viewing","0","16","1A,15A,26C","","","","","","","","","","","","","","","","","",""
"","","","","","html-slider-response","170","279597","0.0-21.0-1.19","db807547-e7a4-44fa-87cb-6be1690610f0","1035","
                  <p style=""text-align: center;"">₪39
                                                <br>65%</p>
                  <p id=""wtp"" style=""text-align:center; margin-top: 0px; margin-bottom: 0px; font-size: 40px"";>מוכנים לשלם: <span id=""c_p_y""></span></p>","5","evaluation","42","16","1A,15A,26C","65","39","6","","","","","","","","","","","","","","",""
"","","","","","html-keyboard-response","171","280441","0.0-21.0-2.19","db807547-e7a4-44fa-87cb-6be1690610f0","null","<p style=""text-align: center;"">+</p>","null","fixation","","","","","","","","","","","","","","","","","","","","",""
"","","","","","html-slider-response","172","281450","0.0-21.0-0.20","db807547-e7a4-44fa-87cb-6be1690610f0","1000","
                  <p style=""text-align: center;"">₪64
                                                <br>25%</p>
                  <p id=""wtp"" style=""text-align:center; margin-top: 0px; margin-bottom: 0px; font-size: 40px"";>&ensp;</p>","-","viewing","0","24","6A,21A","","","","","","","","","","","","","","","","","",""
"","","","","","html-slider-response","173","282349","0.0-21.0-1.20","db807547-e7a4-44fa-87cb-6be1690610f0","897","
                  <p style=""text-align: center;"">₪64
                                                <br>25%</p>
                  <p id=""wtp"" style=""text-align:center; margin-top: 0px; margin-bottom: 0px; font-size: 40px"";>מוכנים לשלם: <span id=""c_p_y""></span></p>","6","evaluation","60","24","6A,21A","25","64","7","","","","","","","","","","","","","","",""
"","","","","","html-keyboard-response","174","283337","0.0-21.0-2.20","db807547-e7a4-44fa-87cb-6be1690610f0","null","<p style=""text-align: center;"">+</p>","null","fixation","","","","","","","","","","","","","","","","","","","","",""
"","","","","","html-slider-response","175","284345","0.0-21.0-0.21","db807547-e7a4-44fa-87cb-6be1690610f0","1000","
                  <p style=""text-align: center;"">₪71
                                                <br>45%</p>
                  <p id=""wtp"" style=""text-align:center; margin-top: 0px; margin-bottom: 0px; font-size: 40px"";>&ensp;</p>","-","viewing","0","26","2B,16A","","","","","","","","","","","","","","","","","",""
"","","","","","html-slider-response","176","285413","0.0-21.0-1.21","db807547-e7a4-44fa-87cb-6be1690610f0","1067","
                  <p style=""text-align: center;"">₪71
                                                <br>45%</p>
                  <p id=""wtp"" style=""text-align:center; margin-top: 0px; margin-bottom: 0px; font-size: 40px"";>מוכנים לשלם: <span id=""c_p_y""></span></p>","4","evaluation","60","26","2B,16A","45","71","5","","","","","","","","","","","","","","",""
"","","","","","html-keyboard-response","177","286007","0.0-21.0-2.21","db807547-e7a4-44fa-87cb-6be1690610f0","null","<p style=""text-align: center;"">+</p>","null","fixation","","","","","","","","","","","","","","","","","","","","",""
"","","","","","html-slider-response","178","287011","0.0-21.0-0.22","db807547-e7a4-44fa-87cb-6be1690610f0","1000","
                  <p style=""text-align: center;"">₪61
                                                <br>55%</p>
                  <p id=""wtp"" style=""text-align:center; margin-top: 0px; margin-bottom: 0px; font-size: 40px"";>&ensp;</p>","-","viewing","0","23","7B,26B","","","","","","","","","","","","","","","","","",""
"","","","","","html-slider-response","179","288173","0.0-21.0-1.22","db807547-e7a4-44fa-87cb-6be1690610f0","1160","
                  <p style=""text-align: center;"">₪61
                                                <br>55%</p>
                  <p id=""wtp"" style=""text-align:center; margin-top: 0px; margin-bottom: 0px; font-size: 40px"";>מוכנים לשלם: <span id=""c_p_y""></span></p>","16","evaluation","8","23","7B,26B","55","61","16","","","","","","","","","","","","","","",""
"","","","","","html-keyboard-response","180","289619","0.0-21.0-2.22","db807547-e7a4-44fa-87cb-6be1690610f0","null","<p style=""text-align: center;"">+</p>","null","fixation","","","","","","","","","","","","","","","","","","","","",""
"","","","","","html-slider-response","181","290622","0.0-21.0-0.23","db807547-e7a4-44fa-87cb-6be1690610f0","1000","
                  <p style=""text-align: center;"">₪11
                                                <br>20%</p>
                  <p id=""wtp"" style=""text-align:center; margin-top: 0px; margin-bottom: 0px; font-size: 40px"";>&ensp;</p>","-","viewing","0","4","12C,17C,23C,28C","","","","","","","","","","","","","","","","","",""
"","","","","","html-slider-response","182","291421","0.0-21.0-1.23","db807547-e7a4-44fa-87cb-6be1690610f0","798","
                  <p style=""text-align: center;"">₪11
                                                <br>20%</p>
                  <p id=""wtp"" style=""text-align:center; margin-top: 0px; margin-bottom: 0px; font-size: 40px"";>מוכנים לשלם: <span id=""c_p_y""></span></p>","2","evaluation","56","4","12C,17C,23C,28C","20","11","2","","","","","","","","","","","","","","",""
"","","","","","html-keyboard-response","183","292634","0.0-21.0-2.23","db807547-e7a4-44fa-87cb-6be1690610f0","null","<p style=""text-align: center;"">+</p>","null","fixation","","","","","","","","","","","","","","","","","","","","",""
"","","","","","html-slider-response","184","293642","0.0-21.0-0.24","db807547-e7a4-44fa-87cb-6be1690610f0","1000","
                  <p style=""text-align: center;"">₪58
                                                <br>30%</p>
                  <p id=""wtp"" style=""text-align:center; margin-top: 0px; margin-bottom: 0px; font-size: 40px"";>&ensp;</p>","-","viewing","0","19","13C,30A","","","","","","","","","","","","","","","","","",""
"","","","","","html-slider-response","185","294525","0.0-21.0-1.24","db807547-e7a4-44fa-87cb-6be1690610f0","881","
                  <p style=""text-align: center;"">₪58
                                                <br>30%</p>
                  <p id=""wtp"" style=""text-align:center; margin-top: 0px; margin-bottom: 0px; font-size: 40px"";>מוכנים לשלם: <span id=""c_p_y""></span></p>","7","evaluation","78","19","13C,30A","30","58","8","","","","","","","","","","","","","","",""
"","","","","","html-keyboard-response","186","295094","0.0-21.0-2.24","db807547-e7a4-44fa-87cb-6be1690610f0","null","<p style=""text-align: center;"">+</p>","null","fixation","","","","","","","","","","","","","","","","","","","","",""
"","","","","","html-slider-response","187","296111","0.0-21.0-0.25","db807547-e7a4-44fa-87cb-6be1690610f0","1000","
                  <p style=""text-align: center;"">₪76
                                                <br>65%</p>
                  <p id=""wtp"" style=""text-align:center; margin-top: 0px; margin-bottom: 0px; font-size: 40px"";>&ensp;</p>","-","viewing","0","29","8C,19A,24B","","","","","","","","","","","","","","","","","",""
"","","","","","html-slider-response","188","296813","0.0-21.0-1.25","db807547-e7a4-44fa-87cb-6be1690610f0","700","
                  <p style=""text-align: center;"">₪76
                                                <br>65%</p>
                  <p id=""wtp"" style=""text-align:center; margin-top: 0px; margin-bottom: 0px; font-size: 40px"";>מוכנים לשלם: <span id=""c_p_y""></span></p>","16","evaluation","74","29","8C,19A,24B","65","76","17","","","","","","","","","","","","","","",""
"","","","","","html-keyboard-response","189","297616","0.0-21.0-2.25","db807547-e7a4-44fa-87cb-6be1690610f0","null","<p style=""text-align: center;"">+</p>","null","fixation","","","","","","","","","","","","","","","","","","","","",""
"","","","","","html-slider-response","190","298621","0.0-21.0-0.26","db807547-e7a4-44fa-87cb-6be1690610f0","1000","
                  <p style=""text-align: center;"">₪71
                                                <br>55%</p>
                  <p id=""wtp"" style=""text-align:center; margin-top: 0px; margin-bottom: 0px; font-size: 40px"";>&ensp;</p>","-","viewing","0","27","5B,18A","","","","","","","","","","","","","","","","","",""
"","","","","","html-slider-response","191","299220","0.0-21.0-1.26","db807547-e7a4-44fa-87cb-6be1690610f0","599","
                  <p style=""text-align: center;"">₪71
                                                <br>55%</p>
                  <p id=""wtp"" style=""text-align:center; margin-top: 0px; margin-bottom: 0px; font-size: 40px"";>מוכנים לשלם: <span id=""c_p_y""></span></p>","19","evaluation","16","27","5B,18A","55","71","19","","","","","","","","","","","","","","",""
"","","","","","html-keyboard-response","192","300126","0.0-21.0-2.26","db807547-e7a4-44fa-87cb-6be1690610f0","null","<p style=""text-align: center;"">+</p>","null","fixation","","","","","","","","","","","","","","","","","","","","",""
"","","","","","html-slider-response","193","301141","0.0-21.0-0.27","db807547-e7a4-44fa-87cb-6be1690610f0","1000","
                  <p style=""text-align: center;"">₪11
                                                <br>75%</p>
                  <p id=""wtp"" style=""text-align:center; margin-top: 0px; margin-bottom: 0px; font-size: 40px"";>&ensp;</p>","-","viewing","0","7","6B,18B,22C,24C,29A","","","","","","","","","","","","","","","","","",""
"","","","","","html-slider-response","194","301980","0.0-21.0-1.27","db807547-e7a4-44fa-87cb-6be1690610f0","838","
                  <p style=""text-align: center;"">₪11
                                                <br>75%</p>
                  <p id=""wtp"" style=""text-align:center; margin-top: 0px; margin-bottom: 0px; font-size: 40px"";>מוכנים לשלם: <span id=""c_p_y""></span></p>","1","evaluation","58","7","6B,18B,22C,24C,29A","75","11","2","","","","","","","","","","","","","","",""
"","","","","","html-keyboard-response","195","303418","0.0-21.0-2.27","db807547-e7a4-44fa-87cb-6be1690610f0","null","<p style=""text-align: center;"">+</p>","null","fixation","","","","","","","","","","","","","","","","","","","","",""
"","","","","","html-slider-response","196","304435","0.0-21.0-0.28","db807547-e7a4-44fa-87cb-6be1690610f0","1000","
                  <p style=""text-align: center;"">₪4
                                                <br>25%</p>
                  <p id=""wtp"" style=""text-align:center; margin-top: 0px; margin-bottom: 0px; font-size: 40px"";>&ensp;</p>","-","viewing","0","1","6C,29B,30C","","","","","","","","","","","","","","","","","",""
"","","","","","html-slider-response","197","305060","0.0-21.0-1.28","db807547-e7a4-44fa-87cb-6be1690610f0","624","
                  <p style=""text-align: center;"">₪4
                                                <br>25%</p>
                  <p id=""wtp"" style=""text-align:center; margin-top: 0px; margin-bottom: 0px; font-size: 40px"";>מוכנים לשלם: <span id=""c_p_y""></span></p>","0","evaluation","61","1","6C,29B,30C","25","4","0","","","","","","","","","","","","","","",""
"","","","","","html-keyboard-response","198","306249","0.0-21.0-2.28","db807547-e7a4-44fa-87cb-6be1690610f0","null","<p style=""text-align: center;"">+</p>","null","fixation","","","","","","","","","","","","","","","","","","","","",""
"","","","","","html-slider-response","199","307262","0.0-21.0-0.29","db807547-e7a4-44fa-87cb-6be1690610f0","1000","
                  <p style=""text-align: center;"">₪36
                                                <br>30%</p>
                  <p id=""wtp"" style=""text-align:center; margin-top: 0px; margin-bottom: 0px; font-size: 40px"";>&ensp;</p>","-","viewing","0","11","3C,20A,22A","","","","","","","","","","","","","","","","","",""
"","","","","","html-slider-response","200","307868","0.0-21.0-1.29","db807547-e7a4-44fa-87cb-6be1690610f0","605","
                  <p style=""text-align: center;"">₪36
                                                <br>30%</p>
                  <p id=""wtp"" style=""text-align:center; margin-top: 0px; margin-bottom: 0px; font-size: 40px"";>מוכנים לשלם: <span id=""c_p_y""></span></p>","1","evaluation","56","11","3C,20A,22A","30","36","1","","","","","","","","","","","","","","",""
"","","","","","html-keyboard-response","201","309300","0.0-21.0-2.29","db807547-e7a4-44fa-87cb-6be1690610f0","null","<p style=""text-align: center;"">+</p>","null","fixation","","","","","","","","","","","","","","","","","","","","",""
"","","","","","html-slider-response","202","310302","0.0-21.0-0.30","db807547-e7a4-44fa-87cb-6be1690610f0","1000","
                  <p style=""text-align: center;"">₪36
                                                <br>75%</p>
                  <p id=""wtp"" style=""text-align:center; margin-top: 0px; margin-bottom: 0px; font-size: 40px"";>&ensp;</p>","-","viewing","0","14","4B,5A,13B,16B","","","","","","","","","","","","","","","","","",""
"","","","","","html-slider-response","203","310740","0.0-21.0-1.30","db807547-e7a4-44fa-87cb-6be1690610f0","437","
                  <p style=""text-align: center;"">₪36
                                                <br>75%</p>
                  <p id=""wtp"" style=""text-align:center; margin-top: 0px; margin-bottom: 0px; font-size: 40px"";>מוכנים לשלם: <span id=""c_p_y""></span></p>","1","evaluation","15","14","4B,5A,13B,16B","75","36","2","","","","","","","","","","","","","","",""
"","","","","","html-keyboard-response","204","311966","0.0-21.0-2.30","db807547-e7a4-44fa-87cb-6be1690610f0","null","<p style=""text-align: center;"">+</p>","null","fixation","","","","","","","","","","","","","","","","","","","","",""
"","","","","","html-keyboard-response","205","312978","0.0-22.0","db807547-e7a4-44fa-87cb-6be1690610f0","null","<p style=""text-align: center;"">+</p>","null","fixation","","","","","","","","","","","","","","","","","","","","",""
"","","","","","html-keyboard-response","206","315564","0.0-23.0","db807547-e7a4-44fa-87cb-6be1690610f0","null","<p>הפסקה.
          <br>לחצו כדי להמשיך.</p>","1","scan_wait","","","","","","","","","","","","","","","","","","","","",""
"","","","","","html-keyboard-response","207","316566","0.0-24.0","db807547-e7a4-44fa-87cb-6be1690610f0","null","<p style=""text-align: center;"">+</p>","null","fixation","","","","","","","","","","","","","","","","","","","","",""
"","","","","","html-slider-response","208","317579","0.0-25.0-0.0","db807547-e7a4-44fa-87cb-6be1690610f0","1000","
                  <p style=""text-align: center;"">₪64
                                                <br>25%</p>
                  <p id=""wtp"" style=""text-align:center; margin-top: 0px; margin-bottom: 0px; font-size: 40px"";>&ensp;</p>","-","viewing","0","24","6A,21A","","","","","","","","","","","","","","","","","",""
"","","","","","html-slider-response","209","318077","0.0-25.0-1.0","db807547-e7a4-44fa-87cb-6be1690610f0","496","
                  <p style=""text-align: center;"">₪64
                                                <br>25%</p>
                  <p id=""wtp"" style=""text-align:center; margin-top: 0px; margin-bottom: 0px; font-size: 40px"";>מוכנים לשלם: <span id=""c_p_y""></span></p>","2","evaluation","78","24","6A,21A","25","64","2","","","","","","","","","","","","","","",""
"","","","","","html-keyboard-response","210","319377","0.0-25.0-2.0","db807547-e7a4-44fa-87cb-6be1690610f0","null","<p style=""text-align: center;"">+</p>","null","fixation","","","","","","","","","","","","","","","","","","","","",""
"","","","","","html-slider-response","211","320379","0.0-25.0-0.1","db807547-e7a4-44fa-87cb-6be1690610f0","1000","
                  <p style=""text-align: center;"">₪36
                                                <br>75%</p>
                  <p id=""wtp"" style=""text-align:center; margin-top: 0px; margin-bottom: 0px; font-size: 40px"";>&ensp;</p>","-","viewing","0","14","4B,5A,13B,16B","","","","","","","","","","","","","","","","","",""
"","","","","","html-slider-response","212","321164","0.0-25.0-1.1","db807547-e7a4-44fa-87cb-6be1690610f0","784","
                  <p style=""text-align: center;"">₪36
                                                <br>75%</p>
                  <p id=""wtp"" style=""text-align:center; margin-top: 0px; margin-bottom: 0px; font-size: 40px"";>מוכנים לשלם: <span id=""c_p_y""></span></p>","4","evaluation","50","14","4B,5A,13B,16B","75","36","4","","","","","","","","","","","","","","",""
"","","","","","html-keyboard-response","213","321835","0.0-25.0-2.1","db807547-e7a4-44fa-87cb-6be1690610f0","null","<p style=""text-align: center;"">+</p>","null","fixation","","","","","","","","","","","","","","","","","","","","",""
"","","","","","html-slider-response","214","322845","0.0-25.0-0.2","db807547-e7a4-44fa-87cb-6be1690610f0","1000","
                  <p style=""text-align: center;"">₪36
                                                <br>70%</p>
                  <p id=""wtp"" style=""text-align:center; margin-top: 0px; margin-bottom: 0px; font-size: 40px"";>&ensp;</p>","-","viewing","0","13","3A,5C,10B","","","","","","","","","","","","","","","","","",""
"","","","","","html-slider-response","215","323876","0.0-25.0-1.2","db807547-e7a4-44fa-87cb-6be1690610f0","1030","
                  <p style=""text-align: center;"">₪36
                                                <br>70%</p>
                  <p id=""wtp"" style=""text-align:center; margin-top: 0px; margin-bottom: 0px; font-size: 40px"";>מוכנים לשלם: <span id=""c_p_y""></span></p>","1","evaluation","25","13","3A,5C,10B","70","36","2","","","","","","","","","","","","","","",""
"","","","","","html-keyboard-response","216","324473","0.0-25.0-2.2","db807547-e7a4-44fa-87cb-6be1690610f0","null","<p style=""text-align: center;"">+</p>","null","fixation","","","","","","","","","","","","","","","","","","","","",""
"","","","","","html-slider-response","217","325479","0.0-25.0-0.3","db807547-e7a4-44fa-87cb-6be1690610f0","1000","
                  <p style=""text-align: center;"">₪71
                                                <br>75%</p>
                  <p id=""wtp"" style=""text-align:center; margin-top: 0px; margin-bottom: 0px; font-size: 40px"";>&ensp;</p>","-","viewing","0","28","8B","","","","","","","","","","","","","","","","","",""
"","","","","","html-slider-response","218","326748","0.0-25.0-1.3","db807547-e7a4-44fa-87cb-6be1690610f0","1268","
                  <p style=""text-align: center;"">₪71
                                                <br>75%</p>
                  <p id=""wtp"" style=""text-align:center; margin-top: 0px; margin-bottom: 0px; font-size: 40px"";>מוכנים לשלם: <span id=""c_p_y""></span></p>","24","evaluation","2","28","8B","75","71","25","","","","","","","","","","","","","","",""
"","","","","","html-keyboard-response","219","327701","0.0-25.0-2.3","db807547-e7a4-44fa-87cb-6be1690610f0","null","<p style=""text-align: center;"">+</p>","null","fixation","","","","","","","","","","","","","","","","","","","","",""
"","","","","","html-slider-response","220","328712","0.0-25.0-0.4","db807547-e7a4-44fa-87cb-6be1690610f0","1000","
                  <p style=""text-align: center;"">₪79
                                                <br>65%</p>
                  <p id=""wtp"" style=""text-align:center; margin-top: 0px; margin-bottom: 0px; font-size: 40px"";>&ensp;</p>","-","viewing","0","31","8A","","","","","","","","","","","","","","","","","",""
"","","","","","html-slider-response","221","329452","0.0-25.0-1.4","db807547-e7a4-44fa-87cb-6be1690610f0","739","
                  <p style=""text-align: center;"">₪79
                                                <br>65%</p>
                  <p id=""wtp"" style=""text-align:center; margin-top: 0px; margin-bottom: 0px; font-size: 40px"";>מוכנים לשלם: <span id=""c_p_y""></span></p>","25","evaluation","5","31","8A","65","79","25","","","","","","","","","","","","","","",""
"","","","","","html-keyboard-response","222","330281","0.0-25.0-2.4","db807547-e7a4-44fa-87cb-6be1690610f0","null","<p style=""text-align: center;"">+</p>","null","fixation","","","","","","","","","","","","","","","","","","","","",""
"","","","","","html-slider-response","223","331295","0.0-25.0-0.5","db807547-e7a4-44fa-87cb-6be1690610f0","1000","
                  <p style=""text-align: center;"">₪36
                                                <br>30%</p>
                  <p id=""wtp"" style=""text-align:center; margin-top: 0px; margin-bottom: 0px; font-size: 40px"";>&ensp;</p>","-","viewing","0","11","3C,20A,22A","","","","","","","","","","","","","","","","","",""
"","","","","","html-slider-response","224","332100","0.0-25.0-1.5","db807547-e7a4-44fa-87cb-6be1690610f0","804","
                  <p style=""text-align: center;"">₪36
                                                <br>30%</p>
                  <p id=""wtp"" style=""text-align:center; margin-top: 0px; margin-bottom: 0px; font-size: 40px"";>מוכנים לשלם: <span id=""c_p_y""></span></p>","3","evaluation","46","11","3C,20A,22A","30","36","4","","","","","","","","","","","","","","",""
"","","","","","html-keyboard-response","225","332837","0.0-25.0-2.5","db807547-e7a4-44fa-87cb-6be1690610f0","null","<p style=""text-align: center;"">+</p>","null","fixation","","","","","","","","","","","","","","","","","","","","",""
"","","","","","html-slider-response","226","333845","0.0-25.0-0.6","db807547-e7a4-44fa-87cb-6be1690610f0","1000","
                  <p style=""text-align: center;"">₪11
                                                <br>75%</p>
                  <p id=""wtp"" style=""text-align:center; margin-top: 0px; margin-bottom: 0px; font-size: 40px"";>&ensp;</p>","-","viewing","0","7","6B,18B,22C,24C,29A","","","","","","","","","","","","","","","","","",""
"","","","","","html-slider-response","227","334708","0.0-25.0-1.6","db807547-e7a4-44fa-87cb-6be1690610f0","862","
                  <p style=""text-align: center;"">₪11
                                                <br>75%</p>
                  <p id=""wtp"" style=""text-align:center; margin-top: 0px; margin-bottom: 0px; font-size: 40px"";>מוכנים לשלם: <span id=""c_p_y""></span></p>","1","evaluation","48","7","6B,18B,22C,24C,29A","75","11","2","","","","","","","","","","","","","","",""
"","","","","","html-keyboard-response","228","335699","0.0-25.0-2.6","db807547-e7a4-44fa-87cb-6be1690610f0","null","<p style=""text-align: center;"">+</p>","null","fixation","","","","","","","","","","","","","","","","","","","","",""
"","","","","","html-slider-response","229","336710","0.0-25.0-0.7","db807547-e7a4-44fa-87cb-6be1690610f0","1000","
                  <p style=""text-align: center;"">₪11
                                                <br>45%</p>
                  <p id=""wtp"" style=""text-align:center; margin-top: 0px; margin-bottom: 0px; font-size: 40px"";>&ensp;</p>","-","viewing","0","6","14B,21C,25C","","","","","","","","","","","","","","","","","",""
"","","","","","html-slider-response","230","337420","0.0-25.0-1.7","db807547-e7a4-44fa-87cb-6be1690610f0","709","
                  <p style=""text-align: center;"">₪11
                                                <br>45%</p>
                  <p id=""wtp"" style=""text-align:center; margin-top: 0px; margin-bottom: 0px; font-size: 40px"";>מוכנים לשלם: <span id=""c_p_y""></span></p>","0","evaluation","12","6","14B,21C,25C","45","11","1","","","","","","","","","","","","","","",""
"","","","","","html-keyboard-response","231","338806","0.0-25.0-2.7","db807547-e7a4-44fa-87cb-6be1690610f0","null","<p style=""text-align: center;"">+</p>","null","fixation","","","","","","","","","","","","","","","","","","","","",""
"","","","","","html-slider-response","232","339813","0.0-25.0-0.8","db807547-e7a4-44fa-87cb-6be1690610f0","1000","
                  <p style=""text-align: center;"">₪61
                                                <br>45%</p>
                  <p id=""wtp"" style=""text-align:center; margin-top: 0px; margin-bottom: 0px; font-size: 40px"";>&ensp;</p>","-","viewing","0","22","10A,11A","","","","","","","","","","","","","","","","","",""
"","","","","","html-slider-response","233","340540","0.0-25.0-1.8","db807547-e7a4-44fa-87cb-6be1690610f0","726","
                  <p style=""text-align: center;"">₪61
                                                <br>45%</p>
                  <p id=""wtp"" style=""text-align:center; margin-top: 0px; margin-bottom: 0px; font-size: 40px"";>מוכנים לשלם: <span id=""c_p_y""></span></p>","7","evaluation","64","22","10A,11A","45","61","8","","","","","","","","","","","","","","",""
"","","","","","html-keyboard-response","234","341519","0.0-25.0-2.8","db807547-e7a4-44fa-87cb-6be1690610f0","null","<p style=""text-align: center;"">+</p>","null","fixation","","","","","","","","","","","","","","","","","","","","",""
"","","","","","html-slider-response","235","342521","0.0-25.0-0.9","db807547-e7a4-44fa-87cb-6be1690610f0","1000","
                  <p style=""text-align: center;"">₪58
                                                <br>40%</p>
                  <p id=""wtp"" style=""text-align:center; margin-top: 0px; margin-bottom: 0px; font-size: 40px"";>&ensp;</p>","-","viewing","0","20","10C,13A,19C,21B","","","","","","","","","","","","","","","","","",""
"","","","","","html-slider-response","236","343524","0.0-25.0-1.9","db807547-e7a4-44fa-87cb-6be1690610f0","1002","
                  <p style=""text-align: center;"">₪58
                                                <br>40%</p>
                  <p id=""wtp"" style=""text-align:center; margin-top: 0px; margin-bottom: 0px; font-size: 40px"";>מוכנים לשלם: <span id=""c_p_y""></span></p>","6","evaluation","10","20","10C,13A,19C,21B","40","58","7","","","","","","","","","","","","","","",""
"","","","","","html-keyboard-response","237","344123","0.0-25.0-2.9","db807547-e7a4-44fa-87cb-6be1690610f0","null","<p style=""text-align: center;"">+</p>","null","fixation","","","","","","","","","","","","","","","","","","","","",""
"","","","","","html-slider-response","238","345133","0.0-25.0-0.10","db807547-e7a4-44fa-87cb-6be1690610f0","1000","
                  <p style=""text-align: center;"">₪11
                                                <br>25%</p>
                  <p id=""wtp"" style=""text-align:center; margin-top: 0px; margin-bottom: 0px; font-size: 40px"";>&ensp;</p>","-","viewing","0","5","12A,27B,28B,30B","","","","","","","","","","","","","","","","","",""
"","","","","","html-slider-response","239","346300","0.0-25.0-1.10","db807547-e7a4-44fa-87cb-6be1690610f0","1166","
                  <p style=""text-align: center;"">₪11
                                                <br>25%</p>
                  <p id=""wtp"" style=""text-align:center; margin-top: 0px; margin-bottom: 0px; font-size: 40px"";>מוכנים לשלם: <span id=""c_p_y""></span></p>","1","evaluation","17","5","12A,27B,28B,30B","25","11","1","","","","","","","","","","","","","","",""
"","","","","","html-keyboard-response","240","347168","0.0-25.0-2.10","db807547-e7a4-44fa-87cb-6be1690610f0","null","<p style=""text-align: center;"">+</p>","null","fixation","","","","","","","","","","","","","","","","","","","","",""
"","","","","","html-slider-response","241","348183","0.0-25.0-0.11","db807547-e7a4-44fa-87cb-6be1690610f0","1000","
                  <p style=""text-align: center;"">₪4
                                                <br>25%</p>
                  <p id=""wtp"" style=""text-align:center; margin-top: 0px; margin-bottom: 0px; font-size: 40px"";>&ensp;</p>","-","viewing","0","1","6C,29B,30C","","","","","","","","","","","","","","","","","",""
"","","","","","html-slider-response","242","348580","0.0-25.0-1.11","db807547-e7a4-44fa-87cb-6be1690610f0","395","
                  <p style=""text-align: center;"">₪4
                                                <br>25%</p>
                  <p id=""wtp"" style=""text-align:center; margin-top: 0px; margin-bottom: 0px; font-size: 40px"";>מוכנים לשלם: <span id=""c_p_y""></span></p>","0","evaluation","41","1","6C,29B,30C","25","4","0","","","","","","","","","","","","","","",""
"","","","","","html-keyboard-response","243","349383","0.0-25.0-2.11","db807547-e7a4-44fa-87cb-6be1690610f0","null","<p style=""text-align: center;"">+</p>","null","fixation","","","","","","","","","","","","","","","","","","","","",""
"","","","","","html-slider-response","244","350397","0.0-25.0-0.12","db807547-e7a4-44fa-87cb-6be1690610f0","1000","
                  <p style=""text-align: center;"">₪18
                                                <br>25%</p>
                  <p id=""wtp"" style=""text-align:center; margin-top: 0px; margin-bottom: 0px; font-size: 40px"";>&ensp;</p>","-","viewing","0","9","14A,23A","","","","","","","","","","","","","","","","","",""
"","","","","","html-slider-response","245","350796","0.0-25.0-1.12","db807547-e7a4-44fa-87cb-6be1690610f0","398","
                  <p style=""text-align: center;"">₪18
                                                <br>25%</p>
                  <p id=""wtp"" style=""text-align:center; margin-top: 0px; margin-bottom: 0px; font-size: 40px"";>מוכנים לשלם: <span id=""c_p_y""></span></p>","0","evaluation","77","9","14A,23A","25","18","0","","","","","","","","","","","","","","",""
"","","","","","html-keyboard-response","246","351930","0.0-25.0-2.12","db807547-e7a4-44fa-87cb-6be1690610f0","null","<p style=""text-align: center;"">+</p>","null","fixation","","","","","","","","","","","","","","","","","","","","",""
"","","","","","html-slider-response","247","352932","0.0-25.0-0.13","db807547-e7a4-44fa-87cb-6be1690610f0","1000","
                  <p style=""text-align: center;"">₪64
                                                <br>50%</p>
                  <p id=""wtp"" style=""text-align:center; margin-top: 0px; margin-bottom: 0px; font-size: 40px"";>&ensp;</p>","-","viewing","0","25","1B,3B,4A","","","","","","","","","","","","","","","","","",""
"","","","","","html-slider-response","248","353893","0.0-25.0-1.13","db807547-e7a4-44fa-87cb-6be1690610f0","959","
                  <p style=""text-align: center;"">₪64
                                                <br>50%</p>
                  <p id=""wtp"" style=""text-align:center; margin-top: 0px; margin-bottom: 0px; font-size: 40px"";>מוכנים לשלם: <span id=""c_p_y""></span></p>","23","evaluation","64","25","1B,3B,4A","50","64","23","","","","","","","","","","","","","","",""
"","","","","","html-keyboard-response","249","355095","0.0-25.0-2.13","db807547-e7a4-44fa-87cb-6be1690610f0","null","<p style=""text-align: center;"">+</p>","null","fixation","","","","","","","","","","","","","","","","","","","","",""
"","","","","","html-slider-response","250","356096","0.0-25.0-0.14","db807547-e7a4-44fa-87cb-6be1690610f0","1000","
                  <p style=""text-align: center;"">₪39
                                                <br>65%</p>
                  <p id=""wtp"" style=""text-align:center; margin-top: 0px; margin-bottom: 0px; font-size: 40px"";>&ensp;</p>","-","viewing","0","16","1A,15A,26C","","","","","","","","","","","","","","","","","",""
"","","","","","html-slider-response","251","357805","0.0-25.0-1.14","db807547-e7a4-44fa-87cb-6be1690610f0","1707","
                  <p style=""text-align: center;"">₪39
                                                <br>65%</p>
                  <p id=""wtp"" style=""text-align:center; margin-top: 0px; margin-bottom: 0px; font-size: 40px"";>מוכנים לשלם: <span id=""c_p_y""></span></p>","7","evaluation","72","16","1A,15A,26C","65","39","8","","","","","","","","","","","","","","",""
"","","","","","html-keyboard-response","252","359100","0.0-25.0-2.14","db807547-e7a4-44fa-87cb-6be1690610f0","null","<p style=""text-align: center;"">+</p>","null","fixation","","","","","","","","","","","","","","","","","","","","",""
"","","","","","html-slider-response","253","360108","0.0-25.0-0.15","db807547-e7a4-44fa-87cb-6be1690610f0","1000","
                  <p style=""text-align: center;"">₪58
