"success","timeout","failed_images","failed_audio","failed_video","trial_type","trial_index","time_elapsed","internal_node_id","subject_id","rt","stimulus","response","part","slider_start","ID","set_ID","prob","amount","last_location","actual_choice","actual_EV","binary_id","trinary_id","catch","direction","A_key","S_key","D_key","choice_prob","choice_amount","won_prize","potential_prize_amount","potential_prize_prob","total_prize","accuracy"
"true","false","[]","[]","[]","preload","0","3","0.0-0.0","cbfe9812-b6c0-4bbb-9cda-160da3da0211","","","","","","","","","","","","","","","","","","","","","","","","","",""
"","","","","","html-keyboard-response","1","19812","0.0-1.0","cbfe9812-b6c0-4bbb-9cda-160da3da0211","null","
          <h1>שלום וברוכים הבאים!</h1>
          <p>לפניכם ניסוי בקבלת החלטות עם שני חלקים.
          <br><br>לחצו על העכבר כדי להמשיך.</p>","0","example","","","","","","","","","","","","","","","","","","","","","",""
"","","","","","html-keyboard-response","2","23932","0.0-2.0","cbfe9812-b6c0-4bbb-9cda-160da3da0211","null","
        <h1>חלק 1</h1>
        <p>בקרוב יוצגו בפניכם הגרלות.
        <br>עליכם לבחור את המחיר המירבי שתהיו מוכנים לשלם כדי להשתתף בהגרלה שתוצג.
        <br>יש לכם תקציב של ₪80 לכל הגרלה. 
        <br>נסו להעריך כל הגרלה בנפרד ולחשוב כמה היא שווה עבורכם, ₪80 זמינים לכל הגרלה בנפרד.
        <br><br>לחצו על העכבר כדי להמשיך.</p>","1","instructions","","","","","","","","","","","","","","","","","","","","","",""
"","","","","","html-keyboard-response","3","26908","0.0-3.0","cbfe9812-b6c0-4bbb-9cda-160da3da0211","null","
        <p>בסוף הניסוי, המחשב יבחר את אחת ההגרלות ויקבע מחיר לכרטיס עבורה. 
        <br>במידה והמחיר שבחרתם נמוך מהמחיר שנבחר על ידי המחשב, לא תשתתפו בהגרלה ותשארו עם מלוא התקציב.
        <br>במידה והמחיר שבחרתם גבוה מהמחיר שנבחר על ידי המחשב, תשלמו את המחיר שנקבע ותשתתפו בהגרלה.
        <br><br>לחצו על העכבר כדי להמשיך.</p>","1","instructions","","","","","","","","","","","","","","","","","","","","","",""
"","","","","","html-slider-response","4","41397","0.0-4.0","cbfe9812-b6c0-4bbb-9cda-160da3da0211","14371","
        <p style=""font-size: 42px;"">נתחיל עם דוגמא: 
        <br>ההגרלה מטה מציעה 65% סיכוי לזכות ב-₪40 
        <br>&emsp;&emsp;&emsp;&emsp;&emsp;&emsp;&emsp;&emsp;&ensp;35% סיכוי לזכות ב-₪0.
        <br><br>מה המחיר המירבי שתהיו מוכנים לשלם על כרטיס להגרלה זו בין 0 ל-₪80?
        <br>הזיזו את העכבר על פני המלבן ולחצו כדי לבצע בחירה.</p>
        
        <p style=""text-align: center;"">₪40<br>65%</p>

        <p id=""wtp"" style=""text-align:center; margin-top: 0px; margin-bottom: 0px; font-size: 40px"";>מוכנים לשלם: <span id=""c_p_y""></span></p>","20","example","43","","","","","","","","","","","","","","","","","","","","",""
"","","","","","html-keyboard-response","5","56028","0.0-5.0","cbfe9812-b6c0-4bbb-9cda-160da3da0211","null","<p>יפה מאוד!
                <br> בחרתם שתהיו מוכנים לשלם ₪20 כדי להשתתף בהגרלה:
                <br><p style=""text-align: center;"">₪40<br>65%</p>
                <p>נשמע נכון?
                <br>נניח שהגרלה זו נבחרה בסוף הניסוי.
                <br>כעת המחשב יקבע מחיר עבורה באקראי.
                <br>לחצו על העכבר להמשך.</p>","1","example","","","","","","","","","","","","","","","","","","","","","",""
"","","","","","html-keyboard-response","6","72645","0.0-6.0","cbfe9812-b6c0-4bbb-9cda-160da3da0211","null","<p>המחשב קבע מחיר: ₪80
                <br>ואתם בחרתם לשלם לכל היותר: ₪20
                <br><br>מכיוון שהמחיר שבחרתם נמוך מהמחיר שנקבע, לא תתשתתפו בהגרלה.
                <br>במקרה כזה, בסוף הניסוי תקבלו את כל התקציב ההתחלתי של ₪80.
                <br><br>לחצו על העכבר להמשך.</p>","1","example","","","","","","","","","","","","","","","","","","","","","",""
"","","","","","html-slider-response","7","82285","0.0-7.0","cbfe9812-b6c0-4bbb-9cda-160da3da0211","9378","<p style=""font-size: 42px;"">הנה עוד דוגמא:
                <br>ההגרלה מטה מציעה 35% סיכוי לזכות ב-₪18 
                <br>&emsp;&emsp;&emsp;&emsp;&emsp;&emsp;&emsp;&emsp;&ensp;65% סיכוי לזכות ב-₪0.</p>
        
                <p style=""text-align: center;"">₪18<br>35%</p>
                <p id=""wtp"" style=""text-align:center; margin-top: 0px; margin-bottom: 0px; font-size: 40px"";>מוכנים לשלם: <span id=""c_p_y""></span></p>","5","example","5","","","","","","","","","","","","","","","","","","","","",""
"","","","","","html-keyboard-response","8","85405","0.0-8.0","cbfe9812-b6c0-4bbb-9cda-160da3da0211","null","<p>הייתם מוכנים לשלם  ₪5 כדי להשתתף בהגרלה:
                <p style=""text-align: center;"">₪18<br>35%</p>
                <p>כעת נניח שהמחשב בחר את ההגרלה הזו בסוף הניסוי, וקבע עבורה מחיר.
                <br><br>לחצו על העכבר כדי להמשיך.</p>","1","instructions","","","","","","","","","","","","","","","","","","","","","",""
"","","","","","html-keyboard-response","9","93605","0.0-9.0","cbfe9812-b6c0-4bbb-9cda-160da3da0211","null","<p>המחשב קבע מחיר להגרלה: ₪3<br>ואתם בחרתם לשלם לכל היותר: ₪5
                <br><br>כעת המחיר שנקבע נמוך מזה שבחרתם, אז תשלמו את המחיר שקבע המחשב (₪3) ותשתתפו בהגרלה.
                <br>במקרה כזה, תסיימו את הניסוי עם תקציב של ₪77 ועם סיכוי לזכות ב-₪18 נוספים מההגרלה.
                <br>כלומר, תוכלו לקבל ₪77 אם לא תזכו בהגרלה, או ₪95 אם תזכו בהגרלה.
                <br><br>לחצו על העכבר להמשך.</p>","1","example","","","","","","","","","","","","","","","","","","","","","",""
"","","","","","html-keyboard-response","10","107108","0.0-10.0","cbfe9812-b6c0-4bbb-9cda-160da3da0211","null","<p>במהלך הניסוי, קודם תראו את ההגרלה ורק לאחר מכן תוכלו לבחור.
                <p>כמו כן, יהיו לכם מספר שניות מוגבל להגיב.
                <p>בואו ננסה זאת עם ההגרלה הקודמת.
                <br>לחצו על העכבר כדי להמשיך.</p>","1","instructions","","","","","","","","","","","","","","","","","","","","","",""
"","","","","","html-slider-response","11","108368","0.0-11.0","cbfe9812-b6c0-4bbb-9cda-160da3da0211","1000","
                    <p style=""text-align: center;"">₪18<br>35%</p>
                    <p id=""wtp"" style=""text-align:center; margin-top: 0px; margin-bottom: 0px; font-size: 40px"";>&ensp;</p>","47","instructions","0","","","","","","","","","","","","","","","","","","","","",""
"","","","","","html-slider-response","12","112630","0.0-12.0","cbfe9812-b6c0-4bbb-9cda-160da3da0211","null","
                    <p style=""text-align: center;"">₪18<br>35%</p>
                    <p id=""wtp"" style=""text-align:center; margin-top: 0px; margin-bottom: 0px; font-size: 40px"";>מוכנים לשלם: <span id=""c_p_y""></span></p>","null","instructions","43","","","","","","","","","","","","","","","","","","","","",""
"","","","","","html-keyboard-response","13","116533","0.0-13.0","cbfe9812-b6c0-4bbb-9cda-160da3da0211","null","<p>לא הגבתם בזמן המוקצב לתגובה. 
                <br>נסו להגיב מהר יותר בפעם הבאה.
                <br><br>לחצו על העכבר כדי להמשיך.</p>","1","instructions","","","","","","","","","","","","","","","","","","","","","",""
"","","","","","html-slider-response","14","119101","0.0-14.0-0.0","cbfe9812-b6c0-4bbb-9cda-160da3da0211","2302","
                    <p style=""text-align: center;"">₪40<br>65%</p>
                    <p id=""wtp"" style=""text-align:center; margin-top: 0px; margin-bottom: 0px; font-size: 40px"";>מוכנים לשלם: <span id=""c_p_y""></span></p>","5","instructions","37","","","","","","","","","","","","","","","","","","","","",""
"","","","","","html-keyboard-response","15","121485","0.0-14.0-1.0","cbfe9812-b6c0-4bbb-9cda-160da3da0211","null","<p>יפה. הפעם בחרתם לשלם לכל היותר ₪5.
                <br><br>לחצו על העכבר כדי להמשיך.</p>","1","instructions","","","","","","","","","","","","","","","","","","","","","",""
"","","","","","html-keyboard-response","16","133957","0.0-15.0","cbfe9812-b6c0-4bbb-9cda-160da3da0211","null","<p>כעת נתחיל את הניסוי.
                <br><br>אתם תראו הגרלות ותתבקשו לבחור כמה תהיו מוכנים לשלם כדי להשתתף בהן.
                <br>יש לכם תקציב של ₪80 עבור כל הגרלה.
                <br>בסוף הניסוי הגרלה אחת תבחר באקראי ותשוחק.
                <br><br>לחצו על העכבר כדי להתחיל את הניסוי.</p>","1","instructions","","","","","","","","","","","","","","","","","","","","","",""
"","","","","","html-keyboard-response","17","135214","0.0-16.0","cbfe9812-b6c0-4bbb-9cda-160da3da0211","null","<p style=""text-align: center;"">+</p>","null","fixation","","","","","","","","","","","","","","","","","","","","","",""
"","","","","","html-slider-response","18","136219","0.0-17.0-0.0","cbfe9812-b6c0-4bbb-9cda-160da3da0211","1000","
                  <p style=""text-align: center;"">₪36
                                                <br>70%</p>
                  <p id=""wtp"" style=""text-align:center; margin-top: 0px; margin-bottom: 0px; font-size: 40px"";>&ensp;</p>","-","viewing","0","13","3A,5C,10B","","","","","","","","","","","","","","","","","","",""
"","","","","","html-slider-response","19","139781","0.0-17.0-1.0","cbfe9812-b6c0-4bbb-9cda-160da3da0211","3560","
                  <p style=""text-align: center;"">₪36
                                                <br>70%</p>
                  <p id=""wtp"" style=""text-align:center; margin-top: 0px; margin-bottom: 0px; font-size: 40px"";>מוכנים לשלם: <span id=""c_p_y""></span></p>","41","evaluation","31","13","3A,5C,10B","70","36","41","","","","","","","","","","","","","","","",""
"","","","","","html-keyboard-response","20","140569","0.0-17.0-2.0","cbfe9812-b6c0-4bbb-9cda-160da3da0211","null","<p style=""text-align: center;"">+</p>","null","fixation","","","","","","","","","","","","","","","","","","","","","",""
"","","","","","html-slider-response","21","141580","0.0-17.0-0.1","cbfe9812-b6c0-4bbb-9cda-160da3da0211","1000","
                  <p style=""text-align: center;"">₪11
                                                <br>20%</p>
                  <p id=""wtp"" style=""text-align:center; margin-top: 0px; margin-bottom: 0px; font-size: 40px"";>&ensp;</p>","-","viewing","0","4","12C,17C,23C,28C","","","","","","","","","","","","","","","","","","",""
"","","","","","html-slider-response","22","143981","0.0-17.0-1.1","cbfe9812-b6c0-4bbb-9cda-160da3da0211","2399","
                  <p style=""text-align: center;"">₪11
                                                <br>20%</p>
                  <p id=""wtp"" style=""text-align:center; margin-top: 0px; margin-bottom: 0px; font-size: 40px"";>מוכנים לשלם: <span id=""c_p_y""></span></p>","1","evaluation","6","4","12C,17C,23C,28C","20","11","2","","","","","","","","","","","","","","","",""
"","","","","","html-keyboard-response","23","145210","0.0-17.0-2.1","cbfe9812-b6c0-4bbb-9cda-160da3da0211","null","<p style=""text-align: center;"">+</p>","null","fixation","","","","","","","","","","","","","","","","","","","","","",""
"","","","","","html-slider-response","24","146226","0.0-17.0-0.2","cbfe9812-b6c0-4bbb-9cda-160da3da0211","1000","
                  <p style=""text-align: center;"">₪36
                                                <br>75%</p>
                  <p id=""wtp"" style=""text-align:center; margin-top: 0px; margin-bottom: 0px; font-size: 40px"";>&ensp;</p>","-","viewing","0","14","4B,5A,13B,16B","","","","","","","","","","","","","","","","","","",""
"","","","","","html-slider-response","25","148125","0.0-17.0-1.2","cbfe9812-b6c0-4bbb-9cda-160da3da0211","1898","
                  <p style=""text-align: center;"">₪36
                                                <br>75%</p>
                  <p id=""wtp"" style=""text-align:center; margin-top: 0px; margin-bottom: 0px; font-size: 40px"";>מוכנים לשלם: <span id=""c_p_y""></span></p>","60","evaluation","51","14","4B,5A,13B,16B","75","36","60","","","","","","","","","","","","","","","",""
"","","","","","html-keyboard-response","26","148909","0.0-17.0-2.2","cbfe9812-b6c0-4bbb-9cda-160da3da0211","null","<p style=""text-align: center;"">+</p>","null","fixation","","","","","","","","","","","","","","","","","","","","","",""
"","","","","","html-slider-response","27","149926","0.0-17.0-0.3","cbfe9812-b6c0-4bbb-9cda-160da3da0211","1000","
                  <p style=""text-align: center;"">₪58
                                                <br>45%</p>
                  <p id=""wtp"" style=""text-align:center; margin-top: 0px; margin-bottom: 0px; font-size: 40px"";>&ensp;</p>","-","viewing","0","21","11C,18C,25A","","","","","","","","","","","","","","","","","","",""
"","","","","","html-slider-response","28","153930","0.0-17.0-1.3","cbfe9812-b6c0-4bbb-9cda-160da3da0211","null","
                  <p style=""text-align: center;"">₪58
                                                <br>45%</p>
                  <p id=""wtp"" style=""text-align:center; margin-top: 0px; margin-bottom: 0px; font-size: 40px"";>מוכנים לשלם: <span id=""c_p_y""></span></p>","null","evaluation","11","21","11C,18C,25A","45","58","25","","","","","","","","","","","","","","","",""
"","","","","","html-keyboard-response","29","154846","0.0-17.0-2.3","cbfe9812-b6c0-4bbb-9cda-160da3da0211","null","<p style=""text-align: center;"">+</p>","null","fixation","","","","","","","","","","","","","","","","","","","","","",""
"","","","","","html-slider-response","30","155863","0.0-17.0-0.4","cbfe9812-b6c0-4bbb-9cda-160da3da0211","1000","
                  <p style=""text-align: center;"">₪36
                                                <br>60%</p>
                  <p id=""wtp"" style=""text-align:center; margin-top: 0px; margin-bottom: 0px; font-size: 40px"";>&ensp;</p>","-","viewing","0","12","1C,7C,15C","","","","","","","","","","","","","","","","","","",""
"","","","","","html-slider-response","31","157589","0.0-17.0-1.4","cbfe9812-b6c0-4bbb-9cda-160da3da0211","1725","
                  <p style=""text-align: center;"">₪36
                                                <br>60%</p>
                  <p id=""wtp"" style=""text-align:center; margin-top: 0px; margin-bottom: 0px; font-size: 40px"";>מוכנים לשלם: <span id=""c_p_y""></span></p>","40","evaluation","78","12","1C,7C,15C","60","36","40","","","","","","","","","","","","","","","",""
"","","","","","html-keyboard-response","32","158574","0.0-17.0-2.4","cbfe9812-b6c0-4bbb-9cda-160da3da0211","null","<p style=""text-align: center;"">+</p>","null","fixation","","","","","","","","","","","","","","","","","","","","","",""
"","","","","","html-slider-response","33","159576","0.0-17.0-0.5","cbfe9812-b6c0-4bbb-9cda-160da3da0211","1000","
                  <p style=""text-align: center;"">₪16
                                                <br>20%</p>
                  <p id=""wtp"" style=""text-align:center; margin-top: 0px; margin-bottom: 0px; font-size: 40px"";>&ensp;</p>","-","viewing","0","8","14C,17A,20C,27A","","","","","","","","","","","","","","","","","","",""
"","","","","","html-slider-response","34","161389","0.0-17.0-1.5","cbfe9812-b6c0-4bbb-9cda-160da3da0211","1812","
                  <p style=""text-align: center;"">₪16
                                                <br>20%</p>
                  <p id=""wtp"" style=""text-align:center; margin-top: 0px; margin-bottom: 0px; font-size: 40px"";>מוכנים לשלם: <span id=""c_p_y""></span></p>","3","evaluation","45","8","14C,17A,20C,27A","20","16","4","","","","","","","","","","","","","","","",""
"","","","","","html-keyboard-response","35","162380","0.0-17.0-2.5","cbfe9812-b6c0-4bbb-9cda-160da3da0211","null","<p style=""text-align: center;"">+</p>","null","fixation","","","","","","","","","","","","","","","","","","","","","",""
"","","","","","html-slider-response","36","163384","0.0-17.0-0.6","cbfe9812-b6c0-4bbb-9cda-160da3da0211","1000","
                  <p style=""text-align: center;"">₪11
                                                <br>45%</p>
                  <p id=""wtp"" style=""text-align:center; margin-top: 0px; margin-bottom: 0px; font-size: 40px"";>&ensp;</p>","-","viewing","0","6","14B,21C,25C","","","","","","","","","","","","","","","","","","",""
"","","","","","html-slider-response","37","165397","0.0-17.0-1.6","cbfe9812-b6c0-4bbb-9cda-160da3da0211","2012","
                  <p style=""text-align: center;"">₪11
                                                <br>45%</p>
                  <p id=""wtp"" style=""text-align:center; margin-top: 0px; margin-bottom: 0px; font-size: 40px"";>מוכנים לשלם: <span id=""c_p_y""></span></p>","38","evaluation","63","6","14B,21C,25C","45","11","38","","","","","","","","","","","","","","","",""
"","","","","","html-keyboard-response","38","166898","0.0-17.0-2.6","cbfe9812-b6c0-4bbb-9cda-160da3da0211","null","<p style=""text-align: center;"">+</p>","null","fixation","","","","","","","","","","","","","","","","","","","","","",""
"","","","","","html-slider-response","39","167907","0.0-17.0-0.7","cbfe9812-b6c0-4bbb-9cda-160da3da0211","1000","
                  <p style=""text-align: center;"">₪11
                                                <br>25%</p>
                  <p id=""wtp"" style=""text-align:center; margin-top: 0px; margin-bottom: 0px; font-size: 40px"";>&ensp;</p>","-","viewing","0","5","12A,27B,28B,30B","","","","","","","","","","","","","","","","","","",""
"","","","","","html-slider-response","40","171093","0.0-17.0-1.7","cbfe9812-b6c0-4bbb-9cda-160da3da0211","3185","
                  <p style=""text-align: center;"">₪11
                                                <br>25%</p>
                  <p id=""wtp"" style=""text-align:center; margin-top: 0px; margin-bottom: 0px; font-size: 40px"";>מוכנים לשלם: <span id=""c_p_y""></span></p>","3","evaluation","36","5","12A,27B,28B,30B","25","11","4","","","","","","","","","","","","","","","",""
"","","","","","html-keyboard-response","41","171810","0.0-17.0-2.7","cbfe9812-b6c0-4bbb-9cda-160da3da0211","null","<p style=""text-align: center;"">+</p>","null","fixation","","","","","","","","","","","","","","","","","","","","","",""
"","","","","","html-slider-response","42","172817","0.0-17.0-0.8","cbfe9812-b6c0-4bbb-9cda-160da3da0211","1000","
                  <p style=""text-align: center;"">₪61
                                                <br>55%</p>
                  <p id=""wtp"" style=""text-align:center; margin-top: 0px; margin-bottom: 0px; font-size: 40px"";>&ensp;</p>","-","viewing","0","23","7B,26B","","","","","","","","","","","","","","","","","","",""
"","","","","","html-slider-response","43","175245","0.0-17.0-1.8","cbfe9812-b6c0-4bbb-9cda-160da3da0211","2426","
                  <p style=""text-align: center;"">₪61
                                                <br>55%</p>
                  <p id=""wtp"" style=""text-align:center; margin-top: 0px; margin-bottom: 0px; font-size: 40px"";>מוכנים לשלם: <span id=""c_p_y""></span></p>","44","evaluation","76","23","7B,26B","55","61","44","","","","","","","","","","","","","","","",""
"","","","","","html-keyboard-response","44","175830","0.0-17.0-2.8","cbfe9812-b6c0-4bbb-9cda-160da3da0211","null","<p style=""text-align: center;"">+</p>","null","fixation","","","","","","","","","","","","","","","","","","","","","",""
"","","","","","html-slider-response","45","176843","0.0-17.0-0.9","cbfe9812-b6c0-4bbb-9cda-160da3da0211","1000","
                  <p style=""text-align: center;"">₪76
                                                <br>65%</p>
                  <p id=""wtp"" style=""text-align:center; margin-top: 0px; margin-bottom: 0px; font-size: 40px"";>&ensp;</p>","-","viewing","0","29","8C,19A,24B","","","","","","","","","","","","","","","","","","",""
"","","","","","html-slider-response","46","178125","0.0-17.0-1.9","cbfe9812-b6c0-4bbb-9cda-160da3da0211","1280","
                  <p style=""text-align: center;"">₪76
                                                <br>65%</p>
                  <p id=""wtp"" style=""text-align:center; margin-top: 0px; margin-bottom: 0px; font-size: 40px"";>מוכנים לשלם: <span id=""c_p_y""></span></p>","62","evaluation","64","29","8C,19A,24B","65","76","62","","","","","","","","","","","","","","","",""
"","","","","","html-keyboard-response","47","178812","0.0-17.0-2.9","cbfe9812-b6c0-4bbb-9cda-160da3da0211","null","<p style=""text-align: center;"">+</p>","null","fixation","","","","","","","","","","","","","","","","","","","","","",""
"","","","","","html-slider-response","48","179824","0.0-17.0-0.10","cbfe9812-b6c0-4bbb-9cda-160da3da0211","1000","
                  <p style=""text-align: center;"">₪18
                                                <br>50%</p>
                  <p id=""wtp"" style=""text-align:center; margin-top: 0px; margin-bottom: 0px; font-size: 40px"";>&ensp;</p>","-","viewing","0","10","2C,16C,22B,28A","","","","","","","","","","","","","","","","","","",""
"","","","","","html-slider-response","49","183826","0.0-17.0-1.10","cbfe9812-b6c0-4bbb-9cda-160da3da0211","null","
                  <p style=""text-align: center;"">₪18
                                                <br>50%</p>
                  <p id=""wtp"" style=""text-align:center; margin-top: 0px; margin-bottom: 0px; font-size: 40px"";>מוכנים לשלם: <span id=""c_p_y""></span></p>","null","evaluation","20","10","2C,16C,22B,28A","50","18","21","","","","","","","","","","","","","","","",""
"","","","","","html-keyboard-response","50","184410","0.0-17.0-2.10","cbfe9812-b6c0-4bbb-9cda-160da3da0211","null","<p style=""text-align: center;"">+</p>","null","fixation","","","","","","","","","","","","","","","","","","","","","",""
"","","","","","html-slider-response","51","185426","0.0-17.0-0.11","cbfe9812-b6c0-4bbb-9cda-160da3da0211","1000","
                  <p style=""text-align: center;"">₪79
                                                <br>40%</p>
                  <p id=""wtp"" style=""text-align:center; margin-top: 0px; margin-bottom: 0px; font-size: 40px"";>&ensp;</p>","-","viewing","0","30","9B","","","","","","","","","","","","","","","","","","",""
"","","","","","html-slider-response","52","186245","0.0-17.0-1.11","cbfe9812-b6c0-4bbb-9cda-160da3da0211","818","
                  <p style=""text-align: center;"">₪79
                                                <br>40%</p>
                  <p id=""wtp"" style=""text-align:center; margin-top: 0px; margin-bottom: 0px; font-size: 40px"";>מוכנים לשלם: <span id=""c_p_y""></span></p>","35","evaluation","23","30","9B","40","79","35","","","","","","","","","","","","","","","",""
"","","","","","html-keyboard-response","53","187717","0.0-17.0-2.11","cbfe9812-b6c0-4bbb-9cda-160da3da0211","null","<p style=""text-align: center;"">+</p>","null","fixation","","","","","","","","","","","","","","","","","","","","","",""
"","","","","","html-slider-response","54","188729","0.0-17.0-0.12","cbfe9812-b6c0-4bbb-9cda-160da3da0211","1000","
                  <p style=""text-align: center;"">₪71
                                                <br>45%</p>
                  <p id=""wtp"" style=""text-align:center; margin-top: 0px; margin-bottom: 0px; font-size: 40px"";>&ensp;</p>","-","viewing","0","26","2B,16A","","","","","","","","","","","","","","","","","","",""
"","","","","","html-slider-response","55","190989","0.0-17.0-1.12","cbfe9812-b6c0-4bbb-9cda-160da3da0211","2259","
                  <p style=""text-align: center;"">₪71
                                                <br>45%</p>
                  <p id=""wtp"" style=""text-align:center; margin-top: 0px; margin-bottom: 0px; font-size: 40px"";>מוכנים לשלם: <span id=""c_p_y""></span></p>","38","evaluation","49","26","2B,16A","45","71","38","","","","","","","","","","","","","","","",""
"","","","","","html-keyboard-response","56","191903","0.0-17.0-2.12","cbfe9812-b6c0-4bbb-9cda-160da3da0211","null","<p style=""text-align: center;"">+</p>","null","fixation","","","","","","","","","","","","","","","","","","","","","",""
"","","","","","html-slider-response","57","192913","0.0-17.0-0.13","cbfe9812-b6c0-4bbb-9cda-160da3da0211","1000","
                  <p style=""text-align: center;"">₪11
                                                <br>75%</p>
                  <p id=""wtp"" style=""text-align:center; margin-top: 0px; margin-bottom: 0px; font-size: 40px"";>&ensp;</p>","-","viewing","0","7","6B,18B,22C,24C,29A","","","","","","","","","","","","","","","","","","",""
"","","","","","html-slider-response","58","194821","0.0-17.0-1.13","cbfe9812-b6c0-4bbb-9cda-160da3da0211","1907","
                  <p style=""text-align: center;"">₪11
                                                <br>75%</p>
                  <p id=""wtp"" style=""text-align:center; margin-top: 0px; margin-bottom: 0px; font-size: 40px"";>מוכנים לשלם: <span id=""c_p_y""></span></p>","61","evaluation","68","7","6B,18B,22C,24C,29A","75","11","61","","","","","","","","","","","","","","","",""
"","","","","","html-keyboard-response","59","195345","0.0-17.0-2.13","cbfe9812-b6c0-4bbb-9cda-160da3da0211","null","<p style=""text-align: center;"">+</p>","null","fixation","","","","","","","","","","","","","","","","","","","","","",""
"","","","","","html-slider-response","60","196348","0.0-17.0-0.14","cbfe9812-b6c0-4bbb-9cda-160da3da0211","1000","
                  <p style=""text-align: center;"">₪18
                                                <br>25%</p>
                  <p id=""wtp"" style=""text-align:center; margin-top: 0px; margin-bottom: 0px; font-size: 40px"";>&ensp;</p>","-","viewing","0","9","14A,23A","","","","","","","","","","","","","","","","","","",""
"","","","","","html-slider-response","61","198917","0.0-17.0-1.14","cbfe9812-b6c0-4bbb-9cda-160da3da0211","2568","
                  <p style=""text-align: center;"">₪18
                                                <br>25%</p>
                  <p id=""wtp"" style=""text-align:center; margin-top: 0px; margin-bottom: 0px; font-size: 40px"";>מוכנים לשלם: <span id=""c_p_y""></span></p>","23","evaluation","23","9","14A,23A","25","18","23","","","","","","","","","","","","","","","",""
"","","","","","html-keyboard-response","62","199962","0.0-17.0-2.14","cbfe9812-b6c0-4bbb-9cda-160da3da0211","null","<p style=""text-align: center;"">+</p>","null","fixation","","","","","","","","","","","","","","","","","","","","","",""
"","","","","","html-slider-response","63","200979","0.0-17.0-0.15","cbfe9812-b6c0-4bbb-9cda-160da3da0211","1000","
                  <p style=""text-align: center;"">₪64
                                                <br>25%</p>
                  <p id=""wtp"" style=""text-align:center; margin-top: 0px; margin-bottom: 0px; font-size: 40px"";>&ensp;</p>","-","viewing","0","24","6A,21A","","","","","","","","","","","","","","","","","","",""
"","","","","","html-slider-response","64","201789","0.0-17.0-1.15","cbfe9812-b6c0-4bbb-9cda-160da3da0211","808","
                  <p style=""text-align: center;"">₪64
                                                <br>25%</p>
                  <p id=""wtp"" style=""text-align:center; margin-top: 0px; margin-bottom: 0px; font-size: 40px"";>מוכנים לשלם: <span id=""c_p_y""></span></p>","29","evaluation","67","24","6A,21A","25","64","29","","","","","","","","","","","","","","","",""
"","","","","","html-keyboard-response","65","203029","0.0-17.0-2.15","cbfe9812-b6c0-4bbb-9cda-160da3da0211","null","<p style=""text-align: center;"">+</p>","null","fixation","","","","","","","","","","","","","","","","","","","","","",""
"","","","","","html-slider-response","66","204043","0.0-17.0-0.16","cbfe9812-b6c0-4bbb-9cda-160da3da0211","1000","
                  <p style=""text-align: center;"">₪4
                                                <br>50%</p>
                  <p id=""wtp"" style=""text-align:center; margin-top: 0px; margin-bottom: 0px; font-size: 40px"";>&ensp;</p>","-","viewing","0","2","4C,17B","","","","","","","","","","","","","","","","","","",""
"","","","","","html-slider-response","67","206661","0.0-17.0-1.16","cbfe9812-b6c0-4bbb-9cda-160da3da0211","2617","
                  <p style=""text-align: center;"">₪4
                                                <br>50%</p>
                  <p id=""wtp"" style=""text-align:center; margin-top: 0px; margin-bottom: 0px; font-size: 40px"";>מוכנים לשלם: <span id=""c_p_y""></span></p>","3","evaluation","13","2","4C,17B","50","4","4","","","","","","","","","","","","","","","",""
"","","","","","html-keyboard-response","68","207222","0.0-17.0-2.16","cbfe9812-b6c0-4bbb-9cda-160da3da0211","null","<p style=""text-align: center;"">+</p>","null","fixation","","","","","","","","","","","","","","","","","","","","","",""
"","","","","","html-slider-response","69","208225","0.0-17.0-0.17","cbfe9812-b6c0-4bbb-9cda-160da3da0211","1000","
                  <p style=""text-align: center;"">₪64
                                                <br>50%</p>
                  <p id=""wtp"" style=""text-align:center; margin-top: 0px; margin-bottom: 0px; font-size: 40px"";>&ensp;</p>","-","viewing","0","25","1B,3B,4A","","","","","","","","","","","","","","","","","","",""
"","","","","","html-slider-response","70","209797","0.0-17.0-1.17","cbfe9812-b6c0-4bbb-9cda-160da3da0211","1572","
                  <p style=""text-align: center;"">₪64
                                                <br>50%</p>
                  <p id=""wtp"" style=""text-align:center; margin-top: 0px; margin-bottom: 0px; font-size: 40px"";>מוכנים לשלם: <span id=""c_p_y""></span></p>","61","evaluation","73","25","1B,3B,4A","50","64","61","","","","","","","","","","","","","","","",""
"","","","","","html-keyboard-response","71","210692","0.0-17.0-2.17","cbfe9812-b6c0-4bbb-9cda-160da3da0211","null","<p style=""text-align: center;"">+</p>","null","fixation","","","","","","","","","","","","","","","","","","","","","",""
"","","","","","html-slider-response","72","211709","0.0-17.0-0.18","cbfe9812-b6c0-4bbb-9cda-160da3da0211","1000","
                  <p style=""text-align: center;"">₪61
                                                <br>45%</p>
                  <p id=""wtp"" style=""text-align:center; margin-top: 0px; margin-bottom: 0px; font-size: 40px"";>&ensp;</p>","-","viewing","0","22","10A,11A","","","","","","","","","","","","","","","","","","",""
"","","","","","html-slider-response","73","212557","0.0-17.0-1.18","cbfe9812-b6c0-4bbb-9cda-160da3da0211","847","
                  <p style=""text-align: center;"">₪61
                                                <br>45%</p>
                  <p id=""wtp"" style=""text-align:center; margin-top: 0px; margin-bottom: 0px; font-size: 40px"";>מוכנים לשלם: <span id=""c_p_y""></span></p>","34","evaluation","24","22","10A,11A","45","61","34","","","","","","","","","","","","","","","",""
"","","","","","html-keyboard-response","74","213975","0.0-17.0-2.18","cbfe9812-b6c0-4bbb-9cda-160da3da0211","null","<p style=""text-align: center;"">+</p>","null","fixation","","","","","","","","","","","","","","","","","","","","","",""
"","","","","","html-slider-response","75","214979","0.0-17.0-0.19","cbfe9812-b6c0-4bbb-9cda-160da3da0211","1000","
                  <p style=""text-align: center;"">₪36
                                                <br>30%</p>
                  <p id=""wtp"" style=""text-align:center; margin-top: 0px; margin-bottom: 0px; font-size: 40px"";>&ensp;</p>","-","viewing","0","11","3C,20A,22A","","","","","","","","","","","","","","","","","","",""
"","","","","","html-slider-response","76","215613","0.0-17.0-1.19","cbfe9812-b6c0-4bbb-9cda-160da3da0211","632","
                  <p style=""text-align: center;"">₪36
                                                <br>30%</p>
                  <p id=""wtp"" style=""text-align:center; margin-top: 0px; margin-bottom: 0px; font-size: 40px"";>מוכנים לשלם: <span id=""c_p_y""></span></p>","20","evaluation","10","11","3C,20A,22A","30","36","20","","","","","","","","","","","","","","","",""
"","","","","","html-keyboard-response","77","216874","0.0-17.0-2.19","cbfe9812-b6c0-4bbb-9cda-160da3da0211","null","<p style=""text-align: center;"">+</p>","null","fixation","","","","","","","","","","","","","","","","","","","","","",""
"","","","","","html-slider-response","78","217876","0.0-17.0-0.20","cbfe9812-b6c0-4bbb-9cda-160da3da0211","1000","
                  <p style=""text-align: center;"">₪43
                                                <br>75%</p>
                  <p id=""wtp"" style=""text-align:center; margin-top: 0px; margin-bottom: 0px; font-size: 40px"";>&ensp;</p>","-","viewing","0","18","11B,19B,24A,26A","","","","","","","","","","","","","","","","","","",""
"","","","","","html-slider-response","79","219317","0.0-17.0-1.20","cbfe9812-b6c0-4bbb-9cda-160da3da0211","1439","
                  <p style=""text-align: center;"">₪43
                                                <br>75%</p>
                  <p id=""wtp"" style=""text-align:center; margin-top: 0px; margin-bottom: 0px; font-size: 40px"";>מוכנים לשלם: <span id=""c_p_y""></span></p>","77","evaluation","5","18","11B,19B,24A,26A","75","43","76","","","","","","","","","","","","","","","",""
"","","","","","html-keyboard-response","80","220140","0.0-17.0-2.20","cbfe9812-b6c0-4bbb-9cda-160da3da0211","null","<p style=""text-align: center;"">+</p>","null","fixation","","","","","","","","","","","","","","","","","","","","","",""
"","","","","","html-slider-response","81","221142","0.0-17.0-0.21","cbfe9812-b6c0-4bbb-9cda-160da3da0211","1000","
                  <p style=""text-align: center;"">₪71
                                                <br>55%</p>
                  <p id=""wtp"" style=""text-align:center; margin-top: 0px; margin-bottom: 0px; font-size: 40px"";>&ensp;</p>","-","viewing","0","27","5B,18A","","","","","","","","","","","","","","","","","","",""
"","","","","","html-slider-response","82","221733","0.0-17.0-1.21","cbfe9812-b6c0-4bbb-9cda-160da3da0211","590","
                  <p style=""text-align: center;"">₪71
                                                <br>55%</p>
                  <p id=""wtp"" style=""text-align:center; margin-top: 0px; margin-bottom: 0px; font-size: 40px"";>מוכנים לשלם: <span id=""c_p_y""></span></p>","66","evaluation","79","27","5B,18A","55","71","65","","","","","","","","","","","","","","","",""
"","","","","","html-keyboard-response","83","222947","0.0-17.0-2.21","cbfe9812-b6c0-4bbb-9cda-160da3da0211","null","<p style=""text-align: center;"">+</p>","null","fixation","","","","","","","","","","","","","","","","","","","","","",""
"","","","","","html-slider-response","84","223963","0.0-17.0-0.22","cbfe9812-b6c0-4bbb-9cda-160da3da0211","1000","
                  <p style=""text-align: center;"">₪58
                                                <br>40%</p>
                  <p id=""wtp"" style=""text-align:center; margin-top: 0px; margin-bottom: 0px; font-size: 40px"";>&ensp;</p>","-","viewing","0","20","10C,13A,19C,21B","","","","","","","","","","","","","","","","","","",""
"","","","","","html-slider-response","85","225941","0.0-17.0-1.22","cbfe9812-b6c0-4bbb-9cda-160da3da0211","1977","
                  <p style=""text-align: center;"">₪58
                                                <br>40%</p>
                  <p id=""wtp"" style=""text-align:center; margin-top: 0px; margin-bottom: 0px; font-size: 40px"";>מוכנים לשלם: <span id=""c_p_y""></span></p>","28","evaluation","42","20","10C,13A,19C,21B","40","58","28","","","","","","","","","","","","","","","",""
"","","","","","html-keyboard-response","86","226526","0.0-17.0-2.22","cbfe9812-b6c0-4bbb-9cda-160da3da0211","null","<p style=""text-align: center;"">+</p>","null","fixation","","","","","","","","","","","","","","","","","","","","","",""
"","","","","","html-slider-response","87","227529","0.0-17.0-0.23","cbfe9812-b6c0-4bbb-9cda-160da3da0211","1000","
                  <p style=""text-align: center;"">₪39
                                                <br>60%</p>
                  <p id=""wtp"" style=""text-align:center; margin-top: 0px; margin-bottom: 0px; font-size: 40px"";>&ensp;</p>","-","viewing","0","15","9C,25B","","","","","","","","","","","","","","","","","","",""
"","","","","","html-slider-response","88","228853","0.0-17.0-1.23","cbfe9812-b6c0-4bbb-9cda-160da3da0211","1322","
                  <p style=""text-align: center;"">₪39
                                                <br>60%</p>
                  <p id=""wtp"" style=""text-align:center; margin-top: 0px; margin-bottom: 0px; font-size: 40px"";>מוכנים לשלם: <span id=""c_p_y""></span></p>","60","evaluation","31","15","9C,25B","60","39","60","","","","","","","","","","","","","","","",""
"","","","","","html-keyboard-response","89","229615","0.0-17.0-2.23","cbfe9812-b6c0-4bbb-9cda-160da3da0211","null","<p style=""text-align: center;"">+</p>","null","fixation","","","","","","","","","","","","","","","","","","","","","",""
"","","","","","html-slider-response","90","230627","0.0-17.0-0.24","cbfe9812-b6c0-4bbb-9cda-160da3da0211","1000","
                  <p style=""text-align: center;"">₪43
                                                <br>60%</p>
                  <p id=""wtp"" style=""text-align:center; margin-top: 0px; margin-bottom: 0px; font-size: 40px"";>&ensp;</p>","-","viewing","0","17","2A,7A,9A,15B","","","","","","","","","","","","","","","","","","",""
"","","","","","html-slider-response","91","231349","0.0-17.0-1.24","cbfe9812-b6c0-4bbb-9cda-160da3da0211","720","
                  <p style=""text-align: center;"">₪43
                                                <br>60%</p>
                  <p id=""wtp"" style=""text-align:center; margin-top: 0px; margin-bottom: 0px; font-size: 40px"";>מוכנים לשלם: <span id=""c_p_y""></span></p>","50","evaluation","4","17","2A,7A,9A,15B","60","43","50","","","","","","","","","","","","","","","",""
"","","","","","html-keyboard-response","92","231893","0.0-17.0-2.24","cbfe9812-b6c0-4bbb-9cda-160da3da0211","null","<p style=""text-align: center;"">+</p>","null","fixation","","","","","","","","","","","","","","","","","","","","","",""
"","","","","","html-slider-response","93","232895","0.0-17.0-0.25","cbfe9812-b6c0-4bbb-9cda-160da3da0211","1000","
                  <p style=""text-align: center;"">₪71
                                                <br>75%</p>
                  <p id=""wtp"" style=""text-align:center; margin-top: 0px; margin-bottom: 0px; font-size: 40px"";>&ensp;</p>","-","viewing","0","28","8B","","","","","","","","","","","","","","","","","","",""
"","","","","","html-slider-response","94","234173","0.0-17.0-1.25","cbfe9812-b6c0-4bbb-9cda-160da3da0211","1277","
                  <p style=""text-align: center;"">₪71
                                                <br>75%</p>
                  <p id=""wtp"" style=""text-align:center; margin-top: 0px; margin-bottom: 0px; font-size: 40px"";>מוכנים לשלם: <span id=""c_p_y""></span></p>","74","evaluation","35","28","8B","75","71","73","","","","","","","","","","","","","","","",""
"","","","","","html-keyboard-response","95","234990","0.0-17.0-2.25","cbfe9812-b6c0-4bbb-9cda-160da3da0211","null","<p style=""text-align: center;"">+</p>","null","fixation","","","","","","","","","","","","","","","","","","","","","",""
"","","","","","html-slider-response","96","235992","0.0-17.0-0.26","cbfe9812-b6c0-4bbb-9cda-160da3da0211","1000","
                  <p style=""text-align: center;"">₪4
                                                <br>75%</p>
                  <p id=""wtp"" style=""text-align:center; margin-top: 0px; margin-bottom: 0px; font-size: 40px"";>&ensp;</p>","-","viewing","0","3","12B,20B,23B,27C,29C","","","","","","","","","","","","","","","","","","",""
"","","","","","html-slider-response","97","239565","0.0-17.0-1.26","cbfe9812-b6c0-4bbb-9cda-160da3da0211","3571","
                  <p style=""text-align: center;"">₪4
                                                <br>75%</p>
                  <p id=""wtp"" style=""text-align:center; margin-top: 0px; margin-bottom: 0px; font-size: 40px"";>מוכנים לשלם: <span id=""c_p_y""></span></p>","15","evaluation","7","3","12B,20B,23B,27C,29C","75","4","15","","","","","","","","","","","","","","","",""
"","","","","","html-keyboard-response","98","240583","0.0-17.0-2.26","cbfe9812-b6c0-4bbb-9cda-160da3da0211","null","<p style=""text-align: center;"">+</p>","null","fixation","","","","","","","","","","","","","","","","","","","","","",""
"","","","","","html-slider-response","99","241599","0.0-17.0-0.27","cbfe9812-b6c0-4bbb-9cda-160da3da0211","1000","
                  <p style=""text-align: center;"">₪79
                                                <br>65%</p>
                  <p id=""wtp"" style=""text-align:center; margin-top: 0px; margin-bottom: 0px; font-size: 40px"";>&ensp;</p>","-","viewing","0","31","8A","","","","","","","","","","","","","","","","","","",""
"","","","","","html-slider-response","100","243013","0.0-17.0-1.27","cbfe9812-b6c0-4bbb-9cda-160da3da0211","1413","
                  <p style=""text-align: center;"">₪79
                                                <br>65%</p>
                  <p id=""wtp"" style=""text-align:center; margin-top: 0px; margin-bottom: 0px; font-size: 40px"";>מוכנים לשלם: <span id=""c_p_y""></span></p>","49","evaluation","77","31","8A","65","79","49","","","","","","","","","","","","","","","",""
"","","","","","html-keyboard-response","101","244193","0.0-17.0-2.27","cbfe9812-b6c0-4bbb-9cda-160da3da0211","null","<p style=""text-align: center;"">+</p>","null","fixation","","","","","","","","","","","","","","","","","","","","","",""
"","","","","","html-slider-response","102","245196","0.0-17.0-0.28","cbfe9812-b6c0-4bbb-9cda-160da3da0211","1000","
                  <p style=""text-align: center;"">₪39
                                                <br>65%</p>
                  <p id=""wtp"" style=""text-align:center; margin-top: 0px; margin-bottom: 0px; font-size: 40px"";>&ensp;</p>","-","viewing","0","16","1A,15A,26C","","","","","","","","","","","","","","","","","","",""
"","","","","","html-slider-response","103","246013","0.0-17.0-1.28","cbfe9812-b6c0-4bbb-9cda-160da3da0211","815","
                  <p style=""text-align: center;"">₪39
                                                <br>65%</p>
                  <p id=""wtp"" style=""text-align:center; margin-top: 0px; margin-bottom: 0px; font-size: 40px"";>מוכנים לשלם: <span id=""c_p_y""></span></p>","42","evaluation","58","16","1A,15A,26C","65","39","42","","","","","","","","","","","","","","","",""
"","","","","","html-keyboard-response","104","247286","0.0-17.0-2.28","cbfe9812-b6c0-4bbb-9cda-160da3da0211","null","<p style=""text-align: center;"">+</p>","null","fixation","","","","","","","","","","","","","","","","","","","","","",""
"","","","","","html-slider-response","105","248301","0.0-17.0-0.29","cbfe9812-b6c0-4bbb-9cda-160da3da0211","1000","
                  <p style=""text-align: center;"">₪4
                                                <br>25%</p>
                  <p id=""wtp"" style=""text-align:center; margin-top: 0px; margin-bottom: 0px; font-size: 40px"";>&ensp;</p>","-","viewing","0","1","6C,29B,30C","","","","","","","","","","","","","","","","","","",""
"","","","","","html-slider-response","106","250493","0.0-17.0-1.29","cbfe9812-b6c0-4bbb-9cda-160da3da0211","2190","
                  <p style=""text-align: center;"">₪4
                                                <br>25%</p>
                  <p id=""wtp"" style=""text-align:center; margin-top: 0px; margin-bottom: 0px; font-size: 40px"";>מוכנים לשלם: <span id=""c_p_y""></span></p>","0","evaluation","28","1","6C,29B,30C","25","4","1","","","","","","","","","","","","","","","",""
"","","","","","html-keyboard-response","107","251787","0.0-17.0-2.29","cbfe9812-b6c0-4bbb-9cda-160da3da0211","null","<p style=""text-align: center;"">+</p>","null","fixation","","","","","","","","","","","","","","","","","","","","","",""
"","","","","","html-slider-response","108","252788","0.0-17.0-0.30","cbfe9812-b6c0-4bbb-9cda-160da3da0211","1000","
                  <p style=""text-align: center;"">₪58
                                                <br>30%</p>
                  <p id=""wtp"" style=""text-align:center; margin-top: 0px; margin-bottom: 0px; font-size: 40px"";>&ensp;</p>","-","viewing","0","19","13C,30A","","","","","","","","","","","","","","","","","","",""
"","","","","","html-slider-response","109","254925","0.0-17.0-1.30","cbfe9812-b6c0-4bbb-9cda-160da3da0211","2136","
                  <p style=""text-align: center;"">₪58
                                                <br>30%</p>
                  <p id=""wtp"" style=""text-align:center; margin-top: 0px; margin-bottom: 0px; font-size: 40px"";>מוכנים לשלם: <span id=""c_p_y""></span></p>","32","evaluation","63","19","13C,30A","30","58","32","","","","","","","","","","","","","","","",""
"","","","","","html-keyboard-response","110","255540","0.0-17.0-2.30","cbfe9812-b6c0-4bbb-9cda-160da3da0211","null","<p style=""text-align: center;"">+</p>","null","fixation","","","","","","","","","","","","","","","","","","","","","",""
"","","","","","html-keyboard-response","111","256552","0.0-18.0","cbfe9812-b6c0-4bbb-9cda-160da3da0211","null","<p style=""text-align: center;"">+</p>","null","fixation","","","","","","","","","","","","","","","","","","","","","",""
"","","","","","html-keyboard-response","112","258292","0.0-19.0","cbfe9812-b6c0-4bbb-9cda-160da3da0211","null","<p>הפסקה.
          <br>לחצו כדי להמשיך.</p>","1","scan_wait","","","","","","","","","","","","","","","","","","","","","",""
"","","","","","html-keyboard-response","113","259305","0.0-20.0","cbfe9812-b6c0-4bbb-9cda-160da3da0211","null","<p style=""text-align: center;"">+</p>","null","fixation","","","","","","","","","","","","","","","","","","","","","",""
"","","","","","html-slider-response","114","260321","0.0-21.0-0.0","cbfe9812-b6c0-4bbb-9cda-160da3da0211","1000","
                  <p style=""text-align: center;"">₪58
                                                <br>45%</p>
                  <p id=""wtp"" style=""text-align:center; margin-top: 0px; margin-bottom: 0px; font-size: 40px"";>&ensp;</p>","-","viewing","0","21","11C,18C,25A","","","","","","","","","","","","","","","","","","",""
"","","","","","html-slider-response","115","261525","0.0-21.0-1.0","cbfe9812-b6c0-4bbb-9cda-160da3da0211","1203","
                  <p style=""text-align: center;"">₪58
                                                <br>45%</p>
                  <p id=""wtp"" style=""text-align:center; margin-top: 0px; margin-bottom: 0px; font-size: 40px"";>מוכנים לשלם: <span id=""c_p_y""></span></p>","35","evaluation","54","21","11C,18C,25A","45","58","35","","","","","","","","","","","","","","","",""
"","","","","","html-keyboard-response","116","262722","0.0-21.0-2.0","cbfe9812-b6c0-4bbb-9cda-160da3da0211","null","<p style=""text-align: center;"">+</p>","null","fixation","","","","","","","","","","","","","","","","","","","","","",""
"","","","","","html-slider-response","117","263725","0.0-21.0-0.1","cbfe9812-b6c0-4bbb-9cda-160da3da0211","1000","
                  <p style=""text-align: center;"">₪64
                                                <br>50%</p>
                  <p id=""wtp"" style=""text-align:center; margin-top: 0px; margin-bottom: 0px; font-size: 40px"";>&ensp;</p>","-","viewing","0","25","1B,3B,4A","","","","","","","","","","","","","","","","","","",""
"","","","","","html-slider-response","118","266013","0.0-21.0-1.1","cbfe9812-b6c0-4bbb-9cda-160da3da0211","2287","
                  <p style=""text-align: center;"">₪64
                                                <br>50%</p>
                  <p id=""wtp"" style=""text-align:center; margin-top: 0px; margin-bottom: 0px; font-size: 40px"";>מוכנים לשלם: <span id=""c_p_y""></span></p>","46","evaluation","3","25","1B,3B,4A","50","64","46","","","","","","","","","","","","","","","",""
"","","","","","html-keyboard-response","119","266760","0.0-21.0-2.1","cbfe9812-b6c0-4bbb-9cda-160da3da0211","null","<p style=""text-align: center;"">+</p>","null","fixation","","","","","","","","","","","","","","","","","","","","","",""
"","","","","","html-slider-response","120","267776","0.0-21.0-0.2","cbfe9812-b6c0-4bbb-9cda-160da3da0211","1000","
                  <p style=""text-align: center;"">₪4
                                                <br>75%</p>
                  <p id=""wtp"" style=""text-align:center; margin-top: 0px; margin-bottom: 0px; font-size: 40px"";>&ensp;</p>","-","viewing","0","3","12B,20B,23B,27C,29C","","","","","","","","","","","","","","","","","","",""
"","","","","","html-slider-response","121","268613","0.0-21.0-1.2","cbfe9812-b6c0-4bbb-9cda-160da3da0211","835","
                  <p style=""text-align: center;"">₪4
                                                <br>75%</p>
                  <p id=""wtp"" style=""text-align:center; margin-top: 0px; margin-bottom: 0px; font-size: 40px"";>מוכנים לשלם: <span id=""c_p_y""></span></p>","2","evaluation","76","3","12B,20B,23B,27C,29C","75","4","2","","","","","","","","","","","","","","","",""
"","","","","","html-keyboard-response","122","269516","0.0-21.0-2.2","cbfe9812-b6c0-4bbb-9cda-160da3da0211","null","<p style=""text-align: center;"">+</p>","null","fixation","","","","","","","","","","","","","","","","","","","","","",""
"","","","","","html-slider-response","123","270529","0.0-21.0-0.3","cbfe9812-b6c0-4bbb-9cda-160da3da0211","1000","
                  <p style=""text-align: center;"">₪36
                                                <br>30%</p>
                  <p id=""wtp"" style=""text-align:center; margin-top: 0px; margin-bottom: 0px; font-size: 40px"";>&ensp;</p>","-","viewing","0","11","3C,20A,22A","","","","","","","","","","","","","","","","","","",""
"","","","","","html-slider-response","124","271453","0.0-21.0-1.3","cbfe9812-b6c0-4bbb-9cda-160da3da0211","922","
                  <p style=""text-align: center;"">₪36
                                                <br>30%</p>
                  <p id=""wtp"" style=""text-align:center; margin-top: 0px; margin-bottom: 0px; font-size: 40px"";>מוכנים לשלם: <span id=""c_p_y""></span></p>","18","evaluation","30","11","3C,20A,22A","30","36","18","","","","","","","","","","","","","","","",""
"","","","","","html-keyboard-response","125","272923","0.0-21.0-2.3","cbfe9812-b6c0-4bbb-9cda-160da3da0211","null","<p style=""text-align: center;"">+</p>","null","fixation","","","","","","","","","","","","","","","","","","","","","",""
"","","","","","html-slider-response","126","273926","0.0-21.0-0.4","cbfe9812-b6c0-4bbb-9cda-160da3da0211","1000","
                  <p style=""text-align: center;"">₪64
                                                <br>25%</p>
                  <p id=""wtp"" style=""text-align:center; margin-top: 0px; margin-bottom: 0px; font-size: 40px"";>&ensp;</p>","-","viewing","0","24","6A,21A","","","","","","","","","","","","","","","","","","",""
"","","","","","html-slider-response","127","274933","0.0-21.0-1.4","cbfe9812-b6c0-4bbb-9cda-160da3da0211","1005","
                  <p style=""text-align: center;"">₪64
                                                <br>25%</p>
                  <p id=""wtp"" style=""text-align:center; margin-top: 0px; margin-bottom: 0px; font-size: 40px"";>מוכנים לשלם: <span id=""c_p_y""></span></p>","17","evaluation","74","24","6A,21A","25","64","17","","","","","","","","","","","","","","","",""
"","","","","","html-keyboard-response","128","275750","0.0-21.0-2.4","cbfe9812-b6c0-4bbb-9cda-160da3da0211","null","<p style=""text-align: center;"">+</p>","null","fixation","","","","","","","","","","","","","","","","","","","","","",""
"","","","","","html-slider-response","129","276752","0.0-21.0-0.5","cbfe9812-b6c0-4bbb-9cda-160da3da0211","1000","
                  <p style=""text-align: center;"">₪71
                                                <br>45%</p>
                  <p id=""wtp"" style=""text-align:center; margin-top: 0px; margin-bottom: 0px; font-size: 40px"";>&ensp;</p>","-","viewing","0","26","2B,16A","","","","","","","","","","","","","","","","","","",""
"","","","","","html-slider-response","130","277765","0.0-21.0-1.5","cbfe9812-b6c0-4bbb-9cda-160da3da0211","1012","
                  <p style=""text-align: center;"">₪71
                                                <br>45%</p>
                  <p id=""wtp"" style=""text-align:center; margin-top: 0px; margin-bottom: 0px; font-size: 40px"";>מוכנים לשלם: <span id=""c_p_y""></span></p>","32","evaluation","46","26","2B,16A","45","71","32","","","","","","","","","","","","","","","",""
"","","","","","html-keyboard-response","131","278531","0.0-21.0-2.5","cbfe9812-b6c0-4bbb-9cda-160da3da0211","null","<p style=""text-align: center;"">+</p>","null","fixation","","","","","","","","","","","","","","","","","","","","","",""
"","","","","","html-slider-response","132","279543","0.0-21.0-0.6","cbfe9812-b6c0-4bbb-9cda-160da3da0211","1000","
                  <p style=""text-align: center;"">₪61
                                                <br>45%</p>
                  <p id=""wtp"" style=""text-align:center; margin-top: 0px; margin-bottom: 0px; font-size: 40px"";>&ensp;</p>","-","viewing","0","22","10A,11A","","","","","","","","","","","","","","","","","","",""
"","","","","","html-slider-response","133","280605","0.0-21.0-1.6","cbfe9812-b6c0-4bbb-9cda-160da3da0211","1061","
                  <p style=""text-align: center;"">₪61
                                                <br>45%</p>
                  <p id=""wtp"" style=""text-align:center; margin-top: 0px; margin-bottom: 0px; font-size: 40px"";>מוכנים לשלם: <span id=""c_p_y""></span></p>","25","evaluation","63","22","10A,11A","45","61","25","","","","","","","","","","","","","","","",""
"","","","","","html-keyboard-response","134","281368","0.0-21.0-2.6","cbfe9812-b6c0-4bbb-9cda-160da3da0211","null","<p style=""text-align: center;"">+</p>","null","fixation","","","","","","","","","","","","","","","","","","","","","",""
"","","","","","html-slider-response","135","282384","0.0-21.0-0.7","cbfe9812-b6c0-4bbb-9cda-160da3da0211","1000","
                  <p style=""text-align: center;"">₪36
                                                <br>60%</p>
                  <p id=""wtp"" style=""text-align:center; margin-top: 0px; margin-bottom: 0px; font-size: 40px"";>&ensp;</p>","-","viewing","0","12","1C,7C,15C","","","","","","","","","","","","","","","","","","",""
"","","","","","html-slider-response","136","283645","0.0-21.0-1.7","cbfe9812-b6c0-4bbb-9cda-160da3da0211","1260","
                  <p style=""text-align: center;"">₪36
                                                <br>60%</p>
                  <p id=""wtp"" style=""text-align:center; margin-top: 0px; margin-bottom: 0px; font-size: 40px"";>מוכנים לשלם: <span id=""c_p_y""></span></p>","26","evaluation","4","12","1C,7C,15C","60","36","26","","","","","","","","","","","","","","","",""
"","","","","","html-keyboard-response","137","284405","0.0-21.0-2.7","cbfe9812-b6c0-4bbb-9cda-160da3da0211","null","<p style=""text-align: center;"">+</p>","null","fixation","","","","","","","","","","","","","","","","","","","","","",""
"","","","","","html-slider-response","138","285412","0.0-21.0-0.8","cbfe9812-b6c0-4bbb-9cda-160da3da0211","1000","
                  <p style=""text-align: center;"">₪71
                                                <br>75%</p>
                  <p id=""wtp"" style=""text-align:center; margin-top: 0px; margin-bottom: 0px; font-size: 40px"";>&ensp;</p>","-","viewing","0","28","8B","","","","","","","","","","","","","","","","","","",""
"","","","","","html-slider-response","139","287509","0.0-21.0-1.8","cbfe9812-b6c0-4bbb-9cda-160da3da0211","2095","
                  <p style=""text-align: center;"">₪71
                                                <br>75%</p>
                  <p id=""wtp"" style=""text-align:center; margin-top: 0px; margin-bottom: 0px; font-size: 40px"";>מוכנים לשלם: <span id=""c_p_y""></span></p>","73","evaluation","67","28","8B","75","71","73","","","","","","","","","","","","","","","",""
"","","","","","html-keyboard-response","140","288851","0.0-21.0-2.8","cbfe9812-b6c0-4bbb-9cda-160da3da0211","null","<p style=""text-align: center;"">+</p>","null","fixation","","","","","","","","","","","","","","","","","","","","","",""
"","","","","","html-slider-response","141","289865","0.0-21.0-0.9","cbfe9812-b6c0-4bbb-9cda-160da3da0211","1000","
                  <p style=""text-align: center;"">₪36
                                                <br>70%</p>
                  <p id=""wtp"" style=""text-align:center; margin-top: 0px; margin-bottom: 0px; font-size: 40px"";>&ensp;</p>","-","viewing","0","13","3A,5C,10B","","","","","","","","","","","","","","","","","","",""
"","","","","","html-slider-response","142","292693","0.0-21.0-1.9","cbfe9812-b6c0-4bbb-9cda-160da3da0211","2827","
                  <p style=""text-align: center;"">₪36
                                                <br>70%</p>
                  <p id=""wtp"" style=""text-align:center; margin-top: 0px; margin-bottom: 0px; font-size: 40px"";>מוכנים לשלם: <span id=""c_p_y""></span></p>","61","evaluation","71","13","3A,5C,10B","70","36","61","","","","","","","","","","","","","","","",""
"","","","","","html-keyboard-response","143","293926","0.0-21.0-2.9","cbfe9812-b6c0-4bbb-9cda-160da3da0211","null","<p style=""text-align: center;"">+</p>","null","fixation","","","","","","","","","","","","","","","","","","","","","",""
"","","","","","html-slider-response","144","294942","0.0-21.0-0.10","cbfe9812-b6c0-4bbb-9cda-160da3da0211","1000","
                  <p style=""text-align: center;"">₪4
                                                <br>50%</p>
                  <p id=""wtp"" style=""text-align:center; margin-top: 0px; margin-bottom: 0px; font-size: 40px"";>&ensp;</p>","-","viewing","0","2","4C,17B","","","","","","","","","","","","","","","","","","",""
"","","","","","html-slider-response","145","296717","0.0-21.0-1.10","cbfe9812-b6c0-4bbb-9cda-160da3da0211","1773","
                  <p style=""text-align: center;"">₪4
                                                <br>50%</p>
                  <p id=""wtp"" style=""text-align:center; margin-top: 0px; margin-bottom: 0px; font-size: 40px"";>מוכנים לשלם: <span id=""c_p_y""></span></p>","16","evaluation","50","2","4C,17B","50","4","16","","","","","","","","","","","","","","","",""
"","","","","","html-keyboard-response","146","297517","0.0-21.0-2.10","cbfe9812-b6c0-4bbb-9cda-160da3da0211","null","<p style=""text-align: center;"">+</p>","null","fixation","","","","","","","","","","","","","","","","","","","","","",""
"","","","","","html-slider-response","147","298519","0.0-21.0-0.11","cbfe9812-b6c0-4bbb-9cda-160da3da0211","1000","
                  <p style=""text-align: center;"">₪36
                                                <br>75%</p>
                  <p id=""wtp"" style=""text-align:center; margin-top: 0px; margin-bottom: 0px; font-size: 40px"";>&ensp;</p>","-","viewing","0","14","4B,5A,13B,16B","","","","","","","","","","","","","","","","","","",""
"","","","","","html-slider-response","148","301429","0.0-21.0-1.11","cbfe9812-b6c0-4bbb-9cda-160da3da0211","2909","
                  <p style=""text-align: center;"">₪36
                                                <br>75%</p>
                  <p id=""wtp"" style=""text-align:center; margin-top: 0px; margin-bottom: 0px; font-size: 40px"";>מוכנים לשלם: <span id=""c_p_y""></span></p>","60","evaluation","18","14","4B,5A,13B,16B","75","36","60","","","","","","","","","","","","","","","",""
"","","","","","html-keyboard-response","149","302920","0.0-21.0-2.11","cbfe9812-b6c0-4bbb-9cda-160da3da0211","null","<p style=""text-align: center;"">+</p>","null","fixation","","","","","","","","","","","","","","","","","","","","","",""
"","","","","","html-slider-response","150","303927","0.0-21.0-0.12","cbfe9812-b6c0-4bbb-9cda-160da3da0211","1000","
                  <p style=""text-align: center;"">₪79
                                                <br>65%</p>
                  <p id=""wtp"" style=""text-align:center; margin-top: 0px; margin-bottom: 0px; font-size: 40px"";>&ensp;</p>","-","viewing","0","31","8A","","","","","","","","","","","","","","","","","","",""
"","","","","","html-slider-response","151","304589","0.0-21.0-1.12","cbfe9812-b6c0-4bbb-9cda-160da3da0211","661","
                  <p style=""text-align: center;"">₪79
                                                <br>65%</p>
                  <p id=""wtp"" style=""text-align:center; margin-top: 0px; margin-bottom: 0px; font-size: 40px"";>מוכנים לשלם: <span id=""c_p_y""></span></p>","47","evaluation","28","31","8A","65","79","47","","","","","","","","","","","","","","","",""
"","","","","","html-keyboard-response","152","305845","0.0-21.0-2.12","cbfe9812-b6c0-4bbb-9cda-160da3da0211","null","<p style=""text-align: center;"">+</p>","null","fixation","","","","","","","","","","","","","","","","","","","","","",""
"","","","","","html-slider-response","153","306861","0.0-21.0-0.13","cbfe9812-b6c0-4bbb-9cda-160da3da0211","1000","
                  <p style=""text-align: center;"">₪76
                                                <br>65%</p>
                  <p id=""wtp"" style=""text-align:center; margin-top: 0px; margin-bottom: 0px; font-size: 40px"";>&ensp;</p>","-","viewing","0","29","8C,19A,24B","","","","","","","","","","","","","","","","","","",""
"","","","","","html-slider-response","154","310101","0.0-21.0-1.13","cbfe9812-b6c0-4bbb-9cda-160da3da0211","3239","
                  <p style=""text-align: center;"">₪76
                                                <br>65%</p>
                  <p id=""wtp"" style=""text-align:center; margin-top: 0px; margin-bottom: 0px; font-size: 40px"";>מוכנים לשלם: <span id=""c_p_y""></span></p>","60","evaluation","24","29","8C,19A,24B","65","76","59","","","","","","","","","","","","","","","",""
"","","","","","html-keyboard-response","155","310891","0.0-21.0-2.13","cbfe9812-b6c0-4bbb-9cda-160da3da0211","null","<p style=""text-align: center;"">+</p>","null","fixation","","","","","","","","","","","","","","","","","","","","","",""
"","","","","","html-slider-response","156","311894","0.0-21.0-0.14","cbfe9812-b6c0-4bbb-9cda-160da3da0211","1000","
                  <p style=""text-align: center;"">₪43
                                                <br>75%</p>
                  <p id=""wtp"" style=""text-align:center; margin-top: 0px; margin-bottom: 0px; font-size: 40px"";>&ensp;</p>","-","viewing","0","18","11B,19B,24A,26A","","","","","","","","","","","","","","","","","","",""
"","","","","","html-slider-response","157","312741","0.0-21.0-1.14","cbfe9812-b6c0-4bbb-9cda-160da3da0211","846","
                  <p style=""text-align: center;"">₪43
                                                <br>75%</p>
                  <p id=""wtp"" style=""text-align:center; margin-top: 0px; margin-bottom: 0px; font-size: 40px"";>מוכנים לשלם: <span id=""c_p_y""></span></p>","60","evaluation","59","18","11B,19B,24A,26A","75","43","59","","","","","","","","","","","","","","","",""
"","","","","","html-keyboard-response","158","313721","0.0-21.0-2.14","cbfe9812-b6c0-4bbb-9cda-160da3da0211","null","<p style=""text-align: center;"">+</p>","null","fixation","","","","","","","","","","","","","","","","","","","","","",""
"","","","","","html-slider-response","159","314733","0.0-21.0-0.15","cbfe9812-b6c0-4bbb-9cda-160da3da0211","1000","
                  <p style=""text-align: center;"">₪11
                                                <br>75%</p>
                  <p id=""wtp"" style=""text-align:center; margin-top: 0px; margin-bottom: 0px; font-size: 40px"";>&ensp;</p>","-","viewing","0","7","6B,18B,22C,24C,29A","","","","","","","","","","","","","","","","","","",""
"","","","","","html-slider-response","160","317013","0.0-21.0-1.15","cbfe9812-b6c0-4bbb-9cda-160da3da0211","2278","
                  <p style=""text-align: center;"">₪11
                                                <br>75%</p>
                  <p id=""wtp"" style=""text-align:center; margin-top: 0px; margin-bottom: 0px; font-size: 40px"";>מוכנים לשלם: <span id=""c_p_y""></span></p>","20","evaluation","14","7","6B,18B,22C,24C,29A","75","11","20","","","","","","","","","","","","","","","",""
"","","","","","html-keyboard-response","161","318390","0.0-21.0-2.15","cbfe9812-b6c0-4bbb-9cda-160da3da0211","null","<p style=""text-align: center;"">+</p>","null","fixation","","","","","","","","","","","","","","","","","","","","","",""
"","","","","","html-slider-response","162","319391","0.0-21.0-0.16","cbfe9812-b6c0-4bbb-9cda-160da3da0211","1000","
                  <p style=""text-align: center;"">₪11
                                                <br>25%</p>
                  <p id=""wtp"" style=""text-align:center; margin-top: 0px; margin-bottom: 0px; font-size: 40px"";>&ensp;</p>","-","viewing","0","5","12A,27B,28B,30B","","","","","","","","","","","","","","","","","","",""
"","","","","","html-slider-response","163","320557","0.0-21.0-1.16","cbfe9812-b6c0-4bbb-9cda-160da3da0211","1164","
                  <p style=""text-align: center;"">₪11
                                                <br>25%</p>
                  <p id=""wtp"" style=""text-align:center; margin-top: 0px; margin-bottom: 0px; font-size: 40px"";>מוכנים לשלם: <span id=""c_p_y""></span></p>","10","evaluation","23","5","12A,27B,28B,30B","25","11","10","","","","","","","","","","","","","","","",""
"","","","","","html-keyboard-response","164","321474","0.0-21.0-2.16","cbfe9812-b6c0-4bbb-9cda-160da3da0211","null","<p style=""text-align: center;"">+</p>","null","fixation","","","","","","","","","","","","","","","","","","","","","",""
"","","","","","html-slider-response","165","322489","0.0-21.0-0.17","cbfe9812-b6c0-4bbb-9cda-160da3da0211","1000","
                  <p style=""text-align: center;"">₪16
                                                <br>20%</p>
                  <p id=""wtp"" style=""text-align:center; margin-top: 0px; margin-bottom: 0px; font-size: 40px"";>&ensp;</p>","-","viewing","0","8","14C,17A,20C,27A","","","","","","","","","","","","","","","","","","",""
"","","","","","html-slider-response","166","325341","0.0-21.0-1.17","cbfe9812-b6c0-4bbb-9cda-160da3da0211","2851","
                  <p style=""text-align: center;"">₪16
                                                <br>20%</p>
                  <p id=""wtp"" style=""text-align:center; margin-top: 0px; margin-bottom: 0px; font-size: 40px"";>מוכנים לשלם: <span id=""c_p_y""></span></p>","10","evaluation","66","8","14C,17A,20C,27A","20","16","10","","","","","","","","","","","","","","","",""
"","","","","","html-keyboard-response","167","326420","0.0-21.0-2.17","cbfe9812-b6c0-4bbb-9cda-160da3da0211","null","<p style=""text-align: center;"">+</p>","null","fixation","","","","","","","","","","","","","","","","","","","","","",""
"","","","","","html-slider-response","168","327422","0.0-21.0-0.18","cbfe9812-b6c0-4bbb-9cda-160da3da0211","1000","
                  <p style=""text-align: center;"">₪11
                                                <br>20%</p>
                  <p id=""wtp"" style=""text-align:center; margin-top: 0px; margin-bottom: 0px; font-size: 40px"";>&ensp;</p>","-","viewing","0","4","12C,17C,23C,28C","","","","","","","","","","","","","","","","","","",""
"","","","","","html-slider-response","169","329013","0.0-21.0-1.18","cbfe9812-b6c0-4bbb-9cda-160da3da0211","1589","
                  <p style=""text-align: center;"">₪11
                                                <br>20%</p>
                  <p id=""wtp"" style=""text-align:center; margin-top: 0px; margin-bottom: 0px; font-size: 40px"";>מוכנים לשלם: <span id=""c_p_y""></span></p>","5","evaluation","78","4","12C,17C,23C,28C","20","11","5","","","","","","","","","","","","","","","",""
"","","","","","html-keyboard-response","170","329655","0.0-21.0-2.18","cbfe9812-b6c0-4bbb-9cda-160da3da0211","null","<p style=""text-align: center;"">+</p>","null","fixation","","","","","","","","","","","","","","","","","","","","","",""
"","","","","","html-slider-response","171","330657","0.0-21.0-0.19","cbfe9812-b6c0-4bbb-9cda-160da3da0211","1000","
                  <p style=""text-align: center;"">₪18
                                                <br>50%</p>
                  <p id=""wtp"" style=""text-align:center; margin-top: 0px; margin-bottom: 0px; font-size: 40px"";>&ensp;</p>","-","viewing","0","10","2C,16C,22B,28A","","","","","","","","","","","","","","","","","","",""
"","","","","","html-slider-response","172","331829","0.0-21.0-1.19","cbfe9812-b6c0-4bbb-9cda-160da3da0211","1170","
                  <p style=""text-align: center;"">₪18
                                                <br>50%</p>
                  <p id=""wtp"" style=""text-align:center; margin-top: 0px; margin-bottom: 0px; font-size: 40px"";>מוכנים לשלם: <span id=""c_p_y""></span></p>","16","evaluation","59","10","2C,16C,22B,28A","50","18","16","","","","","","","","","","","","","","","",""
"","","","","","html-keyboard-response","173","332861","0.0-21.0-2.19","cbfe9812-b6c0-4bbb-9cda-160da3da0211","null","<p style=""text-align: center;"">+</p>","null","fixation","","","","","","","","","","","","","","","","","","","","","",""
"","","","","","html-slider-response","174","333863","0.0-21.0-0.20","cbfe9812-b6c0-4bbb-9cda-160da3da0211","1000","
                  <p style=""text-align: center;"">₪11
                                                <br>45%</p>
                  <p id=""wtp"" style=""text-align:center; margin-top: 0px; margin-bottom: 0px; font-size: 40px"";>&ensp;</p>","-","viewing","0","6","14B,21C,25C","","","","","","","","","","","","","","","","","","",""
"","","","","","html-slider-response","175","335845","0.0-21.0-1.20","cbfe9812-b6c0-4bbb-9cda-160da3da0211","1980","
                  <p style=""text-align: center;"">₪11
                                                <br>45%</p>
                  <p id=""wtp"" style=""text-align:center; margin-top: 0px; margin-bottom: 0px; font-size: 40px"";>מוכנים לשלם: <span id=""c_p_y""></span></p>","10","evaluation","3","6","14B,21C,25C","45","11","10","","","","","","","","","","","","","","","",""
"","","","","","html-keyboard-response","176","337159","0.0-21.0-2.20","cbfe9812-b6c0-4bbb-9cda-160da3da0211","null","<p style=""text-align: center;"">+</p>","null","fixation","","","","","","","","","","","","","","","","","","","","","",""
"","","","","","html-slider-response","177","338172","0.0-21.0-0.21","cbfe9812-b6c0-4bbb-9cda-160da3da0211","1000","
                  <p style=""text-align: center;"">₪71
                                                <br>55%</p>
                  <p id=""wtp"" style=""text-align:center; margin-top: 0px; margin-bottom: 0px; font-size: 40px"";>&ensp;</p>","-","viewing","0","27","5B,18A","","","","","","","","","","","","","","","","","","",""
"","","","","","html-slider-response","178","340469","0.0-21.0-1.21","cbfe9812-b6c0-4bbb-9cda-160da3da0211","2296","
                  <p style=""text-align: center;"">₪71
                                                <br>55%</p>
                  <p id=""wtp"" style=""text-align:center; margin-top: 0px; margin-bottom: 0px; font-size: 40px"";>מוכנים לשלם: <span id=""c_p_y""></span></p>","45","evaluation","52","27","5B,18A","55","71","45","","","","","","","","","","","","","","","",""
"","","","","","html-keyboard-response","179","341487","0.0-21.0-2.21","cbfe9812-b6c0-4bbb-9cda-160da3da0211","null","<p style=""text-align: center;"">+</p>","null","fixation","","","","","","","","","","","","","","","","","","","","","",""
"","","","","","html-slider-response","180","342502","0.0-21.0-0.22","cbfe9812-b6c0-4bbb-9cda-160da3da0211","1000","
                  <p style=""text-align: center;"">₪39
                                                <br>65%</p>
                  <p id=""wtp"" style=""text-align:center; margin-top: 0px; margin-bottom: 0px; font-size: 40px"";>&ensp;</p>","-","viewing","0","16","1A,15A,26C","","","","","","","","","","","","","","","","","","",""
"","","","","","html-slider-response","181","344293","0.0-21.0-1.22","cbfe9812-b6c0-4bbb-9cda-160da3da0211","1790","
                  <p style=""text-align: center;"">₪39
                                                <br>65%</p>
                  <p id=""wtp"" style=""text-align:center; margin-top: 0px; margin-bottom: 0px; font-size: 40px"";>מוכנים לשלם: <span id=""c_p_y""></span></p>","36","evaluation","64","16","1A,15A,26C","65","39","36","","","","","","","","","","","","","","","",""
"","","","","","html-keyboard-response","182","344847","0.0-21.0-2.22","cbfe9812-b6c0-4bbb-9cda-160da3da0211","null","<p style=""text-align: center;"">+</p>","null","fixation","","","","","","","","","","","","","","","","","","","","","",""
"","","","","","html-slider-response","183","345861","0.0-21.0-0.23","cbfe9812-b6c0-4bbb-9cda-160da3da0211","1000","
                  <p style=""text-align: center;"">₪79
                                                <br>40%</p>
                  <p id=""wtp"" style=""text-align:center; margin-top: 0px; margin-bottom: 0px; font-size: 40px"";>&ensp;</p>","-","viewing","0","30","9B","","","","","","","","","","","","","","","","","","",""
"","","","","","html-slider-response","184","349875","0.0-21.0-1.23","cbfe9812-b6c0-4bbb-9cda-160da3da0211","null","
                  <p style=""text-align: center;"">₪79
                                                <br>40%</p>
                  <p id=""wtp"" style=""text-align:center; margin-top: 0px; margin-bottom: 0px; font-size: 40px"";>מוכנים לשלם: <span id=""c_p_y""></span></p>","null","evaluation","63","30","9B","40","79","40","","","","","","","","","","","","","","","",""
"","","","","","html-keyboard-response","185","350840","0.0-21.0-2.23","cbfe9812-b6c0-4bbb-9cda-160da3da0211","null","<p style=""text-align: center;"">+</p>","null","fixation","","","","","","","","","","","","","","","","","","","","","",""
"","","","","","html-slider-response","186","351856","0.0-21.0-0.24","cbfe9812-b6c0-4bbb-9cda-160da3da0211","1000","
                  <p style=""text-align: center;"">₪39
                                                <br>60%</p>
                  <p id=""wtp"" style=""text-align:center; margin-top: 0px; margin-bottom: 0px; font-size: 40px"";>&ensp;</p>","-","viewing","0","15","9C,25B","","","","","","","","","","","","","","","","","","",""
"","","","","","html-slider-response","187","353877","0.0-21.0-1.24","cbfe9812-b6c0-4bbb-9cda-160da3da0211","2020","
                  <p style=""text-align: center;"">₪39
                                                <br>60%</p>
                  <p id=""wtp"" style=""text-align:center; margin-top: 0px; margin-bottom: 0px; font-size: 40px"";>מוכנים לשלם: <span id=""c_p_y""></span></p>","36","evaluation","18","15","9C,25B","60","39","36","","","","","","","","","","","","","","","",""
"","","","","","html-keyboard-response","188","354804","0.0-21.0-2.24","cbfe9812-b6c0-4bbb-9cda-160da3da0211","null","<p style=""text-align: center;"">+</p>","null","fixation","","","","","","","","","","","","","","","","","","","","","",""
"","","","","","html-slider-response","189","355813","0.0-21.0-0.25","cbfe9812-b6c0-4bbb-9cda-160da3da0211","1000","
                  <p style=""text-align: center;"">₪4
                                                <br>25%</p>
                  <p id=""wtp"" style=""text-align:center; margin-top: 0px; margin-bottom: 0px; font-size: 40px"";>&ensp;</p>","-","viewing","0","1","6C,29B,30C","","","","","","","","","","","","","","","","","","",""
"","","","","","html-slider-response","190","356926","0.0-21.0-1.25","cbfe9812-b6c0-4bbb-9cda-160da3da0211","1111","
                  <p style=""text-align: center;"">₪4
                                                <br>25%</p>
                  <p id=""wtp"" style=""text-align:center; margin-top: 0px; margin-bottom: 0px; font-size: 40px"";>מוכנים לשלם: <span id=""c_p_y""></span></p>","0","evaluation","76","1","6C,29B,30C","25","4","1","","","","","","","","","","","","","","","",""
"","","","","","html-keyboard-response","191","357847","0.0-21.0-2.25","cbfe9812-b6c0-4bbb-9cda-160da3da0211","null","<p style=""text-align: center;"">+</p>","null","fixation","","","","","","","","","","","","","","","","","","","","","",""
"","","","","","html-slider-response","192","358862","0.0-21.0-0.26","cbfe9812-b6c0-4bbb-9cda-160da3da0211","1000","
                  <p style=""text-align: center;"">₪58
                                                <br>40%</p>
                  <p id=""wtp"" style=""text-align:center; margin-top: 0px; margin-bottom: 0px; font-size: 40px"";>&ensp;</p>","-","viewing","0","20","10C,13A,19C,21B","","","","","","","","","","","","","","","","","","",""
"","","","","","html-slider-response","193","360573","0.0-21.0-1.26","cbfe9812-b6c0-4bbb-9cda-160da3da0211","1709","
                  <p style=""text-align: center;"">₪58
                                                <br>40%</p>
                  <p id=""wtp"" style=""text-align:center; margin-top: 0px; margin-bottom: 0px; font-size: 40px"";>מוכנים לשלם: <span id=""c_p_y""></span></p>","33","evaluation","61","20","10C,13A,19C,21B","40","58","33","","","","","","","","","","","","","","","",""
"","","","","","html-keyboard-response","194","361676","0.0-21.0-2.26","cbfe9812-b6c0-4bbb-9cda-160da3da0211","null","<p style=""text-align: center;"">+</p>","null","fixation","","","","","","","","","","","","","","","","","","","","","",""
"","","","","","html-slider-response","195","362678","0.0-21.0-0.27","cbfe9812-b6c0-4bbb-9cda-160da3da0211","1000","
                  <p style=""text-align: center;"">₪58
                                                <br>30%</p>
                  <p id=""wtp"" style=""text-align:center; margin-top: 0px; margin-bottom: 0px; font-size: 40px"";>&ensp;</p>","-","viewing","0","19","13C,30A","","","","","","","","","","","","","","","","","","",""
"","","","","","html-slider-response","196","363533","0.0-21.0-1.27","cbfe9812-b6c0-4bbb-9cda-160da3da0211","854","
                  <p style=""text-align: center;"">₪58
                                                <br>30%</p>
                  <p id=""wtp"" style=""text-align:center; margin-top: 0px; margin-bottom: 0px; font-size: 40px"";>מוכנים לשלם: <span id=""c_p_y""></span></p>","19","evaluation","58","19","13C,30A","30","58","19","","","","","","","","","","","","","","","",""
"","","","","","html-keyboard-response","197","365015","0.0-21.0-2.27","cbfe9812-b6c0-4bbb-9cda-160da3da0211","null","<p style=""text-align: center;"">+</p>","null","fixation","","","","","","","","","","","","","","","","","","","","","",""
"","","","","","html-slider-response","198","366032","0.0-21.0-0.28","cbfe9812-b6c0-4bbb-9cda-160da3da0211","1000","
                  <p style=""text-align: center;"">₪43
                                                <br>60%</p>
                  <p id=""wtp"" style=""text-align:center; margin-top: 0px; margin-bottom: 0px; font-size: 40px"";>&ensp;</p>","-","viewing","0","17","2A,7A,9A,15B","","","","","","","","","","","","","","","","","","",""
"","","","","","html-slider-response","199","367269","0.0-21.0-1.28","cbfe9812-b6c0-4bbb-9cda-160da3da0211","1236","
                  <p style=""text-align: center;"">₪43
                                                <br>60%</p>
                  <p id=""wtp"" style=""text-align:center; margin-top: 0px; margin-bottom: 0px; font-size: 40px"";>מוכנים לשלם: <span id=""c_p_y""></span></p>","47","evaluation","62","17","2A,7A,9A,15B","60","43","47","","","","","","","","","","","","","","","",""
"","","","","","html-keyboard-response","200","368629","0.0-21.0-2.28","cbfe9812-b6c0-4bbb-9cda-160da3da0211","null","<p style=""text-align: center;"">+</p>","null","fixation","","","","","","","","","","","","","","","","","","","","","",""
"","","","","","html-slider-response","201","369630","0.0-21.0-0.29","cbfe9812-b6c0-4bbb-9cda-160da3da0211","1000","
                  <p style=""text-align: center;"">₪18
                                                <br>25%</p>
                  <p id=""wtp"" style=""text-align:center; margin-top: 0px; margin-bottom: 0px; font-size: 40px"";>&ensp;</p>","-","viewing","0","9","14A,23A","","","","","","","","","","","","","","","","","","",""
"","","","","","html-slider-response","202","370389","0.0-21.0-1.29","cbfe9812-b6c0-4bbb-9cda-160da3da0211","759","
                  <p style=""text-align: center;"">₪18
                                                <br>25%</p>
                  <p id=""wtp"" style=""text-align:center; margin-top: 0px; margin-bottom: 0px; font-size: 40px"";>מוכנים לשלם: <span id=""c_p_y""></span></p>","11","evaluation","47","9","14A,23A","25","18","11","","","","","","","","","","","","","","","",""
"","","","","","html-keyboard-response","203","371137","0.0-21.0-2.29","cbfe9812-b6c0-4bbb-9cda-160da3da0211","null","<p style=""text-align: center;"">+</p>","null","fixation","","","","","","","","","","","","","","","","","","","","","",""
"","","","","","html-slider-response","204","372150","0.0-21.0-0.30","cbfe9812-b6c0-4bbb-9cda-160da3da0211","1000","
                  <p style=""text-align: center;"">₪61
                                                <br>55%</p>
                  <p id=""wtp"" style=""text-align:center; margin-top: 0px; margin-bottom: 0px; font-size: 40px"";>&ensp;</p>","-","viewing","0","23","7B,26B","","","","","","","","","","","","","","","","","","",""
"","","","","","html-slider-response","205","375885","0.0-21.0-1.30","cbfe9812-b6c0-4bbb-9cda-160da3da0211","3734","
                  <p style=""text-align: center;"">₪61
                                                <br>55%</p>
                  <p id=""wtp"" style=""text-align:center; margin-top: 0px; margin-bottom: 0px; font-size: 40px"";>מוכנים לשלם: <span id=""c_p_y""></span></p>","14","evaluation","24","23","7B,26B","55","61","14","","","","","","","","","","","","","","","",""
"","","","","","html-keyboard-response","206","377352","0.0-21.0-2.30","cbfe9812-b6c0-4bbb-9cda-160da3da0211","null","<p style=""text-align: center;"">+</p>","null","fixation","","","","","","","","","","","","","","","","","","","","","",""
"","","","","","html-keyboard-response","207","378354","0.0-22.0","cbfe9812-b6c0-4bbb-9cda-160da3da0211","null","<p style=""text-align: center;"">+</p>","null","fixation","","","","","","","","","","","","","","","","","","","","","",""
"","","","","","html-keyboard-response","208","379333","0.0-23.0","cbfe9812-b6c0-4bbb-9cda-160da3da0211","null","<p>הפסקה.
          <br>לחצו כדי להמשיך.</p>","1","scan_wait","","","","","","","","","","","","","","","","","","","","","",""
"","","","","","html-keyboard-response","209","380334","0.0-24.0","cbfe9812-b6c0-4bbb-9cda-160da3da0211","null","<p style=""text-align: center;"">+</p>","null","fixation","","","","","","","","","","","","","","","","","","","","","",""
"","","","","","html-slider-response","210","381341","0.0-25.0-0.0","cbfe9812-b6c0-4bbb-9cda-160da3da0211","1000","
                  <p style=""text-align: center;"">₪43
                                                <br>60%</p>
                  <p id=""wtp"" style=""text-align:center; margin-top: 0px; margin-bottom: 0px; font-size: 40px"";>&ensp;</p>","-","viewing","0","17","2A,7A,9A,15B","","","","","","","","","","","","","","","","","","",""
"","","","","","html-slider-response","211","383741","0.0-25.0-1.0","cbfe9812-b6c0-4bbb-9cda-160da3da0211","2399","
                  <p style=""text-align: center;"">₪43
                                                <br>60%</p>
                  <p id=""wtp"" style=""text-align:center; margin-top: 0px; margin-bottom: 0px; font-size: 40px"";>מוכנים לשלם: <span id=""c_p_y""></span></p>","50","evaluation","78","17","2A,7A,9A,15B","60","43","50","","","","","","","","","","","","","","","",""
"","","","","","html-keyboard-response","212","385017","0.0-25.0-2.0","cbfe9812-b6c0-4bbb-9cda-160da3da0211","null","<p style=""text-align: center;"">+</p>","null","fixation","","","","","","","","","","","","","","","","","","","","","",""
"","","","","","html-slider-response","213","386023","0.0-25.0-0.1","cbfe9812-b6c0-4bbb-9cda-160da3da0211","1000","
                  <p style=""text-align: center;"">₪58
                                                <br>40%</p>
                  <p id=""wtp"" style=""text-align:center; margin-top: 0px; margin-bottom: 0px; font-size: 40px"";>&ensp;</p>","-","viewing","0","20","10C,13A,19C,21B","","","","","","","","","","","","","","","","","","",""
"","","","","","html-slider-response","214","387125","0.0-25.0-1.1","cbfe9812-b6c0-4bbb-9cda-160da3da0211","1100","
                  <p style=""text-align: center;"">₪58
                                                <br>40%</p>
                  <p id=""wtp"" style=""text-align:center; margin-top: 0px; margin-bottom: 0px; font-size: 40px"";>מוכנים לשלם: <span id=""c_p_y""></span></p>","39","evaluation","68","20","10C,13A,19C,21B","40","58","39","","","","","","","","","","","","","","","",""
"","","","","","html-keyboard-response","215","388358","0.0-25.0-2.1","cbfe9812-b6c0-4bbb-9cda-160da3da0211","null","<p style=""text-align: center;"">+</p>","null","fixation","","","","","","","","","","","","","","","","","","","","","",""
"","","","","","html-slider-response","216","389371","0.0-25.0-0.2","cbfe9812-b6c0-4bbb-9cda-160da3da0211","1000","
                  <p style=""text-align: center;"">₪64
                                                <br>25%</p>
                  <p id=""wtp"" style=""text-align:center; margin-top: 0px; margin-bottom: 0px; font-size: 40px"";>&ensp;</p>","-","viewing","0","24","6A,21A","","","","","","","","","","","","","","","","","","",""
"","","","","","html-slider-response","217","390829","0.0-25.0-1.2","cbfe9812-b6c0-4bbb-9cda-160da3da0211","1457","
                  <p style=""text-align: center;"">₪64
                                                <br>25%</p>
                  <p id=""wtp"" style=""text-align:center; margin-top: 0px; margin-bottom: 0px; font-size: 40px"";>מוכנים לשלם: <span id=""c_p_y""></span></p>","31","evaluation","56","24","6A,21A","25","64","31","","","","","","","","","","","","","","","",""
"","","","","","html-keyboard-response","218","391990","0.0-25.0-2.2","cbfe9812-b6c0-4bbb-9cda-160da3da0211","null","<p style=""text-align: center;"">+</p>","null","fixation","","","","","","","","","","","","","","","","","","","","","",""
"","","","","","html-slider-response","219","392993","0.0-25.0-0.3","cbfe9812-b6c0-4bbb-9cda-160da3da0211","1000","
                  <p style=""text-align: center;"">₪71
                                                <br>75%</p>
                  <p id=""wtp"" style=""text-align:center; margin-top: 0px; margin-bottom: 0px; font-size: 40px"";>&ensp;</p>","-","viewing","0","28","8B","","","","","","","","","","","","","","","","","","",""
"","","","","","html-slider-response","220","394709","0.0-25.0-1.3","cbfe9812-b6c0-4bbb-9cda-160da3da0211","1715","
                  <p style=""text-align: center;"">₪71
                                                <br>75%</p>
                  <p id=""wtp"" style=""text-align:center; margin-top: 0px; margin-bottom: 0px; font-size: 40px"";>מוכנים לשלם: <span id=""c_p_y""></span></p>","77","evaluation","17","28","8B","75","71","77","","","","","","","","","","","","","","","",""
"","","","","","html-keyboard-response","221","395756","0.0-25.0-2.3","cbfe9812-b6c0-4bbb-9cda-160da3da0211","null","<p style=""text-align: center;"">+</p>","null","fixation","","","","","","","","","","","","","","","","","","","","","",""
"","","","","","html-slider-response","222","396773","0.0-25.0-0.4","cbfe9812-b6c0-4bbb-9cda-160da3da0211","1000","
                  <p style=""text-align: center;"">₪11
                                                <br>45%</p>
                  <p id=""wtp"" style=""text-align:center; margin-top: 0px; margin-bottom: 0px; font-size: 40px"";>&ensp;</p>","-","viewing","0","6","14B,21C,25C","","","","","","","","","","","","","","","","","","",""
"","","","","","html-slider-response","223","397397","0.0-25.0-1.4","cbfe9812-b6c0-4bbb-9cda-160da3da0211","622","
                  <p style=""text-align: center;"">₪11
                                                <br>45%</p>
                  <p id=""wtp"" style=""text-align:center; margin-top: 0px; margin-bottom: 0px; font-size: 40px"";>מוכנים לשלם: <span id=""c_p_y""></span></p>","25","evaluation","79","6","14B,21C,25C","45","11","25","","","","","","","","","","","","","","","",""
"","","","","","html-keyboard-response","224","397911","0.0-25.0-2.4","cbfe9812-b6c0-4bbb-9cda-160da3da0211","null","<p style=""text-align: center;"">+</p>","null","fixation","","","","","","","","","","","","","","","","","","","","","",""
"","","","","","html-slider-response","225","398916","0.0-25.0-0.5","cbfe9812-b6c0-4bbb-9cda-160da3da0211","1000","
                  <p style=""text-align: center;"">₪39
                                                <br>65%</p>
                  <p id=""wtp"" style=""text-align:center; margin-top: 0px; margin-bottom: 0px; font-size: 40px"";>&ensp;</p>","-","viewing","0","16","1A,15A,26C","","","","","","","","","","","","","","","","","","",""
"","","","","","html-slider-response","226","401389","0.0-25.0-1.5","cbfe9812-b6c0-4bbb-9cda-160da3da0211","2472","
                  <p style=""text-align: center;"">₪39
                                                <br>65%</p>
                  <p id=""wtp"" style=""text-align:center; margin-top: 0px; margin-bottom: 0px; font-size: 40px"";>מוכנים לשלם: <span id=""c_p_y""></span></p>","53","evaluation","18","16","1A,15A,26C","65","39","53","","","","","","","","","","","","","","","",""
"","","","","","html-keyboard-response","227","402207","0.0-25.0-2.5","cbfe9812-b6c0-4bbb-9cda-160da3da0211","null","<p style=""text-align: center;"">+</p>","null","fixation","","","","","","","","","","","","","","","","","","","","","",""
"","","","","","html-slider-response","228","403209","0.0-25.0-0.6","cbfe9812-b6c0-4bbb-9cda-160da3da0211","1000","
                  <p style=""text-align: center;"">₪11
                                                <br>75%</p>
                  <p id=""wtp"" style=""text-align:center; margin-top: 0px; margin-bottom: 0px; font-size: 40px"";>&ensp;</p>","-","viewing","0","7","6B,18B,22C,24C,29A","","","","","","","","","","","","","","","","","","",""
"","","","","","html-slider-response","229","405677","0.0-25.0-1.6","cbfe9812-b6c0-4bbb-9cda-160da3da0211","2467","
                  <p style=""text-align: center;"">₪11
                                                <br>75%</p>
                  <p id=""wtp"" style=""text-align:center; margin-top: 0px; margin-bottom: 0px; font-size: 40px"";>מוכנים לשלם: <span id=""c_p_y""></span></p>","20","evaluation","64","7","6B,18B,22C,24C,29A","75","11","20","","","","","","","","","","","","","","","",""
"","","","","","html-keyboard-response","230","406511","0.0-25.0-2.6","cbfe9812-b6c0-4bbb-9cda-160da3da0211","null","<p style=""text-align: center;"">+</p>","null","fixation","","","","","","","","","","","","","","","","","","","","","",""
"","","","","","html-slider-response","231","407528","0.0-25.0-0.7","cbfe9812-b6c0-4bbb-9cda-160da3da0211","1000","
                  <p style=""text-align: center;"">₪79
                                                <br>40%</p>
                  <p id=""wtp"" style=""text-align:center; margin-top: 0px; margin-bottom: 0px; font-size: 40px"";>&ensp;</p>","-","viewing","0","30","9B","","","","","","","","","","","","","","","","","","",""
"","","","","","html-slider-response","232","410117","0.0-25.0-1.7","cbfe9812-b6c0-4bbb-9cda-160da3da0211","2588","
                  <p style=""text-align: center;"">₪79
                                                <br>40%</p>
                  <p id=""wtp"" style=""text-align:center; margin-top: 0px; margin-bottom: 0px; font-size: 40px"";>מוכנים לשלם: <span id=""c_p_y""></span></p>","28","evaluation","77","30","9B","40","79","28","","","","","","","","","","","","","","","",""
"","","","","","html-keyboard-response","233","411030","0.0-25.0-2.7","cbfe9812-b6c0-4bbb-9cda-160da3da0211","null","<p style=""text-align: center;"">+</p>","null","fixation","","","","","","","","","","","","","","","","","","","","","",""
"","","","","","html-slider-response","234","412039","0.0-25.0-0.8","cbfe9812-b6c0-4bbb-9cda-160da3da0211","1000","
                  <p style=""text-align: center;"">₪79
                                                <br>65%</p>
                  <p id=""wtp"" style=""text-align:center; margin-top: 0px; margin-bottom: 0px; font-size: 40px"";>&ensp;</p>","-","viewing","0","31","8A","","","","","","","","","","","","","","","","","","",""
"","","","","","html-slider-response","235","414637","0.0-25.0-1.8","cbfe9812-b6c0-4bbb-9cda-160da3da0211","2597","
                  <p style=""text-align: center;"">₪79
                                                <br>65%</p>
                  <p id=""wtp"" style=""text-align:center; margin-top: 0px; margin-bottom: 0px; font-size: 40px"";>מוכנים לשלם: <span id=""c_p_y""></span></p>","59","evaluation","63","31","8A","65","79","59","","","","","","","","","","","","","","","",""
"","","","","","html-keyboard-response","236","415504","0.0-25.0-2.8","cbfe9812-b6c0-4bbb-9cda-160da3da0211","null","<p style=""text-align: center;"">+</p>","null","fixation","","","","","","","","","","","","","","","","","","","","","",""
"","","","","","html-slider-response","237","416514","0.0-25.0-0.9","cbfe9812-b6c0-4bbb-9cda-160da3da0211","1000","
                  <p style=""text-align: center;"">₪4
                                                <br>75%</p>
                  <p id=""wtp"" style=""text-align:center; margin-top: 0px; margin-bottom: 0px; font-size: 40px"";>&ensp;</p>","-","viewing","0","3","12B,20B,23B,27C,29C","","","","","","","","","","","","","","","","","","",""
"","","","","","html-slider-response","238","418637","0.0-25.0-1.9","cbfe9812-b6c0-4bbb-9cda-160da3da0211","2122","
                  <p style=""text-align: center;"">₪4
                                                <br>75%</p>
                  <p id=""wtp"" style=""text-align:center; margin-top: 0px; margin-bottom: 0px; font-size: 40px"";>מוכנים לשלם: <span id=""c_p_y""></span></p>","4","evaluation","18","3","12B,20B,23B,27C,29C","75","4","4","","","","","","","","","","","","","","","",""
"","","","","","html-keyboard-response","239","419401","0.0-25.0-2.9","cbfe9812-b6c0-4bbb-9cda-160da3da0211","null","<p style=""text-align: center;"">+</p>","null","fixation","","","","","","","","","","","","","","","","","","","","","",""
"","","","","","html-slider-response","240","420414","0.0-25.0-0.10","cbfe9812-b6c0-4bbb-9cda-160da3da0211","1000","
                  <p style=""text-align: center;"">₪11
                                                <br>25%</p>
                  <p id=""wtp"" style=""text-align:center; margin-top: 0px; margin-bottom: 0px; font-size: 40px"";>&ensp;</p>","-","viewing","0","5","12A,27B,28B,30B","","","","","","","","","","","","","","","","","","",""
"","","","","","html-slider-response","241","423933","0.0-25.0-1.10","cbfe9812-b6c0-4bbb-9cda-160da3da0211","3517","
                  <p style=""text-align: center;"">₪11
                                                <br>25%</p>
                  <p id=""wtp"" style=""text-align:center; margin-top: 0px; margin-bottom: 0px; font-size: 40px"";>מוכנים לשלם: <span id=""c_p_y""></span></p>","15","evaluation","50","5","12A,27B,28B,30B","25","11","15","","","","","","","","","","","","","","","",""
"","","","","","html-keyboard-response","242","425088","0.0-25.0-2.10","cbfe9812-b6c0-4bbb-9cda-160da3da0211","null","<p style=""text-align: center;"">+</p>","null","fixation","","","","","","","","","","","","","","","","","","","","","",""
"","","","","","html-slider-response","243","426104","0.0-25.0-0.11","cbfe9812-b6c0-4bbb-9cda-160da3da0211","1000","
                  <p style=""text-align: center;"">₪36
                                                <br>70%</p>
                  <p id=""wtp"" style=""text-align:center; margin-top: 0px; margin-bottom: 0px; font-size: 40px"";>&ensp;</p>","-","viewing","0","13","3A,5C,10B","","","","","","","","","","","","","","","","","","",""
"","","","","","html-slider-response","244","427437","0.0-25.0-1.11","cbfe9812-b6c0-4bbb-9cda-160da3da0211","1332","
                  <p style=""text-align: center;"">₪36
                                                <br>70%</p>
                  <p id=""wtp"" style=""text-align:center; margin-top: 0px; margin-bottom: 0px; font-size: 40px"";>מוכנים לשלם: <span id=""c_p_y""></span></p>","40","evaluation","6","13","3A,5C,10B","70","36","40","","","","","","","","","","","","","","","",""
"","","","","","html-keyboard-response","245","428503","0.0-25.0-2.11","cbfe9812-b6c0-4bbb-9cda-160da3da0211","null","<p style=""text-align: center;"">+</p>","null","fixation","","","","","","","","","","","","","","","","","","","","","",""
"","","","","","html-slider-response","246","429516","0.0-25.0-0.12","cbfe9812-b6c0-4bbb-9cda-160da3da0211","1000","
                  <p style=""text-align: center;"">₪36
                                                <br>60%</p>
                  <p id=""wtp"" style=""text-align:center; margin-top: 0px; margin-bottom: 0px; font-size: 40px"";>&ensp;</p>","-","viewing","0","12","1C,7C,15C","","","","","","","","","","","","","","","","","","",""
"","","","","","html-slider-response","247","430789","0.0-25.0-1.12","cbfe9812-b6c0-4bbb-9cda-160da3da0211","1271","
                  <p style=""text-align: center;"">₪36
                                                <br>60%</p>
                  <p id=""wtp"" style=""text-align:center; margin-top: 0px; margin-bottom: 0px; font-size: 40px"";>מוכנים לשלם: <span id=""c_p_y""></span></p>","41","evaluation","17","12","1C,7C,15C","60","36","41","","","","","","","","","","","","","","","",""
"","","","","","html-keyboard-response","248","431978","0.0-25.0-2.12","cbfe9812-b6c0-4bbb-9cda-160da3da0211","null","<p style=""text-align: center;"">+</p>","null","fixation","","","","","","","","","","","","","","","","","","","","","",""
"","","","","","html-slider-response","249","432986","0.0-25.0-0.13","cbfe9812-b6c0-4bbb-9cda-160da3da0211","1000","
                  <p style=""text-align: center;"">₪4
                                                <br>50%</p>
                  <p id=""wtp"" style=""text-align:center; margin-top: 0px; margin-bottom: 0px; font-size: 40px"";>&ensp;</p>","-","viewing","0","2","4C,17B","","","","","","","","","","","","","","","","","","",""
"","","","","","html-slider-response","250","434629","0.0-25.0-1.13","cbfe9812-b6c0-4bbb-9cda-160da3da0211","1642","
                  <p style=""text-align: center;"">₪4
                                                <br>50%</p>
