"success","timeout","failed_images","failed_audio","failed_video","trial_type","trial_index","time_elapsed","internal_node_id","subject_id","rt","stimulus","response","part","slider_start","ID","set_ID","prob","amount","last_location","actual_choice","actual_EV","binary_id","trinary_id","catch","direction","A_key","S_key","D_key","choice_prob","choice_amount","potential_prize_prob","potential_prize_amount","won_prize","total_prize","remaining_budget","accuracy"
"true","false","[]","[]","[]","preload","0","15","0.0-0.0","0b862812-4eae-4433-9381-864ef3a2b073","","","","","","","","","","","","","","","","","","","","","","","","","","",""
"","","","","","html-keyboard-response","1","15588","0.0-1.0","0b862812-4eae-4433-9381-864ef3a2b073","null","
          <h1>שלום וברוכים הבאים!</h1>
          <p>לפניכם ניסוי בקבלת החלטות עם שני חלקים.
          <br><br>לחצו על העכבר כדי להמשיך.</p>","0","example","","","","","","","","","","","","","","","","","","","","","","",""
"","","","","","html-keyboard-response","2","26740","0.0-2.0","0b862812-4eae-4433-9381-864ef3a2b073","null","
        <h1>חלק 1</h1>
        <p>בקרוב יוצגו בפניכם הגרלות.
        <br>עליכם לבחור את המחיר המירבי שתהיו מוכנים לשלם כדי להשתתף בהגרלה שתוצג.
        <br>יש לכם תקציב של ₪80 לכל הגרלה. 
        <br>נסו להעריך כל הגרלה בנפרד ולחשוב כמה היא שווה עבורכם, ₪80 זמינים לכל הגרלה בנפרד.
        <br><br>לחצו על העכבר כדי להמשיך.</p>","1","instructions","","","","","","","","","","","","","","","","","","","","","","",""
"","","","","","html-keyboard-response","3","45660","0.0-3.0","0b862812-4eae-4433-9381-864ef3a2b073","null","
        <p>בסוף הניסוי, המחשב יבחר את אחת ההגרלות ויקבע מחיר לכרטיס עבורה. 
        <br>במידה והמחיר שבחרתם נמוך מהמחיר שנבחר על ידי המחשב, לא תשתתפו בהגרלה ותשארו עם מלוא התקציב.
        <br>במידה והמחיר שבחרתם גבוה מהמחיר שנבחר על ידי המחשב, תשלמו את המחיר שנקבע ותשתתפו בהגרלה.
        <br><br>לחצו על העכבר כדי להמשיך.</p>","1","instructions","","","","","","","","","","","","","","","","","","","","","","",""
"","","","","","html-slider-response","4","67452","0.0-4.0","0b862812-4eae-4433-9381-864ef3a2b073","21687","
        <p style=""font-size: 42px;"">נתחיל עם דוגמא: 
        <br>ההגרלה מטה מציעה 65% סיכוי לזכות ב-₪40 
        <br>&emsp;&emsp;&emsp;&emsp;&emsp;&emsp;&emsp;&emsp;&ensp;35% סיכוי לזכות ב-₪0.
        <br><br>מה המחיר המירבי שתהיו מוכנים לשלם על כרטיס להגרלה זו בין 0 ל-₪80?
        <br>הזיזו את העכבר על פני המלבן ולחצו כדי לבצע בחירה.</p>
        
        <p style=""text-align: center;"">₪40<br>65%</p>

        <p id=""wtp"" style=""text-align:center; margin-top: 0px; margin-bottom: 0px; font-size: 40px"";>מוכנים לשלם: <span id=""c_p_y""></span></p>","25","example","73","","","","","","","","","","","","","","","","","","","","","",""
"","","","","","html-keyboard-response","5","76611","0.0-5.0","0b862812-4eae-4433-9381-864ef3a2b073","null","<p>יפה מאוד!
                <br> בחרתם שתהיו מוכנים לשלם ₪25 כדי להשתתף בהגרלה:
                <br><p style=""text-align: center;"">₪40<br>65%</p>
                <p>נשמע נכון?
                <br>נניח שהגרלה זו נבחרה בסוף הניסוי.
                <br>כעת המחשב יקבע מחיר עבורה באקראי.
                <br>לחצו על העכבר להמשך.</p>","1","example","","","","","","","","","","","","","","","","","","","","","","",""
"","","","","","html-keyboard-response","6","88891","0.0-6.0","0b862812-4eae-4433-9381-864ef3a2b073","null","<p>המחשב קבע מחיר: ₪48
                <br>ואתם בחרתם לשלם לכל היותר: ₪25
                <br><br>מכיוון שהמחיר שבחרתם נמוך מהמחיר שנקבע, לא תתשתתפו בהגרלה.
                <br>במקרה כזה, בסוף הניסוי תקבלו את כל התקציב ההתחלתי של ₪80.
                <br><br>לחצו על העכבר להמשך.</p>","1","example","","","","","","","","","","","","","","","","","","","","","","",""
"","","","","","html-slider-response","7","98891","0.0-7.0","0b862812-4eae-4433-9381-864ef3a2b073","9738","<p style=""font-size: 42px;"">הנה עוד דוגמא:
                <br>ההגרלה מטה מציעה 35% סיכוי לזכות ב-₪18 
                <br>&emsp;&emsp;&emsp;&emsp;&emsp;&emsp;&emsp;&emsp;&ensp;65% סיכוי לזכות ב-₪0.</p>
        
                <p style=""text-align: center;"">₪18<br>35%</p>
                <p id=""wtp"" style=""text-align:center; margin-top: 0px; margin-bottom: 0px; font-size: 40px"";>מוכנים לשלם: <span id=""c_p_y""></span></p>","15","example","70","","","","","","","","","","","","","","","","","","","","","",""
"","","","","","html-keyboard-response","8","102035","0.0-8.0","0b862812-4eae-4433-9381-864ef3a2b073","null","<p>הייתם מוכנים לשלם  ₪15 כדי להשתתף בהגרלה:
                <p style=""text-align: center;"">₪18<br>35%</p>
                <p>כעת נניח שהמחשב בחר את ההגרלה הזו בסוף הניסוי, וקבע עבורה מחיר.
                <br><br>לחצו על העכבר כדי להמשיך.</p>","1","instructions","","","","","","","","","","","","","","","","","","","","","","",""
"","","","","","html-keyboard-response","9","113891","0.0-9.0","0b862812-4eae-4433-9381-864ef3a2b073","null","<p>המחשב קבע מחיר להגרלה: ₪14<br>ואתם בחרתם לשלם לכל היותר: ₪15
                <br><br>כעת המחיר שנקבע נמוך מזה שבחרתם, אז תשלמו את המחיר שקבע המחשב (₪14) ותשתתפו בהגרלה.
                <br>במקרה כזה, תסיימו את הניסוי עם תקציב של ₪66 ועם סיכוי לזכות ב-₪18 נוספים מההגרלה.
                <br>כלומר, תוכלו לקבל ₪66 אם לא תזכו בהגרלה, או ₪84 אם תזכו בהגרלה.
                <br><br>לחצו על העכבר להמשך.</p>","1","example","","","","","","","","","","","","","","","","","","","","","","",""
"","","","","","html-keyboard-response","10","125667","0.0-10.0","0b862812-4eae-4433-9381-864ef3a2b073","null","<p>במהלך הניסוי, קודם תראו את ההגרלה ורק לאחר מכן תוכלו לבחור.
                <p>כמו כן, יהיו לכם מספר שניות מוגבל להגיב.
                <p>בואו ננסה זאת עם ההגרלה הקודמת.
                <br>לחצו על העכבר כדי להמשיך.</p>","1","instructions","","","","","","","","","","","","","","","","","","","","","","",""
"","","","","","html-slider-response","11","126935","0.0-11.0","0b862812-4eae-4433-9381-864ef3a2b073","1000","
                    <p style=""text-align: center;"">₪18<br>35%</p>
                    <p id=""wtp"" style=""text-align:center; margin-top: 0px; margin-bottom: 0px; font-size: 40px"";>&ensp;</p>","33","instructions","0","","","","","","","","","","","","","","","","","","","","","",""
"","","","","","html-slider-response","12","130404","0.0-12.0","0b862812-4eae-4433-9381-864ef3a2b073","3216","
                    <p style=""text-align: center;"">₪18<br>35%</p>
                    <p id=""wtp"" style=""text-align:center; margin-top: 0px; margin-bottom: 0px; font-size: 40px"";>מוכנים לשלם: <span id=""c_p_y""></span></p>","14","instructions","16","","","","","","","","","","","","","","","","","","","","","",""
"","","","","","html-keyboard-response","13","133140","0.0-13.0","0b862812-4eae-4433-9381-864ef3a2b073","null","<p>יפה. הפעם בחרתם לשלם לכל היותר ₪14.
                <br><br>לחצו על העכבר כדי להמשיך.</p>","1","instructions","","","","","","","","","","","","","","","","","","","","","","",""
"","","","","","html-keyboard-response","14","142652","0.0-15.0","0b862812-4eae-4433-9381-864ef3a2b073","null","<p>כעת נתחיל את הניסוי.
                <br><br>אתם תראו הגרלות ותתבקשו לבחור כמה תהיו מוכנים לשלם כדי להשתתף בהן.
                <br>יש לכם תקציב של ₪80 עבור כל הגרלה.
                <br>בסוף הניסוי הגרלה אחת תבחר באקראי ותשוחק.
                <br><br>לחצו על העכבר כדי להתחיל את הניסוי.</p>","1","instructions","","","","","","","","","","","","","","","","","","","","","","",""
"","","","","","html-keyboard-response","15","143903","0.0-16.0","0b862812-4eae-4433-9381-864ef3a2b073","null","<p style=""text-align: center;"">+</p>","null","fixation","","","","","","","","","","","","","","","","","","","","","","",""
"","","","","","html-slider-response","16","144906","0.0-17.0-0.0","0b862812-4eae-4433-9381-864ef3a2b073","1000","
                  <p style=""text-align: center;"">₪11
                                                <br>25%</p>
                  <p id=""wtp"" style=""text-align:center; margin-top: 0px; margin-bottom: 0px; font-size: 40px"";>&ensp;</p>","-","viewing","0","5","12A,27B,28B,30B","","","","","","","","","","","","","","","","","","","",""
"","","","","","html-slider-response","17","148252","0.0-17.0-1.0","0b862812-4eae-4433-9381-864ef3a2b073","3343","
                  <p style=""text-align: center;"">₪11
                                                <br>25%</p>
                  <p id=""wtp"" style=""text-align:center; margin-top: 0px; margin-bottom: 0px; font-size: 40px"";>מוכנים לשלם: <span id=""c_p_y""></span></p>","7","evaluation","19","5","12A,27B,28B,30B","25","11","7","","","","","","","","","","","","","","","","",""
"","","","","","html-keyboard-response","18","149358","0.0-17.0-2.0","0b862812-4eae-4433-9381-864ef3a2b073","null","<p style=""text-align: center;"">+</p>","null","fixation","","","","","","","","","","","","","","","","","","","","","","",""
"","","","","","html-slider-response","19","150362","0.0-17.0-0.1","0b862812-4eae-4433-9381-864ef3a2b073","1000","
                  <p style=""text-align: center;"">₪58
                                                <br>45%</p>
                  <p id=""wtp"" style=""text-align:center; margin-top: 0px; margin-bottom: 0px; font-size: 40px"";>&ensp;</p>","-","viewing","0","21","11C,18C,25A","","","","","","","","","","","","","","","","","","","",""
"","","","","","html-slider-response","20","154364","0.0-17.0-1.1","0b862812-4eae-4433-9381-864ef3a2b073","null","
                  <p style=""text-align: center;"">₪58
                                                <br>45%</p>
                  <p id=""wtp"" style=""text-align:center; margin-top: 0px; margin-bottom: 0px; font-size: 40px"";>מוכנים לשלם: <span id=""c_p_y""></span></p>","null","evaluation","53","21","11C,18C,25A","45","58","12","","","","","","","","","","","","","","","","",""
"","","","","","html-keyboard-response","21","155354","0.0-17.0-2.1","0b862812-4eae-4433-9381-864ef3a2b073","null","<p style=""text-align: center;"">+</p>","null","fixation","","","","","","","","","","","","","","","","","","","","","","",""
"","","","","","html-slider-response","22","156363","0.0-17.0-0.2","0b862812-4eae-4433-9381-864ef3a2b073","1000","
                  <p style=""text-align: center;"">₪36
                                                <br>75%</p>
                  <p id=""wtp"" style=""text-align:center; margin-top: 0px; margin-bottom: 0px; font-size: 40px"";>&ensp;</p>","-","viewing","0","14","4B,5A,13B,16B","","","","","","","","","","","","","","","","","","","",""
"","","","","","html-slider-response","23","158764","0.0-17.0-1.2","0b862812-4eae-4433-9381-864ef3a2b073","2399","
                  <p style=""text-align: center;"">₪36
                                                <br>75%</p>
                  <p id=""wtp"" style=""text-align:center; margin-top: 0px; margin-bottom: 0px; font-size: 40px"";>מוכנים לשלם: <span id=""c_p_y""></span></p>","25","evaluation","5","14","4B,5A,13B,16B","75","36","25","","","","","","","","","","","","","","","","",""
"","","","","","html-keyboard-response","24","159696","0.0-17.0-2.2","0b862812-4eae-4433-9381-864ef3a2b073","null","<p style=""text-align: center;"">+</p>","null","fixation","","","","","","","","","","","","","","","","","","","","","","",""
"","","","","","html-slider-response","25","160698","0.0-17.0-0.3","0b862812-4eae-4433-9381-864ef3a2b073","1000","
                  <p style=""text-align: center;"">₪64
                                                <br>25%</p>
                  <p id=""wtp"" style=""text-align:center; margin-top: 0px; margin-bottom: 0px; font-size: 40px"";>&ensp;</p>","-","viewing","0","24","6A,21A","","","","","","","","","","","","","","","","","","","",""
"","","","","","html-slider-response","26","162068","0.0-17.0-1.3","0b862812-4eae-4433-9381-864ef3a2b073","1368","
                  <p style=""text-align: center;"">₪64
                                                <br>25%</p>
                  <p id=""wtp"" style=""text-align:center; margin-top: 0px; margin-bottom: 0px; font-size: 40px"";>מוכנים לשלם: <span id=""c_p_y""></span></p>","11","evaluation","42","24","6A,21A","25","64","11","","","","","","","","","","","","","","","","",""
"","","","","","html-keyboard-response","27","163297","0.0-17.0-2.3","0b862812-4eae-4433-9381-864ef3a2b073","null","<p style=""text-align: center;"">+</p>","null","fixation","","","","","","","","","","","","","","","","","","","","","","",""
"","","","","","html-slider-response","28","164299","0.0-17.0-0.4","0b862812-4eae-4433-9381-864ef3a2b073","1000","
                  <p style=""text-align: center;"">₪79
                                                <br>40%</p>
                  <p id=""wtp"" style=""text-align:center; margin-top: 0px; margin-bottom: 0px; font-size: 40px"";>&ensp;</p>","-","viewing","0","30","9B","","","","","","","","","","","","","","","","","","","",""
"","","","","","html-slider-response","29","165764","0.0-17.0-1.4","0b862812-4eae-4433-9381-864ef3a2b073","1463","
                  <p style=""text-align: center;"">₪79
                                                <br>40%</p>
                  <p id=""wtp"" style=""text-align:center; margin-top: 0px; margin-bottom: 0px; font-size: 40px"";>מוכנים לשלם: <span id=""c_p_y""></span></p>","21","evaluation","61","30","9B","40","79","21","","","","","","","","","","","","","","","","",""
"","","","","","html-keyboard-response","30","167125","0.0-17.0-2.4","0b862812-4eae-4433-9381-864ef3a2b073","null","<p style=""text-align: center;"">+</p>","null","fixation","","","","","","","","","","","","","","","","","","","","","","",""
"","","","","","html-slider-response","31","168127","0.0-17.0-0.5","0b862812-4eae-4433-9381-864ef3a2b073","1000","
                  <p style=""text-align: center;"">₪16
                                                <br>20%</p>
                  <p id=""wtp"" style=""text-align:center; margin-top: 0px; margin-bottom: 0px; font-size: 40px"";>&ensp;</p>","-","viewing","0","8","14C,17A,20C,27A","","","","","","","","","","","","","","","","","","","",""
"","","","","","html-slider-response","32","170532","0.0-17.0-1.5","0b862812-4eae-4433-9381-864ef3a2b073","2403","
                  <p style=""text-align: center;"">₪16
                                                <br>20%</p>
                  <p id=""wtp"" style=""text-align:center; margin-top: 0px; margin-bottom: 0px; font-size: 40px"";>מוכנים לשלם: <span id=""c_p_y""></span></p>","5","evaluation","44","8","14C,17A,20C,27A","20","16","6","","","","","","","","","","","","","","","","",""
"","","","","","html-keyboard-response","33","171543","0.0-17.0-2.5","0b862812-4eae-4433-9381-864ef3a2b073","null","<p style=""text-align: center;"">+</p>","null","fixation","","","","","","","","","","","","","","","","","","","","","","",""
"","","","","","html-slider-response","34","172548","0.0-17.0-0.6","0b862812-4eae-4433-9381-864ef3a2b073","1000","
                  <p style=""text-align: center;"">₪4
                                                <br>25%</p>
                  <p id=""wtp"" style=""text-align:center; margin-top: 0px; margin-bottom: 0px; font-size: 40px"";>&ensp;</p>","-","viewing","0","1","6C,29B,30C","","","","","","","","","","","","","","","","","","","",""
"","","","","","html-slider-response","35","173884","0.0-17.0-1.6","0b862812-4eae-4433-9381-864ef3a2b073","1334","
                  <p style=""text-align: center;"">₪4
                                                <br>25%</p>
                  <p id=""wtp"" style=""text-align:center; margin-top: 0px; margin-bottom: 0px; font-size: 40px"";>מוכנים לשלם: <span id=""c_p_y""></span></p>","0","evaluation","21","1","6C,29B,30C","25","4","0","","","","","","","","","","","","","","","","",""
"","","","","","html-keyboard-response","36","175000","0.0-17.0-2.6","0b862812-4eae-4433-9381-864ef3a2b073","null","<p style=""text-align: center;"">+</p>","null","fixation","","","","","","","","","","","","","","","","","","","","","","",""
"","","","","","html-slider-response","37","176009","0.0-17.0-0.7","0b862812-4eae-4433-9381-864ef3a2b073","1000","
                  <p style=""text-align: center;"">₪61
                                                <br>55%</p>
                  <p id=""wtp"" style=""text-align:center; margin-top: 0px; margin-bottom: 0px; font-size: 40px"";>&ensp;</p>","-","viewing","0","23","7B,26B","","","","","","","","","","","","","","","","","","","",""
"","","","","","html-slider-response","38","177956","0.0-17.0-1.7","0b862812-4eae-4433-9381-864ef3a2b073","1945","
                  <p style=""text-align: center;"">₪61
                                                <br>55%</p>
                  <p id=""wtp"" style=""text-align:center; margin-top: 0px; margin-bottom: 0px; font-size: 40px"";>מוכנים לשלם: <span id=""c_p_y""></span></p>","34","evaluation","54","23","7B,26B","55","61","34","","","","","","","","","","","","","","","","",""
"","","","","","html-keyboard-response","39","178784","0.0-17.0-2.7","0b862812-4eae-4433-9381-864ef3a2b073","null","<p style=""text-align: center;"">+</p>","null","fixation","","","","","","","","","","","","","","","","","","","","","","",""
"","","","","","html-slider-response","40","179802","0.0-17.0-0.8","0b862812-4eae-4433-9381-864ef3a2b073","1000","
                  <p style=""text-align: center;"">₪18
                                                <br>25%</p>
                  <p id=""wtp"" style=""text-align:center; margin-top: 0px; margin-bottom: 0px; font-size: 40px"";>&ensp;</p>","-","viewing","0","9","14A,23A","","","","","","","","","","","","","","","","","","","",""
"","","","","","html-slider-response","41","181868","0.0-17.0-1.8","0b862812-4eae-4433-9381-864ef3a2b073","2064","
                  <p style=""text-align: center;"">₪18
                                                <br>25%</p>
                  <p id=""wtp"" style=""text-align:center; margin-top: 0px; margin-bottom: 0px; font-size: 40px"";>מוכנים לשלם: <span id=""c_p_y""></span></p>","7","evaluation","20","9","14A,23A","25","18","8","","","","","","","","","","","","","","","","",""
"","","","","","html-keyboard-response","42","182865","0.0-17.0-2.8","0b862812-4eae-4433-9381-864ef3a2b073","null","<p style=""text-align: center;"">+</p>","null","fixation","","","","","","","","","","","","","","","","","","","","","","",""
"","","","","","html-slider-response","43","183872","0.0-17.0-0.9","0b862812-4eae-4433-9381-864ef3a2b073","1000","
                  <p style=""text-align: center;"">₪71
                                                <br>45%</p>
                  <p id=""wtp"" style=""text-align:center; margin-top: 0px; margin-bottom: 0px; font-size: 40px"";>&ensp;</p>","-","viewing","0","26","2B,16A","","","","","","","","","","","","","","","","","","","",""
"","","","","","html-slider-response","44","186124","0.0-17.0-1.9","0b862812-4eae-4433-9381-864ef3a2b073","2251","
                  <p style=""text-align: center;"">₪71
                                                <br>45%</p>
                  <p id=""wtp"" style=""text-align:center; margin-top: 0px; margin-bottom: 0px; font-size: 40px"";>מוכנים לשלם: <span id=""c_p_y""></span></p>","30","evaluation","51","26","2B,16A","45","71","30","","","","","","","","","","","","","","","","",""
"","","","","","html-keyboard-response","45","187285","0.0-17.0-2.9","0b862812-4eae-4433-9381-864ef3a2b073","null","<p style=""text-align: center;"">+</p>","null","fixation","","","","","","","","","","","","","","","","","","","","","","",""
"","","","","","html-slider-response","46","188288","0.0-17.0-0.10","0b862812-4eae-4433-9381-864ef3a2b073","1000","
                  <p style=""text-align: center;"">₪43
                                                <br>75%</p>
                  <p id=""wtp"" style=""text-align:center; margin-top: 0px; margin-bottom: 0px; font-size: 40px"";>&ensp;</p>","-","viewing","0","18","11B,19B,24A,26A","","","","","","","","","","","","","","","","","","","",""
"","","","","","html-slider-response","47","189868","0.0-17.0-1.10","0b862812-4eae-4433-9381-864ef3a2b073","1578","
                  <p style=""text-align: center;"">₪43
                                                <br>75%</p>
                  <p id=""wtp"" style=""text-align:center; margin-top: 0px; margin-bottom: 0px; font-size: 40px"";>מוכנים לשלם: <span id=""c_p_y""></span></p>","34","evaluation","46","18","11B,19B,24A,26A","75","43","34","","","","","","","","","","","","","","","","",""
"","","","","","html-keyboard-response","48","190546","0.0-17.0-2.10","0b862812-4eae-4433-9381-864ef3a2b073","null","<p style=""text-align: center;"">+</p>","null","fixation","","","","","","","","","","","","","","","","","","","","","","",""
"","","","","","html-slider-response","49","191548","0.0-17.0-0.11","0b862812-4eae-4433-9381-864ef3a2b073","1000","
                  <p style=""text-align: center;"">₪4
                                                <br>75%</p>
                  <p id=""wtp"" style=""text-align:center; margin-top: 0px; margin-bottom: 0px; font-size: 40px"";>&ensp;</p>","-","viewing","0","3","12B,20B,23B,27C,29C","","","","","","","","","","","","","","","","","","","",""
"","","","","","html-slider-response","50","194900","0.0-17.0-1.11","0b862812-4eae-4433-9381-864ef3a2b073","3350","
                  <p style=""text-align: center;"">₪4
                                                <br>75%</p>
                  <p id=""wtp"" style=""text-align:center; margin-top: 0px; margin-bottom: 0px; font-size: 40px"";>מוכנים לשלם: <span id=""c_p_y""></span></p>","2","evaluation","37","3","12B,20B,23B,27C,29C","75","4","3","","","","","","","","","","","","","","","","",""
"","","","","","html-keyboard-response","51","196062","0.0-17.0-2.11","0b862812-4eae-4433-9381-864ef3a2b073","null","<p style=""text-align: center;"">+</p>","null","fixation","","","","","","","","","","","","","","","","","","","","","","",""
"","","","","","html-slider-response","52","197064","0.0-17.0-0.12","0b862812-4eae-4433-9381-864ef3a2b073","1000","
                  <p style=""text-align: center;"">₪39
                                                <br>65%</p>
                  <p id=""wtp"" style=""text-align:center; margin-top: 0px; margin-bottom: 0px; font-size: 40px"";>&ensp;</p>","-","viewing","0","16","1A,15A,26C","","","","","","","","","","","","","","","","","","","",""
"","","","","","html-slider-response","53","200108","0.0-17.0-1.12","0b862812-4eae-4433-9381-864ef3a2b073","3042","
                  <p style=""text-align: center;"">₪39
                                                <br>65%</p>
                  <p id=""wtp"" style=""text-align:center; margin-top: 0px; margin-bottom: 0px; font-size: 40px"";>מוכנים לשלם: <span id=""c_p_y""></span></p>","16","evaluation","8","16","1A,15A,26C","65","39","17","","","","","","","","","","","","","","","","",""
"","","","","","html-keyboard-response","54","200673","0.0-17.0-2.12","0b862812-4eae-4433-9381-864ef3a2b073","null","<p style=""text-align: center;"">+</p>","null","fixation","","","","","","","","","","","","","","","","","","","","","","",""
"","","","","","html-slider-response","55","201678","0.0-17.0-0.13","0b862812-4eae-4433-9381-864ef3a2b073","1000","
                  <p style=""text-align: center;"">₪11
                                                <br>45%</p>
                  <p id=""wtp"" style=""text-align:center; margin-top: 0px; margin-bottom: 0px; font-size: 40px"";>&ensp;</p>","-","viewing","0","6","14B,21C,25C","","","","","","","","","","","","","","","","","","","",""
"","","","","","html-slider-response","56","203300","0.0-17.0-1.13","0b862812-4eae-4433-9381-864ef3a2b073","1621","
                  <p style=""text-align: center;"">₪11
                                                <br>45%</p>
                  <p id=""wtp"" style=""text-align:center; margin-top: 0px; margin-bottom: 0px; font-size: 40px"";>מוכנים לשלם: <span id=""c_p_y""></span></p>","6","evaluation","63","6","14B,21C,25C","45","11","6","","","","","","","","","","","","","","","","",""
"","","","","","html-keyboard-response","57","204110","0.0-17.0-2.13","0b862812-4eae-4433-9381-864ef3a2b073","null","<p style=""text-align: center;"">+</p>","null","fixation","","","","","","","","","","","","","","","","","","","","","","",""
"","","","","","html-slider-response","58","205114","0.0-17.0-0.14","0b862812-4eae-4433-9381-864ef3a2b073","1000","
                  <p style=""text-align: center;"">₪11
                                                <br>75%</p>
                  <p id=""wtp"" style=""text-align:center; margin-top: 0px; margin-bottom: 0px; font-size: 40px"";>&ensp;</p>","-","viewing","0","7","6B,18B,22C,24C,29A","","","","","","","","","","","","","","","","","","","",""
"","","","","","html-slider-response","59","207180","0.0-17.0-1.14","0b862812-4eae-4433-9381-864ef3a2b073","2065","
                  <p style=""text-align: center;"">₪11
                                                <br>75%</p>
                  <p id=""wtp"" style=""text-align:center; margin-top: 0px; margin-bottom: 0px; font-size: 40px"";>מוכנים לשלם: <span id=""c_p_y""></span></p>","2","evaluation","8","7","6B,18B,22C,24C,29A","75","11","3","","","","","","","","","","","","","","","","",""
"","","","","","html-keyboard-response","60","208596","0.0-17.0-2.14","0b862812-4eae-4433-9381-864ef3a2b073","null","<p style=""text-align: center;"">+</p>","null","fixation","","","","","","","","","","","","","","","","","","","","","","",""
"","","","","","html-slider-response","61","209604","0.0-17.0-0.15","0b862812-4eae-4433-9381-864ef3a2b073","1000","
                  <p style=""text-align: center;"">₪36
                                                <br>30%</p>
                  <p id=""wtp"" style=""text-align:center; margin-top: 0px; margin-bottom: 0px; font-size: 40px"";>&ensp;</p>","-","viewing","0","11","3C,20A,22A","","","","","","","","","","","","","","","","","","","",""
"","","","","","html-slider-response","62","211700","0.0-17.0-1.15","0b862812-4eae-4433-9381-864ef3a2b073","2094","
                  <p style=""text-align: center;"">₪36
                                                <br>30%</p>
                  <p id=""wtp"" style=""text-align:center; margin-top: 0px; margin-bottom: 0px; font-size: 40px"";>מוכנים לשלם: <span id=""c_p_y""></span></p>","7","evaluation","21","11","3C,20A,22A","30","36","8","","","","","","","","","","","","","","","","",""
"","","","","","html-keyboard-response","63","212893","0.0-17.0-2.15","0b862812-4eae-4433-9381-864ef3a2b073","null","<p style=""text-align: center;"">+</p>","null","fixation","","","","","","","","","","","","","","","","","","","","","","",""
"","","","","","html-slider-response","64","213905","0.0-17.0-0.16","0b862812-4eae-4433-9381-864ef3a2b073","1000","
                  <p style=""text-align: center;"">₪39
                                                <br>60%</p>
                  <p id=""wtp"" style=""text-align:center; margin-top: 0px; margin-bottom: 0px; font-size: 40px"";>&ensp;</p>","-","viewing","0","15","9C,25B","","","","","","","","","","","","","","","","","","","",""
"","","","","","html-slider-response","65","215340","0.0-17.0-1.16","0b862812-4eae-4433-9381-864ef3a2b073","1434","
                  <p style=""text-align: center;"">₪39
                                                <br>60%</p>
                  <p id=""wtp"" style=""text-align:center; margin-top: 0px; margin-bottom: 0px; font-size: 40px"";>מוכנים לשלם: <span id=""c_p_y""></span></p>","22","evaluation","37","15","9C,25B","60","39","22","","","","","","","","","","","","","","","","",""
"","","","","","html-keyboard-response","66","215913","0.0-17.0-2.16","0b862812-4eae-4433-9381-864ef3a2b073","null","<p style=""text-align: center;"">+</p>","null","fixation","","","","","","","","","","","","","","","","","","","","","","",""
"","","","","","html-slider-response","67","216920","0.0-17.0-0.17","0b862812-4eae-4433-9381-864ef3a2b073","1000","
                  <p style=""text-align: center;"">₪11
                                                <br>20%</p>
                  <p id=""wtp"" style=""text-align:center; margin-top: 0px; margin-bottom: 0px; font-size: 40px"";>&ensp;</p>","-","viewing","0","4","12C,17C,23C,28C","","","","","","","","","","","","","","","","","","","",""
"","","","","","html-slider-response","68","219268","0.0-17.0-1.17","0b862812-4eae-4433-9381-864ef3a2b073","2347","
                  <p style=""text-align: center;"">₪11
                                                <br>20%</p>
                  <p id=""wtp"" style=""text-align:center; margin-top: 0px; margin-bottom: 0px; font-size: 40px"";>מוכנים לשלם: <span id=""c_p_y""></span></p>","2","evaluation","24","4","12C,17C,23C,28C","20","11","3","","","","","","","","","","","","","","","","",""
"","","","","","html-keyboard-response","69","219988","0.0-17.0-2.17","0b862812-4eae-4433-9381-864ef3a2b073","null","<p style=""text-align: center;"">+</p>","null","fixation","","","","","","","","","","","","","","","","","","","","","","",""
"","","","","","html-slider-response","70","220993","0.0-17.0-0.18","0b862812-4eae-4433-9381-864ef3a2b073","1000","
                  <p style=""text-align: center;"">₪58
                                                <br>30%</p>
                  <p id=""wtp"" style=""text-align:center; margin-top: 0px; margin-bottom: 0px; font-size: 40px"";>&ensp;</p>","-","viewing","0","19","13C,30A","","","","","","","","","","","","","","","","","","","",""
"","","","","","html-slider-response","71","223052","0.0-17.0-1.18","0b862812-4eae-4433-9381-864ef3a2b073","2058","
                  <p style=""text-align: center;"">₪58
                                                <br>30%</p>
                  <p id=""wtp"" style=""text-align:center; margin-top: 0px; margin-bottom: 0px; font-size: 40px"";>מוכנים לשלם: <span id=""c_p_y""></span></p>","11","evaluation","68","19","13C,30A","30","58","11","","","","","","","","","","","","","","","","",""
"","","","","","html-keyboard-response","72","224047","0.0-17.0-2.18","0b862812-4eae-4433-9381-864ef3a2b073","null","<p style=""text-align: center;"">+</p>","null","fixation","","","","","","","","","","","","","","","","","","","","","","",""
"","","","","","html-slider-response","73","225050","0.0-17.0-0.19","0b862812-4eae-4433-9381-864ef3a2b073","1000","
                  <p style=""text-align: center;"">₪36
                                                <br>70%</p>
                  <p id=""wtp"" style=""text-align:center; margin-top: 0px; margin-bottom: 0px; font-size: 40px"";>&ensp;</p>","-","viewing","0","13","3A,5C,10B","","","","","","","","","","","","","","","","","","","",""
"","","","","","html-slider-response","74","226308","0.0-17.0-1.19","0b862812-4eae-4433-9381-864ef3a2b073","1257","
                  <p style=""text-align: center;"">₪36
                                                <br>70%</p>
                  <p id=""wtp"" style=""text-align:center; margin-top: 0px; margin-bottom: 0px; font-size: 40px"";>מוכנים לשלם: <span id=""c_p_y""></span></p>","15","evaluation","36","13","3A,5C,10B","70","36","16","","","","","","","","","","","","","","","","",""
"","","","","","html-keyboard-response","75","226867","0.0-17.0-2.19","0b862812-4eae-4433-9381-864ef3a2b073","null","<p style=""text-align: center;"">+</p>","null","fixation","","","","","","","","","","","","","","","","","","","","","","",""
"","","","","","html-slider-response","76","227883","0.0-17.0-0.20","0b862812-4eae-4433-9381-864ef3a2b073","1000","
                  <p style=""text-align: center;"">₪64
                                                <br>50%</p>
                  <p id=""wtp"" style=""text-align:center; margin-top: 0px; margin-bottom: 0px; font-size: 40px"";>&ensp;</p>","-","viewing","0","25","1B,3B,4A","","","","","","","","","","","","","","","","","","","",""
"","","","","","html-slider-response","77","229300","0.0-17.0-1.20","0b862812-4eae-4433-9381-864ef3a2b073","1415","
                  <p style=""text-align: center;"">₪64
                                                <br>50%</p>
                  <p id=""wtp"" style=""text-align:center; margin-top: 0px; margin-bottom: 0px; font-size: 40px"";>מוכנים לשלם: <span id=""c_p_y""></span></p>","8","evaluation","27","25","1B,3B,4A","50","64","9","","","","","","","","","","","","","","","","",""
"","","","","","html-keyboard-response","78","230132","0.0-17.0-2.20","0b862812-4eae-4433-9381-864ef3a2b073","null","<p style=""text-align: center;"">+</p>","null","fixation","","","","","","","","","","","","","","","","","","","","","","",""
"","","","","","html-slider-response","79","231148","0.0-17.0-0.21","0b862812-4eae-4433-9381-864ef3a2b073","1000","
                  <p style=""text-align: center;"">₪76
                                                <br>65%</p>
                  <p id=""wtp"" style=""text-align:center; margin-top: 0px; margin-bottom: 0px; font-size: 40px"";>&ensp;</p>","-","viewing","0","29","8C,19A,24B","","","","","","","","","","","","","","","","","","","",""
"","","","","","html-slider-response","80","232740","0.0-17.0-1.21","0b862812-4eae-4433-9381-864ef3a2b073","1590","
                  <p style=""text-align: center;"">₪76
                                                <br>65%</p>
                  <p id=""wtp"" style=""text-align:center; margin-top: 0px; margin-bottom: 0px; font-size: 40px"";>מוכנים לשלם: <span id=""c_p_y""></span></p>","31","evaluation","7","29","8C,19A,24B","65","76","31","","","","","","","","","","","","","","","","",""
"","","","","","html-keyboard-response","81","233604","0.0-17.0-2.21","0b862812-4eae-4433-9381-864ef3a2b073","null","<p style=""text-align: center;"">+</p>","null","fixation","","","","","","","","","","","","","","","","","","","","","","",""
"","","","","","html-slider-response","82","234606","0.0-17.0-0.22","0b862812-4eae-4433-9381-864ef3a2b073","1000","
                  <p style=""text-align: center;"">₪61
                                                <br>45%</p>
                  <p id=""wtp"" style=""text-align:center; margin-top: 0px; margin-bottom: 0px; font-size: 40px"";>&ensp;</p>","-","viewing","0","22","10A,11A","","","","","","","","","","","","","","","","","","","",""
"","","","","","html-slider-response","83","237028","0.0-17.0-1.22","0b862812-4eae-4433-9381-864ef3a2b073","2420","
                  <p style=""text-align: center;"">₪61
                                                <br>45%</p>
                  <p id=""wtp"" style=""text-align:center; margin-top: 0px; margin-bottom: 0px; font-size: 40px"";>מוכנים לשלם: <span id=""c_p_y""></span></p>","13","evaluation","60","22","10A,11A","45","61","13","","","","","","","","","","","","","","","","",""
"","","","","","html-keyboard-response","84","238216","0.0-17.0-2.22","0b862812-4eae-4433-9381-864ef3a2b073","null","<p style=""text-align: center;"">+</p>","null","fixation","","","","","","","","","","","","","","","","","","","","","","",""
"","","","","","html-slider-response","85","239221","0.0-17.0-0.23","0b862812-4eae-4433-9381-864ef3a2b073","1000","
                  <p style=""text-align: center;"">₪18
                                                <br>50%</p>
                  <p id=""wtp"" style=""text-align:center; margin-top: 0px; margin-bottom: 0px; font-size: 40px"";>&ensp;</p>","-","viewing","0","10","2C,16C,22B,28A","","","","","","","","","","","","","","","","","","","",""
"","","","","","html-slider-response","86","241124","0.0-17.0-1.23","0b862812-4eae-4433-9381-864ef3a2b073","1902","
                  <p style=""text-align: center;"">₪18
                                                <br>50%</p>
                  <p id=""wtp"" style=""text-align:center; margin-top: 0px; margin-bottom: 0px; font-size: 40px"";>מוכנים לשלם: <span id=""c_p_y""></span></p>","4","evaluation","52","10","2C,16C,22B,28A","50","18","4","","","","","","","","","","","","","","","","",""
"","","","","","html-keyboard-response","87","241881","0.0-17.0-2.23","0b862812-4eae-4433-9381-864ef3a2b073","null","<p style=""text-align: center;"">+</p>","null","fixation","","","","","","","","","","","","","","","","","","","","","","",""
"","","","","","html-slider-response","88","242883","0.0-17.0-0.24","0b862812-4eae-4433-9381-864ef3a2b073","1000","
                  <p style=""text-align: center;"">₪71
                                                <br>75%</p>
                  <p id=""wtp"" style=""text-align:center; margin-top: 0px; margin-bottom: 0px; font-size: 40px"";>&ensp;</p>","-","viewing","0","28","8B","","","","","","","","","","","","","","","","","","","",""
"","","","","","html-slider-response","89","244076","0.0-17.0-1.24","0b862812-4eae-4433-9381-864ef3a2b073","1192","
                  <p style=""text-align: center;"">₪71
                                                <br>75%</p>
                  <p id=""wtp"" style=""text-align:center; margin-top: 0px; margin-bottom: 0px; font-size: 40px"";>מוכנים לשלם: <span id=""c_p_y""></span></p>","33","evaluation","60","28","8B","75","71","33","","","","","","","","","","","","","","","","",""
"","","","","","html-keyboard-response","90","244703","0.0-17.0-2.24","0b862812-4eae-4433-9381-864ef3a2b073","null","<p style=""text-align: center;"">+</p>","null","fixation","","","","","","","","","","","","","","","","","","","","","","",""
"","","","","","html-slider-response","91","245705","0.0-17.0-0.25","0b862812-4eae-4433-9381-864ef3a2b073","1000","
                  <p style=""text-align: center;"">₪79
                                                <br>65%</p>
                  <p id=""wtp"" style=""text-align:center; margin-top: 0px; margin-bottom: 0px; font-size: 40px"";>&ensp;</p>","-","viewing","0","31","8A","","","","","","","","","","","","","","","","","","","",""
"","","","","","html-slider-response","92","247564","0.0-17.0-1.25","0b862812-4eae-4433-9381-864ef3a2b073","1857","
                  <p style=""text-align: center;"">₪79
                                                <br>65%</p>
                  <p id=""wtp"" style=""text-align:center; margin-top: 0px; margin-bottom: 0px; font-size: 40px"";>מוכנים לשלם: <span id=""c_p_y""></span></p>","40","evaluation","33","31","8A","65","79","40","","","","","","","","","","","","","","","","",""
"","","","","","html-keyboard-response","93","248118","0.0-17.0-2.25","0b862812-4eae-4433-9381-864ef3a2b073","null","<p style=""text-align: center;"">+</p>","null","fixation","","","","","","","","","","","","","","","","","","","","","","",""
"","","","","","html-slider-response","94","249128","0.0-17.0-0.26","0b862812-4eae-4433-9381-864ef3a2b073","1000","
                  <p style=""text-align: center;"">₪71
                                                <br>55%</p>
                  <p id=""wtp"" style=""text-align:center; margin-top: 0px; margin-bottom: 0px; font-size: 40px"";>&ensp;</p>","-","viewing","0","27","5B,18A","","","","","","","","","","","","","","","","","","","",""
"","","","","","html-slider-response","95","250980","0.0-17.0-1.26","0b862812-4eae-4433-9381-864ef3a2b073","1851","
                  <p style=""text-align: center;"">₪71
                                                <br>55%</p>
                  <p id=""wtp"" style=""text-align:center; margin-top: 0px; margin-bottom: 0px; font-size: 40px"";>מוכנים לשלם: <span id=""c_p_y""></span></p>","35","evaluation","29","27","5B,18A","55","71","35","","","","","","","","","","","","","","","","",""
"","","","","","html-keyboard-response","96","252071","0.0-17.0-2.26","0b862812-4eae-4433-9381-864ef3a2b073","null","<p style=""text-align: center;"">+</p>","null","fixation","","","","","","","","","","","","","","","","","","","","","","",""
"","","","","","html-slider-response","97","253077","0.0-17.0-0.27","0b862812-4eae-4433-9381-864ef3a2b073","1000","
                  <p style=""text-align: center;"">₪58
                                                <br>40%</p>
                  <p id=""wtp"" style=""text-align:center; margin-top: 0px; margin-bottom: 0px; font-size: 40px"";>&ensp;</p>","-","viewing","0","20","10C,13A,19C,21B","","","","","","","","","","","","","","","","","","","",""
"","","","","","html-slider-response","98","255107","0.0-17.0-1.27","0b862812-4eae-4433-9381-864ef3a2b073","2029","
                  <p style=""text-align: center;"">₪58
                                                <br>40%</p>
                  <p id=""wtp"" style=""text-align:center; margin-top: 0px; margin-bottom: 0px; font-size: 40px"";>מוכנים לשלם: <span id=""c_p_y""></span></p>","10","evaluation","28","20","10C,13A,19C,21B","40","58","10","","","","","","","","","","","","","","","","",""
"","","","","","html-keyboard-response","99","256523","0.0-17.0-2.27","0b862812-4eae-4433-9381-864ef3a2b073","null","<p style=""text-align: center;"">+</p>","null","fixation","","","","","","","","","","","","","","","","","","","","","","",""
"","","","","","html-slider-response","100","257540","0.0-17.0-0.28","0b862812-4eae-4433-9381-864ef3a2b073","1000","
                  <p style=""text-align: center;"">₪36
                                                <br>60%</p>
                  <p id=""wtp"" style=""text-align:center; margin-top: 0px; margin-bottom: 0px; font-size: 40px"";>&ensp;</p>","-","viewing","0","12","1C,7C,15C","","","","","","","","","","","","","","","","","","","",""
"","","","","","html-slider-response","101","259204","0.0-17.0-1.28","0b862812-4eae-4433-9381-864ef3a2b073","1662","
                  <p style=""text-align: center;"">₪36
                                                <br>60%</p>
                  <p id=""wtp"" style=""text-align:center; margin-top: 0px; margin-bottom: 0px; font-size: 40px"";>מוכנים לשלם: <span id=""c_p_y""></span></p>","15","evaluation","34","12","1C,7C,15C","60","36","16","","","","","","","","","","","","","","","","",""
"","","","","","html-keyboard-response","102","260503","0.0-17.0-2.28","0b862812-4eae-4433-9381-864ef3a2b073","null","<p style=""text-align: center;"">+</p>","null","fixation","","","","","","","","","","","","","","","","","","","","","","",""
"","","","","","html-slider-response","103","261516","0.0-17.0-0.29","0b862812-4eae-4433-9381-864ef3a2b073","1000","
                  <p style=""text-align: center;"">₪4
                                                <br>50%</p>
                  <p id=""wtp"" style=""text-align:center; margin-top: 0px; margin-bottom: 0px; font-size: 40px"";>&ensp;</p>","-","viewing","0","2","4C,17B","","","","","","","","","","","","","","","","","","","",""
"","","","","","html-slider-response","104","262571","0.0-17.0-1.29","0b862812-4eae-4433-9381-864ef3a2b073","1054","
                  <p style=""text-align: center;"">₪4
                                                <br>50%</p>
                  <p id=""wtp"" style=""text-align:center; margin-top: 0px; margin-bottom: 0px; font-size: 40px"";>מוכנים לשלם: <span id=""c_p_y""></span></p>","0","evaluation","44","2","4C,17B","50","4","0","","","","","","","","","","","","","","","","",""
"","","","","","html-keyboard-response","105","263955","0.0-17.0-2.29","0b862812-4eae-4433-9381-864ef3a2b073","null","<p style=""text-align: center;"">+</p>","null","fixation","","","","","","","","","","","","","","","","","","","","","","",""
"","","","","","html-slider-response","106","264960","0.0-17.0-0.30","0b862812-4eae-4433-9381-864ef3a2b073","1000","
                  <p style=""text-align: center;"">₪43
                                                <br>60%</p>
                  <p id=""wtp"" style=""text-align:center; margin-top: 0px; margin-bottom: 0px; font-size: 40px"";>&ensp;</p>","-","viewing","0","17","2A,7A,9A,15B","","","","","","","","","","","","","","","","","","","",""
"","","","","","html-slider-response","107","267083","0.0-17.0-1.30","0b862812-4eae-4433-9381-864ef3a2b073","2122","
                  <p style=""text-align: center;"">₪43
                                                <br>60%</p>
                  <p id=""wtp"" style=""text-align:center; margin-top: 0px; margin-bottom: 0px; font-size: 40px"";>מוכנים לשלם: <span id=""c_p_y""></span></p>","22","evaluation","75","17","2A,7A,9A,15B","60","43","22","","","","","","","","","","","","","","","","",""
"","","","","","html-keyboard-response","108","267772","0.0-17.0-2.30","0b862812-4eae-4433-9381-864ef3a2b073","null","<p style=""text-align: center;"">+</p>","null","fixation","","","","","","","","","","","","","","","","","","","","","","",""
"","","","","","html-keyboard-response","109","268774","0.0-18.0","0b862812-4eae-4433-9381-864ef3a2b073","null","<p style=""text-align: center;"">+</p>","null","fixation","","","","","","","","","","","","","","","","","","","","","","",""
"","","","","","html-keyboard-response","110","271627","0.0-19.0","0b862812-4eae-4433-9381-864ef3a2b073","null","<p>הפסקה.
          <br>לחצו כדי להמשיך.</p>","1","scan_wait","","","","","","","","","","","","","","","","","","","","","","",""
"","","","","","html-keyboard-response","111","272636","0.0-20.0","0b862812-4eae-4433-9381-864ef3a2b073","null","<p style=""text-align: center;"">+</p>","null","fixation","","","","","","","","","","","","","","","","","","","","","","",""
"","","","","","html-slider-response","112","273642","0.0-21.0-0.0","0b862812-4eae-4433-9381-864ef3a2b073","1000","
                  <p style=""text-align: center;"">₪61
                                                <br>55%</p>
                  <p id=""wtp"" style=""text-align:center; margin-top: 0px; margin-bottom: 0px; font-size: 40px"";>&ensp;</p>","-","viewing","0","23","7B,26B","","","","","","","","","","","","","","","","","","","",""
"","","","","","html-slider-response","113","275212","0.0-21.0-1.0","0b862812-4eae-4433-9381-864ef3a2b073","1569","
                  <p style=""text-align: center;"">₪61
                                                <br>55%</p>
                  <p id=""wtp"" style=""text-align:center; margin-top: 0px; margin-bottom: 0px; font-size: 40px"";>מוכנים לשלם: <span id=""c_p_y""></span></p>","15","evaluation","37","23","7B,26B","55","61","15","","","","","","","","","","","","","","","","",""
"","","","","","html-keyboard-response","114","276655","0.0-21.0-2.0","0b862812-4eae-4433-9381-864ef3a2b073","null","<p style=""text-align: center;"">+</p>","null","fixation","","","","","","","","","","","","","","","","","","","","","","",""
"","","","","","html-slider-response","115","277668","0.0-21.0-0.1","0b862812-4eae-4433-9381-864ef3a2b073","1000","
                  <p style=""text-align: center;"">₪39
                                                <br>60%</p>
                  <p id=""wtp"" style=""text-align:center; margin-top: 0px; margin-bottom: 0px; font-size: 40px"";>&ensp;</p>","-","viewing","0","15","9C,25B","","","","","","","","","","","","","","","","","","","",""
"","","","","","html-slider-response","116","280099","0.0-21.0-1.1","0b862812-4eae-4433-9381-864ef3a2b073","2430","
                  <p style=""text-align: center;"">₪39
                                                <br>60%</p>
                  <p id=""wtp"" style=""text-align:center; margin-top: 0px; margin-bottom: 0px; font-size: 40px"";>מוכנים לשלם: <span id=""c_p_y""></span></p>","20","evaluation","3","15","9C,25B","60","39","20","","","","","","","","","","","","","","","","",""
"","","","","","html-keyboard-response","117","281602","0.0-21.0-2.1","0b862812-4eae-4433-9381-864ef3a2b073","null","<p style=""text-align: center;"">+</p>","null","fixation","","","","","","","","","","","","","","","","","","","","","","",""
"","","","","","html-slider-response","118","282605","0.0-21.0-0.2","0b862812-4eae-4433-9381-864ef3a2b073","1000","
                  <p style=""text-align: center;"">₪64
                                                <br>50%</p>
                  <p id=""wtp"" style=""text-align:center; margin-top: 0px; margin-bottom: 0px; font-size: 40px"";>&ensp;</p>","-","viewing","0","25","1B,3B,4A","","","","","","","","","","","","","","","","","","","",""
"","","","","","html-slider-response","119","284708","0.0-21.0-1.2","0b862812-4eae-4433-9381-864ef3a2b073","2101","
                  <p style=""text-align: center;"">₪64
                                                <br>50%</p>
                  <p id=""wtp"" style=""text-align:center; margin-top: 0px; margin-bottom: 0px; font-size: 40px"";>מוכנים לשלם: <span id=""c_p_y""></span></p>","17","evaluation","47","25","1B,3B,4A","50","64","17","","","","","","","","","","","","","","","","",""
"","","","","","html-keyboard-response","120","285771","0.0-21.0-2.2","0b862812-4eae-4433-9381-864ef3a2b073","null","<p style=""text-align: center;"">+</p>","null","fixation","","","","","","","","","","","","","","","","","","","","","","",""
"","","","","","html-slider-response","121","286776","0.0-21.0-0.3","0b862812-4eae-4433-9381-864ef3a2b073","1000","
                  <p style=""text-align: center;"">₪11
                                                <br>45%</p>
                  <p id=""wtp"" style=""text-align:center; margin-top: 0px; margin-bottom: 0px; font-size: 40px"";>&ensp;</p>","-","viewing","0","6","14B,21C,25C","","","","","","","","","","","","","","","","","","","",""
"","","","","","html-slider-response","122","289348","0.0-21.0-1.3","0b862812-4eae-4433-9381-864ef3a2b073","2570","
                  <p style=""text-align: center;"">₪11
                                                <br>45%</p>
                  <p id=""wtp"" style=""text-align:center; margin-top: 0px; margin-bottom: 0px; font-size: 40px"";>מוכנים לשלם: <span id=""c_p_y""></span></p>","20","evaluation","59","6","14B,21C,25C","45","11","20","","","","","","","","","","","","","","","","",""
"","","","","","html-keyboard-response","123","289900","0.0-21.0-2.3","0b862812-4eae-4433-9381-864ef3a2b073","null","<p style=""text-align: center;"">+</p>","null","fixation","","","","","","","","","","","","","","","","","","","","","","",""
"","","","","","html-slider-response","124","290912","0.0-21.0-0.4","0b862812-4eae-4433-9381-864ef3a2b073","1000","
                  <p style=""text-align: center;"">₪36
                                                <br>75%</p>
                  <p id=""wtp"" style=""text-align:center; margin-top: 0px; margin-bottom: 0px; font-size: 40px"";>&ensp;</p>","-","viewing","0","14","4B,5A,13B,16B","","","","","","","","","","","","","","","","","","","",""
"","","","","","html-slider-response","125","294316","0.0-21.0-1.4","0b862812-4eae-4433-9381-864ef3a2b073","3402","
                  <p style=""text-align: center;"">₪36
                                                <br>75%</p>
                  <p id=""wtp"" style=""text-align:center; margin-top: 0px; margin-bottom: 0px; font-size: 40px"";>מוכנים לשלם: <span id=""c_p_y""></span></p>","19","evaluation","56","14","4B,5A,13B,16B","75","36","20","","","","","","","","","","","","","","","","",""
"","","","","","html-keyboard-response","126","295391","0.0-21.0-2.4","0b862812-4eae-4433-9381-864ef3a2b073","null","<p style=""text-align: center;"">+</p>","null","fixation","","","","","","","","","","","","","","","","","","","","","","",""
"","","","","","html-slider-response","127","296393","0.0-21.0-0.5","0b862812-4eae-4433-9381-864ef3a2b073","1000","
                  <p style=""text-align: center;"">₪58
                                                <br>40%</p>
                  <p id=""wtp"" style=""text-align:center; margin-top: 0px; margin-bottom: 0px; font-size: 40px"";>&ensp;</p>","-","viewing","0","20","10C,13A,19C,21B","","","","","","","","","","","","","","","","","","","",""
"","","","","","html-slider-response","128","297531","0.0-21.0-1.5","0b862812-4eae-4433-9381-864ef3a2b073","1138","
                  <p style=""text-align: center;"">₪58
                                                <br>40%</p>
                  <p id=""wtp"" style=""text-align:center; margin-top: 0px; margin-bottom: 0px; font-size: 40px"";>מוכנים לשלם: <span id=""c_p_y""></span></p>","5","evaluation","56","20","10C,13A,19C,21B","40","58","6","","","","","","","","","","","","","","","","",""
"","","","","","html-keyboard-response","129","298454","0.0-21.0-2.5","0b862812-4eae-4433-9381-864ef3a2b073","null","<p style=""text-align: center;"">+</p>","null","fixation","","","","","","","","","","","","","","","","","","","","","","",""
"","","","","","html-slider-response","130","299467","0.0-21.0-0.6","0b862812-4eae-4433-9381-864ef3a2b073","1000","
                  <p style=""text-align: center;"">₪64
                                                <br>25%</p>
                  <p id=""wtp"" style=""text-align:center; margin-top: 0px; margin-bottom: 0px; font-size: 40px"";>&ensp;</p>","-","viewing","0","24","6A,21A","","","","","","","","","","","","","","","","","","","",""
"","","","","","html-slider-response","131","302828","0.0-21.0-1.6","0b862812-4eae-4433-9381-864ef3a2b073","3359","
                  <p style=""text-align: center;"">₪64
                                                <br>25%</p>
                  <p id=""wtp"" style=""text-align:center; margin-top: 0px; margin-bottom: 0px; font-size: 40px"";>מוכנים לשלם: <span id=""c_p_y""></span></p>","5","evaluation","20","24","6A,21A","25","64","6","","","","","","","","","","","","","","","","",""
"","","","","","html-keyboard-response","132","303533","0.0-21.0-2.6","0b862812-4eae-4433-9381-864ef3a2b073","null","<p style=""text-align: center;"">+</p>","null","fixation","","","","","","","","","","","","","","","","","","","","","","",""
"","","","","","html-slider-response","133","304535","0.0-21.0-0.7","0b862812-4eae-4433-9381-864ef3a2b073","1000","
                  <p style=""text-align: center;"">₪58
                                                <br>30%</p>
                  <p id=""wtp"" style=""text-align:center; margin-top: 0px; margin-bottom: 0px; font-size: 40px"";>&ensp;</p>","-","viewing","0","19","13C,30A","","","","","","","","","","","","","","","","","","","",""
"","","","","","html-slider-response","134","305892","0.0-21.0-1.7","0b862812-4eae-4433-9381-864ef3a2b073","1355","
                  <p style=""text-align: center;"">₪58
                                                <br>30%</p>
                  <p id=""wtp"" style=""text-align:center; margin-top: 0px; margin-bottom: 0px; font-size: 40px"";>מוכנים לשלם: <span id=""c_p_y""></span></p>","4","evaluation","0","19","13C,30A","30","58","4","","","","","","","","","","","","","","","","",""
"","","","","","html-keyboard-response","135","307075","0.0-21.0-2.7","0b862812-4eae-4433-9381-864ef3a2b073","null","<p style=""text-align: center;"">+</p>","null","fixation","","","","","","","","","","","","","","","","","","","","","","",""
"","","","","","html-slider-response","136","308089","0.0-21.0-0.8","0b862812-4eae-4433-9381-864ef3a2b073","1000","
                  <p style=""text-align: center;"">₪4
                                                <br>25%</p>
                  <p id=""wtp"" style=""text-align:center; margin-top: 0px; margin-bottom: 0px; font-size: 40px"";>&ensp;</p>","-","viewing","0","1","6C,29B,30C","","","","","","","","","","","","","","","","","","","",""
"","","","","","html-slider-response","137","309836","0.0-21.0-1.8","0b862812-4eae-4433-9381-864ef3a2b073","1746","
                  <p style=""text-align: center;"">₪4
                                                <br>25%</p>
                  <p id=""wtp"" style=""text-align:center; margin-top: 0px; margin-bottom: 0px; font-size: 40px"";>מוכנים לשלם: <span id=""c_p_y""></span></p>","0","evaluation","14","1","6C,29B,30C","25","4","1","","","","","","","","","","","","","","","","",""
"","","","","","html-keyboard-response","138","310546","0.0-21.0-2.8","0b862812-4eae-4433-9381-864ef3a2b073","null","<p style=""text-align: center;"">+</p>","null","fixation","","","","","","","","","","","","","","","","","","","","","","",""
"","","","","","html-slider-response","139","311564","0.0-21.0-0.9","0b862812-4eae-4433-9381-864ef3a2b073","1000","
                  <p style=""text-align: center;"">₪11
                                                <br>75%</p>
                  <p id=""wtp"" style=""text-align:center; margin-top: 0px; margin-bottom: 0px; font-size: 40px"";>&ensp;</p>","-","viewing","0","7","6B,18B,22C,24C,29A","","","","","","","","","","","","","","","","","","","",""
"","","","","","html-slider-response","140","315476","0.0-21.0-1.9","0b862812-4eae-4433-9381-864ef3a2b073","3911","
                  <p style=""text-align: center;"">₪11
                                                <br>75%</p>
                  <p id=""wtp"" style=""text-align:center; margin-top: 0px; margin-bottom: 0px; font-size: 40px"";>מוכנים לשלם: <span id=""c_p_y""></span></p>","4","evaluation","67","7","6B,18B,22C,24C,29A","75","11","4","","","","","","","","","","","","","","","","",""
"","","","","","html-keyboard-response","141","316619","0.0-21.0-2.9","0b862812-4eae-4433-9381-864ef3a2b073","null","<p style=""text-align: center;"">+</p>","null","fixation","","","","","","","","","","","","","","","","","","","","","","",""
"","","","","","html-slider-response","142","317627","0.0-21.0-0.10","0b862812-4eae-4433-9381-864ef3a2b073","1000","
                  <p style=""text-align: center;"">₪36
                                                <br>60%</p>
                  <p id=""wtp"" style=""text-align:center; margin-top: 0px; margin-bottom: 0px; font-size: 40px"";>&ensp;</p>","-","viewing","0","12","1C,7C,15C","","","","","","","","","","","","","","","","","","","",""
"","","","","","html-slider-response","143","319444","0.0-21.0-1.10","0b862812-4eae-4433-9381-864ef3a2b073","1815","
                  <p style=""text-align: center;"">₪36
                                                <br>60%</p>
                  <p id=""wtp"" style=""text-align:center; margin-top: 0px; margin-bottom: 0px; font-size: 40px"";>מוכנים לשלם: <span id=""c_p_y""></span></p>","9","evaluation","75","12","1C,7C,15C","60","36","10","","","","","","","","","","","","","","","","",""
"","","","","","html-keyboard-response","144","320514","0.0-21.0-2.10","0b862812-4eae-4433-9381-864ef3a2b073","null","<p style=""text-align: center;"">+</p>","null","fixation","","","","","","","","","","","","","","","","","","","","","","",""
"","","","","","html-slider-response","145","321519","0.0-21.0-0.11","0b862812-4eae-4433-9381-864ef3a2b073","1000","
                  <p style=""text-align: center;"">₪43
                                                <br>60%</p>
                  <p id=""wtp"" style=""text-align:center; margin-top: 0px; margin-bottom: 0px; font-size: 40px"";>&ensp;</p>","-","viewing","0","17","2A,7A,9A,15B","","","","","","","","","","","","","","","","","","","",""
"","","","","","html-slider-response","146","324388","0.0-21.0-1.11","0b862812-4eae-4433-9381-864ef3a2b073","2867","
                  <p style=""text-align: center;"">₪43
                                                <br>60%</p>
                  <p id=""wtp"" style=""text-align:center; margin-top: 0px; margin-bottom: 0px; font-size: 40px"";>מוכנים לשלם: <span id=""c_p_y""></span></p>","14","evaluation","37","17","2A,7A,9A,15B","60","43","15","","","","","","","","","","","","","","","","",""
"","","","","","html-keyboard-response","147","325625","0.0-21.0-2.11","0b862812-4eae-4433-9381-864ef3a2b073","null","<p style=""text-align: center;"">+</p>","null","fixation","","","","","","","","","","","","","","","","","","","","","","",""
"","","","","","html-slider-response","148","326641","0.0-21.0-0.12","0b862812-4eae-4433-9381-864ef3a2b073","1000","
                  <p style=""text-align: center;"">₪43
                                                <br>75%</p>
                  <p id=""wtp"" style=""text-align:center; margin-top: 0px; margin-bottom: 0px; font-size: 40px"";>&ensp;</p>","-","viewing","0","18","11B,19B,24A,26A","","","","","","","","","","","","","","","","","","","",""
"","","","","","html-slider-response","149","328508","0.0-21.0-1.12","0b862812-4eae-4433-9381-864ef3a2b073","1864","
                  <p style=""text-align: center;"">₪43
                                                <br>75%</p>
                  <p id=""wtp"" style=""text-align:center; margin-top: 0px; margin-bottom: 0px; font-size: 40px"";>מוכנים לשלם: <span id=""c_p_y""></span></p>","23","evaluation","76","18","11B,19B,24A,26A","75","43","23","","","","","","","","","","","","","","","","",""
"","","","","","html-keyboard-response","150","329390","0.0-21.0-2.12","0b862812-4eae-4433-9381-864ef3a2b073","null","<p style=""text-align: center;"">+</p>","null","fixation","","","","","","","","","","","","","","","","","","","","","","",""
"","","","","","html-slider-response","151","330400","0.0-21.0-0.13","0b862812-4eae-4433-9381-864ef3a2b073","1000","
                  <p style=""text-align: center;"">₪18
                                                <br>25%</p>
                  <p id=""wtp"" style=""text-align:center; margin-top: 0px; margin-bottom: 0px; font-size: 40px"";>&ensp;</p>","-","viewing","0","9","14A,23A","","","","","","","","","","","","","","","","","","","",""
"","","","","","html-slider-response","152","333500","0.0-21.0-1.13","0b862812-4eae-4433-9381-864ef3a2b073","3099","
                  <p style=""text-align: center;"">₪18
                                                <br>25%</p>
                  <p id=""wtp"" style=""text-align:center; margin-top: 0px; margin-bottom: 0px; font-size: 40px"";>מוכנים לשלם: <span id=""c_p_y""></span></p>","3","evaluation","38","9","14A,23A","25","18","4","","","","","","","","","","","","","","","","",""
"","","","","","html-keyboard-response","153","334401","0.0-21.0-2.13","0b862812-4eae-4433-9381-864ef3a2b073","null","<p style=""text-align: center;"">+</p>","null","fixation","","","","","","","","","","","","","","","","","","","","","","",""
"","","","","","html-slider-response","154","335416","0.0-21.0-0.14","0b862812-4eae-4433-9381-864ef3a2b073","1000","
                  <p style=""text-align: center;"">₪36
                                                <br>30%</p>
                  <p id=""wtp"" style=""text-align:center; margin-top: 0px; margin-bottom: 0px; font-size: 40px"";>&ensp;</p>","-","viewing","0","11","3C,20A,22A","","","","","","","","","","","","","","","","","","","",""
"","","","","","html-slider-response","155","337764","0.0-21.0-1.14","0b862812-4eae-4433-9381-864ef3a2b073","2346","
                  <p style=""text-align: center;"">₪36
                                                <br>30%</p>
                  <p id=""wtp"" style=""text-align:center; margin-top: 0px; margin-bottom: 0px; font-size: 40px"";>מוכנים לשלם: <span id=""c_p_y""></span></p>","10","evaluation","76","11","3C,20A,22A","30","36","10","","","","","","","","","","","","","","","","",""
"","","","","","html-keyboard-response","156","338333","0.0-21.0-2.14","0b862812-4eae-4433-9381-864ef3a2b073","null","<p style=""text-align: center;"">+</p>","null","fixation","","","","","","","","","","","","","","","","","","","","","","",""
"","","","","","html-slider-response","157","339336","0.0-21.0-0.15","0b862812-4eae-4433-9381-864ef3a2b073","1000","
                  <p style=""text-align: center;"">₪71
                                                <br>45%</p>
                  <p id=""wtp"" style=""text-align:center; margin-top: 0px; margin-bottom: 0px; font-size: 40px"";>&ensp;</p>","-","viewing","0","26","2B,16A","","","","","","","","","","","","","","","","","","","",""
"","","","","","html-slider-response","158","342228","0.0-21.0-1.15","0b862812-4eae-4433-9381-864ef3a2b073","2891","
                  <p style=""text-align: center;"">₪71
                                                <br>45%</p>
                  <p id=""wtp"" style=""text-align:center; margin-top: 0px; margin-bottom: 0px; font-size: 40px"";>מוכנים לשלם: <span id=""c_p_y""></span></p>","14","evaluation","68","26","2B,16A","45","71","14","","","","","","","","","","","","","","","","",""
"","","","","","html-keyboard-response","159","342994","0.0-21.0-2.15","0b862812-4eae-4433-9381-864ef3a2b073","null","<p style=""text-align: center;"">+</p>","null","fixation","","","","","","","","","","","","","","","","","","","","","","",""
"","","","","","html-slider-response","160","344004","0.0-21.0-0.16","0b862812-4eae-4433-9381-864ef3a2b073","1000","
                  <p style=""text-align: center;"">₪71
                                                <br>75%</p>
                  <p id=""wtp"" style=""text-align:center; margin-top: 0px; margin-bottom: 0px; font-size: 40px"";>&ensp;</p>","-","viewing","0","28","8B","","","","","","","","","","","","","","","","","","","",""
"","","","","","html-slider-response","161","347292","0.0-21.0-1.16","0b862812-4eae-4433-9381-864ef3a2b073","3286","
                  <p style=""text-align: center;"">₪71
                                                <br>75%</p>
                  <p id=""wtp"" style=""text-align:center; margin-top: 0px; margin-bottom: 0px; font-size: 40px"";>מוכנים לשלם: <span id=""c_p_y""></span></p>","29","evaluation","35","28","8B","75","71","30","","","","","","","","","","","","","","","","",""
"","","","","","html-keyboard-response","162","348422","0.0-21.0-2.16","0b862812-4eae-4433-9381-864ef3a2b073","null","<p style=""text-align: center;"">+</p>","null","fixation","","","","","","","","","","","","","","","","","","","","","","",""
"","","","","","html-slider-response","163","349428","0.0-21.0-0.17","0b862812-4eae-4433-9381-864ef3a2b073","1000","
                  <p style=""text-align: center;"">₪4
                                                <br>75%</p>
                  <p id=""wtp"" style=""text-align:center; margin-top: 0px; margin-bottom: 0px; font-size: 40px"";>&ensp;</p>","-","viewing","0","3","12B,20B,23B,27C,29C","","","","","","","","","","","","","","","","","","","",""
"","","","","","html-slider-response","164","351100","0.0-21.0-1.17","0b862812-4eae-4433-9381-864ef3a2b073","1671","
                  <p style=""text-align: center;"">₪4
                                                <br>75%</p>
                  <p id=""wtp"" style=""text-align:center; margin-top: 0px; margin-bottom: 0px; font-size: 40px"";>מוכנים לשלם: <span id=""c_p_y""></span></p>","1","evaluation","8","3","12B,20B,23B,27C,29C","75","4","1","","","","","","","","","","","","","","","","",""
"","","","","","html-keyboard-response","165","352459","0.0-21.0-2.17","0b862812-4eae-4433-9381-864ef3a2b073","null","<p style=""text-align: center;"">+</p>","null","fixation","","","","","","","","","","","","","","","","","","","","","","",""
"","","","","","html-slider-response","166","353472","0.0-21.0-0.18","0b862812-4eae-4433-9381-864ef3a2b073","1000","
                  <p style=""text-align: center;"">₪61
                                                <br>45%</p>
                  <p id=""wtp"" style=""text-align:center; margin-top: 0px; margin-bottom: 0px; font-size: 40px"";>&ensp;</p>","-","viewing","0","22","10A,11A","","","","","","","","","","","","","","","","","","","",""
"","","","","","html-slider-response","167","357236","0.0-21.0-1.18","0b862812-4eae-4433-9381-864ef3a2b073","3763","
                  <p style=""text-align: center;"">₪61
                                                <br>45%</p>
                  <p id=""wtp"" style=""text-align:center; margin-top: 0px; margin-bottom: 0px; font-size: 40px"";>מוכנים לשלם: <span id=""c_p_y""></span></p>","2","evaluation","79","22","10A,11A","45","61","3","","","","","","","","","","","","","","","","",""
"","","","","","html-keyboard-response","168","358006","0.0-21.0-2.18","0b862812-4eae-4433-9381-864ef3a2b073","null","<p style=""text-align: center;"">+</p>","null","fixation","","","","","","","","","","","","","","","","","","","","","","",""
"","","","","","html-slider-response","169","359016","0.0-21.0-0.19","0b862812-4eae-4433-9381-864ef3a2b073","1000","
                  <p style=""text-align: center;"">₪71
                                                <br>55%</p>
                  <p id=""wtp"" style=""text-align:center; margin-top: 0px; margin-bottom: 0px; font-size: 40px"";>&ensp;</p>","-","viewing","0","27","5B,18A","","","","","","","","","","","","","","","","","","","",""
"","","","","","html-slider-response","170","360668","0.0-21.0-1.19","0b862812-4eae-4433-9381-864ef3a2b073","1650","
                  <p style=""text-align: center;"">₪71
                                                <br>55%</p>
                  <p id=""wtp"" style=""text-align:center; margin-top: 0px; margin-bottom: 0px; font-size: 40px"";>מוכנים לשלם: <span id=""c_p_y""></span></p>","30","evaluation","12","27","5B,18A","55","71","30","","","","","","","","","","","","","","","","",""
"","","","","","html-keyboard-response","171","361508","0.0-21.0-2.19","0b862812-4eae-4433-9381-864ef3a2b073","null","<p style=""text-align: center;"">+</p>","null","fixation","","","","","","","","","","","","","","","","","","","","","","",""
"","","","","","html-slider-response","172","362525","0.0-21.0-0.20","0b862812-4eae-4433-9381-864ef3a2b073","1000","
                  <p style=""text-align: center;"">₪16
                                                <br>20%</p>
                  <p id=""wtp"" style=""text-align:center; margin-top: 0px; margin-bottom: 0px; font-size: 40px"";>&ensp;</p>","-","viewing","0","8","14C,17A,20C,27A","","","","","","","","","","","","","","","","","","","",""
"","","","","","html-slider-response","173","364676","0.0-21.0-1.20","0b862812-4eae-4433-9381-864ef3a2b073","2150","
                  <p style=""text-align: center;"">₪16
                                                <br>20%</p>
                  <p id=""wtp"" style=""text-align:center; margin-top: 0px; margin-bottom: 0px; font-size: 40px"";>מוכנים לשלם: <span id=""c_p_y""></span></p>","3","evaluation","4","8","14C,17A,20C,27A","20","16","4","","","","","","","","","","","","","","","","",""
"","","","","","html-keyboard-response","174","365386","0.0-21.0-2.20","0b862812-4eae-4433-9381-864ef3a2b073","null","<p style=""text-align: center;"">+</p>","null","fixation","","","","","","","","","","","","","","","","","","","","","","",""
"","","","","","html-slider-response","175","366402","0.0-21.0-0.21","0b862812-4eae-4433-9381-864ef3a2b073","1000","
                  <p style=""text-align: center;"">₪58
                                                <br>45%</p>
                  <p id=""wtp"" style=""text-align:center; margin-top: 0px; margin-bottom: 0px; font-size: 40px"";>&ensp;</p>","-","viewing","0","21","11C,18C,25A","","","","","","","","","","","","","","","","","","","",""
"","","","","","html-slider-response","176","367644","0.0-21.0-1.21","0b862812-4eae-4433-9381-864ef3a2b073","1240","
                  <p style=""text-align: center;"">₪58
                                                <br>45%</p>
                  <p id=""wtp"" style=""text-align:center; margin-top: 0px; margin-bottom: 0px; font-size: 40px"";>מוכנים לשלם: <span id=""c_p_y""></span></p>","13","evaluation","75","21","11C,18C,25A","45","58","13","","","","","","","","","","","","","","","","",""
"","","","","","html-keyboard-response","177","368365","0.0-21.0-2.21","0b862812-4eae-4433-9381-864ef3a2b073","null","<p style=""text-align: center;"">+</p>","null","fixation","","","","","","","","","","","","","","","","","","","","","","",""
"","","","","","html-slider-response","178","369367","0.0-21.0-0.22","0b862812-4eae-4433-9381-864ef3a2b073","1000","
                  <p style=""text-align: center;"">₪4
                                                <br>50%</p>
                  <p id=""wtp"" style=""text-align:center; margin-top: 0px; margin-bottom: 0px; font-size: 40px"";>&ensp;</p>","-","viewing","0","2","4C,17B","","","","","","","","","","","","","","","","","","","",""
"","","","","","html-slider-response","179","371148","0.0-21.0-1.22","0b862812-4eae-4433-9381-864ef3a2b073","1779","
                  <p style=""text-align: center;"">₪4
                                                <br>50%</p>
                  <p id=""wtp"" style=""text-align:center; margin-top: 0px; margin-bottom: 0px; font-size: 40px"";>מוכנים לשלם: <span id=""c_p_y""></span></p>","0","evaluation","64","2","4C,17B","50","4","0","","","","","","","","","","","","","","","","",""
"","","","","","html-keyboard-response","180","371909","0.0-21.0-2.22","0b862812-4eae-4433-9381-864ef3a2b073","null","<p style=""text-align: center;"">+</p>","null","fixation","","","","","","","","","","","","","","","","","","","","","","",""
"","","","","","html-slider-response","181","372927","0.0-21.0-0.23","0b862812-4eae-4433-9381-864ef3a2b073","1000","
                  <p style=""text-align: center;"">₪39
                                                <br>65%</p>
                  <p id=""wtp"" style=""text-align:center; margin-top: 0px; margin-bottom: 0px; font-size: 40px"";>&ensp;</p>","-","viewing","0","16","1A,15A,26C","","","","","","","","","","","","","","","","","","","",""
"","","","","","html-slider-response","182","376932","0.0-21.0-1.23","0b862812-4eae-4433-9381-864ef3a2b073","null","
                  <p style=""text-align: center;"">₪39
                                                <br>65%</p>
                  <p id=""wtp"" style=""text-align:center; margin-top: 0px; margin-bottom: 0px; font-size: 40px"";>מוכנים לשלם: <span id=""c_p_y""></span></p>","null","evaluation","23","16","1A,15A,26C","65","39","21","","","","","","","","","","","","","","","","",""
"","","","","","html-keyboard-response","183","377513","0.0-21.0-2.23","0b862812-4eae-4433-9381-864ef3a2b073","null","<p style=""text-align: center;"">+</p>","null","fixation","","","","","","","","","","","","","","","","","","","","","","",""
"","","","","","html-slider-response","184","378515","0.0-21.0-0.24","0b862812-4eae-4433-9381-864ef3a2b073","1000","
                  <p style=""text-align: center;"">₪36
                                                <br>70%</p>
                  <p id=""wtp"" style=""text-align:center; margin-top: 0px; margin-bottom: 0px; font-size: 40px"";>&ensp;</p>","-","viewing","0","13","3A,5C,10B","","","","","","","","","","","","","","","","","","","",""
"","","","","","html-slider-response","185","380668","0.0-21.0-1.24","0b862812-4eae-4433-9381-864ef3a2b073","2152","
                  <p style=""text-align: center;"">₪36
                                                <br>70%</p>
                  <p id=""wtp"" style=""text-align:center; margin-top: 0px; margin-bottom: 0px; font-size: 40px"";>מוכנים לשלם: <span id=""c_p_y""></span></p>","13","evaluation","63","13","3A,5C,10B","70","36","14","","","","","","","","","","","","","","","","",""
"","","","","","html-keyboard-response","186","381317","0.0-21.0-2.24","0b862812-4eae-4433-9381-864ef3a2b073","null","<p style=""text-align: center;"">+</p>","null","fixation","","","","","","","","","","","","","","","","","","","","","","",""
"","","","","","html-slider-response","187","382323","0.0-21.0-0.25","0b862812-4eae-4433-9381-864ef3a2b073","1000","
                  <p style=""text-align: center;"">₪79
                                                <br>40%</p>
                  <p id=""wtp"" style=""text-align:center; margin-top: 0px; margin-bottom: 0px; font-size: 40px"";>&ensp;</p>","-","viewing","0","30","9B","","","","","","","","","","","","","","","","","","","",""
"","","","","","html-slider-response","188","384052","0.0-21.0-1.25","0b862812-4eae-4433-9381-864ef3a2b073","1728","
                  <p style=""text-align: center;"">₪79
                                                <br>40%</p>
                  <p id=""wtp"" style=""text-align:center; margin-top: 0px; margin-bottom: 0px; font-size: 40px"";>מוכנים לשלם: <span id=""c_p_y""></span></p>","7","evaluation","50","30","9B","40","79","7","","","","","","","","","","","","","","","","",""
"","","","","","html-keyboard-response","189","385061","0.0-21.0-2.25","0b862812-4eae-4433-9381-864ef3a2b073","null","<p style=""text-align: center;"">+</p>","null","fixation","","","","","","","","","","","","","","","","","","","","","","",""
"","","","","","html-slider-response","190","386067","0.0-21.0-0.26","0b862812-4eae-4433-9381-864ef3a2b073","1000","
                  <p style=""text-align: center;"">₪76
                                                <br>65%</p>
                  <p id=""wtp"" style=""text-align:center; margin-top: 0px; margin-bottom: 0px; font-size: 40px"";>&ensp;</p>","-","viewing","0","29","8C,19A,24B","","","","","","","","","","","","","","","","","","","",""
"","","","","","html-slider-response","191","387292","0.0-21.0-1.26","0b862812-4eae-4433-9381-864ef3a2b073","1224","
                  <p style=""text-align: center;"">₪76
                                                <br>65%</p>
                  <p id=""wtp"" style=""text-align:center; margin-top: 0px; margin-bottom: 0px; font-size: 40px"";>מוכנים לשלם: <span id=""c_p_y""></span></p>","19","evaluation","47","29","8C,19A,24B","65","76","20","","","","","","","","","","","","","","","","",""
"","","","","","html-keyboard-response","192","388773","0.0-21.0-2.26","0b862812-4eae-4433-9381-864ef3a2b073","null","<p style=""text-align: center;"">+</p>","null","fixation","","","","","","","","","","","","","","","","","","","","","","",""
"","","","","","html-slider-response","193","389783","0.0-21.0-0.27","0b862812-4eae-4433-9381-864ef3a2b073","1000","
                  <p style=""text-align: center;"">₪11
                                                <br>25%</p>
                  <p id=""wtp"" style=""text-align:center; margin-top: 0px; margin-bottom: 0px; font-size: 40px"";>&ensp;</p>","-","viewing","0","5","12A,27B,28B,30B","","","","","","","","","","","","","","","","","","","",""
"","","","","","html-slider-response","194","392756","0.0-21.0-1.27","0b862812-4eae-4433-9381-864ef3a2b073","2972","
                  <p style=""text-align: center;"">₪11
                                                <br>25%</p>
                  <p id=""wtp"" style=""text-align:center; margin-top: 0px; margin-bottom: 0px; font-size: 40px"";>מוכנים לשלם: <span id=""c_p_y""></span></p>","2","evaluation","45","5","12A,27B,28B,30B","25","11","3","","","","","","","","","","","","","","","","",""
"","","","","","html-keyboard-response","195","393559","0.0-21.0-2.27","0b862812-4eae-4433-9381-864ef3a2b073","null","<p style=""text-align: center;"">+</p>","null","fixation","","","","","","","","","","","","","","","","","","","","","","",""
"","","","","","html-slider-response","196","394565","0.0-21.0-0.28","0b862812-4eae-4433-9381-864ef3a2b073","1000","
                  <p style=""text-align: center;"">₪11
                                                <br>20%</p>
                  <p id=""wtp"" style=""text-align:center; margin-top: 0px; margin-bottom: 0px; font-size: 40px"";>&ensp;</p>","-","viewing","0","4","12C,17C,23C,28C","","","","","","","","","","","","","","","","","","","",""
"","","","","","html-slider-response","197","395860","0.0-21.0-1.28","0b862812-4eae-4433-9381-864ef3a2b073","1293","
                  <p style=""text-align: center;"">₪11
                                                <br>20%</p>
                  <p id=""wtp"" style=""text-align:center; margin-top: 0px; margin-bottom: 0px; font-size: 40px"";>מוכנים לשלם: <span id=""c_p_y""></span></p>","0","evaluation","20","4","12C,17C,23C,28C","20","11","1","","","","","","","","","","","","","","","","",""
"","","","","","html-keyboard-response","198","396786","0.0-21.0-2.28","0b862812-4eae-4433-9381-864ef3a2b073","null","<p style=""text-align: center;"">+</p>","null","fixation","","","","","","","","","","","","","","","","","","","","","","",""
"","","","","","html-slider-response","199","397801","0.0-21.0-0.29","0b862812-4eae-4433-9381-864ef3a2b073","1000","
                  <p style=""text-align: center;"">₪79
                                                <br>65%</p>
                  <p id=""wtp"" style=""text-align:center; margin-top: 0px; margin-bottom: 0px; font-size: 40px"";>&ensp;</p>","-","viewing","0","31","8A","","","","","","","","","","","","","","","","","","","",""
"","","","","","html-slider-response","200","401636","0.0-21.0-1.29","0b862812-4eae-4433-9381-864ef3a2b073","3833","
                  <p style=""text-align: center;"">₪79
                                                <br>65%</p>
                  <p id=""wtp"" style=""text-align:center; margin-top: 0px; margin-bottom: 0px; font-size: 40px"";>מוכנים לשלם: <span id=""c_p_y""></span></p>","45","evaluation","59","31","8A","65","79","45","","","","","","","","","","","","","","","","",""
"","","","","","html-keyboard-response","201","403134","0.0-21.0-2.29","0b862812-4eae-4433-9381-864ef3a2b073","null","<p style=""text-align: center;"">+</p>","null","fixation","","","","","","","","","","","","","","","","","","","","","","",""
"","","","","","html-slider-response","202","404136","0.0-21.0-0.30","0b862812-4eae-4433-9381-864ef3a2b073","1000","
                  <p style=""text-align: center;"">₪18
                                                <br>50%</p>
                  <p id=""wtp"" style=""text-align:center; margin-top: 0px; margin-bottom: 0px; font-size: 40px"";>&ensp;</p>","-","viewing","0","10","2C,16C,22B,28A","","","","","","","","","","","","","","","","","","","",""
"","","","","","html-slider-response","203","408141","0.0-21.0-1.30","0b862812-4eae-4433-9381-864ef3a2b073","null","
                  <p style=""text-align: center;"">₪18
                                                <br>50%</p>
                  <p id=""wtp"" style=""text-align:center; margin-top: 0px; margin-bottom: 0px; font-size: 40px"";>מוכנים לשלם: <span id=""c_p_y""></span></p>","null","evaluation","62","10","2C,16C,22B,28A","50","18","23","","","","","","","","","","","","","","","","",""
"","","","","","html-keyboard-response","204","409099","0.0-21.0-2.30","0b862812-4eae-4433-9381-864ef3a2b073","null","<p style=""text-align: center;"">+</p>","null","fixation","","","","","","","","","","","","","","","","","","","","","","",""
"","","","","","html-keyboard-response","205","410110","0.0-22.0","0b862812-4eae-4433-9381-864ef3a2b073","null","<p style=""text-align: center;"">+</p>","null","fixation","","","","","","","","","","","","","","","","","","","","","","",""
"","","","","","html-keyboard-response","206","412148","0.0-23.0","0b862812-4eae-4433-9381-864ef3a2b073","null","<p>הפסקה.
          <br>לחצו כדי להמשיך.</p>","1","scan_wait","","","","","","","","","","","","","","","","","","","","","","",""
"","","","","","html-keyboard-response","207","413161","0.0-24.0","0b862812-4eae-4433-9381-864ef3a2b073","null","<p style=""text-align: center;"">+</p>","null","fixation","","","","","","","","","","","","","","","","","","","","","","",""
"","","","","","html-slider-response","208","414164","0.0-25.0-0.0","0b862812-4eae-4433-9381-864ef3a2b073","1000","
                  <p style=""text-align: center;"">₪61
                                                <br>45%</p>
                  <p id=""wtp"" style=""text-align:center; margin-top: 0px; margin-bottom: 0px; font-size: 40px"";>&ensp;</p>","-","viewing","0","22","10A,11A","","","","","","","","","","","","","","","","","","","",""
"","","","","","html-slider-response","209","415484","0.0-25.0-1.0","0b862812-4eae-4433-9381-864ef3a2b073","1318","
                  <p style=""text-align: center;"">₪61
                                                <br>45%</p>
                  <p id=""wtp"" style=""text-align:center; margin-top: 0px; margin-bottom: 0px; font-size: 40px"";>מוכנים לשלם: <span id=""c_p_y""></span></p>","14","evaluation","56","22","10A,11A","45","61","14","","","","","","","","","","","","","","","","",""
"","","","","","html-keyboard-response","210","416091","0.0-25.0-2.0","0b862812-4eae-4433-9381-864ef3a2b073","null","<p style=""text-align: center;"">+</p>","null","fixation","","","","","","","","","","","","","","","","","","","","","","",""
"","","","","","html-slider-response","211","417106","0.0-25.0-0.1","0b862812-4eae-4433-9381-864ef3a2b073","1000","
                  <p style=""text-align: center;"">₪76
                                                <br>65%</p>
                  <p id=""wtp"" style=""text-align:center; margin-top: 0px; margin-bottom: 0px; font-size: 40px"";>&ensp;</p>","-","viewing","0","29","8C,19A,24B","","","","","","","","","","","","","","","","","","","",""
"","","","","","html-slider-response","212","417980","0.0-25.0-1.1","0b862812-4eae-4433-9381-864ef3a2b073","872","
                  <p style=""text-align: center;"">₪76
                                                <br>65%</p>
                  <p id=""wtp"" style=""text-align:center; margin-top: 0px; margin-bottom: 0px; font-size: 40px"";>מוכנים לשלם: <span id=""c_p_y""></span></p>","30","evaluation","36","29","8C,19A,24B","65","76","30","","","","","","","","","","","","","","","","",""
"","","","","","html-keyboard-response","213","418652","0.0-25.0-2.1","0b862812-4eae-4433-9381-864ef3a2b073","null","<p style=""text-align: center;"">+</p>","null","fixation","","","","","","","","","","","","","","","","","","","","","","",""
"","","","","","html-slider-response","214","419656","0.0-25.0-0.2","0b862812-4eae-4433-9381-864ef3a2b073","1000","
                  <p style=""text-align: center;"">₪58
                                                <br>45%</p>
                  <p id=""wtp"" style=""text-align:center; margin-top: 0px; margin-bottom: 0px; font-size: 40px"";>&ensp;</p>","-","viewing","0","21","11C,18C,25A","","","","","","","","","","","","","","","","","","","",""
"","","","","","html-slider-response","215","422156","0.0-25.0-1.2","0b862812-4eae-4433-9381-864ef3a2b073","2499","
                  <p style=""text-align: center;"">₪58
                                                <br>45%</p>
                  <p id=""wtp"" style=""text-align:center; margin-top: 0px; margin-bottom: 0px; font-size: 40px"";>מוכנים לשלם: <span id=""c_p_y""></span></p>","13","evaluation","17","21","11C,18C,25A","45","58","14","","","","","","","","","","","","","","","","",""
"","","","","","html-keyboard-response","216","422701","0.0-25.0-2.2","0b862812-4eae-4433-9381-864ef3a2b073","null","<p style=""text-align: center;"">+</p>","null","fixation","","","","","","","","","","","","","","","","","","","","","","",""
"","","","","","html-slider-response","217","423705","0.0-25.0-0.3","0b862812-4eae-4433-9381-864ef3a2b073","1000","
                  <p style=""text-align: center;"">₪64
                                                <br>25%</p>
                  <p id=""wtp"" style=""text-align:center; margin-top: 0px; margin-bottom: 0px; font-size: 40px"";>&ensp;</p>","-","viewing","0","24","6A,21A","","","","","","","","","","","","","","","","","","","",""
"","","","","","html-slider-response","218","424764","0.0-25.0-1.3","0b862812-4eae-4433-9381-864ef3a2b073","1057","
                  <p style=""text-align: center;"">₪64
                                                <br>25%</p>
                  <p id=""wtp"" style=""text-align:center; margin-top: 0px; margin-bottom: 0px; font-size: 40px"";>מוכנים לשלם: <span id=""c_p_y""></span></p>","6","evaluation","12","24","6A,21A","25","64","7","","","","","","","","","","","","","","","","",""
"","","","","","html-keyboard-response","219","425509","0.0-25.0-2.3","0b862812-4eae-4433-9381-864ef3a2b073","null","<p style=""text-align: center;"">+</p>","null","fixation","","","","","","","","","","","","","","","","","","","","","","",""
"","","","","","html-slider-response","220","426519","0.0-25.0-0.4","0b862812-4eae-4433-9381-864ef3a2b073","1000","
                  <p style=""text-align: center;"">₪11
                                                <br>75%</p>
                  <p id=""wtp"" style=""text-align:center; margin-top: 0px; margin-bottom: 0px; font-size: 40px"";>&ensp;</p>","-","viewing","0","7","6B,18B,22C,24C,29A","","","","","","","","","","","","","","","","","","","",""
"","","","","","html-slider-response","221","428284","0.0-25.0-1.4","0b862812-4eae-4433-9381-864ef3a2b073","1764","
                  <p style=""text-align: center;"">₪11
                                                <br>75%</p>
                  <p id=""wtp"" style=""text-align:center; margin-top: 0px; margin-bottom: 0px; font-size: 40px"";>מוכנים לשלם: <span id=""c_p_y""></span></p>","2","evaluation","2","7","6B,18B,22C,24C,29A","75","11","3","","","","","","","","","","","","","","","","",""
"","","","","","html-keyboard-response","222","429329","0.0-25.0-2.4","0b862812-4eae-4433-9381-864ef3a2b073","null","<p style=""text-align: center;"">+</p>","null","fixation","","","","","","","","","","","","","","","","","","","","","","",""
"","","","","","html-slider-response","223","430336","0.0-25.0-0.5","0b862812-4eae-4433-9381-864ef3a2b073","1000","
                  <p style=""text-align: center;"">₪43
                                                <br>60%</p>
                  <p id=""wtp"" style=""text-align:center; margin-top: 0px; margin-bottom: 0px; font-size: 40px"";>&ensp;</p>","-","viewing","0","17","2A,7A,9A,15B","","","","","","","","","","","","","","","","","","","",""
"","","","","","html-slider-response","224","432844","0.0-25.0-1.5","0b862812-4eae-4433-9381-864ef3a2b073","2507","
                  <p style=""text-align: center;"">₪43
                                                <br>60%</p>
                  <p id=""wtp"" style=""text-align:center; margin-top: 0px; margin-bottom: 0px; font-size: 40px"";>מוכנים לשלם: <span id=""c_p_y""></span></p>","21","evaluation","61","17","2A,7A,9A,15B","60","43","21","","","","","","","","","","","","","","","","",""
"","","","","","html-keyboard-response","225","434132","0.0-25.0-2.5","0b862812-4eae-4433-9381-864ef3a2b073","null","<p style=""text-align: center;"">+</p>","null","fixation","","","","","","","","","","","","","","","","","","","","","","",""
"","","","","","html-slider-response","226","435134","0.0-25.0-0.6","0b862812-4eae-4433-9381-864ef3a2b073","1000","
                  <p style=""text-align: center;"">₪79
                                                <br>40%</p>
                  <p id=""wtp"" style=""text-align:center; margin-top: 0px; margin-bottom: 0px; font-size: 40px"";>&ensp;</p>","-","viewing","0","30","9B","","","","","","","","","","","","","","","","","","","",""
"","","","","","html-slider-response","227","436164","0.0-25.0-1.6","0b862812-4eae-4433-9381-864ef3a2b073","1029","
                  <p style=""text-align: center;"">₪79
                                                <br>40%</p>
                  <p id=""wtp"" style=""text-align:center; margin-top: 0px; margin-bottom: 0px; font-size: 40px"";>מוכנים לשלם: <span id=""c_p_y""></span></p>","12","evaluation","45","30","9B","40","79","12","","","","","","","","","","","","","","","","",""
"","","","","","html-keyboard-response","228","436720","0.0-25.0-2.6","0b862812-4eae-4433-9381-864ef3a2b073","null","<p style=""text-align: center;"">+</p>","null","fixation","","","","","","","","","","","","","","","","","","","","","","",""
"","","","","","html-slider-response","229","437723","0.0-25.0-0.7","0b862812-4eae-4433-9381-864ef3a2b073","1000","
                  <p style=""text-align: center;"">₪71
                                                <br>55%</p>
                  <p id=""wtp"" style=""text-align:center; margin-top: 0px; margin-bottom: 0px; font-size: 40px"";>&ensp;</p>","-","viewing","0","27","5B,18A","","","","","","","","","","","","","","","","","","","",""
"","","","","","html-slider-response","230","439332","0.0-25.0-1.7","0b862812-4eae-4433-9381-864ef3a2b073","1608","
                  <p style=""text-align: center;"">₪71
                                                <br>55%</p>
                  <p id=""wtp"" style=""text-align:center; margin-top: 0px; margin-bottom: 0px; font-size: 40px"";>מוכנים לשלם: <span id=""c_p_y""></span></p>","23","evaluation","57","27","5B,18A","55","71","23","","","","","","","","","","","","","","","","",""
"","","","","","html-keyboard-response","231","440834","0.0-25.0-2.7","0b862812-4eae-4433-9381-864ef3a2b073","null","<p style=""text-align: center;"">+</p>","null","fixation","","","","","","","","","","","","","","","","","","","","","","",""
"","","","","","html-slider-response","232","441838","0.0-25.0-0.8","0b862812-4eae-4433-9381-864ef3a2b073","1000","
                  <p style=""text-align: center;"">₪39
                                                <br>60%</p>
                  <p id=""wtp"" style=""text-align:center; margin-top: 0px; margin-bottom: 0px; font-size: 40px"";>&ensp;</p>","-","viewing","0","15","9C,25B","","","","","","","","","","","","","","","","","","","",""
"","","","","","html-slider-response","233","443628","0.0-25.0-1.8","0b862812-4eae-4433-9381-864ef3a2b073","1788","
                  <p style=""text-align: center;"">₪39
                                                <br>60%</p>
                  <p id=""wtp"" style=""text-align:center; margin-top: 0px; margin-bottom: 0px; font-size: 40px"";>מוכנים לשלם: <span id=""c_p_y""></span></p>","13","evaluation","59","15","9C,25B","60","39","14","","","","","","","","","","","","","","","","",""
"","","","","","html-keyboard-response","234","444345","0.0-25.0-2.8","0b862812-4eae-4433-9381-864ef3a2b073","null","<p style=""text-align: center;"">+</p>","null","fixation","","","","","","","","","","","","","","","","","","","","","","",""
"","","","","","html-slider-response","235","445355","0.0-25.0-0.9","0b862812-4eae-4433-9381-864ef3a2b073","1000","
                  <p style=""text-align: center;"">₪43
                                                <br>75%</p>
                  <p id=""wtp"" style=""text-align:center; margin-top: 0px; margin-bottom: 0px; font-size: 40px"";>&ensp;</p>","-","viewing","0","18","11B,19B,24A,26A","","","","","","","","","","","","","","","","","","","",""
"","","","","","html-slider-response","236","449124","0.0-25.0-1.9","0b862812-4eae-4433-9381-864ef3a2b073","3768","
                  <p style=""text-align: center;"">₪43
                                                <br>75%</p>
                  <p id=""wtp"" style=""text-align:center; margin-top: 0px; margin-bottom: 0px; font-size: 40px"";>מוכנים לשלם: <span id=""c_p_y""></span></p>","21","evaluation","53","18","11B,19B,24A,26A","75","43","22","","","","","","","","","","","","","","","","",""
"","","","","","html-keyboard-response","237","449750","0.0-25.0-2.9","0b862812-4eae-4433-9381-864ef3a2b073","null","<p style=""text-align: center;"">+</p>","null","fixation","","","","","","","","","","","","","","","","","","","","","","",""
"","","","","","html-slider-response","238","450765","0.0-25.0-0.10","0b862812-4eae-4433-9381-864ef3a2b073","1000","
                  <p style=""text-align: center;"">₪18
                                                <br>25%</p>
                  <p id=""wtp"" style=""text-align:center; margin-top: 0px; margin-bottom: 0px; font-size: 40px"";>&ensp;</p>","-","viewing","0","9","14A,23A","","","","","","","","","","","","","","","","","","","",""
"","","","","","html-slider-response","239","453436","0.0-25.0-1.10","0b862812-4eae-4433-9381-864ef3a2b073","2670","
                  <p style=""text-align: center;"">₪18
                                                <br>25%</p>
                  <p id=""wtp"" style=""text-align:center; margin-top: 0px; margin-bottom: 0px; font-size: 40px"";>מוכנים לשלם: <span id=""c_p_y""></span></p>","14","evaluation","38","9","14A,23A","25","18","15","","","","","","","","","","","","","","","","",""
"","","","","","html-keyboard-response","240","454804","0.0-25.0-2.10","0b862812-4eae-4433-9381-864ef3a2b073","null","<p style=""text-align: center;"">+</p>","null","fixation","","","","","","","","","","","","","","","","","","","","","","",""
"","","","","","html-slider-response","241","455820","0.0-25.0-0.11","0b862812-4eae-4433-9381-864ef3a2b073","1000","
                  <p style=""text-align: center;"">₪36
                                                <br>60%</p>
                  <p id=""wtp"" style=""text-align:center; margin-top: 0px; margin-bottom: 0px; font-size: 40px"";>&ensp;</p>","-","viewing","0","12","1C,7C,15C","","","","","","","","","","","","","","","","","","","",""
"","","","","","html-slider-response","242","457396","0.0-25.0-1.11","0b862812-4eae-4433-9381-864ef3a2b073","1576","
                  <p style=""text-align: center;"">₪36
                                                <br>60%</p>
                  <p id=""wtp"" style=""text-align:center; margin-top: 0px; margin-bottom: 0px; font-size: 40px"";>מוכנים לשלם: <span id=""c_p_y""></span></p>","4","evaluation","58","12","1C,7C,15C","60","36","5","","","","","","","","","","","","","","","","",""
"","","","","","html-keyboard-response","243","458417","0.0-25.0-2.11","0b862812-4eae-4433-9381-864ef3a2b073","null","<p style=""text-align: center;"">+</p>","null","fixation","","","","","","","","","","","","","","","","","","","","","","",""
"","","","","","html-slider-response","244","459425","0.0-25.0-0.12","0b862812-4eae-4433-9381-864ef3a2b073","1000","
                  <p style=""text-align: center;"">₪58
                                                <br>30%</p>
                  <p id=""wtp"" style=""text-align:center; margin-top: 0px; margin-bottom: 0px; font-size: 40px"";>&ensp;</p>","-","viewing","0","19","13C,30A","","","","","","","","","","","","","","","","","","","",""
"","","","","","html-slider-response","245","461724","0.0-25.0-1.12","0b862812-4eae-4433-9381-864ef3a2b073","2298","
                  <p style=""text-align: center;"">₪58
                                                <br>30%</p>
                  <p id=""wtp"" style=""text-align:center; margin-top: 0px; margin-bottom: 0px; font-size: 40px"";>מוכנים לשלם: <span id=""c_p_y""></span></p>","11","evaluation","59","19","13C,30A","30","58","12","","","","","","","","","","","","","","","","",""
"","","","","","html-keyboard-response","246","463083","0.0-25.0-2.12","0b862812-4eae-4433-9381-864ef3a2b073","null","<p style=""text-align: center;"">+</p>","null","fixation","","","","","","","","","","","","","","","","","","","","","","",""
"","","","","","html-slider-response","247","464085","0.0-25.0-0.13","0b862812-4eae-4433-9381-864ef3a2b073","1000","
                  <p style=""text-align: center;"">₪4
                                                <br>25%</p>
                  <p id=""wtp"" style=""text-align:center; margin-top: 0px; margin-bottom: 0px; font-size: 40px"";>&ensp;</p>","-","viewing","0","1","6C,29B,30C","","","","","","","","","","","","","","","","","","","",""
"","","","","","html-slider-response","248","465604","0.0-25.0-1.13","0b862812-4eae-4433-9381-864ef3a2b073","1517","
                  <p style=""text-align: center;"">₪4
                                                <br>25%</p>
                  <p id=""wtp"" style=""text-align:center; margin-top: 0px; margin-bottom: 0px; font-size: 40px"";>מוכנים לשלם: <span id=""c_p_y""></span></p>","0","evaluation","60","1","6C,29B,30C","25","4","0","","","","","","","","","","","","","","","","",""
